timestamp,accel_x,accel_y,accel_z,gyro_x,gyro_y,gyro_z
1640836580899799808,0.053482280,-0.046703110,9.237835880,-0.003159050,0.034829980,0.010679660
1640836580900430080,-0.082453520,0.034479360,9.851193430,0.036671760,0.042466820,0.004482270
1640836580904679936,0.156804590,0.189234020,9.861835480,0.051093110,0.036486980,0.017289820
1640836580906099968,0.047626540,0.330835580,10.070577620,0.051684680,-0.014737250,0.015583630
1640836580909949952,-0.209244800,0.131179440,9.910616870,0.016377870,-0.052247950,0.024764240
1640836580910369792,-0.088281590,0.230518650,9.190349580,0.044302640,-0.026363130,0.022651260
1640836580914959872,-0.356653150,0.161914990,9.701948170,0.048872830,0.025801360,-0.007031860
1640836580916000000,-0.297235010,0.305306170,10.102600100,0.033712390,0.029225650,0.016258660
1640836580919680000,-0.161837950,0.462584050,9.944839480,0.040999060,-0.047761190,0.025178490
1640836580920159744,-0.107331270,0.115234280,9.771985050,0.022876260,-0.045487280,0.007529560
1640836580924749824,0.148745920,0.429079200,9.508095740,0.054405630,0.024487080,0.022700430
1640836580926400000,-0.178492040,0.438819650,10.232274060,0.046132500,-0.004240870,0.009821350
1640836580930330112,-0.046138720,0.325120180,10.041667940,-0.000762940,-0.067187870,0.016330190
1640836580930949888,0.276437940,0.441957920,9.192241670,0.030715760,-0.043183560,0.027538830
1640836580934840064,0.180816560,0.265711070,9.630314830,0.031717120,0.043150790,0.002543630
1640836580935469824,0.296566370,0.620300830,9.961587910,0.009338560,0.052955750,0.022453070
1640836580939839744,-0.039760880,0.405897440,10.191176410,-0.006347900,-0.039275000,0.025548040
1640836580940759808,-0.080855040,0.012556300,9.828804970,0.008288030,-0.083859270,0.012528900
1640836580945730048,0.025132220,0.311819080,9.079863550,0.064781310,-0.016438960,0.014418370
1640836580946449920,-0.219841480,0.165953310,9.457212450,0.001978870,0.040754670,0.005383790
1640836580950729728,0.139147390,0.142047930,9.849242210,-0.044590240,0.066101560,0.018884240
1640836580951429888,0.087063810,-0.029114600,10.023366930,0.032690170,0.042600930,0.001400710
1640836580954870016,-0.004457260,-0.273827310,10.073302270,0.091697280,-0.063210730,-0.009782610
1640836580955520000,0.145579840,0.145239060,9.250536920,0.088942050,-0.033564870,0.016798080
1640836580959689728,-0.041554510,-0.016583640,9.178300860,-0.013592840,0.031085320,0.003185870
1640836580960529920,0.123413880,-0.108472970,9.760660170,-0.018925960,0.071901080,0.005048510
1640836580964759808,0.102726020,0.040098240,9.791848180,0.107403110,0.076049570,-0.006057320
1640836580965240064,-0.003084230,0.067125510,10.023991580,0.147897020,-0.031146410,-0.014576320
1640836580969929984,-0.056055210,0.287632230,9.726202010,0.088357930,-0.018957260,0.009654460
1640836580971639808,-0.329239640,0.113136570,9.287275310,0.030657650,0.002013150,0.012654070
1640836580975729920,-0.255768480,-0.091842520,9.564103130,0.049020350,-0.002102550,0.006870930
1640836580976800000,-0.158696230,0.060185950,9.538969990,0.152270510,0.083619360,-0.010564920
1640836580979719936,-0.172892150,0.321546290,10.132809640,0.150749100,0.032347440,-0.029952830
1640836580980089856,-0.107398060,0.538990380,10.320171360,0.062328580,-0.030651690,-0.004798170
1640836580984759808,-0.162443560,0.429950000,9.519129750,0.027249750,-0.043310220,-0.002391640
1640836580985240064,-0.054995410,0.307720870,9.424838070,0.071460000,-0.027829400,-0.021059810
1640836580989949952,-0.150232810,0.445604890,9.739521980,0.143435610,0.057376920,-0.013408070
1640836580990659840,-0.133732840,0.553026680,9.851408960,0.112004590,-0.000655650,-0.005871060
1640836580994759936,0.132540120,0.563769640,9.934143070,0.032258040,-0.033643840,0.009989740
1640836580995200000,0.119106050,0.452094760,9.720410350,0.009000300,0.038813050,0.015412270
1640836580999759872,-0.000383510,0.373259100,10.169953350,0.039029110,0.000379980,-0.004610420
1640836581000289792,-0.217556580,0.406703350,10.145822530,0.087599480,-0.051561010,-0.013868510
1640836581004839936,-0.097082030,0.466838840,9.245441440,0.072975460,-0.047540670,-0.010322040
1640836581006259968,0.031345010,0.628604350,9.387777330,-0.012898450,0.024448340,-0.007255380
1640836581010409728,-0.048681550,0.598971250,9.893175130,-0.055307160,0.078305620,0.010013580
1640836581011089920,0.204364780,0.367019740,10.063074110,-0.000397860,-0.003460050,0.007270280
1640836581014659840,0.113058600,0.119907950,10.111573220,0.085608660,-0.026227540,-0.002987680
1640836581014959872,0.052284050,0.131543530,9.531365390,0.092668850,-0.012129550,0.005805490
1640836581019689984,-0.007736900,0.237749520,9.430085180,-0.027629730,-0.025041400,0.009194020
1640836581021309952,0.003100270,0.001187990,9.397263530,-0.091505040,0.045889610,0.013601780
1640836581024859904,0.277975200,-0.120379870,9.466972350,0.006850060,0.060722240,-0.012068450
1640836581025699840,0.061627430,-0.093439040,10.227025990,0.137721000,0.040987140,-0.029635430
1640836581029729792,0.019256620,0.159096000,9.825994490,0.127330390,-0.007434190,-0.013822320
1640836581030169856,-0.108814150,0.210932080,9.595078470,-0.000907480,-0.063280770,0.003886220
1640836581034960128,-0.222257780,-0.043429070,9.307339670,-0.054867570,0.016358500,-0.010712440
1640836581035449856,-0.021063180,0.115567780,9.181372640,0.058235230,0.049249830,-0.024010240
1640836581039959808,-0.225886540,0.241642790,10.076977730,0.146929930,0.061075400,-0.043167180
1640836581040849920,-0.063737790,0.445018800,10.001537320,0.105948750,0.018532570,-0.025178490
1640836581044729856,-0.061470430,0.393271360,9.891216280,0.027972460,-0.051681690,-0.002649430
1640836581045120000,-0.206601800,0.043200620,9.536366460,0.007063150,-0.012262170,-0.004507600
1640836581049649920,0.013674610,0.126629550,9.269169810,0.087659070,0.025664270,-0.019051140
1640836581050040064,-0.210116850,0.196818380,10.092158320,0.120219600,0.043645500,-0.036826730
1640836581054880000,-0.016931780,0.289881380,9.984200480,0.067147610,0.000895560,-0.024178620
1640836581056630016,0.146566270,0.385340300,9.697759630,0.046457350,-0.024692710,-0.022910540
1640836581063010048,-0.220705640,0.266234100,9.933347700,0.027474760,-0.001706180,-0.030206150
1640836581063399936,-0.126251560,0.578383090,9.711951260,0.053216520,-0.016935170,-0.022618470
1640836581064739840,-0.361070220,0.629860880,9.840059280,0.054274500,-0.041005020,-0.025632980
1640836581065100032,-0.134041030,0.462331710,9.586092950,0.025543570,-0.006756190,-0.023294990
1640836581070400000,0.195685540,0.664222960,9.567169190,0.045579680,0.040601200,-0.026904050
1640836581071069952,-0.083792990,0.556198540,10.317355160,-0.003547970,0.022046270,-0.028836730
1640836581075749888,0.231336010,0.516776260,9.918293000,-0.034604970,-0.031822920,-0.016765290
1640836581076239872,0.023929800,0.227603080,9.647586820,0.020565090,-0.066511340,-0.024983290
1640836581079629824,-0.061582590,0.000966930,9.369606970,0.049088900,-0.043807920,-0.026497240
1640836581079969792,0.239985200,0.363404180,9.042901990,0.026920440,0.041170420,-0.019766390
1640836581084999936,-0.017150300,0.077938330,9.989198680,-0.062778580,0.076353560,-0.013293330
1640836581086239744,0.249194920,-0.211245030,10.284534450,-0.016026200,0.028468670,-0.020051000
1640836581089839872,0.049398630,-0.149749130,9.966007230,0.118720550,-0.037464500,-0.049085920
1640836581092199936,-0.239303220,0.085546040,9.459897990,0.082354250,-0.083465870,-0.044827170
1640836581094660096,0.016328190,0.404088560,8.900216100,-0.032788510,0.008104740,-0.031420580
1640836581095000064,-0.157784220,0.176741150,9.423495290,-0.076684360,0.081633020,-0.055649880
1640836581099809792,0.014326790,0.208963620,10.121996880,0.044985120,0.046460330,-0.047104050
1640836581100440064,0.170087830,0.272028270,9.853580470,0.168801860,-0.001931190,-0.043959920
1640836581104930048,-0.052667860,0.272585930,9.815446850,0.079266730,-0.038120150,-0.045096870
1640836581105779968,0.009338330,0.236109780,9.587690350,-0.025711960,-0.012663010,-0.012212990
1640836581109699840,-0.128470270,-0.290117350,9.261592860,-0.015252830,0.013662880,-0.043895840
1640836581110070016,-0.050310210,-0.208439680,9.701090810,0.092403600,0.009664890,-0.064550340
1640836581114660096,-0.012649430,0.136296000,9.851184840,0.160224720,0.063456580,-0.071461490
1640836581114980096,-0.283953610,0.313478980,10.186309810,0.050841270,-0.033326450,-0.060158970
1640836581119899904,-0.191301240,0.463899370,9.977108960,-0.025355820,-0.075851400,-0.043325130
1640836581121329920,-0.131658260,0.401576130,9.156114580,0.012172760,-0.002835690,-0.044429300
1640836581124790016,-0.111950870,0.508494970,9.834466930,0.081463170,0.036087630,-0.058181590
1640836581125229824,-0.080795550,0.897707880,10.244258880,0.096277890,0.041139130,-0.038498640
1640836581129669888,0.125613720,0.758318840,9.754738810,0.001281500,-0.055441270,-0.029407440
1640836581130060032,0.274222280,0.523075460,9.735340120,-0.038835410,-0.029817220,-0.026784840
1640836581135099904,0.106327470,0.449599000,9.589280130,-0.008903440,0.034752490,-0.044707960
1640836581136129792,-0.139335750,0.318994220,10.078302380,0.012293460,-0.040288270,-0.044600670
1640836581139809792,-0.094026520,0.317480470,9.814373020,0.022573770,-0.036959350,-0.038880110
1640836581140460032,0.085451360,0.288259510,9.181454660,-0.023837390,0.015287100,-0.047676260
1640836581144669952,0.001745530,0.363610270,10.136506080,-0.068058080,0.052815680,-0.030094390
1640836581144999936,-0.089009110,0.301199590,10.149215700,-0.038135060,0.023649630,-0.020359460
1640836581149669888,-0.005169080,0.102316790,9.800866130,-0.004382430,-0.097790360,-0.028473140
1640836581150029824,-0.008455040,0.269833680,9.357590680,0.033544010,-0.013743340,-0.021779540
1640836581154789888,0.203480850,0.364296020,8.921670910,-0.027602910,0.055576850,-0.023581090
1640836581155439872,0.252887610,0.257922350,10.100301740,-0.092931100,0.061030690,-0.027099250
1640836581159659776,0.307548140,0.178814010,9.971446990,-0.036732850,0.072854760,-0.043603780
1640836581160029952,0.302482690,0.035992580,9.740777020,0.042518980,-0.057268150,-0.054024160
1640836581164699904,-0.049448910,0.010973270,9.675180440,0.059825190,-0.010351840,-0.036767130
1640836581165079808,-0.167460110,0.066108540,9.014378550,-0.021664800,0.010576840,-0.041548910
1640836581169669888,-0.279405420,-0.244026090,9.785619740,-0.066249080,0.015275180,-0.041614480
1640836581170070016,-0.261982620,-0.263689820,9.590129850,0.023877620,0.090819600,-0.053499640
1640836581175779840,-0.103372790,-0.082022280,9.742134090,0.107659400,-0.002577900,-0.068356100
1640836581176229888,-0.201748180,0.130928200,10.185454370,0.069558620,0.016410650,-0.047943000
1640836581179709952,-0.090148780,0.378834250,9.461509700,-0.010530650,-0.009399650,-0.036218760
1640836581180120064,-0.005109000,0.234920110,9.619833950,-0.023014840,-0.045180320,-0.034913410
1640836581184779776,0.136502430,0.273090240,9.343050000,0.051850080,0.081974280,-0.047703090
1640836581185189888,0.207209620,0.484793370,9.894503590,0.108698030,0.040635470,-0.065852700
1640836581189760000,-0.093090380,0.448065010,10.538949010,0.051596770,-0.023935740,-0.057438020
1640836581191340032,0.018340930,0.446551380,9.261718750,-0.015555320,-0.069990750,-0.041581690
1640836581194769920,-0.157867300,0.228501160,9.473915100,-0.019243360,-0.034520020,-0.051178030
1640836581195249920,-0.390658440,0.170195120,9.879322050,0.027750430,0.078253460,-0.061105200
1640836581199929856,-0.414955110,0.392517210,10.124269490,0.080956530,-0.038592520,-0.053505600
1640836581201499904,-0.256475090,0.293721410,10.061984060,0.026884670,-0.056487330,-0.038756420
1640836581204879872,0.198652250,0.423148630,9.103248600,-0.017870960,0.018002090,-0.033494830
1640836581205509888,0.097671570,0.483184220,10.023386000,-0.017775600,0.012734530,-0.038921830
1640836581209659904,0.149550740,0.368855600,10.060526850,-0.016002360,0.013051930,-0.035385790
1640836581209979904,0.349796530,0.401442020,9.532292370,0.049676000,-0.065086770,-0.042280550
1640836581214839808,0.254896610,0.223443000,9.661954880,0.054869060,-0.018492340,-0.057627260
1640836581215950080,0.377829970,0.523281100,9.095882420,-0.024457280,0.060428680,-0.046041610
1640836581220219904,0.090219530,0.497296810,9.946747780,-0.079783800,0.017225740,-0.037364670
1640836581220979968,0.036851530,-0.031960240,10.048686980,-0.048343840,0.034864250,-0.045859820
1640836581224709888,-0.079381300,-0.050467870,9.619307520,0.106011320,-0.027720630,-0.054521850
1640836581225070080,-0.442332030,-0.039541210,9.693428990,0.106073920,-0.053361060,-0.060170890
1640836581229649920,-0.165119510,0.049666490,8.950140950,-0.039164730,0.033150610,-0.048086050
1640836581230089984,-0.229596760,0.013099200,9.712163930,-0.071908540,0.060540450,-0.056183350
1640836581234809856,0.004278970,-0.193518890,10.076272010,0.007991490,0.053898990,-0.070001180
1640836581235329792,0.290980820,0.108957490,9.621018410,0.159035590,-0.013759730,-0.067785370
1640836581239790080,0.078700520,0.290572380,9.862401010,0.113815080,-0.020959970,-0.065511470
1640836581240779776,0.259721790,0.309514110,9.318980220,-0.024436420,0.029861930,-0.039997700
1640836581244779776,0.010247480,0.244659860,9.583497050,-0.019940740,0.010052320,-0.061835350
1640836581245299712,-0.024241380,0.047968750,9.736577030,0.054501000,0.036616620,-0.075262780
1640836581250079744,-0.006456550,0.293321790,9.684121130,0.154477370,0.019115210,-0.086605560
1640836581250659840,-0.405874340,0.566714700,10.105183600,0.083573150,-0.013653930,-0.089716920
1640836581254949888,-0.217620940,0.477949680,9.551671030,-0.058168170,-0.030441590,-0.058221820
1640836581255569920,-0.288618680,0.216024910,9.699056630,0.001795590,0.010062750,-0.068922340
1640836581259729920,-0.328008170,0.225228310,10.057832720,0.089406970,0.017860530,-0.088250640
1640836581260209920,-0.052426710,0.595564540,9.750745770,0.102110210,-0.016029180,-0.065395240
1640836581264740096,0.010040070,0.625316980,9.679462430,0.014424320,-0.014336410,-0.052478910
1640836581265240064,0.438590530,0.501402680,9.323012350,-0.065752870,0.016650560,-0.040881340
1640836581270429952,0.392351570,0.428832050,9.885285380,0.012722610,0.054544210,-0.056582690
1640836581271299840,0.141136300,0.363793160,10.237719540,0.049094860,-0.006261470,-0.060032320
1640836581274689792,0.190242620,0.434337290,9.664215090,0.049936770,-0.071598600,-0.053925820
1640836581275189760,-0.013424420,0.347704170,9.398303990,0.002399090,-0.007987020,-0.066711020
1640836581279769856,-0.050065640,0.408240680,9.457284930,-0.076992820,0.054426490,-0.056698920
1640836581280379904,-0.094841030,0.269979330,9.786328320,-0.021399560,0.050801040,-0.054354980
1640836581284719872,-0.046733400,0.053877770,9.872035980,0.040212270,0.015953190,-0.067302570
1640836581285049856,-0.066118910,0.176991520,9.707791330,0.086791810,-0.014521180,-0.041173400
1640836581289919744,-0.152214500,0.185603040,9.473754880,0.021086640,-0.017312170,-0.027619300
1640836581290819840,0.020865630,0.031022440,9.405651090,-0.084315240,0.019982460,-0.036975750
1640836581295429888,0.068072240,-0.065453250,9.752626420,-0.001657010,0.077944990,-0.053335720
1640836581296089856,0.258537440,-0.060929010,9.736529350,0.089912120,0.039158760,-0.088603800
1640836581299799808,0.173430710,0.210201000,9.857609750,0.103266540,0.008042160,-0.067406890
1640836581300509952,0.017893890,0.404486630,9.498803140,0.019381940,0.002618130,-0.049971050
1640836581305449984,-0.043463910,0.127741080,9.496888160,-0.058184560,-0.014416870,-0.045675040
1640836581306180096,-0.283450390,0.019838930,9.567301750,0.040775550,0.041034830,-0.052289670
1640836581309659904,-0.150455610,0.123479150,9.553083420,0.125616760,0.030505660,-0.078846500
1640836581310040064,-0.256673400,0.369725020,10.130503650,0.099970420,0.028070810,-0.067135690
1640836581314699776,-0.312157690,0.602278650,9.867713930,-0.008209050,0.009420520,-0.056901570
1640836581315069952,-0.145713020,0.400034280,9.766021730,-0.058473650,-0.045961130,-0.046712150
1640836581320059904,-0.245156440,0.253520100,9.693379400,0.053925800,0.010234120,-0.054836270
1640836581321149952,-0.082796280,0.481817450,9.531458850,0.124423220,0.010330980,-0.082452620
1640836581324659712,-0.043315940,0.650808330,10.045344350,0.043542680,0.002153220,-0.051829220
1640836581325049856,0.116071520,0.544312660,9.752813340,-0.049181290,0.006471580,-0.034807620
1640836581329759744,0.363759700,0.467089300,9.804593090,-0.061069440,-0.021635000,-0.057172790
1640836581330189824,0.138260100,0.438400090,9.917022710,0.014908610,0.034701830,-0.056910510
1640836581334779904,0.085599520,0.444320830,9.684206960,0.053836410,-0.018848480,-0.055584310
1640836581335259904,-0.128883380,0.335481080,9.963893890,0.010222200,-0.044652820,-0.061500080
1640836581339799808,-0.128533680,0.296369520,9.305148120,-0.032170120,0.004611910,-0.035130980
1640836581341120000,-0.005769810,0.399464850,9.420776370,-0.071322920,0.009769200,-0.038188700
1640836581344749824,-0.034839700,0.204771670,9.972908020,-0.062504420,0.083123160,-0.039821870
1640836581345139968,0.111239900,0.165415440,9.988922120,0.026243930,0.016434490,-0.046020750
1640836581349639936,-0.008580490,0.157656210,10.075913430,0.067327920,-0.063431270,-0.055304170
1640836581349959936,0.098912860,0.256488410,9.001300810,-0.006131830,0.001215930,-0.042605400
1640836581354879744,0.039879230,0.177155930,9.372505190,-0.082649290,0.016309320,-0.043676790
1640836581355670016,0.037190920,0.031955850,9.771187780,-0.068938720,0.078490380,-0.052276250
1640836581359889920,0.172711640,0.137459950,9.667654990,0.046123560,0.028531250,-0.054065890
1640836581360529920,-0.044383710,0.139650240,10.175076480,0.077177580,0.000555810,-0.051206360
1640836581364679936,0.041913770,0.186866490,9.597168920,0.010038910,0.029426810,-0.032968810
1640836581365120000,-0.274290230,0.071691130,9.981883050,-0.027576090,-0.029073660,-0.032740830
1640836581369859840,-0.341380240,-0.028806900,9.563226700,-0.029233100,0.009618700,-0.040088590
1640836581370509824,-0.166290700,0.169177790,9.187695500,0.049686440,0.014458600,-0.073948500
1640836581374739968,-0.422249880,0.394823670,10.171726230,0.060807180,0.036959360,-0.079138590
1640836581375379968,-0.226646710,0.685441970,9.853662490,-0.006005170,-0.005914270,-0.053735080
1640836581379719936,-0.109705460,0.551722290,9.819330220,-0.029212230,-0.076411670,-0.044156600
1640836581380139776,-0.040408150,0.351377960,9.850542070,-0.021725890,0.029379130,-0.047318640
1640836581384989952,0.073685320,0.573058190,9.881364820,0.044555950,0.024555630,-0.049486760
1640836581386289920,-0.188301010,0.515841010,10.434913640,0.008645650,-0.059804320,-0.038895010
1640836581389819904,0.220223340,0.519364770,9.318354610,-0.063778450,-0.049270690,-0.023974480
1640836581390309888,0.174886080,0.396340730,9.400478360,-0.045940290,-0.014457110,-0.041976570
1640836581394739968,-0.117231240,0.378875790,10.173292160,-0.055994100,0.054079300,-0.046373910
1640836581395119872,-0.107042000,0.613133670,10.017640110,-0.023649630,-0.046646600,-0.041449070
1640836581399819776,-0.342834710,0.438846650,10.212106700,-0.040999060,-0.104120370,-0.049357120
1640836581400430080,-0.092843850,0.575545850,9.290515900,-0.080174190,-0.012230870,-0.025945900
1640836581404790016,-0.072266860,0.648120880,9.504105570,-0.086641310,0.011909010,-0.032669310
1640836581405280000,0.042895600,0.339513810,10.097212790,-0.115090610,0.052720310,-0.021244590
1640836581409689856,0.286272320,0.362685380,9.729254720,-0.035713610,-0.011119250,-0.018680100
1640836581410209792,0.074880260,0.103791020,9.955409050,-0.022508200,-0.083953130,-0.039644540
1640836581414729728,0.224876540,0.173375650,9.349435810,-0.089275840,-0.015898050,-0.018003580
1640836581415160064,0.028819810,0.103537570,9.483963010,-0.114032630,0.002172590,-0.027179720
1640836581419719936,0.074250330,-0.230808020,10.049349780,-0.105051680,0.045990950,-0.051863490
1640836581420549888,0.084582190,0.140844080,9.807558060,-0.005243720,0.029495360,-0.036065280
1640836581424849920,-0.138261910,0.060525260,9.771978380,-0.006888810,-0.045749540,-0.039719040
1640836581426179840,-0.104448080,0.150494340,9.652115820,-0.076481700,-0.009487570,-0.013993680
1640836581429669888,-0.358618530,0.144913970,9.439606670,-0.073623660,-0.017578900,-0.013133890
1640836581430119936,-0.157416280,-0.058343330,9.562395100,-0.055682670,-0.029964750,-0.031077870
1640836581434729728,0.090448290,0.240079220,9.648740770,0.010949370,0.082997960,-0.033825640
1640836581435749888,-0.014716660,0.395079760,10.196614270,-0.019726160,0.028008230,-0.043794520
1640836581440889856,0.044815500,0.345676330,10.451631550,-0.055773560,-0.064462420,-0.019219520
1640836581441570048,-0.037883810,0.363418520,9.304982190,-0.044907620,-0.077959880,-0.013816360
1640836581444720128,-0.107687800,0.292802130,9.215749740,-0.040555000,-0.051282350,-0.026315450
1640836581445080064,-0.194239050,0.360622640,9.817692760,-0.015965110,0.072976950,-0.022454560
1640836581449659904,-0.359716420,0.340298180,10.190904620,-0.029855970,-0.018063190,-0.025311110
1640836581450279936,-0.123477590,0.414897650,10.268333440,-0.044481460,-0.096283860,-0.021721420
1640836581454889984,0.024172320,0.477764370,9.552043910,-0.065052510,-0.005812940,-0.019168850
1640836581455849984,-0.158404890,0.499896110,10.003598210,-0.092151770,-0.012740490,-0.025631490
1640836581459699968,-0.156031640,0.548433960,10.185124400,-0.061637160,-0.029924510,-0.011293590
1640836581460219904,-0.007990060,0.442947860,9.437654500,-0.050683330,-0.077338540,-0.014239550
1640836581464699904,0.078591320,0.615703460,9.628985400,-0.057560220,-0.042171780,-0.011144580
1640836581465109760,0.174312070,0.786107600,9.605444910,-0.122860080,0.038947170,0.013999640
1640836581469979904,0.190503140,0.538637460,10.049800870,-0.173918870,-0.031459340,0.006690620
1640836581470719744,0.110619020,0.306171180,10.296352390,-0.090759990,-0.009877980,0.001035630
1640836581476229888,0.053901400,0.217813860,9.655816080,-0.025929510,-0.059415400,-0.005175170
1640836581476729856,-0.216353710,0.275896880,9.777143480,-0.069171190,-0.083044180,-0.005811450
1640836581479620096,0.003373160,0.397857190,9.081730840,-0.189182180,0.023373960,0.011663140
1640836581479949824,0.099400490,-0.048386580,9.678591730,-0.196002420,0.026911500,0.006000700
1640836581485280000,0.014708860,-0.146424370,10.347055440,-0.042384860,0.055849560,-0.001910330
1640836581486219776,0.179135190,0.188113240,9.745918270,0.016550720,-0.053925820,-0.006802380
1640836581491719936,-0.074095300,0.082251590,9.958780290,-0.079043210,-0.078310080,0.022004540
1640836581492139776,0.187680350,0.144745310,9.073232650,-0.176550430,0.028100610,0.023974470
1640836581494700032,0.107073720,0.077202880,9.510072710,-0.132747010,0.022315980,0.000070040
1640836581495139840,0.032247730,0.017906570,10.099084850,-0.026880210,0.067679590,-0.006140770
1640836581499769856,0.202585550,0.271998610,9.800473210,0.025065250,-0.006628040,-0.009018180
1640836581500320000,-0.267023210,0.072080670,10.260952000,-0.035046040,-0.054359440,-0.000366570
1640836581504959744,-0.174532790,0.162646640,9.317543030,-0.109855820,-0.028523800,0.025935470
1640836581506019840,-0.329710420,-0.023743010,9.436206820,-0.099955510,-0.012595950,0.008602440
1640836581509689856,-0.315200060,-0.052636380,9.970498090,-0.028403110,0.056667630,-0.008633730
1640836581510059776,-0.097106200,0.364425540,9.979166980,0.035570560,0.003613530,-0.010420380
1640836581514700032,-0.207562980,0.351336750,10.131731990,-0.025971230,-0.053156920,-0.001230840
1640836581515120128,0.177642490,0.473301590,9.531921390,-0.100396560,-0.023190680,0.023892520
1640836581519919872,-0.052747110,0.482166650,10.050532340,-0.086408850,0.000719730,0.017452240
1640836581520890112,-0.235219670,0.432684930,10.286975860,-0.058954950,-0.034092370,0.008745490
1640836581524750080,0.041497880,0.639203430,9.557998660,-0.005236270,-0.082227590,0.028137860
1640836581525219840,-0.047317230,0.548579570,9.579059600,-0.056950750,-0.015769900,0.009232760
1640836581529700096,0.130628530,0.754755800,9.856753350,-0.141301770,0.039337580,0.032967330
1640836581530099968,-0.050114540,0.472243190,10.451023100,-0.136755410,-0.032922630,0.034502150
1640836581535040000,-0.094946120,0.153874430,10.026048660,-0.078918040,-0.091680890,0.017645960
1640836581535899904,0.172462840,0.418056790,9.422868730,-0.007952750,-0.047658380,0.017701090
1640836581539840000,-0.176188560,0.417322340,9.915519710,-0.111579900,0.030922890,0.028854610
1640836581540499968,0.104406250,0.468688520,9.931375500,-0.203970040,-0.016392760,0.056579710
1640836581544689920,0.333868830,0.144691170,9.785654070,-0.145418960,-0.009919700,0.035649540
1640836581545110016,0.234013710,0.100208090,9.746850970,-0.052334360,0.010341410,0.029787420
1640836581549669888,0.187581700,0.361314120,9.874762540,-0.017489490,-0.031140450,0.039641560
1640836581550050048,-0.006176570,0.139546420,9.827500340,-0.139284150,-0.037358700,0.046473740
1640836581554880000,0.085260120,-0.014286220,9.522474290,-0.170265150,-0.024670360,0.050182650
1640836581555539968,0.209284320,-0.061531100,9.514841080,-0.086250910,0.064232930,0.022631880
1640836581559689984,0.126968120,0.020217990,9.981492040,-0.040572880,0.076547270,0.020943580
1640836581560119808,-0.049355980,0.088854910,10.444275860,-0.013311210,-0.006207830,0.033406910
1640836581564679936,0.000183840,-0.011334990,9.616313930,-0.069843240,-0.072637200,0.029629470
1640836581565039872,-0.196697060,-0.113701200,9.238674160,-0.081302230,-0.038474800,0.050152840
1640836581569720064,-0.039442900,-0.142228950,9.201658250,-0.039269030,0.093688070,0.030897560
1640836581570809856,-0.080699730,-0.148206920,10.242770200,-0.010757150,0.076290970,0.006645920
1640836581575259904,-0.175915660,0.201329800,10.506510730,0.024026630,-0.014573340,0.035899880
1640836581575719936,0.184094760,0.229018790,9.409721370,-0.035588440,-0.067844980,0.033336880
1640836581579660032,-0.078683760,0.151083750,9.679891590,-0.055611140,0.008548800,0.043426460
1640836581580039936,-0.174307610,0.262851180,9.747558590,-0.004167860,0.047259040,0.029480460
1640836581584930048,-0.151575030,0.270692500,9.997292520,0.024284430,-0.033254920,0.013104080
1640836581585629952,-0.140678640,0.523424510,9.750967980,0.005458290,-0.002828240,0.029484930
1640836581590870016,0.159401000,0.648883160,9.673412320,-0.057733050,0.036980220,0.033360720
1640836581591259904,-0.150729050,0.456307170,10.680206300,-0.081184500,0.020575520,0.036656850
1640836581594720000,-0.155122440,0.413021210,10.085612300,-0.018230080,-0.057196620,0.039348010
1640836581595160064,-0.004087180,0.372174200,9.456952100,0.018000600,-0.091755400,0.034184760
1640836581600369920,-0.032011910,0.384360880,9.500371930,-0.034996880,0.068499150,0.038686410
1640836581600920064,0.039155800,0.635172960,9.979499820,-0.114338090,0.054663420,0.063881260
1640836581604780032,0.029105810,0.271788600,10.529642110,-0.126072780,-0.041195740,0.054118040
1640836581605319936,0.301980380,0.186888840,9.498431210,-0.030639770,-0.024770200,0.041021400
1640836581609659904,0.248520900,0.410338970,9.698817250,0.016519430,0.011628870,0.036004190
1640836581610089984,-0.145715880,0.410275730,10.271196370,-0.067611040,0.046393280,0.051017110
1640836581614820096,-0.001424840,0.493280260,9.775538440,-0.141304750,-0.063332900,0.073586410
1640836581616179968,0.091097150,0.121599850,9.571679120,-0.120478870,-0.016818940,0.058998170
1640836581620049920,0.223136320,0.178443280,9.320152280,-0.033952290,0.103726990,0.047399100
1640836581620719872,0.114040260,0.249585510,10.208230020,0.013799970,0.049011410,0.053818520
1640836581624669952,0.058883660,-0.047947110,10.298325540,-0.066608190,0.021249060,0.059607630
1640836581625019904,0.123393430,-0.181727800,9.652994160,-0.062045460,-0.048995020,0.070989130
1640836581629649920,-0.045733010,-0.332235960,9.524874690,-0.037232050,0.000238420,0.041483350
1640836581630050048,0.118598740,-0.057484640,9.245926860,-0.042073430,0.086610030,0.023165350
1640836581634789888,-0.090055200,0.074707340,10.161116600,-0.008198620,0.074471530,0.020174680
1640836581635350016,-0.067452420,0.091033140,10.165264130,-0.018508730,0.014223160,0.026243930
1640836581639739904,0.056153320,0.316982210,9.529109000,0.015991930,-0.033669170,0.048123300
1640836581641199872,-0.156064530,0.183624970,9.666325570,-0.002251570,0.043450300,0.050380830
1640836581644679936,-0.132335380,0.207076400,9.861660000,-0.023937230,0.055940450,0.048248470
1640836581645030144,-0.160736220,0.167863130,10.037471770,0.017596780,0.021581350,0.039790570
1640836581649760000,0.033165590,0.043898990,9.688890460,0.017617640,0.015620890,0.040523710
1640836581650230016,0.151433020,0.204273520,9.690262790,0.038646150,0.054453310,0.041736660
1640836581654850048,-0.102341900,0.278253560,10.206408500,-0.009113550,0.040048360,0.028435890
1640836581655599872,-0.074592690,0.393024270,10.060138700,-0.050164770,-0.029413410,0.038246820
1640836581659709952,-0.047815710,0.317265990,9.617425920,0.012086330,0.002820790,0.031833350
1640836581660140032,0.004305300,0.453826610,9.775270460,0.025983150,0.059355790,0.029818710
1640836581664759808,-0.084572260,0.727691110,10.274599080,0.011463460,0.047191980,0.054076310
1640836581665329920,-0.058671930,0.636633460,9.925420760,-0.055083640,-0.017598270,0.068171320
1640836581670029824,0.151757880,0.482792080,9.566913600,-0.082495820,-0.016276540,0.061279540
1640836581671160064,0.071021800,0.284352000,9.676870350,-0.001236800,0.074152650,0.054076320
1640836581674789888,0.001921420,0.223075880,10.136061670,0.011752540,0.030444560,0.040562450
1640836581675289856,0.034637690,0.291358380,10.141732220,-0.028070810,-0.009578470,0.053085390
1640836581679679744,0.264624120,0.124182720,9.411914830,-0.071936830,0.030420720,0.050522380
1640836581680320000,0.285368320,0.097661640,9.734096530,-0.076955550,0.067804760,0.040867920
1640836581684729856,0.069911160,0.097255950,9.934501650,-0.004014370,0.090432170,0.048068160
1640836581685420032,0.049816060,-0.087659130,9.960557940,0.016777220,-0.014422840,0.040923070
1640836581689730048,-0.157838720,-0.048796270,9.770350460,0.025318560,-0.018756090,0.039057440
1640836581690199808,0.070724120,0.114540940,8.980081560,-0.019612910,0.059106960,0.044985120
1640836581694799872,0.011199110,0.059223650,9.956933980,-0.075356670,0.118073840,0.039799520
1640836581696019968,-0.123373880,0.075073620,10.383121490,-0.013127920,0.092442340,0.028014190
1640836581699729920,0.137698780,-0.029970230,9.813851360,0.091630220,-0.039921700,0.023309890
1640836581700470016,-0.077640220,-0.000586290,9.546880720,0.101263830,0.009949510,0.035415590
1640836581704869888,-0.060101040,0.131884980,9.128568650,0.009760260,0.069230790,0.050474710
1640836581705539840,-0.128913130,-0.129825490,10.138353350,-0.043289370,0.058564540,0.036859510
1640836581709709824,-0.083130080,-0.130836800,10.029340740,0.026249890,0.068375480,0.023373970
1640836581710199808,0.172459200,0.046836220,9.660415650,0.137367840,0.009463730,0.010810790
1640836581714700032,-0.034349740,0.225337180,10.048274990,0.106808550,0.065246220,0.011225050
1640836581715159808,-0.147911010,0.628765580,9.699676510,0.009927150,0.028203430,0.031830370
1640836581719800064,-0.273942800,0.444463580,9.931328770,-0.036127870,-0.033126780,0.026965140
1640836581720599808,-0.217405330,0.359170620,9.489837650,0.009191040,0.032818320,0.013677780
1640836581724720128,-0.076666680,0.582609420,9.700544360,0.124265250,0.049334770,0.000807640
1640836581725090048,-0.198109030,0.653977750,10.458979610,0.063237550,0.073395680,0.010198360
1640836581729679872,0.192379220,0.748203160,9.818722720,-0.067231070,0.001117590,0.042903430
1640836581730159872,0.263163830,0.270035330,9.924433710,-0.065475710,0.021040440,0.036565960
1640836581734850048,0.148506020,0.039112930,9.897734640,0.016535820,0.073222820,0.009359420
1640836581735289856,0.042225810,0.318392160,9.794260980,0.093621020,-0.015424190,0.014670190
1640836581740859904,-0.051324580,0.216615660,9.751124380,-0.002770130,-0.001575050,0.018948320
1640836581741400064,0.251771810,0.283572350,9.147339820,-0.092937060,0.066970300,0.027234860
1640836581744719872,0.047183950,0.364795800,10.053955080,-0.057673470,0.095205010,0.010593240
1640836581745280000,-0.047049810,0.307843450,10.458842280,-0.015877190,0.072951620,0.010623040
1640836581749709824,-0.122699770,0.387529310,9.961194990,0.065177660,-0.053200110,0.025415420
1640836581750200064,-0.141575050,0.206214060,9.426318170,0.017969310,-0.021688640,-0.001195070
1640836581754789888,0.124008620,0.333262440,8.896811490,-0.066743790,0.099296880,0.033763050
1640836581755379968,0.008441590,0.144698620,9.846947670,-0.074194380,0.118441880,0.039973860
1640836581760009984,0.283972980,-0.198774490,10.331894870,-0.022302560,0.093786410,0.009837750
1640836581760939776,0.157441680,-0.097142200,10.197310450,0.103116040,0.012432040,0.011995440
1640836581764719872,-0.041472840,-0.158274100,9.563054080,0.084736940,-0.033536560,0.007522110
1640836581765159936,-0.091068620,-0.130910950,9.147470470,-0.034040210,0.036025040,0.010222190
1640836581770520064,-0.347017910,-0.047744530,9.447324750,-0.047768650,0.097145150,0.000560280
1640836581771289856,-0.214173690,-0.061671610,9.905870440,0.005440410,0.055785480,-0.015449520
1640836581774839808,-0.256938640,0.200622290,10.003037450,0.126580910,0.029306110,-0.002348420
1640836581775419904,-0.262659970,0.365978390,9.703512190,0.117908420,-0.001677870,0.000944730
1640836581779689984,-0.240676890,0.357120310,9.963001250,0.006151200,0.007316470,0.011292100
1640836581780219904,-0.297631680,0.281843690,9.703455920,-0.010380150,0.028488040,0.022242970
1640836581784679936,0.112077200,0.134825080,9.492060660,0.047361850,0.004060570,-0.007109340
1640836581786540032,0.154284090,0.288490180,9.903940200,0.113424680,0.079339740,-0.007016960
1640836581789729792,0.049486210,0.478340510,10.009565350,0.080303850,0.019487740,-0.003875790
1640836581790179840,0.051960480,0.401443600,10.079162600,-0.008280570,-0.077125420,-0.003126260
1640836581794659840,-0.139154050,0.262274410,9.549270630,-0.007253890,-0.000768900,0.006778540
1640836581795049984,-0.217191530,0.309192480,9.671097760,0.051911180,0.002890830,-0.007455050
1640836581799759872,-0.361608510,0.532906710,10.259766580,0.068329270,0.036752230,-0.007556380
1640836581800429824,-0.242851760,0.631923440,9.762844090,0.015957650,-0.017221270,0.017811360
1640836581806899968,-0.008510650,0.486852290,9.733599660,-0.023700300,-0.047412520,0.002864000
1640836581807760128,-0.074973580,0.455378560,9.740736010,-0.008866190,0.049887590,0.001777710
1640836581809749760,-0.026284140,0.491126150,9.806201930,0.027020280,-0.030465420,0.014323000
1640836581810249984,0.019092310,0.331424330,10.009318350,0.005683300,-0.039461260,0.010727350
1640836581814679808,0.271689330,0.345169930,9.277141570,-0.016786160,0.004716220,0.015576190
1640836581815040000,0.346546200,0.315102370,9.664675710,-0.023236870,0.003568830,0.009635090
1640836581819789824,0.335822760,0.184410100,9.921146390,-0.047251590,0.087982420,0.010599200
1640836581820420096,0.257825020,0.043645860,10.029848100,0.013697150,0.005304810,0.009819870
1640836581824909824,-0.086083860,-0.128329200,10.189853670,0.052814190,-0.053074960,0.005765260
1640836581825449984,-0.074495490,0.119936340,9.025329590,0.012549760,-0.021390620,0.015042720
1640836581829639936,-0.358608870,0.136907120,9.438188550,-0.052748620,-0.001327690,0.020037590
1640836581829989888,-0.227822270,-0.072980310,9.697975160,-0.064522040,0.092217320,0.004087390
1640836581834859776,-0.080799530,0.044048160,9.951684000,0.070567440,0.036090610,-0.014741720
1640836581835459840,-0.152664590,0.075628980,10.225573540,0.123570860,-0.023640690,-0.008527940
1640836581839979776,0.125040070,0.220599350,9.499236110,0.036083170,-0.005683300,0.006468590
1640836581840649728,-0.043544690,0.079137700,9.657215120,-0.018279250,-0.015591090,0.007852910
1640836581844739840,0.141878170,-0.185058800,9.364065170,-0.003300610,0.028546160,-0.004200640
1640836581845129984,0.256647440,-0.059903490,9.391897200,0.120501240,0.054441390,-0.029438740
1640836581849649920,0.006231040,0.066746900,10.132797240,0.133936150,0.032748290,-0.015559800
1640836581850029824,-0.067173330,0.219878970,10.130736350,0.054472680,-0.020200010,0.003848970
1640836581854859776,-0.383157670,0.208203580,9.763643260,0.014995040,-0.060465940,0.002248590
1640836581855589888,-0.404989360,0.055135430,9.528834340,0.030621890,-0.028510390,0.004723670
1640836581859660032,-0.363107920,0.225005020,9.667239190,0.140763830,0.046229360,-0.020903350
1640836581860149760,-0.416180010,0.567550960,10.035393710,0.127473470,0.004179780,-0.024589900
1640836581864669952,-0.065360660,0.793761370,9.907718660,0.017566980,-0.043728950,0.001743440
1640836581865069824,0.113586690,0.603658140,9.570152280,0.004301960,-0.017799440,0.004898010
1640836581870060032,0.172844190,0.424327610,9.876364710,0.029724840,-0.011102860,-0.003093480
1640836581871369728,-0.022857490,0.486867490,10.226148610,0.108116870,-0.007827580,0.007742640
1640836581874699776,-0.037384960,0.387960260,9.723605160,0.079898540,-0.080943120,0.004480780
1640836581875129856,0.205837280,0.419369700,9.486929890,-0.013642010,-0.054381790,0.013487040
1640836581879659776,0.046031720,0.433638360,9.599269870,-0.038065020,0.065793100,0.015039740
1640836581880049920,0.007149140,0.142122030,10.114880560,-0.006569920,-0.010900200,0.003066660
1640836581884679936,-0.152741010,0.119751980,10.208956720,0.095112630,-0.053125620,-0.003387030
1640836581885179904,-0.087567780,0.259195360,9.314616200,0.096908200,-0.075533990,0.004313890
1640836581893039872,-0.045795390,0.407010050,9.557705880,-0.026527050,-0.020748380,0.015407800
1640836581893509888,0.042198510,0.414072480,9.599254610,-0.089801860,0.065794590,0.032381710
1640836581894660096,0.333293860,0.043749210,9.830006600,-0.007471440,0.015945730,0.009261070
1640836581895129856,0.177572030,0.018221610,10.270103450,0.142954280,0.008201600,-0.003904100
1640836581899709952,0.131400810,0.290871140,9.414251330,0.118443380,-0.058572010,-0.007236000
1640836581900329728,-0.062046660,0.076075450,9.600090980,-0.024403630,-0.080853690,0.022946290
1640836581906220032,-0.187281330,-0.152626890,9.311058040,-0.070440750,0.040028990,0.019843880
1640836581906909952,-0.097254120,-0.241372730,9.595133780,0.047031040,0.009635090,-0.022093950
1640836581909829888,-0.257814910,-0.214241150,10.371730800,0.160168110,0.034768880,-0.022926930
1640836581910329856,-0.141631350,0.099749030,9.812535290,0.146226560,-0.023493170,-0.011932850
1640836581914660096,-0.245883930,0.068648440,9.990150450,0.038118660,-0.097219650,0.005540250
1640836581915059968,-0.206057590,0.024799030,9.297694210,-0.002340970,-0.025147210,0.019834940
1640836581919970048,-0.022485820,0.084772300,9.239900590,0.093011580,-0.019773840,-0.003628430
1640836581920839936,-0.123266480,0.075176780,10.233812330,0.172735750,0.035217400,-0.016978380
1640836581925740032,-0.007763980,0.536327120,10.074098590,0.149519740,-0.019739570,-0.004406270
1640836581927179776,-0.105295720,0.495150510,10.140066150,0.061602890,-0.129809980,0.010691580
1640836581929679872,-0.027824290,0.375562220,9.500301360,-0.002820790,-0.045461960,0.010825690
1640836581931049728,-0.180599330,0.392286120,9.686519620,0.090470910,-0.027613340,0.001664460
1640836581934809856,-0.439390300,0.256458730,10.336084370,0.145074740,-0.054731970,-0.007031860
1640836581935479808,-0.093853620,0.473243680,9.556597710,0.130386670,-0.075973570,0.012363490
1640836581940320000,-0.079011570,0.473671230,9.767307280,0.071835530,-0.075137620,0.016343600
1640836581940939776,0.103854430,0.460548880,9.839113240,-0.027115650,0.002838670,0.018602610
1640836581945250048,0.152555080,0.499175400,9.985507970,0.027436020,-0.048317020,0.034092370
1640836581945639936,0.085355790,0.057661710,10.305471420,0.112505250,-0.088873490,0.007511670
1640836581949709824,0.256485340,0.381420370,9.408371930,0.145184990,-0.063431270,0.011272730
1640836581950099968,0.105059270,0.752749090,9.369662280,0.039117050,-0.072248290,0.031976400
1640836581955030016,0.286692740,0.390206310,9.668003080,-0.121803590,0.033339860,0.044214730
1640836581956270080,0.229373070,0.275558170,9.997129440,-0.007201730,0.011964140,0.039607300
1640836581959709952,-0.022794900,-0.093854900,10.309721950,0.166422130,-0.074261430,0.011731680
1640836581960450048,0.021185880,0.178959090,9.573455810,0.161267820,-0.052712870,0.023391850
1640836581964740096,-0.251872690,0.427615050,9.322802540,0.003245470,-0.067937370,0.039714580
1640836581965169920,0.027468390,-0.040856690,9.459834100,-0.123283270,0.011067090,0.039710110
1640836581969830144,0.034816720,0.015741020,9.746006010,0.034050640,0.043262540,0.019335740
1640836581970340096,0.057330050,0.006657840,9.984527590,0.199340280,-0.027556720,-0.008359550
1640836581974819840,0.161680000,0.157588350,10.043077470,0.168956860,-0.030069060,0.011383000
1640836581975589888,-0.152750100,0.371180440,9.648717880,0.021502380,-0.054407120,0.042437020
1640836581979679744,-0.026305430,-0.071542460,9.376239780,-0.067687030,-0.079236930,0.031431020
1640836581980199936,-0.098101680,-0.174879690,9.556254390,0.075924400,0.032034520,0.018070640
1640836581984799744,-0.180807410,0.030326710,9.865536690,0.217074160,0.013838710,-0.016573070
1640836581985369856,-0.200532260,0.248955800,10.473227500,0.180175870,-0.056689970,-0.007401410
1640836581989779968,-0.272258520,0.506221950,9.740311620,0.033487380,-0.088104610,0.036108490
1640836581991269888,-0.154501230,0.208182260,9.491987230,-0.019557770,-0.084708630,0.031490630
1640836581994720000,-0.269407930,0.167564300,10.124418260,0.086610010,0.012637670,0.007393960
1640836581995119872,-0.284221380,0.493235530,9.882520680,0.197000800,-0.054094200,-0.003217160
1640836581999929856,0.015172550,0.560459490,9.786633490,0.151924770,-0.112490360,0.020377340
1640836582000539904,0.147446860,0.606706920,9.557456970,0.028342010,0.007247930,0.033539540
1640836582004869888,0.077781600,0.617745400,10.053153040,-0.022111830,-0.043925640,0.040006630
1640836582005499904,-0.140444310,0.369692590,10.550081250,0.052092970,-0.103308260,0.027202070
1640836582009719808,-0.092012060,0.410549850,9.416877750,0.134457660,-0.131548940,0.019533930
1640836582010079744,-0.031974360,0.525465490,9.453248020,0.117835400,-0.067916510,0.019568200
1640836582014789888,-0.030570370,0.699672220,9.766399380,-0.015126170,0.042556230,0.039061900
1640836582016049920,0.100571290,0.652412410,10.015553470,-0.076897430,-0.048518180,0.055630500
1640836582019959808,0.138018560,0.263206030,10.289100650,-0.003449620,-0.084795070,0.042875110
1640836582020969984,0.183786230,0.251182970,9.415300370,0.123836100,-0.059196350,0.032879420
1640836582024629760,-0.070714460,0.309922070,9.639819150,0.122192510,-0.105293100,0.041385000
1640836582025090048,0.038962290,0.315044460,9.384073260,-0.048081580,-0.009185080,0.065238770
1640836582029680128,0.272217630,0.081991490,9.417332650,-0.093996520,0.000216070,0.068601970
1640836582030169856,0.211672780,-0.137922390,10.282098770,0.018541520,0.022473930,0.039353970
1640836582034839808,0.222904410,0.117904710,9.935278890,0.133766230,-0.021463630,0.035323200
1640836582035359744,-0.112248010,0.226478840,9.850487710,0.115346920,-0.137084720,0.026758020
1640836582039779840,-0.100839560,0.140373870,9.169236180,-0.040981180,-0.050167740,0.033745170
1640836582040419840,-0.009807550,0.053935170,9.096042630,-0.033372640,0.031258170,0.036023550
1640836582044689920,-0.212581460,-0.058732030,10.166828160,0.074903670,0.036340950,0.011141600
1640836582045080064,0.042838890,0.296267990,10.155571940,0.132873650,-0.009627640,0.025615100
1640836582049710080,-0.065609090,0.365425560,10.019507410,0.104250000,-0.088384740,0.040481980
1640836582050109952,-0.105629350,0.131758230,9.522266390,-0.003249940,-0.064957150,0.052520630
1640836582054769920,-0.041468180,0.078349430,9.235775950,0.041037800,-0.024046010,0.050401690
1640836582055409920,-0.154443130,-0.020491310,9.812275890,0.108078130,0.015082960,0.020481650
1640836582059699968,-0.042328740,0.355619460,10.195172310,0.101394940,-0.008559230,0.025677680
1640836582060179968,-0.028248620,0.470549520,10.071278570,0.070466100,-0.074219700,0.036287300
1640836582064729856,0.069002040,0.374920310,9.675712590,0.012597440,-0.061227390,0.032712520
1640836582065359872,-0.020212560,0.540020530,9.785369870,0.046096740,-0.007335840,0.025573370
1640836582070860032,-0.306789430,0.527590390,10.094872470,0.085492430,-0.043551630,0.031071900
1640836582071589888,-0.136265130,0.598479030,9.712071420,0.052615990,-0.097535540,0.048595660
1640836582074810112,0.020998140,0.623738230,9.368224140,0.032159690,-0.031450390,0.050957510
1640836582075279872,0.174761220,0.526544150,9.755288120,-0.018654760,0.037305050,0.043928620
1640836582080209920,0.068563330,0.519453290,10.500832560,0.005477670,-0.013840200,0.046178700
1640836582080799744,0.097043800,0.224947690,10.008666990,0.050733990,-0.085882840,0.050136450
1640836582084669952,0.171071870,0.079788550,9.480504990,0.046113130,-0.078630450,0.043001770
1640836582085079808,0.025432760,0.174053790,9.470205310,0.045533480,0.009909270,0.044922530
1640836582089679872,0.132777720,0.260462190,9.509108540,-0.046399240,0.011979040,0.047332050
1640836582090700032,0.238313240,0.198071910,9.943872450,-0.053632270,0.004589560,0.053587560
1640836582095150080,0.204496590,-0.024635870,9.941968920,0.058256090,0.023207070,0.036540630
1640836582095820032,0.035323730,0.127735870,10.103531840,0.125776200,-0.052995980,0.033198290
1640836582099729920,-0.178144260,0.295875310,9.595577240,0.053519020,-0.057730080,0.056579710
1640836582100549888,0.033807430,0.218686280,9.044734950,-0.072175260,0.001783670,0.051188470
1640836582104839936,-0.102860090,-0.021645140,9.764597890,-0.038875640,0.047293310,0.041188300
1640836582105509888,0.039631440,-0.072329450,9.745759960,0.117553790,0.047761200,0.023092330
1640836582109699840,0.097284060,0.137126480,10.000052450,0.165213640,-0.026519600,0.023426120
1640836582110309888,-0.118228650,0.169947650,9.910340310,0.046893950,-0.029559430,0.051403060
1640836582114670080,0.121940840,0.035723780,9.282447810,-0.033012030,-0.026553870,0.059120360
1640836582115190016,-0.061115210,-0.101182100,9.684679030,0.025497380,0.020664930,0.034940250
1640836582120260096,-0.008810700,0.093322460,9.696160320,0.127814710,0.050006810,0.030681490
1640836582121340160,-0.044205620,0.430467550,10.220501900,0.147023810,-0.016660990,0.011710820
1640836582124879872,-0.276986150,0.536453430,10.023671150,0.026100870,-0.050006810,0.027549270
1640836582125360128,-0.026530850,0.552889350,9.278949740,-0.007988510,-0.049586590,0.046896930
1640836582129659904,-0.197984460,0.387086840,9.842865940,0.031901900,0.023394830,0.020387770
1640836582130109952,-0.208377880,0.563477100,10.059666630,0.079467910,0.026708850,0.028333070
1640836582134739968,0.119688990,0.637177350,9.939945220,0.078207250,-0.044721370,0.048840050
1640836582135180032,0.146164250,0.270211220,9.711398120,0.012873110,-0.004367530,0.057409710
1640836582139699968,0.282710370,0.233623430,9.661915780,0.003395980,0.022716820,0.061163310
1640836582141280000,0.013097140,0.163854080,10.220958710,0.026218590,-0.004491210,0.044938910
1640836582144719872,-0.078263040,0.112545280,9.792799950,0.018653270,-0.061772760,0.040678670
1640836582145200128,0.163359570,0.332439540,9.355659480,0.044825680,-0.036565970,0.040936480
1640836582149659904,0.017919730,0.370370180,9.601963040,-0.003466010,0.068086380,0.029861920
1640836582150009856,0.115750850,0.635701480,9.920525550,-0.031222400,0.035226350,0.042518970
1640836582155459840,0.061097440,0.532468800,10.146463390,-0.018857420,-0.004228950,0.051249560
1640836582156039936,0.017445850,0.138396590,9.650156020,0.021609670,-0.028397150,0.051595270
1640836582159989760,0.042868790,0.146341580,9.545403480,0.093430270,-0.015416740,0.056897100
1640836582161259776,-0.041543310,0.089766350,9.358608250,0.012581050,0.033065680,0.052709880
1640836582164699904,0.249735590,-0.023529940,9.431086540,-0.078327960,0.032834710,0.046029690
1640836582166710016,0.290105280,-0.181330190,9.970513340,-0.011827050,0.119587790,0.030258300
1640836582169999872,0.123661990,-0.242633550,9.991939540,0.085273390,0.013336540,0.010417400
1640836582171459840,-0.074367270,0.043430840,9.841426850,0.132431060,-0.065597880,0.026567280
1640836582175149824,-0.176838380,0.217475790,9.033000950,0.006791950,0.004643200,0.022274260
1640836582175680000,-0.223775030,0.131504650,9.412501340,-0.059577820,0.028371810,0.032289330
1640836582179659776,-0.203217850,0.085574220,10.040195470,0.040546060,0.110238790,0.026263290
1640836582180059904,-0.050930220,0.240802300,10.013477330,0.134468060,0.027489660,0.007788840
1640836582184689920,-0.070630960,0.367639060,10.202301030,0.123085100,-0.041463970,0.030341750
1640836582185119744,0.092604240,0.455776870,9.240498540,0.005957480,0.014337900,0.036539130
1640836582189779968,0.010078350,0.205616150,9.449434280,-0.035880510,-0.002610680,0.029149650
1640836582190629888,-0.039811090,0.122888950,9.838713650,0.053535400,0.062885880,0.025691090
1640836582194680064,0.064712480,0.298956300,9.734101300,0.108866400,0.030805170,-0.002211330
1640836582195040000,-0.194762770,0.424715400,10.413711550,0.076989840,-0.031310320,0.013914710
1640836582199659776,-0.014172490,0.515675010,9.584384920,-0.009287890,-0.005255640,0.042174750
1640836582200189952,0.037461580,0.342221320,9.499947550,-0.026440620,0.003765520,0.027942660
1640836582204789760,-0.220456600,0.350374430,10.274049760,0.032103060,0.063776980,0.029625000
1640836582205529856,-0.016282600,0.528300820,9.762981410,0.065669420,-0.001658500,0.038154420
1640836582210660096,-0.053320680,0.272245110,9.842000960,0.044177470,-0.073246670,0.034289060
1640836582211099904,0.239061740,0.402995140,9.248163220,-0.011485820,0.062379250,0.040665270
1640836582214710016,0.323320780,0.437720390,9.545155530,-0.045788290,0.065708160,0.039659440
1640836582215069952,0.086428310,0.084572610,10.579067230,-0.025607650,0.029106440,0.039725010
1640836582220049920,0.325086770,0.101350260,9.647398950,0.061145430,0.011427700,0.041531030
1640836582220960000,0.050024620,-0.062928730,9.664823530,0.099384790,-0.056116290,0.027482210
1640836582225519872,-0.068863520,0.059397100,9.320979120,-0.013364850,0.050294390,0.049921870
1640836582226230016,0.077225970,0.077184190,9.145995140,-0.066223730,0.074093050,0.048871340
1640836582229719808,-0.150441660,-0.322969850,10.400256160,0.000296530,0.070604690,0.021623070
1640836582230180096,0.061045970,0.047578490,9.846450810,0.122757250,0.034783780,0.024367870
1640836582234779904,-0.044731550,0.194230990,9.625445370,0.120687490,-0.033424790,0.016650560
1640836582235289856,-0.125677210,0.152296300,9.667531010,-0.022126740,0.055325030,0.034378470
1640836582239869952,-0.070838010,0.159162970,9.430086140,-0.018389520,0.043125450,0.028805430
1640836582240659968,-0.047358140,-0.117999010,9.662262920,0.060915960,0.016267600,0.009071830
1640836582244699904,0.213170190,0.148839880,9.388431550,0.131979580,0.086601070,0.016883010
1640836582245159936,0.040358320,0.413632330,10.038730620,0.099581490,0.048229100,0.017774110
1640836582249699840,-0.095633670,0.149452510,10.363710400,-0.015322870,0.002330540,0.039254140
1640836582250289920,-0.079923000,0.242934500,9.530839920,0.023156410,-0.027993320,0.031831860
1640836582254809856,-0.219732480,0.084768880,9.515597340,0.086808190,0.006394090,0.015148520
1640836582255889920,-0.100363360,0.401054920,9.606668470,0.090113270,0.101335350,0.018675630
1640836582259759872,-0.226222650,0.756933270,10.148235320,0.046792630,0.029854480,0.022737680
1640836582260339968,0.054678290,0.405544400,10.027543070,-0.038078430,0.000318880,0.034263730
1640836582264719872,0.180825440,0.412675650,9.627927780,0.028380750,0.029805300,0.027959050
1640836582265059840,-0.063491780,0.452997210,10.064377780,0.073593860,0.024363390,0.024744860
1640836582270099968,0.067509410,0.474233450,9.762534140,0.011862820,0.023111700,0.049448010
1640836582271289856,0.015602100,0.425385620,9.597961430,-0.015112760,-0.008115170,0.044426330
1640836582276899840,0.309479420,0.253364740,9.403737070,-0.039574500,0.069352970,0.033539530
1640836582277489920,0.290612730,0.381520120,9.840941430,-0.012448430,0.116218650,0.033923990
1640836582279689984,-0.122322860,0.257306160,10.524574280,0.016333160,0.033521660,0.033432250
1640836582280029952,0.018288870,0.040347730,9.834066390,0.003743170,-0.051367290,0.028865040
1640836582284669952,-0.068315690,0.111609700,9.189939500,0.023704770,-0.000131130,0.021904710
1640836582285100032,-0.000942590,0.214339350,9.160675050,-0.049141060,0.119680180,0.029981140
1640836582289880064,0.187045840,0.192039010,9.877096180,-0.077453260,0.134523210,0.029452150
1640836582290599936,0.097479710,0.037371270,10.400277140,0.024907290,0.081820800,0.019156940
1640836582294649856,0.256827320,0.058830050,9.781500820,0.086854400,-0.011748080,0.011967120
1640836582294999808,-0.071233370,0.116511720,9.434146880,0.053696330,0.005184110,0.031638150
1640836582299660032,-0.205373940,0.077082740,9.222484590,-0.048901140,0.074964760,0.029097500
1640836582300760064,-0.141515550,-0.016364830,9.520561220,-0.062143800,0.075203180,0.010032950
1640836582305270016,-0.224879100,0.032944900,9.963388440,0.051271920,0.096543140,-0.000277160
1640836582306389760,0.037167580,0.191818820,9.792518620,0.106814500,0.053954130,-0.008876620
1640836582309849856,-0.208351580,0.202463190,10.131261830,0.059583780,0.014136730,0.005635620
1640836582310309888,-0.230078120,0.216282280,9.668127060,-0.013244150,0.027975450,0.019198660
1640836582314720000,-0.120405940,0.203652550,9.332736970,-0.015428660,-0.002858040,0.012238320
1640836582315089920,-0.186503470,0.170333940,9.673362730,0.046183170,0.087006400,-0.001104180
1640836582319779840,0.092821290,0.576646750,9.778038020,0.076277550,0.108349320,-0.011618430
1640836582320439808,-0.142342300,0.545810160,10.570133210,0.030471390,0.001525880,-0.005716090
1640836582325709824,-0.063568500,0.511681380,9.809245110,-0.018569830,-0.010845070,0.010980660
1640836582326239744,0.000104710,0.559998510,9.255127910,-0.020569560,-0.004613400,-0.009964410
1640836582329599744,-0.303768840,0.456402720,9.980265620,-0.012108680,0.059959300,-0.005024670
1640836582329989888,-0.062748390,0.587753060,9.749433520,-0.000491740,0.058507920,0.023603440
1640836582334899968,-0.036880790,0.236511650,9.995309830,0.003561380,-0.001320240,0.009024140
1640836582336269824,0.034563360,0.214348110,9.852650640,-0.008270140,0.054766240,0.012135510
1640836582340139776,0.130317610,0.411287220,9.658863070,-0.031860180,0.032465160,0.006899240
1640836582340879872,-0.204226140,0.130619120,10.217585560,-0.074224170,-0.001941620,0.004005430
1640836582344699904,0.144170940,0.189385430,9.460024830,-0.035174190,0.017949940,0.013732910
1640836582345100032,0.262288450,0.171619910,9.317146300,0.033371150,0.037765510,-0.023898480
1640836582349679872,0.235159740,0.330925910,9.829873090,-0.019681450,0.113587090,-0.003090500
1640836582350099968,0.366254090,0.547444220,9.885810850,-0.067898620,0.078526120,0.016681850
1640836582354699776,0.013043090,-0.061728040,10.350091930,-0.068238370,-0.003302100,0.002627070
1640836582355229952,-0.006028410,-0.054402120,9.512947080,0.035296380,-0.007680060,0.001837310
1640836582360639744,-0.100170940,0.123519000,8.912399290,0.067059700,0.026515130,-0.015097860
1640836582361100032,-0.120953100,-0.089138370,9.528648380,-0.051522260,0.137697180,-0.020445880
1640836582364659968,0.016867080,0.044515080,9.993159290,-0.055280320,0.134784000,-0.012427570
1640836582364999936,-0.050011200,-0.265746560,10.225607870,0.031864640,0.008246300,-0.025810300
1640836582369649920,-0.002780390,-0.186531540,9.660484310,0.092604760,0.005945560,-0.020563600
1640836582370179840,-0.105961410,0.241522980,9.108109470,0.060714790,0.037649280,-0.025217240
1640836582374859776,-0.087312710,-0.016849710,9.481281280,-0.037904090,0.099545730,-0.032612690
1640836582376219904,0.013055940,0.233441010,9.817873000,0.006516280,0.120307500,-0.011846420
1640836582379799808,0.041401380,0.224030020,9.879125600,0.089403990,0.044418880,-0.031510000
1640836582380509952,0.060870050,0.301486970,10.048095700,0.080813470,0.037038330,-0.020655990
1640836582384879872,-0.266925480,0.554977240,9.787822720,0.040283800,0.023444000,-0.014711920
1640836582386859776,-0.359572830,0.121266600,9.485589030,-0.009723010,-0.015105310,-0.027562680
1640836582389929984,-0.245161590,0.194444110,9.418307300,0.028975310,0.067533550,-0.030763450
1640836582391029760,-0.315953610,0.425465820,9.787602420,0.068286050,0.093574830,-0.045357640
1640836582394660096,-0.125121910,0.589358690,10.342746730,0.001701710,0.029368700,-0.026573240
1640836582395020032,-0.054842580,0.690802220,9.982752800,-0.019665070,-0.012753910,-0.011938810
1640836582399780096,0.007775050,0.331313760,9.547479630,-0.016956030,-0.007173420,-0.038032240
1640836582400940032,-0.022391730,0.439829530,9.818599700,0.031666460,0.050145390,-0.028203430
1640836582404679936,-0.174201280,0.613663790,9.832275390,0.023491680,0.013823810,-0.016006830
1640836582405149952,0.196625830,0.506040810,9.615633960,-0.078408430,0.000900030,-0.009541220
1640836582410060032,0.278153750,0.526654010,9.740974430,-0.084975360,0.082883250,-0.017641480
1640836582410519808,0.082909110,0.381562230,10.083169940,-0.036072730,0.070528690,-0.030468400
1640836582414700032,-0.035879010,0.350019400,10.330538750,-0.004188720,-0.017495460,-0.022514160
1640836582415849984,-0.189374670,0.277681200,9.552333830,-0.016994770,-0.046242780,-0.009185080
1640836582419620096,0.048453030,0.070649220,8.964690210,-0.073558100,0.015190240,-0.027170780
1640836582420029952,0.108612870,0.236681030,9.535668370,-0.086775430,0.134409950,-0.012059510
1640836582425029888,0.081826630,0.190695350,10.100779530,-0.064384940,0.097119810,-0.003923480
1640836582426649856,0.246427670,-0.093133420,10.450917240,-0.029648840,0.002500410,-0.017099080
1640836582429629952,0.014914900,-0.055171690,9.847751620,0.035987790,-0.022274260,-0.012977420
1640836582430009856,0.042447630,0.036106140,8.978567120,-0.006799400,-0.024087720,-0.011885170
1640836582434759936,0.072761600,0.149284170,9.228570940,-0.098535420,0.104981670,-0.004310910
1640836582435229952,-0.005059020,0.067556800,9.830058100,-0.088728970,0.148774680,-0.012558700
1640836582440019968,0.050469930,-0.083204100,10.450361250,0.034035750,0.021980700,-0.022672120
1640836582440589824,-0.242098750,0.018375710,9.982982640,0.112631900,-0.034792720,-0.016474730
1640836582444730112,-0.262708630,0.227414280,9.078022960,0.027590990,-0.028075280,-0.011515620
1640836582445199872,-0.376246690,0.134272190,9.614053730,-0.103832790,0.065048040,-0.007389490
1640836582449649920,-0.389455500,0.004849360,9.814651490,-0.054337090,0.085689130,-0.016751890
1640836582450070016,-0.004752570,0.169179990,9.983815190,0.081372260,-0.001855190,-0.030021370
1640836582454700032,0.047418020,0.422900080,10.086170200,0.093601670,0.047492980,-0.043299800
1640836582455149824,-0.036690500,0.709930720,9.879491810,-0.022703410,-0.005859140,-0.019884110
1640836582459839744,-0.146585000,0.458435300,9.918332100,-0.100700560,-0.056585670,-0.006635490
1640836582460419840,-0.107754190,0.256482600,9.278425220,-0.028906760,0.011327860,-0.019200140
1640836582464720128,0.005321050,0.565476780,9.599734310,0.067350260,0.032794480,-0.030532480
1640836582465230080,-0.114279730,0.690618870,10.352757450,-0.003501770,0.074781480,-0.024966900
1640836582469750016,0.012537910,0.684519530,10.084423070,-0.106075410,-0.011290610,0.002627070
1640836582470160128,0.002137040,0.269430280,10.025989530,-0.096809850,-0.062412020,-0.008092820
1640836582474769920,-0.186945600,0.145491820,9.623089790,-0.012169780,0.004309420,-0.030651690
1640836582475289856,-0.108087200,0.532944920,9.364351270,0.001649560,-0.038622310,-0.025588270
1640836582479669760,-0.002246910,0.379550840,9.579800610,-0.113217540,0.032034520,-0.020365420
1640836582480120064,0.319547120,0.269071940,9.592192650,-0.143900510,0.079146030,-0.012877580
1640836582484689920,0.163281430,0.156949980,10.499407770,-0.044251980,0.018228590,-0.024962430
1640836582485139968,-0.123227370,0.165925700,10.241069790,-0.002561510,-0.042045120,-0.024721030
1640836582490069760,-0.060816210,0.319900720,9.219849590,-0.047433380,-0.104326020,-0.005233290
1640836582490720000,-0.138411330,-0.009320610,9.210805890,-0.120259820,0.029414890,-0.019693380
1640836582494959872,-0.068285720,-0.023901620,9.458864210,-0.089222200,0.107578930,-0.037428740
1640836582496569856,-0.087325090,0.094637480,10.323037150,-0.002299250,0.020341580,-0.041401390
1640836582499769856,-0.069267730,0.051405930,10.236329080,-0.029322510,-0.012347100,-0.055654350
1640836582500999936,0.024186140,0.040299710,9.633112910,-0.038616350,-0.060909980,-0.019949680
1640836582504740096,-0.041266960,-0.385816990,9.439584730,-0.030018390,-0.018429760,-0.028359890
1640836582505319936,0.343787070,-0.491234300,9.056825640,0.020875030,0.077925630,-0.043283410
1640836582509729792,0.574447990,-0.381078570,9.819530490,0.077119450,0.114825380,-0.020681320
1640836582511739904,0.608173130,-0.722498240,10.380818370,0.067156560,0.089350350,-0.021585820
1640836582514710016,0.558283750,-0.671867850,10.096441270,0.119331490,-0.008150940,0.000178810
1640836582515409920,0.098012960,-0.511549770,9.702496530,0.133788590,-0.019919870,-0.017592310
1640836582519719936,-0.197904800,-0.147283870,9.394865040,0.090262290,0.033567850,-0.021819770
1640836582520279808,-0.555248920,0.474424480,9.806853290,0.087180730,0.067307050,-0.027482210
1640836582524799744,-0.516166330,0.836344180,9.910915370,0.072628260,0.073413560,-0.026139620
1640836582525389824,-0.324066880,1.079498650,10.188465120,0.121483210,0.051872430,-0.017108020
1640836582529760000,-0.182220370,1.271201610,10.237237930,0.125284460,0.074230130,-0.008961560
1640836582530380032,0.038428600,1.109878060,9.923466680,0.049994890,0.040048360,0.027811530
1640836582534859776,0.223864530,0.516673680,9.898726460,0.057876110,0.023579600,0.051441800
1640836582536130048,0.535956030,0.111581130,9.289388660,0.086972120,0.080244240,0.025106970
1640836582539699968,0.498163280,0.090942520,9.650892260,0.084547710,0.087921340,0.022035840
1640836582540760064,0.271481010,0.005857220,10.089712140,0.027371940,0.085325550,0.018878280
1640836582544829952,0.109849810,-0.024052740,9.892127040,-0.027060510,0.015534460,-0.019389390
1640836582546219776,-0.335459890,0.103887560,10.227797510,0.049631300,0.014702980,-0.017578900
1640836582549639936,-0.416654910,0.638129470,9.628133770,0.065083810,0.039084260,-0.008423630
1640836582550089728,-0.345863490,1.065397020,9.627769470,-0.022764500,0.058256090,0.020094220
1640836582554790144,-0.014068970,0.872177900,9.875677110,-0.053858760,0.162585080,0.057548290
1640836582555510016,0.302621600,0.631515320,10.034125330,0.014519690,0.124022380,0.065888460
1640836582560099840,0.196964290,0.391408740,10.322688100,0.092473630,0.034531950,0.071100890
1640836582561939968,0.440708940,0.147461220,9.307975770,0.034643710,0.017702580,0.077663370
1640836582564780032,0.355198170,-0.169970420,9.190220830,-0.057072950,0.054520380,0.048965230
1640836582565769984,0.233587580,-0.394614520,9.585019110,-0.045721230,0.172696990,0.025522710
1640836582569829888,0.173829930,-0.299801050,10.086451530,0.031511490,0.122718510,0.008007880
1640836582570579968,-0.340821270,-0.145518120,10.682019230,0.083336240,0.047987700,0.005149840
1640836582575209984,-0.395047160,0.211041670,9.760859490,0.046552720,0.014594200,0.032188000
1640836582577080064,-0.777338560,0.370294240,9.580126760,-0.026457010,-0.016768280,0.044099990
1640836582580000000,-0.679921450,0.492355790,9.320407870,-0.023199620,0.096368790,0.057233880
1640836582580600064,-0.152909960,0.760074680,9.759977340,0.021776560,0.129781680,0.050970920
1640836582584729856,-0.145489810,0.756974820,10.881861690,0.036469110,0.097364200,0.063809760
1640836582585399808,0.452095360,0.604311880,10.092042920,0.031200050,0.026644770,0.086115300
1640836582589759744,0.443425770,0.333079550,9.932242390,0.001603360,0.005023180,0.081755210
1640836582590359808,0.160519660,0.134595160,9.744480130,-0.030039250,0.070516770,0.087261210
1640836582594849792,0.133187280,0.090579890,9.574193950,-0.022730230,0.029942390,0.088158230
1640836582595369728,-0.247506620,-0.162612510,10.056441310,-0.002244110,0.018268830,0.083057590
1640836582599869952,-0.032158670,0.119305300,9.514947890,0.036340950,0.064496700,0.081612170
1640836582600790016,-0.354166240,0.461745920,10.308405880,-0.008115170,0.054019690,0.068789730
1640836582604899840,-0.605280040,0.629275080,10.403501510,-0.090900060,0.019174820,0.096511840
1640836582605939968,-0.319754180,0.678025480,9.707527160,-0.052660700,-0.051343440,0.105756530
1640836582610479872,-0.308373990,0.468365160,9.772387500,0.013767180,0.014050300,0.086696450
1640836582611259904,0.259343240,0.778713290,9.231005670,0.021421910,0.099654520,0.114586960
1640836582614810112,0.495971920,0.762944760,9.973823550,-0.078018010,0.092464690,0.128236410
1640836582615330048,0.749723200,0.127969030,10.293355940,-0.145819800,0.097651780,0.151792170
1640836582619659776,0.722650350,-0.313869330,10.140004160,0.006105010,0.022247440,0.150054710
1640836582620139776,0.213179410,-0.545156540,9.887486460,0.094880160,-0.039382280,0.129793600
1640836582625589760,0.143800110,-0.277215960,8.805635450,0.003443660,0.035561620,0.146216120
1640836582626589952,-0.310021250,-0.190184860,9.543013570,-0.113873180,0.130186980,0.124230980
1640836582629699840,-0.622406780,-0.214468870,10.483336450,-0.099845240,0.114737450,0.123310080
1640836582630179840,-0.782951350,0.223984120,10.362540250,0.087998800,-0.024800000,0.115147230
1640836582634860032,-0.829443690,0.657120940,9.691372870,0.083418190,-0.074130300,0.102007400
1640836582635660032,-0.388515530,1.014802460,9.132469180,-0.046554200,0.051517780,0.153219670
1640836582639879936,-0.263916760,0.765240310,9.930786130,-0.093254450,0.113269690,0.158388880
1640836582641839872,0.290793270,0.518009960,10.243190770,-0.039011230,0.056400890,0.153259920
1640836582644919808,0.736095960,0.478388370,9.978866580,0.078043340,0.021708010,0.176104900
1640836582645459968,0.537842930,0.164688540,10.207674980,0.030264260,0.021338470,0.165802260
1640836582649720064,0.334132760,0.139934300,10.046575550,-0.081470610,-0.021781030,0.175774100
1640836582650429952,-0.113517310,-0.205688310,9.638525960,-0.089262430,-0.020900370,0.169375540
1640836582656509952,-0.393773380,-0.198575020,9.745752330,-0.035281470,0.011913480,0.150549380
1640836582657369856,-0.618194460,0.475056050,10.056924820,0.023125110,0.050804030,0.153033440
1640836582659739904,-0.826597390,0.735976930,10.320963860,-0.055177510,-0.012786690,0.176760540
1640836582660359936,-0.498178270,0.932130690,10.055178640,-0.110974910,-0.041352200,0.189399730
1640836582664649984,-0.323246480,0.966626230,9.726502420,-0.077155230,0.013686720,0.182524320
1640836582666169856,-0.160307880,0.900806190,10.117789270,-0.071401900,0.005777180,0.196498630
1640836582669839872,0.239980250,0.931922610,10.021365170,-0.059431800,0.000147520,0.213760150
1640836582673049856,0.562937140,0.563107010,9.632479670,-0.116252910,-0.010490420,0.214578210
1640836582675000064,0.874818210,0.342314000,9.819003110,-0.143010930,0.037646290,0.215943170
1640836582676039936,0.619564000,0.033375480,10.027020450,-0.117585070,0.077915190,0.222872200
1640836582679649792,0.225194950,-0.396824120,10.473809240,-0.096361330,-0.033664700,0.219702710
1640836582680369920,-0.013464940,-0.454848110,9.901135440,-0.043410060,-0.051090120,0.242516410
1640836582684689920,-0.263503220,-0.270556840,9.137955670,-0.087778260,0.003504750,0.212894380
1640836582685349888,-0.408053990,0.120523320,9.809508320,-0.157120840,0.068418670,0.221984090
1640836582690009856,-0.501686630,0.297540040,10.128537180,-0.142674150,0.091654070,0.233583150
1640836582690749952,-0.448069160,0.188860890,10.464349750,-0.044123820,-0.043493500,0.208625180
1640836582694739712,-0.217517440,0.502970930,9.809807780,0.044161090,-0.033137200,0.238637640
1640836582695360000,0.055980830,0.715791700,8.976332660,-0.065094220,0.014293190,0.255668130
1640836582699709952,0.177295540,0.459063530,9.876605990,-0.183773060,0.068961080,0.263164970
1640836582700269824,0.338601230,0.146493480,10.121973040,-0.132820010,0.079037230,0.263933870
1640836582704800000,0.228461920,-0.147293210,10.182918550,0.010085110,-0.054536760,0.248809190
1640836582705479936,0.182141180,-0.127413350,9.767336850,0.065916780,-0.028616190,0.241994890
1640836582710209792,-0.034935850,0.205402750,9.526391980,-0.086288160,0.004448000,0.248441120
1640836582710919936,-0.494132190,0.047305890,10.404132840,-0.196404770,0.014005600,0.263936760
1640836582714680064,-0.409171910,-0.035348520,9.994658470,-0.099389270,0.005997720,0.245648650
1640836582715129856,-0.401905330,0.266220030,9.941092490,0.041925910,-0.061258680,0.233869270
1640836582719759872,-0.381532910,0.739727260,9.907427790,0.041817130,0.020417570,0.249180240
1640836582720349952,-0.100976830,1.203844070,9.684605600,-0.143620340,0.004197660,0.280727420
1640836582724689920,-0.188859890,0.930112300,10.323369030,-0.242133470,-0.040586300,0.293402430
1640836582725240064,0.207237990,0.615138110,9.710801120,-0.111566500,-0.009979310,0.282731680
1640836582729729792,0.156272860,0.706778530,10.019577980,0.004325810,-0.037150080,0.266858970
1640836582730520064,-0.025017580,0.807165920,10.117009160,-0.072152910,-0.005586450,0.295171170
1640836582734819840,0.321019530,0.548383470,9.565171240,-0.238929720,-0.036005690,0.327309970
1640836582735319808,0.050186570,-0.139072400,10.263185500,-0.247617110,0.005200510,0.310650470
1640836582740049920,-0.019359570,-0.169483440,10.068037030,-0.086651740,0.025454170,0.290350620
1640836582740720128,-0.125891210,0.065909340,10.204531670,-0.023591520,-0.092235210,0.295020670
1640836582744689920,-0.157027040,0.232745840,9.645606990,-0.151233390,-0.039009750,0.319355820
1640836582745159936,0.202771980,0.443235280,9.149475100,-0.257781120,0.036047390,0.319644810
1640836582749639936,0.000141450,0.265413460,10.455781940,-0.215460400,0.066876410,0.320114230
1640836582750039808,0.080976740,0.456117510,10.158769610,-0.079122190,-0.006346400,0.326490430
1640836582754679808,0.127474800,0.579138400,9.868671420,-0.051645940,-0.096343470,0.320465860
1640836582755879936,0.003403650,0.396345230,9.589663510,-0.170753900,0.020730500,0.343628260
1640836582759670016,0.107295380,0.354583890,9.268177030,-0.220382230,0.023151930,0.354959100
1640836582760169984,-0.006391380,-0.079974450,10.055684090,-0.185252740,0.037255890,0.342749060
1640836582764770048,0.134846120,-0.215239240,9.950078010,-0.096863510,0.053133080,0.332392750
1640836582765399808,-0.126691770,-0.313471350,10.301104550,-0.012302400,-0.044322010,0.326013570
1640836582769699840,-0.312924680,-0.367496970,9.789590840,-0.080637630,-0.062783070,0.337147710
1640836582770200064,-0.213158310,-0.101989090,9.037807460,-0.154218120,-0.033076110,0.342537520
1640836582774729984,-0.292545470,-0.130319800,9.767796520,-0.176416310,0.073592360,0.324852760
1640836582775249920,-0.150847660,0.116099770,10.320569040,-0.076656040,0.054173180,0.335450500
1640836582779670016,-0.059745010,0.491457700,10.132869720,0.034184750,-0.062966350,0.339135530
1640836582780109824,0.043997350,0.594686330,9.735115050,-0.056509680,-0.039382290,0.355289970
1640836582784699904,0.010060580,0.856869760,9.561738970,-0.160232190,-0.005936620,0.377777220
1640836582785199872,-0.275314150,0.326895450,10.025908470,-0.156776620,-0.015600020,0.365184190
1640836582789669888,-0.045096050,0.221524850,9.809739110,-0.049144040,-0.038050120,0.360472500
1640836582790030080,-0.086995010,0.352984190,9.753036500,0.022464990,-0.011250380,0.355842770
1640836582794710016,-0.225066260,0.321172180,10.260121350,-0.111882390,0.003588200,0.351810460
1640836582795329792,-0.228989840,0.441300210,10.345705990,-0.208297400,-0.058056430,0.381107720
1640836582800069888,-0.401609630,-0.023652750,9.950059890,-0.160679220,-0.091187660,0.380627750
1640836582801199872,-0.138358640,0.117693510,9.548869130,-0.029246510,-0.053121150,0.374269490
1640836582804750080,-0.067308900,0.675301850,9.661822320,-0.028598310,0.007174910,0.379422400
1640836582806749696,0.039729690,0.832153320,10.038805010,-0.202152180,0.014829640,0.402669670
1640836582809639936,0.384369580,0.693136100,10.182090760,-0.231574490,-0.021024050,0.416822820
1640836582810020096,0.175807950,0.353984590,10.215286250,-0.124150530,-0.051853070,0.385564660
1640836582814689792,0.119324810,0.666802590,9.815936090,-0.051678710,-0.069274010,0.389951500
1640836582816069888,0.051742240,0.790616990,9.417581560,-0.129780190,-0.052866340,0.415602330
1640836582819699968,0.102041140,0.385984510,9.374407770,-0.278945360,0.026966640,0.414548900
1640836582820279808,0.149821790,0.102188960,9.953765870,-0.208252710,0.057071460,0.413565400
1640836582824780032,-0.096430750,-0.235378070,10.283068660,-0.080433500,-0.011952220,0.396153360
1640836582825309952,-0.237000990,-0.240769370,10.125948910,-0.060160470,-0.095188630,0.401628050
1640836582829720064,-0.251843900,-0.200491280,9.503752710,-0.127211210,-0.062586370,0.417613980
1640836582830380032,-0.280491410,-0.364663210,9.400053020,-0.213567960,0.003546480,0.405776560
1640836582836169984,-0.116753310,-0.078893120,9.888681410,-0.140687840,0.039549170,0.399002460
1640836582836969728,0.109950680,0.148040920,9.988886830,-0.075711320,0.030359630,0.381693300
1640836582840240128,0.048885080,0.278462200,10.371876720,-0.052392490,-0.052374610,0.390395610
1640836582841289984,0.037180970,0.384084940,9.781956670,-0.057256230,-0.080512460,0.418853850
1640836582844640000,0.062804360,0.311299200,9.110481260,-0.126875950,-0.059688100,0.417307050
1640836582845029888,-0.121639500,0.235923950,9.754310610,-0.132986890,0.027833880,0.423186960
1640836582850359808,-0.104574200,0.153683630,10.130710600,-0.078068670,0.060901050,0.402987000
1640836582851300096,-0.329894840,-0.020531830,10.560980800,-0.013181570,-0.085623550,0.401319590
1640836582855089920,-0.284879390,0.123992310,9.701604840,-0.002139810,-0.100624560,0.417962700
1640836582857329920,-0.210299180,0.179896320,9.328886030,-0.117075450,-0.029419360,0.415083770
1640836582859609856,-0.614149090,0.061837090,10.433982850,-0.144140470,-0.008335710,0.428283300
1640836582860009984,-0.351510610,0.079064990,10.040845870,-0.050364430,-0.078539550,0.405846570
1640836582864640000,-0.053256300,0.373697220,9.715315820,0.017181040,-0.100782530,0.391952780
1640836582865129984,0.047107360,0.830641390,9.829290390,-0.049558280,0.003895160,0.416916640
1640836582869760000,0.230713840,1.089340330,10.034604070,-0.190754230,-0.024175650,0.427147750
1640836582870319872,0.040825740,0.848713870,10.464444160,-0.204880580,-0.109346230,0.441041650
1640836582874779904,0.217526480,0.574107590,9.596163750,-0.067901610,-0.079758470,0.434784650
1640836582875689984,0.204560530,0.639042320,9.668958660,-0.010110440,-0.040738290,0.415317800
1640836582879729920,-0.156529350,0.641451660,10.269201280,-0.126908730,-0.010818240,0.445462790
1640836582880219904,0.077456880,0.374152540,9.710734370,-0.250130920,-0.052528090,0.462408360
1640836582884649984,-0.110894190,-0.151671390,10.103354450,-0.208897930,-0.076627750,0.426671000
1640836582894879744,-0.248683870,-0.108679770,9.858449940,-0.057257720,-0.028917190,0.414779840
1640836582895899904,-0.265088470,0.238304330,9.766065600,-0.045573720,-0.102718170,0.407275590
1640836582897049856,-0.292520050,0.224022150,9.809431080,-0.177365540,-0.060494250,0.426001940
1640836582897489920,0.283363280,0.279184070,9.306312560,-0.233668120,0.013035540,0.442580940
1640836582897899776,0.279623720,0.189646470,10.281370160,-0.152511940,0.020135940,0.433965090
1640836582899659776,0.263034400,0.244522270,10.238321300,-0.057971480,-0.025607650,0.436018440
1640836582900409856,0.349615400,0.286259350,9.629670140,-0.046753880,-0.117965040,0.450840620
1640836582904729856,0.014004010,-0.082082480,9.528131480,-0.138536140,-0.052928930,0.445924790
1640836582906099968,0.101395940,-0.204415660,9.161804200,-0.144042100,0.001080330,0.440217640
1640836582909819904,-0.155652870,-0.240829990,9.944175720,-0.107821830,0.005605820,0.416331020
1640836582910359808,-0.120235090,-0.165338310,10.127058030,-0.077795980,0.022669140,0.403305920
1640836582914739968,-0.157200560,-0.057085310,10.113598820,-0.032457710,-0.061045590,0.412967800
1640836582915170048,-0.469286590,-0.182421800,9.991765980,-0.038920350,-0.091683860,0.424824660
1640836582920110080,-0.342894730,0.092266250,9.087764740,-0.051444770,-0.062669800,0.435669690
1640836582921159936,-0.388074250,0.171659650,9.529135700,-0.070561480,-0.040899220,0.421644750
1640836582925060096,-0.169464810,0.268532900,9.800624850,-0.082355750,0.016301870,0.420574870
1640836582925989888,0.172721390,0.416542440,10.014511110,0.001938640,-0.036431850,0.428165560
1640836582929769984,0.063790530,0.338833240,10.424970630,0.002005700,-0.059022020,0.416545630
1640836582930309888,0.188677240,0.549799260,9.804164890,-0.056420270,-0.076112150,0.432175490
1640836582934700032,-0.115865680,0.327931080,9.955492970,-0.084662440,-0.097091510,0.431630100
1640836582935229952,-0.216300160,0.157998680,9.599563600,-0.085958820,-0.063928950,0.426875080
1640836582939689984,-0.001201130,0.384126450,9.346739770,-0.017248100,-0.045454510,0.423628180
1640836582941139968,-0.294335220,0.439161300,10.250938420,-0.052823130,-0.010794400,0.413894650
1640836582945230080,-0.210317790,0.691116570,10.206792830,-0.136937250,-0.053915390,0.432671700
1640836582945839872,-0.229654510,0.500082970,10.174180030,-0.107589380,-0.127986090,0.433765440
1640836582949639936,-0.331623050,0.382999840,9.878396030,-0.079877680,-0.092813370,0.405792920
1640836582950080000,-0.040690240,0.829915400,9.342661860,-0.059132280,-0.065463780,0.424215230
1640836582954690048,-0.061951630,0.665044960,9.961892130,-0.148996730,-0.053973500,0.438769250
1640836582955239936,0.354776620,0.401607840,9.772461890,-0.199744140,-0.012902920,0.435014160
1640836582959820032,0.454269410,0.292729230,9.972551350,-0.089520220,-0.044412910,0.429660080
1640836582961580032,0.028417770,0.074418590,10.422984120,-0.059667230,-0.088179110,0.418977530
1640836582964689920,0.098983240,0.268262480,9.485580440,-0.125932720,-0.147189240,0.442120490
1640836582965539840,-0.015729670,-0.183399200,9.398170470,-0.172844560,-0.076489170,0.440512690
1640836582969619968,-0.046388620,-0.294598070,9.575191500,-0.146013510,0.028957430,0.418613880
1640836582971049984,-0.007544890,0.079326540,10.038010600,-0.050969420,-0.019499660,0.419798430
1640836582974739968,-0.152641920,-0.042404260,10.466655730,-0.082300630,-0.066733360,0.404585990
1640836582977589760,-0.136889000,0.189672130,9.843552590,-0.119458160,-0.111766170,0.429162440
1640836582979650048,-0.181691070,0.063160360,9.394032480,-0.082488370,-0.114946070,0.424100490
1640836582980609792,-0.117472930,0.087402690,9.078447340,-0.098355120,-0.023399300,0.410005450
1640836582984679936,0.078760960,0.378154580,9.569684030,-0.070120400,0.012025240,0.416187970
1640836582985149952,0.024285390,-0.017437780,10.474359510,-0.063145180,-0.013037030,0.411211010
1640836582989619968,-0.029779330,-0.018687360,10.262504580,-0.040575870,-0.137066840,0.411024780
1640836582990059776,-0.051885390,-0.108053430,9.512997630,-0.006480520,-0.151678920,0.422269140
1640836582995290112,-0.099442700,-0.265123310,9.317355160,-0.064769390,-0.026582180,0.402164460
1640836582995909888,-0.333237380,-0.022540330,10.058595660,-0.057438030,-0.021739310,0.398084580
1640836582999680000,-0.222651480,0.037514870,9.971807480,-0.026571750,-0.089187930,0.395120680
1640836583002569984,0.025679970,0.326979960,9.568334580,-0.023873150,-0.094237920,0.394733190
1640836583006099968,-0.210414650,0.659188930,10.097739220,-0.025753680,-0.060479340,0.401799410
1640836583006529792,-0.342459230,0.692320410,10.184944150,-0.079879160,-0.104029480,0.397169620
1640836583009739776,-0.377815570,0.724120740,9.839196210,-0.066548590,-0.168022530,0.413411920
1640836583010319872,-0.209533450,0.616411330,9.589665410,-0.026263300,-0.091987860,0.410322840
1640836583014729984,-0.017423980,0.802038970,9.702496530,-0.070817770,-0.013270980,0.403067470
1640836583015499776,-0.134685680,0.870653330,10.434503560,-0.136342690,-0.110277550,0.420509340
1640836583020179968,0.109023480,0.326513350,9.974103930,-0.154134630,-0.138616550,0.408016150
1640836583022009856,0.119582470,0.143657640,9.591152190,-0.078310080,-0.126789530,0.388340650
1640836583024750080,-0.180786160,0.181676180,10.069739340,-0.033321980,-0.110620270,0.391700860
1640836583025270016,-0.062885650,0.356613010,9.662342070,-0.147132580,-0.105407840,0.408221750
1640836583029789952,0.033930300,0.274366890,9.681287770,-0.215044660,-0.121894480,0.418292080
1640836583030560000,0.142625960,0.058676320,9.896398540,-0.148656950,-0.028084220,0.397092100
1640836583034700032,0.063077970,0.365992700,10.046936040,-0.065849710,-0.074476000,0.389224230
1640836583035419904,-0.287917820,0.450743910,10.287325860,-0.068220520,-0.179436830,0.407564700
1640836583039810048,-0.067526300,0.396639440,9.249469760,-0.186015670,-0.150732710,0.401817260
1640836583041060096,-0.027731680,0.276845690,9.223831180,-0.204938690,-0.079706320,0.401648940
1640836583044629760,-0.015087930,0.096591640,9.918091770,-0.115649400,-0.009056930,0.388926270
1640836583045129984,0.228858920,0.171546560,10.061035160,-0.083887600,-0.056269770,0.368654790
1640836583049700096,-0.078024800,0.006404070,10.498618130,-0.086201730,-0.143839430,0.388106700
1640836583050269952,-0.011050280,-0.341234890,9.551179890,-0.117269160,-0.158758460,0.385355980
1640836583055470080,-0.134563420,-0.403081570,9.130132680,-0.105869790,-0.140929220,0.377742980
1640836583055939840,-0.255907950,-0.387406950,9.483694080,-0.078158080,-0.034277140,0.379718930
1640836583059660032,0.059713320,-0.212476660,9.815013890,-0.070615140,-0.016045570,0.358581630
1640836583060009984,-0.254366310,-0.093261910,10.660938260,-0.030390920,-0.120988500,0.373934210
1640836583064750080,-0.134787470,0.003780870,9.763420100,-0.009559100,-0.175525250,0.391246470
1640836583065619968,-0.139449360,0.343618330,9.255151750,-0.043542690,-0.163652000,0.381122530
1640836583069679872,-0.488930140,0.370270640,9.880418780,-0.092871490,-0.076323750,0.384266700
1640836583070429952,-0.086963740,0.383655220,9.589905740,-0.062140830,-0.090895600,0.367824730
1640836583074800128,-0.110196430,0.316736910,10.108923910,0.015130640,-0.150667120,0.371253430
1640836583075449856,-0.010083580,0.314899410,10.016344070,0.020121040,-0.103870050,0.377970990
1640836583079650048,0.054363120,0.445695970,9.900711060,-0.070703040,-0.158450010,0.366392760
1640836583080099840,-0.379238690,0.129761670,10.251914980,-0.112114860,-0.197805490,0.377638730
1640836583084999936,0.060946410,0.062372060,9.152976990,-0.056426240,-0.154057150,0.366063450
1640836583085739776,-0.009470580,0.225524350,9.720304490,0.008621810,-0.108861950,0.341323110
1640836583090129920,-0.219903930,0.492966260,10.545234680,-0.025294720,-0.082454090,0.365212590
1640836583091419904,0.123160060,0.769553360,9.955837250,-0.117494190,-0.191694540,0.390717450
1640836583094689792,-0.176761970,0.492226090,10.105623250,-0.141277950,-0.213393600,0.380268780
1640836583095209728,-0.057677920,0.624148670,9.515131000,-0.075790290,-0.124567760,0.370441380
1640836583099689984,-0.135097310,0.797473010,9.644372940,-0.047792500,-0.146068680,0.366208020
1640836583101039872,-0.241510970,0.656201180,10.152412410,-0.115317130,-0.160582380,0.374884900
1640836583105209856,0.407686320,0.575423240,9.268966670,-0.168909130,-0.102107230,0.377568600
1640836583105939968,0.131393750,0.204837410,10.160634990,-0.141148280,-0.119723380,0.357462470
1640836583110109952,-0.021115920,0.157105670,10.392724040,-0.097170480,-0.138577820,0.365458460
1640836583111130112,0.156540660,0.176434620,9.409715650,-0.110799090,-0.229947270,0.370387760
1640836583114899968,-0.085662630,-0.361219290,9.622624400,-0.129045550,-0.163984310,0.362245740
1640836583115569920,0.221506690,-0.084208410,9.210516930,-0.114695740,-0.040100530,0.353050320
1640836583121449984,0.130538880,0.022054400,9.992645260,-0.106254240,-0.096927600,0.360448690
1640836583122429952,-0.048938460,-0.146256460,10.588710780,-0.111567970,-0.125791130,0.365160440
1640836583125129984,0.140833600,0.021007050,9.657675740,-0.062401600,-0.177419200,0.358100240
1640836583126899968,-0.255205420,-0.211492390,9.558253290,-0.028729440,-0.198137760,0.357757510
1640836583129760000,-0.029504330,0.087023000,9.073895450,-0.062082710,-0.061872610,0.340227780
1640836583130149888,0.049871720,0.318025320,9.612895010,-0.105489800,-0.040318080,0.332470240
1640836583134959872,-0.257316290,-0.013192260,10.740725520,-0.090117750,-0.123463580,0.337730350
1640836583136940032,0.073063460,0.119832570,9.634491920,0.013063850,-0.191709410,0.344824820
1640836583139919872,-0.174223020,0.062042500,9.321482660,0.038529930,-0.203697400,0.342388450
1640836583141270016,-0.228804920,0.060578810,9.634216310,-0.054734950,-0.073176620,0.359259580
1640836583144649984,-0.120024880,0.113414520,9.889292720,-0.085893280,-0.077649950,0.355979890
1640836583145079808,-0.277195160,-0.165495720,10.472466470,-0.026917460,-0.181542340,0.346820060
1640836583149639936,0.174609650,0.166976120,9.620235440,0.044980660,-0.151176780,0.352725480
1640836583150060032,-0.093263960,0.466261240,9.721346860,0.019198660,-0.156116520,0.334358300
1640836583154759936,-0.277009990,0.468684790,10.140784260,-0.087679930,-0.146576760,0.360420380
1640836583155249920,-0.063843370,0.513148250,9.608360290,-0.069044540,-0.164552030,0.369781260
1640836583159669760,-0.155318800,0.348065640,9.852436070,0.006130340,-0.188379000,0.338324900
1640836583160259840,0.068622870,0.744982240,9.912599560,0.006578860,-0.088813920,0.357662230
1640836583166689792,-0.033791120,0.895051540,10.076862340,-0.079214580,-0.154894590,0.364872840
1640836583167739904,-0.072948110,0.394307260,10.178819660,-0.151029240,-0.205837190,0.364466010
1640836583169629696,0.212459770,0.212838750,9.402559280,-0.058874500,-0.128559780,0.366349520
1640836583170009856,-0.150108740,0.111702200,9.968970300,0.029198830,-0.157429320,0.335878190
1640836583174700032,-0.137445880,0.373413150,9.927813530,-0.073210900,-0.158405320,0.361904500
1640836583175129856,0.254184480,0.352667420,9.215907100,-0.168074680,-0.154827540,0.373762850
1640836583179699968,0.246539920,-0.140188190,9.935845380,-0.148023680,-0.088709590,0.347642630
1640836583180179712,0.235629080,0.116885010,10.159889220,-0.009676810,-0.058592860,0.352413980
1640836583184669952,0.050174330,0.311686720,10.024516110,0.030770900,-0.213502380,0.353555410
1640836583185060096,0.009843390,0.268730190,9.575248720,-0.121603930,-0.190643970,0.377634170
1640836583189740032,0.207920190,0.234460340,8.921310420,-0.167092700,-0.080893930,0.378444880
1640836583190629888,-0.034138890,-0.198300510,9.843358040,-0.074432790,-0.056159500,0.343206550
1640836583194690048,0.062084670,0.006085920,10.220300670,0.021193920,-0.076104700,0.343465830
1640836583195159808,-0.021798180,0.148979900,9.976892470,0.026568770,-0.155812520,0.350594550
1640836583199980032,-0.259213030,-0.190482770,9.912724490,-0.089177500,-0.185032190,0.365377990
1640836583201989888,-0.225346250,-0.146204950,9.228940010,-0.081868470,-0.136686860,0.376099380
1640836583205639936,-0.289847850,-0.268643470,9.316799160,0.000923870,-0.118225810,0.331655110
1640836583206390016,-0.092394140,0.048640690,9.858261110,0.004194680,-0.053560730,0.312775370
1640836583210000128,0.039442480,0.360943170,10.153047560,0.016845770,-0.102134070,0.346393940
1640836583210469888,0.121551630,0.133513480,10.135298730,-0.009153790,-0.166939230,0.344391260
1640836583214739968,0.175758240,0.367052700,9.685032840,-0.024914740,-0.147746500,0.364436240
1640836583215639808,-0.042229100,0.250763860,9.696771620,0.000156460,-0.133439900,0.355780180
1640836583219719936,-0.077627320,0.122004290,9.769110680,0.001540780,-0.121884070,0.349623020
1640836583221139968,0.012774060,0.299159590,9.597592350,0.043062870,-0.114817930,0.358678490
1640836583224679936,-0.085181610,0.245923580,9.907635690,0.022293630,-0.111539680,0.343503090
1640836583225179904,-0.099374460,0.532858970,10.080204010,-0.064064570,-0.106607380,0.348515810
1640836583229719808,-0.421824870,0.501538930,10.181982990,-0.051532680,-0.177162860,0.355914210
1640836583230269952,-0.333092300,0.268430560,9.660396580,-0.010320540,-0.202177460,0.348059860
1640836583234979840,-0.047988970,0.568215430,9.207898140,0.035367910,-0.114695740,0.343586530
1640836583235559936,-0.112863560,0.773688080,10.093479160,-0.010696050,-0.073711570,0.346884100
1640836583239699968,0.238138410,0.881728710,10.121797560,-0.155965980,-0.100085150,0.356355310
1640836583242759936,0.445147510,0.674028580,9.954194070,-0.137656930,-0.158581140,0.360742240
1640836583244659968,0.381894800,0.201376770,9.929262160,-0.029546030,-0.110542780,0.341802840
1640836583245080064,0.289150540,0.382654960,9.521321300,0.022068620,-0.104884800,0.333756210
1640836583249719808,0.008596040,0.452412490,9.719540600,-0.067906080,-0.163920210,0.357329850
1640836583250409728,0.229354980,0.025088930,9.295958520,-0.223031650,-0.068506610,0.366918680
1640836583255040000,0.073299470,-0.180467620,9.771791460,-0.130289820,-0.045931350,0.341868460
1640836583255479808,-0.186305220,-0.253905000,10.351805690,0.035300850,-0.093242510,0.324928760
1640836583259630080,-0.175377800,0.106466700,9.615982060,0.014309590,-0.133100180,0.329087760
1640836583260009984,-0.313040140,0.217267800,9.582062720,-0.100131320,-0.153709950,0.347520380
1640836583264719872,-0.100941610,-0.042028610,9.331976890,-0.162973990,-0.056107330,0.344257030
1640836583266080000,0.072587090,0.161587570,9.449064250,-0.052277750,-0.047622630,0.328502060
1640836583269709824,0.131867110,0.375779630,10.145697590,0.037692490,-0.058029600,0.328308340
1640836583270299904,0.406758760,0.478060900,9.847690580,-0.030139090,-0.055813790,0.330112870
1640836583274679808,0.046592560,0.261189580,10.186243060,-0.069530310,-0.137220340,0.351788100
1640836583275189760,0.050641800,-0.153034180,9.444053650,-0.048848990,-0.126516830,0.357611570
1640836583280049920,0.072873760,-0.201545690,9.071265220,-0.017593800,-0.061909850,0.324083890
1640836583280819968,-0.326167110,0.045342900,10.198305130,-0.000193720,-0.029018520,0.322015520
1640836583284770048,-0.191935820,0.123414990,10.044492720,-0.055739290,-0.068958130,0.326716960
1640836583285329920,-0.341752260,0.141362800,9.948941230,-0.034253300,-0.169871760,0.330492880
1640836583290079744,-0.353471520,0.312510460,9.708011630,-0.005805490,-0.116413840,0.330407920
1640836583290609920,-0.272525700,0.507799860,9.500314710,-0.033476950,-0.054426500,0.323319460
1640836583294659840,-0.453118500,0.677483860,10.400273320,-0.039795050,-0.111570970,0.343473350
1640836583295290112,0.126637070,0.680041020,9.570343970,-0.054396690,-0.115430360,0.356630980
1640836583299899904,0.451237890,0.645589170,9.412635800,-0.054144860,-0.086164460,0.335603980
1640836583300809984,0.318848880,0.764447150,10.289840700,-0.065176190,-0.037136670,0.335459440
1640836583304750080,0.356983420,0.611652430,9.879024510,-0.109484810,-0.092932590,0.349213180
1640836583305479936,0.086589640,0.173055370,9.991868970,-0.081582370,-0.181838870,0.345940890
1640836583309729792,0.067650550,0.143922190,9.412729260,-0.058063860,-0.083325810,0.344674290
1640836583310629888,-0.010267290,0.157955070,9.280562400,-0.086097430,-0.058402120,0.346517560
1640836583314669824,-0.281071810,0.229122490,10.174982070,-0.126142780,-0.056670610,0.352787940
1640836583315189760,-0.009010080,0.102462050,9.703205110,-0.130510350,-0.055544090,0.350748000
1640836583319619840,-0.164252340,-0.151540680,10.032440190,-0.049714750,-0.108343360,0.329582420
1640836583321019904,-0.162490800,0.238566070,9.746079440,-0.001664460,-0.096938020,0.342884660
1640836583324659712,0.170925900,0.410023750,8.986145020,-0.102849300,-0.082404920,0.347960000
1640836583325079808,0.227902960,0.330607530,9.682024960,-0.183779020,-0.014065210,0.355590880
1640836583329609984,0.515848930,0.231629270,9.778223990,-0.123842080,0.040669750,0.356322620
1640836583330099712,0.346529960,-0.004479760,10.147924420,0.008794660,-0.094850350,0.338388950
1640836583334859776,0.163422260,0.079949600,9.735876080,0.036112960,-0.111384700,0.355373320
1640836583335449856,0.162932410,-0.012257580,8.846776010,-0.109262780,-0.055827210,0.353238080
1640836583340189952,-0.284097880,-0.399023440,9.873063090,-0.139501740,-0.012935700,0.349627520
1640836583341449984,-0.267021830,-0.282236580,9.728256230,-0.037747630,-0.001423060,0.326766070
1640836583346259712,-0.176387820,-0.084954530,9.768941880,0.039483610,-0.071565810,0.312280680
1640836583346739968,-0.433346450,0.165550250,10.271676060,0.007687510,-0.048702970,0.327402380
1640836583349629952,-0.255043540,0.397017780,9.434364320,-0.070056320,-0.077258060,0.342166480
1640836583350080000,-0.243683160,0.252028760,9.665565490,-0.077773640,-0.104811800,0.347378850
1640836583354669824,0.052570220,0.505685510,9.483622550,-0.032313160,0.009217860,0.341479450
1640836583355330048,0.238226760,0.673112390,9.724728580,-0.000552830,-0.012691320,0.333079730
1640836583359979776,0.049066120,0.604855900,10.572353360,-0.032973290,-0.092597310,0.339993830
1640836583362059776,0.292585520,0.631676970,9.381171230,-0.080658500,-0.089129810,0.350421700
1640836583364649984,0.087441810,0.335911510,9.674186710,-0.094199200,-0.079059620,0.336001870
1640836583365069824,-0.308727620,0.276391630,10.338460920,-0.075843930,-0.009866060,0.329458800
1640836583369699840,-0.219857280,0.468070660,9.733053210,-0.070466100,-0.093470520,0.333055850
1640836583370249984,-0.185059590,0.245000050,9.857882500,-0.092515360,-0.112688560,0.341285850
1640836583374779904,0.034614240,0.429284660,9.363521580,-0.104931020,0.020727520,0.336198540
1640836583375990016,0.091024450,0.563173060,9.832547190,-0.127640370,-0.032503910,0.339071540
1640836583379699968,0.089046880,0.410156220,10.365168570,-0.139033790,-0.060693930,0.345626530
1640836583380319744,0.320039930,0.445539030,9.405633930,-0.097955770,-0.065416110,0.340068340
1640836583384659968,0.207351850,0.364806650,9.860753060,-0.090686980,-0.079365080,0.329749290
1640836583385120000,0.141410080,0.553300860,9.529547690,-0.149758200,0.000450020,0.337003230
1640836583389679872,0.251635550,0.501858710,9.290360450,-0.212726010,-0.028435890,0.352796940
1640836583390329856,0.150450630,-0.058510120,10.186287880,-0.166238860,0.006622080,0.350326300
1640836583394779904,0.017867270,-0.100733110,9.889471050,-0.044755640,-0.004346670,0.342693920
1640836583395350016,-0.112269630,-0.119300790,9.772768970,-0.039440390,-0.120356700,0.342115790
1640836583399639808,-0.063158000,-0.170512470,9.348174100,-0.170207020,-0.012539330,0.343982930
1640836583400139776,0.118693150,-0.223624050,9.185397150,-0.195719300,0.057718150,0.336393680
1640836583404700160,-0.023582620,-0.386189160,10.364646910,-0.083023290,0.024928150,0.322771010
1640836583405239808,0.043212800,-0.048162690,9.784875870,0.024454300,-0.026160480,0.317861140
1640836583409709824,0.012616910,0.353772580,9.447076800,-0.041450560,-0.098121170,0.329586860
1640836583410179840,-0.111586350,0.172494310,9.620136260,-0.176763550,-0.006929040,0.340889390
1640836583414779904,-0.053009020,0.150289580,9.381182670,-0.125326230,0.021879370,0.340230790
1640836583415350016,-0.010843550,0.127578560,9.960016250,-0.010861460,-0.019271670,0.321957470
1640836583419620096,0.115185250,0.253044580,9.853811260,0.009809440,0.033029910,0.324130090
1640836583420100096,0.060343500,0.398209930,9.982870100,-0.067999970,-0.022856890,0.348022670
1640836583424809984,-0.186859210,0.003106840,10.236712460,-0.138269410,-0.064867750,0.354550870
1640836583425299968,-0.116368510,-0.084188460,9.241209980,-0.069677840,-0.045780840,0.338537990
1640836583429730048,-0.183916660,0.148430330,9.609138490,-0.003591180,-0.024466220,0.309948620
1640836583430119936,-0.203293800,0.437861000,9.975663190,-0.054763260,0.039538740,0.317513940
1640836583435389952,-0.065607260,0.673435090,9.932597160,-0.115433360,-0.028687720,0.344167740
1640836583435940096,-0.022487360,0.566280900,10.290719030,-0.129075390,-0.059063740,0.332966510
1640836583439630080,-0.116129100,0.612978580,9.883743290,-0.076575580,-0.009016700,0.331635770
1640836583440269824,-0.251226960,0.842561600,9.903123860,-0.065051030,-0.081461680,0.335742470
1640836583445259776,-0.229548710,0.666664240,9.790966990,-0.142429780,-0.070598710,0.357460950
1640836583445809920,0.197519270,0.469942480,9.150936130,-0.163589420,-0.001513960,0.360827180
1640836583449659904,0.249596030,0.350451410,10.132678990,-0.142505790,0.042256720,0.337284860
1640836583450170112,0.092481040,0.231073620,10.685554500,-0.135616970,0.012752420,0.346973540
1640836583455059968,0.143369110,0.170154820,10.036282540,-0.126831230,-0.122831780,0.350837470
1640836583456419840,0.058135520,-0.045254750,9.537819860,-0.146044790,-0.109943750,0.345662270
1640836583459729920,0.094801970,0.033939530,8.890453340,-0.144810990,0.031395260,0.348424940
1640836583460379904,0.077555310,0.312304530,9.570913310,-0.169137160,0.047281400,0.336931650
1640836583464740096,-0.020381300,0.186863290,10.486349110,-0.187906640,0.028866530,0.346924390
1640836583465989888,0.092615970,0.096829910,10.108830450,-0.117948670,-0.040310630,0.350681040
1640836583469679872,-0.112996820,0.063461690,10.000744820,-0.066787030,-0.103738920,0.338894220
1640836583471459840,-0.053572920,0.145168780,9.166288380,-0.125320270,-0.006991630,0.359034540
1640836583474669824,0.116160940,0.236381550,9.232873920,-0.194820760,0.053408750,0.353620950
1640836583475100160,0.053000550,-0.100152690,10.210269930,-0.180995480,0.065141920,0.341527160
1640836583479650048,0.225341780,-0.194620430,9.903719900,-0.045813620,0.004787740,0.344568490
1640836583480349952,0.103449010,-0.096627680,9.848676680,0.001472230,-0.070816290,0.337296720
1640836583484740096,-0.198122900,-0.162824900,9.743644710,-0.104285790,-0.017836690,0.345212220
1640836583485250048,-0.153426220,-0.171322050,9.439222340,-0.157554480,0.000390410,0.353008600
1640836583490099968,-0.346897510,-0.254510610,9.933767320,-0.097022950,-0.000573690,0.339980420
1640836583490769920,-0.000215510,0.005625330,9.584264760,-0.006763640,0.039049980,0.343662530
1640836583494659840,-0.055105780,0.362631950,10.150637630,0.002501900,0.004722180,0.341211230
1640836583495119872,-0.362507100,0.435689270,10.456399920,-0.099810970,-0.051157190,0.349496330
1640836583499709952,-0.060507390,0.478041020,9.359894750,-0.127925020,-0.076945140,0.355379370
1640836583500289792,-0.129251090,0.438346330,9.612555500,-0.083614890,-0.019809600,0.338661670
1640836583505049856,-0.035434370,0.597410440,9.983831410,-0.059291730,0.056050730,0.350025390
1640836583505789952,0.182502110,0.732414310,10.135443690,-0.072155890,-0.023466350,0.360897270
1640836583509689856,0.058721820,0.380612820,10.316340450,-0.120618950,-0.061316800,0.365366040
1640836583510099968,0.189205420,0.219042520,9.666474340,-0.118611770,-0.032229720,0.364624050
1640836583514679808,-0.082918600,0.189266130,9.887945180,-0.094211110,-0.042559210,0.351375370
1640836583515169792,-0.311964900,0.196775300,10.053591730,-0.133545700,-0.028646000,0.362846290
1640836583520089856,0.101578260,0.218854520,9.411480900,-0.134387610,-0.017622120,0.372444090
1640836583521859840,-0.029408060,0.183648820,10.003519060,-0.130350890,-0.002981720,0.329889390
1640836583524940032,-0.081214450,0.513055620,10.155465130,-0.140492620,0.027665500,0.348810850
1640836583525789952,0.000083720,0.621087790,9.916859630,-0.153139230,-0.092253100,0.376312460
1640836583529649920,-0.154299630,0.267591600,9.827128410,-0.163596910,-0.092184560,0.379063280
1640836583530220032,0.234205190,0.179456640,9.117786410,-0.111679740,0.021834670,0.377196070
1640836583535179776,0.206792150,0.192309100,9.733273510,-0.105123240,0.035201020,0.365208090
1640836583535899904,0.271398430,0.020213930,10.313035960,-0.160983200,0.050756340,0.388395760
1640836583539660032,0.535901430,-0.283820990,10.019382480,-0.145654410,-0.000731650,0.378707050
1640836583540189952,0.014541950,-0.633656020,10.200520520,-0.068205600,-0.073337550,0.350536440
1640836583544659968,0.047622570,-0.400597100,9.105660440,-0.028243670,-0.046455860,0.361464950
1640836583545100032,-0.047193260,-0.080550090,8.971604350,-0.099380310,0.010380150,0.349737730
1640836583549639936,-0.331809220,-0.022543470,10.051568980,-0.180225090,0.078594680,0.350649680
1640836583550159872,-0.163785400,0.157952350,10.216101650,-0.093212730,0.025761130,0.356036420
1640836583554699776,-0.436014440,0.213599070,10.252326970,0.023809080,-0.115107010,0.357386500
1640836583555409920,-0.273337390,0.439174830,9.461030960,-0.005941090,-0.041648750,0.381815430
1640836583559820032,-0.082053540,0.440424830,9.338898660,-0.098578640,0.036306680,0.382912190
1640836583560480000,-0.321738810,0.027523820,10.323826790,-0.125928240,0.004693870,0.370685820
1640836583564659712,0.329990630,0.047713930,9.591405870,-0.027130540,-0.018812720,0.374436380
1640836583565149952,0.352804900,0.015822760,9.762863160,0.033485880,-0.020164250,0.348283380
1640836583569739776,-0.000563340,0.133343010,10.430261610,-0.046828400,-0.008338690,0.356106460
1640836583572549888,0.058214870,0.307941650,9.777502060,-0.111685720,-0.074964770,0.373095270
1640836583574699776,-0.294992950,-0.055412310,9.839283940,-0.093813240,-0.097261390,0.350283090
1640836583575219968,-0.207634730,0.336396340,9.704660420,-0.034710770,0.021867460,0.358836440
1640836583579680000,-0.317017260,0.703096090,10.060602190,-0.016047060,-0.025495890,0.365330340
1640836583580179968,-0.536426130,0.694271390,10.526306150,-0.111348930,-0.093118850,0.385674860
1640836583584659712,0.065913360,0.725976170,9.422921180,-0.138752130,-0.053109230,0.404746830
1640836583585189888,-0.056269240,0.393400490,9.921916960,-0.096389650,-0.030204660,0.367933540
1640836583589609984,-0.124990900,0.460065660,10.465218540,-0.065511450,-0.016480690,0.375929420
1640836583590080000,0.297178030,0.548635840,9.553963660,-0.094515070,-0.100311640,0.382542640
1640836583594830080,0.207871810,0.246663360,9.764151570,-0.171251620,-0.081381220,0.362291990
1640836583595539712,0.459769960,0.265810580,9.556755070,-0.181356070,0.047197940,0.380484790
1640836583599660032,0.258423450,0.199706880,10.077740670,-0.125511040,-0.038234900,0.362669020
1640836583600590080,-0.198633790,0.058903170,10.616477010,-0.103357440,-0.106512020,0.375968220
1640836583604679936,0.081305220,0.194929840,9.246812820,-0.118774190,-0.091792670,0.373342690
1640836583605209856,-0.261837690,0.159172340,9.596962930,-0.166325270,-0.055067250,0.374011730
1640836583610179840,-0.163297370,0.081979010,9.896383290,-0.192327800,0.045965620,0.397229250
1640836583610829824,0.174106940,0.040775450,9.732966420,-0.118902330,0.011613970,0.377961990
1640836583614689792,-0.163728760,-0.207216900,10.609969140,-0.057294980,-0.078235580,0.372721340
1640836583615190016,0.169529530,0.041950250,9.385516170,-0.065657500,-0.066649910,0.387892130
1640836583619619840,0.050083050,-0.005318340,9.201683040,-0.145827230,-0.086563830,0.362014770
1640836583620100096,0.050551280,-0.269466490,9.837219240,-0.196313860,0.026698410,0.372707870
1640836583624699904,0.334567930,-0.203860150,9.675806050,-0.064285110,0.046335160,0.349706440
1640836583625329920,0.026989720,-0.207870080,10.464075090,0.029374660,-0.082255900,0.342242360
1640836583629720064,0.054572420,0.080554600,9.732173920,-0.036901240,-0.056312980,0.378547640
1640836583630919936,-0.142103000,0.095378660,9.307430270,-0.129763770,-0.071690980,0.374439300
1640836583634820096,-0.494267200,-0.321418260,10.016551020,-0.128616360,-0.051507350,0.377373340
1640836583635289856,-0.165313930,-0.123003580,9.291532520,0.012750930,-0.009840730,0.356559460
1640836583639659776,-0.239250720,0.100786860,9.892526630,0.068816540,-0.054317720,0.334796310
1640836583640209920,-0.046187060,0.365355640,10.263690950,-0.058224810,0.011053680,0.369159940
1640836583645040128,0.045726910,0.439244240,10.055632590,-0.115731360,-0.063867870,0.369660500
1640836583645989888,-0.152771070,0.000392000,10.265886310,-0.073033560,-0.153763560,0.358004810
1640836583649679872,0.173119980,0.172575910,9.053750990,0.034698850,-0.044089560,0.349999990
1640836583650159872,0.017147650,0.447622510,9.623117450,0.038887560,-0.030551860,0.339016380
1640836583654639872,-0.070423450,0.476165380,10.424626350,-0.111812350,-0.028757750,0.375241040
1640836583655119872,0.312418880,0.410466700,9.679080960,-0.125817970,-0.078301130,0.377838310
1640836583659659776,0.035050570,0.157538460,10.272505760,-0.060714790,-0.100448740,0.342071150
1640836583661579776,-0.075895350,0.386721580,10.053125380,-0.012342630,-0.021173060,0.348791450
1640836583665349888,-0.152100090,0.529258730,9.924123760,-0.029085580,-0.113594550,0.355704130
1640836583666409984,-0.186568320,0.307473780,10.005993840,-0.140906900,-0.088511430,0.366845820
1640836583670209792,0.301718440,0.450781350,9.165792470,-0.145368310,0.000774860,0.368434250
1640836583670759936,0.184000850,0.466244670,10.203022960,-0.105403380,-0.017122920,0.351472230
1640836583674729728,0.169173610,0.272415430,10.382539750,-0.095672910,-0.024200980,0.376555320
1640836583675229952,0.344874980,0.190215540,9.667092320,-0.055144740,-0.106239330,0.357680020
1640836583679630080,-0.012960750,0.011707510,9.937381740,-0.083476330,-0.098280620,0.357404440
1640836583680699904,0.164460540,0.087536180,9.176416400,-0.147484210,-0.006924570,0.380393890
1640836583684689920,0.186992110,0.021425110,9.746805190,-0.157780960,0.001832840,0.362578060
1640836583685240064,0.040577780,-0.249556750,10.341060640,-0.105986020,0.018438700,0.347793100
1640836583689859840,0.134667040,-0.023301920,9.741298680,-0.005346540,-0.055255010,0.348165630
1640836583691059712,-0.181382980,0.028225880,9.901851650,-0.039270520,-0.112400960,0.347113640
1640836583694729984,-0.090222210,-0.093232030,9.281551360,-0.141342010,-0.030025850,0.355576040
1640836583695879936,-0.021106920,-0.076568900,9.542228700,-0.111976270,0.006318090,0.344327120
1640836583699659776,-0.046910100,-0.200305540,10.139233590,-0.042146460,0.007815660,0.333805410
1640836583700150016,0.261362580,0.003435400,9.816223140,0.009976330,-0.007985530,0.344131920
1640836583704679936,0.133170750,0.116747710,10.241261480,-0.026738650,-0.044333950,0.344073830
1640836583705139968,-0.048029990,-0.108898370,9.889720920,-0.100173070,-0.077676780,0.360946390
1640836583709649920,0.016508340,-0.200107460,9.254285810,-0.037129230,-0.072219970,0.354442030
1640836583710229760,-0.143478440,-0.181903020,9.760139470,0.019994380,0.009447340,0.314201440
1640836583715270144,-0.130911950,0.210798580,10.055629730,0.003151600,0.012829900,0.325144860
1640836583715989760,-0.040747740,0.454807370,10.276462550,-0.049655150,-0.058370840,0.345885750
1640836583719660032,-0.037450910,0.286487370,10.080614090,-0.087028760,-0.061966490,0.346383510
1640836583720150016,0.021350820,0.375091880,9.754063610,-0.017832220,-0.041176390,0.353290230
1640836583724659968,-0.208150100,0.531882700,10.049888610,0.017337510,-0.051920120,0.342460070
1640836583725149952,-0.210869480,0.538127420,9.776481630,-0.065495080,-0.065776690,0.363956330
1640836583729709824,0.119224710,0.525432170,9.575555800,-0.088807940,-0.056645290,0.371676740
1640836583730249984,0.089345810,0.383657780,10.020366670,-0.094327320,-0.014004110,0.333784520
1640836583734919936,0.269363580,0.441926540,10.042147640,-0.075149560,-0.009419030,0.350026880
1640836583735579904,0.278686490,0.311060610,10.179841040,-0.053769360,-0.042325260,0.352536140
1640836583740000000,0.091646910,-0.053572760,10.019069670,-0.075000520,-0.084061930,0.337889790
1640836583741959936,0.257249920,0.127972100,9.347736360,-0.069396210,-0.054556140,0.360223650
1640836583744659968,0.034416670,0.160244140,9.516189580,-0.106589500,-0.022347270,0.353699920
1640836583745280000,0.040569660,-0.093515370,9.811271670,-0.149728370,0.012338160,0.358104710
1640836583749680128,0.238327070,-0.013558870,9.859521870,-0.051185500,0.018031900,0.331114260
1640836583750259968,-0.055511810,-0.049337960,10.258325580,-0.009049480,-0.040943920,0.314965870
1640836583755200000,-0.002934180,0.111914180,9.824595450,-0.058592870,-0.048787890,0.353172510
1640836583755689984,-0.144116710,0.127320780,9.528013230,-0.117853310,-0.052221130,0.343507590
1640836583759670016,-0.073222830,-0.315958260,9.558503150,-0.116050250,-0.011055170,0.334012540
1640836583762029824,0.172795920,-0.143210050,9.438022610,0.011712310,0.066646930,0.329852130
1640836583764649984,-0.045818290,-0.018780480,10.138363840,0.029660760,-0.011636320,0.312788810
1640836583765110016,0.044261880,-0.047969470,10.170009610,-0.064855820,-0.058777630,0.344589350
1640836583769600000,0.070064490,-0.070214200,9.585152630,-0.087848290,-0.052890190,0.336717070
1640836583770149888,-0.169122620,-0.425904750,9.833494190,-0.032497950,-0.034275650,0.310572980
1640836583775109888,-0.011761110,-0.072533310,9.768281940,0.064283620,0.013267990,0.319552450
1640836583775980032,-0.079120200,0.337675750,9.900892260,0.024619700,-0.018575790,0.280538200
1640836583779660032,-0.028755050,0.385805960,10.111598970,-0.107160220,-0.043001760,0.322261420
1640836583780140032,0.125340830,0.331341420,9.662848470,-0.064915400,-0.035946060,0.344644520
1640836583784790016,-0.084408210,0.120507530,9.985413550,0.025810310,-0.053133080,0.300008090
1640836583785299968,0.023460520,0.392418300,9.989909170,0.037233520,-0.008083880,0.323300090
1640836583789690112,-0.121145550,0.405105530,10.022686000,-0.025492910,-0.049702830,0.324688940
1640836583791610112,-0.009671890,0.098853950,10.053447720,-0.108020010,-0.070145730,0.322192940
1640836583794929920,0.219571140,0.268738150,9.644144060,-0.060147050,0.014536080,0.324821470
1640836583795449856,-0.116459400,0.434684600,10.188780780,-0.026327370,-0.047399110,0.294859740
1640836583799599872,0.037074040,0.493809670,10.019525530,-0.070105490,-0.062631080,0.321874020
1640836583800119808,0.090415440,0.474413570,9.511311530,-0.062222790,-0.050520900,0.329391660
1640836583804790016,-0.020026810,0.329903900,10.119727130,-0.074242060,-0.043624640,0.323525100
1640836583805449984,0.319519190,0.573880790,9.704706190,-0.102370990,0.021708020,0.351409700
1640836583811499776,0.225237300,0.520643290,10.052338600,-0.122983770,-0.034649680,0.339870210
1640836583812209920,0.335258480,0.051653410,10.146800990,-0.135684040,-0.001516940,0.338140220
1640836583814649856,0.294937670,-0.033624870,9.591319080,-0.022868810,-0.009417530,0.326026920
1640836583815150080,-0.130662870,0.021903400,9.951850890,-0.034311420,-0.099071880,0.307293240
1640836583819699968,0.222346590,0.068585030,9.234748840,-0.179325090,0.002978740,0.340519880
1640836583820329984,0.118384820,-0.080462470,9.681200980,-0.176318000,0.057514020,0.328424570
1640836583824920064,0.008246960,-0.372612950,10.518064500,-0.074337430,0.035728510,0.306457310
1640836583826129920,0.238762470,-0.085326460,9.770009990,0.038972490,-0.005911290,0.320678890
1640836583829739776,-0.107646150,0.103127620,9.926862720,-0.026659670,-0.051327060,0.328899920
1640836583830689792,0.020789280,-0.140611710,9.571210860,-0.174282510,0.009167200,0.350017850
1640836583834640128,-0.047357090,-0.227548480,9.486084940,-0.090444100,0.007219610,0.331322880
1640836583835129856,-0.046673750,-0.258120510,9.819540980,0.008453430,0.015181300,0.295703080
1640836583839920128,0.306864740,0.078630090,9.658604620,0.023794170,0.069965430,0.297956170
1640836583841829888,-0.036757050,0.169712070,10.479333880,-0.029075140,0.020237260,0.310364340
1640836583845169920,-0.055479970,-0.066463660,10.155006410,-0.098727640,-0.056351730,0.329412460
1640836583845619968,0.042768210,-0.103820980,9.265626910,-0.018662220,-0.056204210,0.324764940
1640836583849609728,-0.187991260,-0.133595820,9.782776830,0.038564210,0.042934720,0.293880730
1640836583850129920,-0.048467130,0.199834670,9.936649320,0.004181270,0.068308420,0.313362480
1640836583854709760,-0.131191580,0.289651690,10.267977710,-0.022855410,-0.038614880,0.324067560
1640836583857609984,-0.003526950,0.183780710,9.879218100,-0.062802440,-0.034601990,0.308731200
1640836583859729920,0.122313930,0.377791580,9.561110500,-0.026446580,0.003422800,0.312724740
1640836583860359936,-0.288455780,0.319377570,10.427750590,0.008420650,0.004708770,0.304368140
1640836583864999936,-0.128265100,0.370361780,9.902598380,-0.028096140,-0.039371850,0.316217540
1640836583866909952,0.124458190,0.375062470,9.579240800,-0.024217370,-0.048311060,0.320820600
1640836583869629952,0.124581340,0.439476070,9.961792950,-0.087565180,0.067482890,0.309743020
1640836583870119936,0.370291470,0.539601920,10.022557260,-0.115139790,0.039391220,0.326871870
1640836583874759936,0.194559290,0.085819630,10.439075470,-0.041010980,-0.038453940,0.310744350
1640836583875480064,0.246406810,0.013222040,9.725585940,0.004054610,-0.044021020,0.293332370
1640836583879619840,0.207583770,0.296447010,9.434960370,-0.018295650,-0.016081340,0.322516260
1640836583880179968,-0.115587500,0.270350340,9.931590080,-0.150281240,0.034755470,0.336514470
1640836583884640000,0.268087060,0.110007300,9.566808700,-0.196589560,0.043600810,0.328503550
1640836583885120000,0.181952520,-0.013317860,10.214194300,-0.031879540,0.065067420,0.310289890
1640836583889969920,-0.076323730,0.088667580,10.310414310,0.048190350,0.017584860,0.299200390
1640836583890349824,0.077590310,0.301224050,9.575054170,-0.038188690,-0.065667920,0.330065130
1640836583894729728,-0.080763110,0.007343800,9.495295520,-0.160756750,0.004543360,0.334306150
1640836583895340032,0.156553390,-0.284789620,9.254865650,-0.144259630,0.072993350,0.314620170
1640836583899699968,0.276027470,-0.293239800,9.949304580,0.021302700,0.094392890,0.295561490
1640836583900149760,0.136139180,-0.156298730,10.352140430,0.061334670,0.072844330,0.293698910
1640836583904679936,0.220236060,-0.000829830,9.961493490,-0.035658480,-0.038658080,0.317181680
1640836583905200128,-0.011809470,-0.227759690,9.646413800,-0.087846820,-0.026829540,0.334984060
1640836583909659904,-0.094769020,-0.349274640,9.120342250,-0.054787100,0.038462880,0.304067130
1640836583910240000,-0.038347150,-0.177726600,9.631330490,0.048713390,0.082781930,0.296454220
1640836583914809856,-0.169108020,0.071732490,10.280019760,0.054636600,0.101150590,0.286039710
1640836583915500032,-0.049098970,0.212406040,10.187870030,-0.011378530,-0.015635790,0.311258440
1640836583919800064,-0.061511590,0.209441650,9.830689430,-0.016035140,-0.029101970,0.330664220
1640836583920470016,-0.109779500,0.099536840,9.444022180,-0.018204750,0.033897160,0.318592820
1640836583924640000,-0.098936490,0.196080040,9.868456840,0.038012870,0.035862620,0.324900480
1640836583925159936,-0.101048830,0.220250260,10.023421290,0.050027680,0.028471650,0.320494200
1640836583929750016,0.202086820,0.256986170,9.688814160,0.002180040,0.008478760,0.315360750
1640836583930269952,0.259820310,0.418044150,10.083950040,-0.024311240,0.035625700,0.320746030
1640836583934749952,0.037352290,0.369703920,10.123792650,-0.065232820,0.033991040,0.315335420
1640836583936290048,0.020071960,0.354070510,9.952180860,-0.030700870,-0.051169100,0.329077300
1640836583940039936,0.021318210,0.276337390,9.615625380,0.031159820,-0.004720690,0.333160250
1640836583941120000,-0.049543030,0.384598820,9.493443490,-0.010994080,0.048685070,0.327932860
1640836583944609792,0.086649950,0.623401820,10.032291410,-0.095137970,0.039096180,0.362448390
1640836583945129984,0.151838850,0.225702050,10.072706220,-0.133621690,0.049218550,0.359244670
1640836583949600000,0.229139210,0.021344850,9.960140230,-0.036585330,0.002343950,0.323461000
1640836583950170112,0.154569910,0.174430800,9.850621220,0.047309700,0.012077390,0.321193040
1640836583954759936,-0.043486800,0.131443070,9.563878060,-0.054270030,0.012139980,0.339812070
1640836583955489792,0.230461780,0.061786410,9.480245590,-0.134631990,0.007842480,0.347755880
1640836583959630080,0.270844820,-0.254471510,9.597773550,-0.102297970,0.123481450,0.336231260
1640836583960179968,0.203858970,-0.215336110,10.131211280,-0.011166930,0.085380680,0.325071810
1640836583964640000,0.251857070,0.016377280,10.145608900,0.041297080,0.020605320,0.341233640
1640836583965539840,0.006130170,-0.270376030,9.682508470,-0.038822000,-0.004178290,0.348895820
1640836583969859840,-0.019075370,-0.349787590,9.411666870,-0.061927740,0.013326110,0.360028510
1640836583970639872,-0.009685130,-0.391409810,9.221748350,-0.012896960,0.094944250,0.345265900
1640836583974700032,0.023790010,-0.354756300,9.763140680,0.015673040,0.106382380,0.322875380
1640836583975190016,0.113725570,-0.131055500,10.345314030,0.054925680,0.098852820,0.327269760
1640836583979589888,0.017865690,-0.229255810,9.924011230,0.041487820,0.001817940,0.322388140
1640836583980109824,0.066002150,-0.224715220,9.353096010,0.048053260,-0.015975530,0.342386990
1640836583985080064,0.071309860,-0.190101040,9.132710460,0.049284110,0.111937550,0.342804250
1640836583986150144,-0.138010010,-0.289772270,9.786312100,0.044712420,0.097791860,0.327074560
1640836583989760000,-0.137721990,-0.161816660,10.146708490,0.111716980,0.037604570,0.334014030
1640836583990289920,-0.072402680,-0.052622960,9.461599350,0.106893480,0.005695220,0.333911210
1640836583994629888,-0.227036940,0.119396610,9.831077580,0.053912400,0.030384960,0.337818290
1640836583995249920,-0.353969660,0.218790190,10.096987720,0.038973990,0.052337360,0.343045590
1640836584000009984,-0.317519990,0.103554590,9.630478860,0.069266570,-0.025956330,0.328443910
1640836584000910080,-0.039072660,0.224434880,9.501285550,0.131390990,0.013467670,0.324852790
1640836584004740096,0.078948830,0.413897870,9.638085370,0.103023670,0.100919620,0.325758840
1640836584005469952,-0.008409610,0.420823690,10.291540150,0.022532040,0.014723840,0.349566310
1640836584009699840,0.098209770,0.383605720,10.037027360,0.021320580,-0.039738410,0.351825330
1640836584010139904,0.076173130,0.127990100,9.344272610,0.040467090,-0.031684340,0.328098240
1640836584014649856,-0.034418870,0.303947870,9.819642070,0.085316600,0.029473010,0.321640130
1640836584015329792,-0.151471610,0.616221610,10.026140210,0.035136940,0.041028860,0.332304870
1640836584020089856,-0.068246720,0.417546510,9.976468090,-0.060862310,-0.036385660,0.358237360
1640836584020809984,0.141627180,0.342595310,9.757664680,-0.013847650,0.011153520,0.359854160
1640836584024770048,-0.054051070,0.194187270,9.838961600,0.038869680,0.028690690,0.346332760
1640836584025519872,-0.136287110,0.286548850,10.089351650,0.028266010,-0.014954810,0.354385320
1640836584029639936,-0.038703180,0.344916940,9.681678770,-0.024738910,-0.044761600,0.358563660
1640836584030159872,0.169891270,-0.069948000,9.428466800,-0.074288260,-0.006574390,0.344586310
1640836584034749952,0.507315460,0.245019330,9.603877070,-0.023972990,0.102363530,0.347062920
1640836584035439872,0.292781380,0.137672290,10.257431030,-0.001882020,0.077700610,0.343561140
