# timestamp,accel_x,accel_y,accel_z,gyro_x,gyro_y,gyro_z
1640841387.976280,-0.296155870,0.755974530,9.746594430,0.017710030,0.010386110,0.008682910
1640841387.978670,0.180806960,0.465064500,8.772650720,0.020596390,-0.034137070,-0.001195070
1640841387.981469,-0.274304390,0.627446170,10.033562660,0.068297990,0.022701920,0.022451580
1640841387.983559,-0.075795170,0.699846210,9.279481890,0.005342070,0.056399410,-0.002750750
1640841387.986130,-0.083841880,0.266485040,10.408595090,-0.033962730,-0.047995150,0.001209970
1640841387.988500,-0.351298090,0.558757250,10.418856620,-0.003735720,0.012086330,-0.005204980
1640841387.991560,-0.021417310,0.516843080,9.479715350,-0.049522530,-0.043952470,-0.022976100
1640841387.993700,-0.253600120,0.390027140,10.111020090,-0.031250720,-0.005529820,0.039742890
1640841387.997259,0.013063670,0.367637250,9.135857580,-0.014282760,0.045321890,-0.003972650
1640841387.998550,0.022681460,0.198718210,10.015847210,-0.016613300,-0.013057890,-0.018428270
1640841388.001210,-0.211045650,0.492031130,9.926954270,-0.048610570,0.038614870,0.005793570
1640841388.003520,0.014677290,0.223699420,9.527561190,-0.092995180,-0.051037980,-0.026671590
1640841388.006110,-0.231734050,0.176517100,10.210798260,-0.046677890,-0.013086200,0.005763770
1640841388.008710,0.066773230,0.456453290,8.849850650,-0.031429520,0.049996370,0.006625060
1640841388.011279,0.023727690,0.117054790,10.113285060,-0.053341690,0.006869440,0.019954150
1640841388.013620,-0.016163680,0.259196070,9.974325180,-0.035220390,0.090558830,0.037103900
1640841388.016240,0.173328770,0.165232320,9.398369790,-0.056988010,-0.056755550,-0.014169520
1640841388.018540,-0.179890900,-0.005756270,10.344020840,-0.054734950,-0.010910630,0.009679790
1640841388.021190,0.029851350,0.002767760,8.830571170,-0.027251250,0.068509580,-0.022287670
1640841388.023569,-0.208587410,-0.267707790,10.111763000,0.013308230,-0.032596290,-0.049731130
1640841388.026310,-0.401622710,0.140350550,9.766205790,0.013825300,0.093464550,-0.004258750
1640841388.028679,-0.068578020,0.117179920,8.856403350,-0.059886280,-0.034335260,-0.000502170
1640841388.031520,-0.479956300,-0.064574960,10.663252830,-0.029301650,-0.013919180,0.020703670
1640841388.033589,-0.169955640,0.274648460,9.067944530,0.024153290,0.064845380,0.007015470
1640841388.036140,-0.189717140,0.086122800,10.175490380,0.027930740,-0.062520810,-0.002446770
1640841388.038560,-0.226087840,0.161990700,10.470235820,0.033578280,0.092452790,0.011305510
1640841388.041740,0.280883850,0.218111530,9.067397120,0.012905900,0.017994640,-0.033572320
1640841388.043759,-0.322727020,0.194759060,10.769412990,0.006771090,-0.046548250,-0.010608140
1640841388.046130,-0.047716600,0.589104180,8.846523280,-0.020644070,0.043906270,-0.006482000
1640841388.048540,-0.043431710,0.505414190,9.255139350,-0.019066030,-0.099563610,-0.028890370
1640841388.051230,-0.548148510,0.775646510,10.333780290,-0.003397460,0.049911440,0.006984170
1640841388.053530,-0.041957270,0.832723080,8.946293830,-0.053870680,0.040982660,-0.007103380
1640841388.056310,-0.507667480,0.325940670,11.286889080,-0.036881860,-0.064143540,0.006416440
1640841388.059020,-0.355941890,0.493922140,10.015411380,0.002758210,0.055138770,0.012010340
1640841388.061200,-0.018891640,0.344727670,9.208540920,-0.043040510,-0.105217120,-0.006040930
1640841388.063680,-0.303341090,0.298569680,10.053805350,-0.086238990,0.002482530,0.034077480
1640841388.066680,0.513044120,0.417055550,8.342928890,-0.110758840,0.088390690,-0.018052760
1640841388.068850,0.309625330,0.268687130,10.367925640,-0.071604560,-0.005868080,-0.035436460
1640841388.071560,0.099604950,0.587510470,10.198101040,-0.057116160,0.079214600,-0.004990400
1640841388.074070,0.318294910,0.300103100,9.345148090,-0.086109350,-0.077649970,-0.018483400
1640841388.076190,-0.546828090,0.049324050,10.546689990,-0.061079860,-0.055319070,0.036552540
1640841388.078680,-0.368605640,0.115049260,8.574339870,-0.076836360,0.021173060,0.028410560
1640841388.081200,-0.441202250,-0.356168090,9.695198060,-0.064946710,-0.027243790,0.021655860
1640841388.083619,-0.458161290,-0.150148420,10.012574200,-0.034645200,0.116950280,0.009225310
1640841388.086110,0.240492370,0.072839510,9.415971760,-0.048369170,0.015118720,-0.044253470
1640841388.088680,-0.034026820,0.079544520,10.712051390,-0.057746480,-0.008389360,-0.013278430
1640841388.091240,0.339187710,0.299012600,9.066012380,-0.055003180,0.031752880,-0.007981060
1640841388.093840,0.151617530,-0.064863070,9.739669800,-0.012598930,-0.050833830,-0.019742550
1640841388.096259,-0.271047830,0.062427820,9.659418110,0.016760830,0.052931910,0.006559490
1640841388.098520,-0.037504420,0.066258970,9.005435940,-0.015231970,-0.002886360,-0.003564360
1640841388.101199,-0.623355510,-0.126675020,10.673413280,-0.020013750,0.001223390,0.004030760
1640841388.103530,-0.405691470,0.418942330,9.453060150,-0.029404460,0.022485850,-0.003282730
1640841388.106230,-0.328126400,0.340727390,10.047043800,-0.042232870,-0.074039400,-0.003336370
1640841388.108600,-0.385845360,0.212495310,10.078913690,-0.008961560,0.072287050,0.016585000
1640841388.111420,0.041260380,0.323036820,9.457935330,0.044430780,0.012376910,-0.018917030
1640841388.113600,-0.336983860,0.185744760,10.710820200,0.035417080,-0.036552540,-0.009247660
1640841388.116210,-0.030624210,0.497959910,8.995507240,-0.040301680,-0.014610590,-0.009641050
1640841388.118549,0.046664740,0.523700710,9.526941300,-0.078856940,-0.088568020,-0.026634340
1640841388.121490,-0.186311070,0.614852250,9.967690470,-0.075817120,0.070808830,0.000856820
1640841388.123580,0.238850850,0.838746490,9.234021190,-0.050006810,0.010971720,0.000052150
1640841388.126570,-0.297869680,0.461135890,11.194242480,-0.008642670,-0.019931790,0.026738650
1640841388.130400,-0.143489540,0.445253550,9.675348280,-0.016266110,0.014851990,0.035969920
1640841388.131420,-0.238229010,0.301462380,9.722873690,-0.077292330,-0.139351190,0.011958180
1640841388.133580,-0.500351490,0.041594650,9.925453190,-0.125652570,0.029589240,0.007258360
1640841388.136370,0.208517210,0.081440500,8.567767140,-0.090681030,0.040158630,-0.037847460
1640841388.138700,-0.175993610,0.087873540,10.800562860,-0.027351080,0.002568960,-0.059150160
1640841388.141120,0.184161420,0.343478230,9.450541500,-0.053542860,0.090667630,-0.016975400
1640841388.143900,0.293831170,0.174978410,9.589084630,-0.073517840,-0.096124420,0.014701490
1640841388.146220,-0.455605830,-0.066993390,10.603146550,-0.054523360,-0.006815790,0.046327710
1640841388.148559,0.038352300,0.015755740,8.452409740,-0.037480890,-0.022320450,0.046764310
1640841388.151170,-0.438210280,-0.271034300,10.341570850,-0.022488830,-0.056184830,0.019237400
1640841388.154000,-0.148741010,-0.114895710,9.682168010,-0.019727650,0.155757370,-0.019319360
1640841388.156170,0.240921940,0.168255220,9.638116840,-0.018170480,-0.015458470,-0.049480800
1640841388.158579,-0.266878160,0.237683330,10.917207720,-0.038336210,-0.005632640,-0.025151670
1640841388.161330,0.399884020,0.379618170,8.498093610,-0.043703620,0.020599370,0.005161760
1640841388.163600,-0.200767250,0.042178610,9.967516900,0.022125250,-0.074738260,0.022433700
1640841388.166220,-0.485700040,-0.078523310,9.694782260,0.036089130,0.066833210,0.035522880
1640841388.168789,-0.074074170,-0.123750250,8.932499890,0.032158200,-0.036975740,0.021418930
1640841388.173310,-0.646863580,-0.321683290,11.034390450,0.022496280,-0.001834330,-0.005961950
1640841388.174379,0.030085990,0.234602350,9.367079730,-0.013862550,0.074799360,-0.015589600
1640841388.176169,-0.082415710,0.356435480,10.273511890,-0.012679400,-0.066772110,-0.011934340
1640841388.178920,-0.195086030,0.312500240,10.319850920,0.010338430,0.060473390,0.013388700
1640841388.181180,0.343582090,0.499298040,8.899043080,0.076502570,-0.016267600,0.008580090
1640841388.183630,-0.355966030,0.301812110,10.391673090,0.067138670,-0.052560870,0.013589860
1640841388.186230,-0.103215310,0.401273520,9.169938090,-0.001952050,0.045682490,0.024041530
1640841388.188530,-0.173820080,0.474210830,9.767685890,-0.026077030,-0.062066320,0.002776090
1640841388.191239,-0.497099100,0.563155290,10.508831020,-0.051818790,0.014200810,0.000889600
1640841388.193810,0.226557670,0.898322280,9.125420570,-0.044980650,0.036667290,0.014351310
1640841388.196159,-0.212087240,0.530574200,10.836832050,-0.013574960,0.003856420,0.014358760
1640841388.198570,-0.156574890,0.482021120,10.116436000,0.013165180,0.031265620,0.028477610
1640841388.201670,0.007280380,0.548693420,9.369474410,-0.018443170,-0.099858640,0.013104080
1640841388.203860,-0.325914320,0.239265100,9.865331650,-0.111727400,-0.004996360,0.009693200
1640841388.206140,0.153112410,0.394944490,9.051726340,-0.113438080,0.056910520,-0.005649030
1640841388.208540,-0.094649450,0.459319290,10.358943940,-0.075110790,0.003324450,-0.041948260
1640841388.211200,0.187558900,0.595922470,9.776386260,-0.082373620,0.061196100,0.000369550
1640841388.213709,0.276732500,0.511913180,9.789684300,-0.065824400,-0.005812940,0.042513010
1640841388.216300,-0.324254360,0.007197340,10.552556990,-0.064073500,-0.008121130,0.059582300
1640841388.218570,-0.086905230,0.003070630,8.999883650,-0.056101380,-0.051286830,0.080101190
1640841388.221150,-0.286514700,-0.270663350,9.615263940,-0.076343120,-0.018255410,0.042545790
1640841388.223549,0.068990100,-0.395137760,9.508822440,-0.084576010,0.161562870,-0.005939600
1640841388.226400,0.245434750,0.051813290,10.207077030,-0.031770770,0.064435610,-0.046882030
1640841388.228670,0.000465860,0.211310340,10.610416410,-0.061124560,0.036758190,-0.036591290
1640841388.231140,0.322595000,0.314971770,8.946122170,-0.065656010,-0.025686620,0.023253260
1640841388.233760,-0.277451930,0.128475340,9.656875610,-0.008401270,-0.037813180,0.039578970
1640841388.236359,-0.483833160,-0.032713860,9.108804700,-0.002239640,0.069634610,0.049762420
1640841388.238530,-0.406280100,-0.061062060,9.411231990,0.018997490,-0.008013840,0.043979290
1640841388.241119,-0.536053000,-0.250974000,10.636347770,-0.013466180,0.091770290,-0.006118420
1640841388.243660,0.117110870,0.035625470,9.766631130,-0.026082990,0.087347620,-0.016309320
1640841388.246280,-0.082259640,0.162815680,10.581303600,0.001865630,-0.008969010,-0.009970370
1640841388.248610,0.102080280,0.038200330,9.575515750,0.014056270,0.053521980,0.011634830
1640841388.251210,0.114728970,0.078367380,8.988102910,0.086931890,-0.037154560,0.038778780
1640841388.253530,-0.397386160,0.045589000,9.698966980,0.064218040,0.018911070,0.031948090
1640841388.256120,-0.172383920,0.010589580,9.143962860,0.001491610,0.064490740,0.026613480
1640841388.259019,-0.496061150,0.222493620,10.576187130,0.027935210,-0.020752850,-0.003314020
1640841388.261289,-0.485077680,0.565314890,10.567322730,0.010132790,0.034956640,-0.023625790
1640841388.263670,-0.089830030,0.946709330,9.592855450,-0.008624790,-0.015008450,0.004118680
1640841388.266409,-0.298454760,0.836460830,10.274299620,-0.012707710,0.008040660,0.020666420
1640841388.268649,0.061989840,0.641608180,9.356920240,0.007271770,0.068360560,0.020281970
1640841388.271190,-0.105161470,0.551731770,9.672683720,0.053875150,-0.056515640,0.036986170
1640841388.273559,-0.316943760,0.261529800,10.016038890,-0.033849480,-0.013168160,0.012189150
1640841388.276480,0.081767080,0.201465760,9.070949550,-0.067676590,0.001360480,0.004912910
1640841388.278640,-0.267279300,0.194794220,10.293316840,-0.059363250,-0.017941000,-0.005921720
1640841388.281570,0.020360020,0.170043920,10.036726000,-0.061377890,0.090509650,-0.001896920
1640841388.283579,0.205525920,0.259342430,9.906423570,0.005805490,0.009289380,0.019580130
1640841388.286140,-0.212067870,0.220662390,10.660146710,-0.000749530,-0.020913780,0.015200680
1640841388.288540,0.127619740,0.420842890,9.033728600,-0.053051110,-0.006824730,0.023652610
1640841388.291180,-0.157089080,0.253582920,9.423714640,-0.072033700,-0.033500790,0.013232230
1640841388.293670,-0.161868210,0.181575040,9.649558070,-0.063003600,0.080788140,-0.026193260
1640841388.296260,0.170304640,0.438604920,9.305677410,-0.015802680,0.050757830,-0.019073490
1640841388.298760,-0.160021470,0.284664180,10.461956980,-0.042864690,0.046171250,0.012157860
1640841388.301570,0.023968580,0.120189210,10.017024990,-0.048089030,0.048188870,0.053755940
1640841388.303570,-0.184578120,-0.157424030,9.869180680,-0.001657010,-0.074584770,0.057712190
1640841388.306160,-0.304659780,-0.449335490,9.483675960,-0.016607350,-0.007313490,0.024031100
1640841388.308900,-0.037054630,-0.462522690,9.031839370,0.022663180,0.078761560,-0.018712880
1640841388.311250,-0.210260060,-0.348550950,10.195222850,0.031630690,0.081799930,-0.061507530
1640841388.314159,-0.014028520,0.113381940,10.052024840,-0.002948940,0.045922400,-0.041627880
1640841388.316150,-0.046823660,0.296379030,9.706611630,-0.013504920,-0.024423000,0.006929040
1640841388.318570,-0.290779950,0.224148350,9.746479030,0.009216370,-0.013455750,0.034174330
1640841388.321139,-0.366710960,0.254829320,9.409146310,0.096754730,-0.012585520,0.041727730
1640841388.323590,-0.501714940,0.239642950,9.524066930,0.085924550,0.005689260,0.029329950
1640841388.326680,-0.320336040,0.173015160,9.976658820,0.023071470,0.057172780,-0.003099440
1640841388.328620,-0.128076670,0.280593400,10.332020760,0.014844540,0.053179260,-0.010573860
1640841388.331420,-0.019269990,0.365771500,10.195083620,0.006181000,-0.010274350,-0.018918510
1640841388.333750,0.065885920,0.408541680,9.749712940,0.035412610,-0.022630390,-0.004205110
1640841388.336170,-0.024216890,0.495306580,9.432152750,0.050221390,-0.011035800,-0.002788010
1640841388.338539,-0.141673000,0.467990160,9.418625830,0.023409720,-0.011245900,0.004024800
1640841388.341130,-0.298086970,0.399117830,9.807006840,0.011081990,0.012177230,0.026224560
1640841388.343720,-0.309587420,0.417079840,10.052676200,-0.009597840,0.018890200,0.014278300
1640841388.346320,-0.274243860,0.567795040,10.195345880,-0.019225480,-0.022099910,0.021003180
1640841388.348650,-0.166274200,0.642854810,9.822532650,-0.039611760,0.002998110,0.019152460
1640841388.351199,0.068317340,0.509563620,9.498874660,-0.055313110,0.033502280,0.001050530
1640841388.353570,-0.051584580,0.399378510,10.112978940,0.009082260,0.009649990,0.002831220
1640841388.356160,-0.058869490,0.301593540,9.790398600,-0.001446900,-0.006972250,-0.002318620
1640841388.359020,0.097893220,0.074654710,9.229578020,-0.033760070,-0.020278990,0.007997450
1640841388.361250,-0.104697090,-0.069205870,9.804880140,-0.037771470,0.024782120,0.011801720
1640841388.363649,0.115125580,-0.009508530,9.438570020,-0.057342650,0.073282430,0.005291400
1640841388.366390,-0.012016150,-0.127722410,9.910384180,-0.008510050,0.010295210,0.022083520
1640841388.368640,-0.122160110,-0.080336180,10.148200990,0.017625100,0.037714840,0.015768410
1640841388.371179,-0.067347350,0.075377000,9.597234730,0.021380180,-0.014875830,0.003497300
1640841388.373550,-0.335136620,0.000118930,9.970704080,0.011925400,-0.032378730,0.014789410
1640841388.376610,-0.140817870,-0.012716660,9.411681180,-0.011350210,0.083185730,-0.011852380
1640841388.378719,-0.175003870,0.043027260,9.744076730,0.027076910,0.038981440,-0.025752190
1640841388.381790,-0.239577890,0.202078510,10.175968170,0.041733680,0.033429260,-0.009743870
1640841388.383600,0.107337880,0.200982850,9.260588650,0.021731850,0.017982720,0.001847740
1640841388.386129,-0.200045820,0.097947010,9.853191380,0.034780800,-0.021265450,0.024305290
1640841388.388540,-0.234027340,0.167951700,9.845149990,0.041574240,0.021404030,0.030024360
1640841388.391209,-0.087848270,-0.006392340,9.482659340,0.050979860,-0.001902880,0.021156670
1640841388.393780,-0.177106680,-0.003981520,10.314666750,0.063841040,0.044737760,0.011029840
1640841388.396200,-0.064420160,0.240274340,10.150243760,0.048483920,0.068269690,-0.002630050
1640841388.398840,-0.184380890,0.281176120,9.998787880,0.035370890,-0.056925430,0.002418460
1640841388.401739,-0.092492770,0.449242710,9.585833550,0.020092730,-0.020945070,0.016331670
1640841388.403560,-0.035231100,0.529581840,9.097425460,0.033865870,0.046888000,-0.008490680
1640841388.406129,-0.240114150,0.730139370,9.970945360,0.025430330,0.001820920,0.007018450
1640841388.408759,-0.169676630,0.769505500,10.005681040,-0.004275140,0.037886210,0.021626060
1640841388.411520,-0.164434610,0.505130950,9.960250850,-0.007647270,-0.003290180,0.026910010
1640841388.413640,-0.323872090,0.484686290,10.447852130,-0.000940260,-0.025859480,0.044091050
1640841388.416180,-0.005287040,0.196457950,9.457777020,0.002548100,0.019837910,0.032483030
1640841388.418560,0.103765190,-0.002686180,9.585146900,0.000244380,0.038324300,0.014823680
1640841388.421160,0.092011650,0.171142040,10.069904330,-0.007830560,0.078630450,0.001393260
1640841388.423580,0.146876140,0.152153550,9.688676830,-0.038963550,0.010775030,-0.007574260
1640841388.426280,0.077682320,0.195857420,9.742116930,-0.047791000,-0.028677280,0.009134410
1640841388.429020,-0.059412070,0.144579340,9.481575010,-0.003680590,0.042684380,0.000950690
1640841388.431310,-0.228698510,0.138996720,9.508748050,0.023895500,0.015078490,0.015430150
1640841388.434450,-0.298039380,0.230450760,9.770232200,0.008472800,0.025181470,0.036062300
1640841388.436120,-0.225897910,0.020478550,9.717704770,-0.019851330,0.073242190,0.017407540
1640841388.438540,-0.177711200,0.139790330,10.160199170,-0.017578900,0.020569560,0.011275710
1640841388.441210,-0.144516590,0.064100850,10.035662650,0.019454960,0.011892620,0.007405880
1640841388.444000,0.087178150,-0.194835960,9.431188580,0.041802230,0.038489700,-0.016126040
1640841388.446319,0.022090180,0.011826410,9.687371250,0.069637600,0.058031080,-0.020156800
1640841388.448900,-0.109908390,-0.076148830,9.630457880,0.024971370,0.046031190,-0.011371080
1640841388.451239,-0.024718090,-0.168276070,9.480535510,0.004732610,0.021387640,0.013607740
1640841388.453560,-0.340064940,0.004905250,9.963728900,0.060208150,0.025475030,0.016482180
1640841388.456230,-0.418568880,0.171809140,9.869627950,0.074568400,-0.001047550,0.006288290
1640841388.458720,-0.298855070,0.465697530,9.780653950,0.049442050,-0.000227990,0.017960370
1640841388.461680,-0.375585080,0.389884860,10.091891290,0.031353540,0.080283010,0.000666080
1640841388.463640,-0.209056080,0.431671740,10.264377590,0.052875280,0.043086710,-0.001582500
1640841388.466189,-0.241969060,0.664741690,9.933076860,0.074659300,-0.034879150,0.010836120
1640841388.468580,-0.095709450,0.479600310,9.309631350,0.018595160,-0.019407270,-0.000803170
1640841388.471160,0.075302380,0.651134130,9.221548080,-0.014217200,0.032562020,-0.005175170
1640841388.473709,-0.122509380,0.660677130,9.908912660,-0.032493480,0.024957950,-0.014197830
1640841388.476470,0.044004130,0.358088580,10.105519290,-0.027340650,0.040091570,-0.009317700
1640841388.478659,-0.013465480,0.364976230,10.144787790,0.038264680,0.033366680,0.005520880
1640841388.481150,-0.409225370,0.089571210,10.636864660,0.031933190,-0.040502850,0.017970800
1640841388.483640,-0.073495420,0.013647840,9.288702010,-0.014518200,-0.017267470,0.041729220
1640841388.486199,-0.041949690,-0.047413360,9.026049610,-0.037167960,0.021900240,0.004003940
1640841388.488979,-0.003273690,0.007102280,9.917728420,-0.036399070,0.112780930,-0.027959050
1640841388.491180,0.241904380,0.403621970,9.645755770,0.009426470,0.077006230,-0.033271320
1640841388.493630,-0.039275140,0.276024250,10.323302270,0.005947050,-0.033411380,-0.034064050
1640841388.499980,-0.040474020,0.362502780,9.803060530,0.007000570,0.019514560,0.005421040
1640841388.500510,-0.217966780,0.193901290,9.201895710,0.014191870,-0.033669170,0.015997890
1640841388.501890,-0.336258380,-0.208640400,9.770536420,0.003492830,0.043961410,0.018708410
1640841388.503610,0.053389880,-0.000572630,9.288144110,0.032584370,0.138783450,0.000481310
1640841388.506189,-0.064972590,-0.151676510,10.284501080,0.030730670,0.035500530,-0.024221840
1640841388.508540,0.124817010,-0.018818320,10.173880580,0.023016340,0.050213930,-0.011281670
1640841388.511129,0.102554400,0.002799940,9.283764840,0.035901370,0.004674490,-0.022196770
1640841388.513700,-0.381047340,-0.315461700,10.014668460,0.077433890,-0.020574030,-0.018428270
1640841388.516660,-0.289805230,0.036348680,9.143099780,0.105078530,0.040170550,-0.013755260
1640841388.518590,-0.451804010,-0.029902120,9.457541470,0.065240260,0.019507110,-0.018677120
1640841388.521440,-0.398475680,0.237557920,10.338561060,0.041151050,0.079244380,-0.005045530
1640841388.523610,-0.167330370,0.731304470,9.912019730,0.037941340,0.035625700,-0.017173590
1640841388.526140,-0.120927270,0.582164350,10.207272530,0.021897250,-0.028666850,0.004264710
1640841388.528740,0.053707340,0.672496860,9.668127060,0.078043350,0.063428280,0.009965900
1640841388.532150,-0.135059010,0.456215260,9.700395580,0.092509380,0.002504880,-0.020691750
1640841388.533599,-0.246755810,0.316116630,9.900043490,0.062686210,-0.029772520,0.012272600
1640841388.536330,-0.075284900,0.431813540,9.047086720,0.005970890,0.024136900,-0.011707840
1640841388.538699,-0.252909720,0.319951180,9.981036190,-0.057005890,0.025647880,-0.013689700
1640841388.541139,-0.219781410,0.682916700,10.231721880,-0.036068260,0.046582520,0.012914840
1640841388.543630,-0.142818410,0.523248310,9.911364560,-0.006048380,-0.013232230,-0.022596120
1640841388.546310,-0.276179970,0.347055850,10.223979000,0.028233230,0.000144540,0.002108510
1640841388.548800,-0.260010210,0.517748770,9.681570050,0.048127770,-0.003875790,0.003604590
1640841388.551200,-0.255014990,0.160346180,9.628952030,-0.045792750,-0.036859520,-0.004048650
1640841388.553830,0.027556510,0.414639860,9.342512130,-0.080616790,0.039319710,0.007404390
1640841388.556160,0.062017080,0.530228260,9.690124510,-0.092655430,0.051856040,-0.042632220
1640841388.558570,0.116508130,0.506593050,10.083370210,-0.080448370,0.031420580,-0.029566880
1640841388.561640,0.099293770,0.675004720,9.885742190,-0.034782290,-0.012606380,-0.005432960
1640841388.563640,-0.221903280,0.188327340,10.016814230,-0.030691920,-0.032116470,0.011099870
1640841388.566190,-0.174078990,-0.021392800,9.362964630,-0.023572150,-0.015006960,0.060935320
1640841388.568770,-0.159815160,-0.260195430,9.392900470,-0.039862100,0.023978950,0.037328900
1640841388.571139,-0.015077780,-0.529046770,9.829697610,-0.061225890,0.120636820,0.014713410
1640841388.573609,0.086084660,-0.132304270,9.921150210,-0.018854440,0.050497060,-0.013326110
1640841388.576099,-0.066796470,-0.108755810,10.083683970,-0.042286520,-0.018261370,-0.048017510
1640841388.578760,0.058584240,-0.015478560,9.161098480,-0.003170970,0.007098910,-0.012700260
1640841388.581790,-0.404174800,0.086525840,9.493979450,0.053863230,-0.020173190,-0.016860670
1640841388.583629,-0.435838580,-0.014544890,9.597076420,0.024160750,0.016003850,0.024721030
1640841388.586190,-0.140613780,0.150092470,9.181885720,0.019226970,0.053368510,0.039021670
1640841388.588590,-0.192348090,-0.018386810,10.328634260,-0.002701580,0.072403250,-0.001133980
1640841388.591159,0.052487440,0.128685070,10.242950440,0.018417830,0.042344630,0.015847380
1640841388.593600,0.007797900,-0.003914910,9.609252930,0.075227030,-0.039766720,0.002919140
1640841388.596240,-0.097828290,-0.464775890,9.494010930,0.100532170,-0.001110140,-0.019015370
1640841388.598919,-0.269411440,-0.215329810,9.106060980,0.150567260,0.016830860,0.005131960
1640841388.601680,-0.549201430,-0.311604800,9.475363730,0.073155760,-0.037729740,-0.010167060
1640841388.603839,-0.324216340,-0.102673900,9.631243710,0.032639500,0.028729440,0.009764730
1640841388.606099,-0.300528230,0.323260010,9.813717840,0.082364690,0.034302480,-0.007945300
1640841388.608539,-0.290855880,0.412806630,10.642822270,0.091215980,-0.025388600,-0.022311510
1640841388.611529,-0.066036610,0.751091060,9.829239850,0.137779120,-0.000546870,0.005221370
1640841388.613649,-0.108208120,0.532515940,9.634908680,0.113855310,-0.040932000,-0.016711650
1640841388.616170,-0.233468120,0.446329000,9.816607480,0.081698600,-0.016829370,0.012058020
1640841388.618860,-0.214225140,0.634202480,8.854229930,0.069426000,-0.041738160,0.018717350
1640841388.621130,-0.247903590,0.360650750,9.760655400,0.010055300,-0.044626000,-0.000098350
1640841388.623600,-0.078446510,0.726354840,9.872611050,0.013290350,0.053854290,0.002835690
1640841388.626400,-0.018920750,0.667154250,10.052214620,-0.001654030,-0.031317770,-0.015784800
1640841388.631600,-0.029382930,0.299224440,10.787976260,0.021769110,0.011040270,0.002540650
1640841388.631980,0.033994330,0.480793150,9.646757130,0.083215530,0.000666080,-0.000014900
1640841388.634070,-0.335249990,0.221271250,10.078840260,0.026805700,-0.137706130,-0.008185210
1640841388.636180,-0.123964030,0.490578830,8.845181470,-0.041753050,-0.010471040,0.026409330
1640841388.638579,-0.031785020,0.441731330,8.733012200,-0.083398810,0.012667480,-0.022841990
1640841388.641160,-0.242896960,0.473252090,10.652639390,-0.064986940,0.056444110,-0.020881000
1640841388.643920,0.083647470,0.814478280,9.859643940,0.002028050,0.014095010,-0.011692940
1640841388.646200,-0.031652810,0.269199220,10.319078450,-0.005254150,-0.100857030,-0.008696320
1640841388.648820,-0.084852410,0.265392240,9.989954950,-0.005038080,0.006130340,0.043252110
1640841388.651140,0.017173020,-0.030500610,9.007723810,-0.032272930,-0.035084790,0.031594940
1640841388.653600,-0.023884520,-0.460173550,9.769939420,-0.057989360,-0.010468070,0.031414630
1640841388.656139,0.265864970,-0.056662470,9.135049820,-0.021089620,0.093786430,-0.003758070
1640841388.658599,0.136300950,-0.219282950,9.860682490,-0.022101400,0.018964710,-0.032018130
1640841388.661280,-0.135466750,-0.082911860,10.374292370,0.007073580,-0.004458430,-0.001440940
1640841388.663770,-0.246379110,0.007249130,9.388468740,0.041161480,-0.056250390,-0.018174950
1640841388.666299,-0.557838740,-0.254817720,9.680683140,0.036148730,-0.077484550,0.003871320
1640841388.668710,-0.545810820,0.079041550,9.190290450,0.056706360,0.040744240,0.006058810
1640841388.671180,-0.246909920,0.089092640,9.433312420,0.015014410,0.051426890,-0.030395390
1640841388.673580,-0.122954450,0.294935170,10.507862090,0.021587310,0.051000710,-0.004506110
1640841388.676740,0.182191210,0.493707780,9.755047800,0.044578320,0.010587280,-0.000323360
1640841388.678720,0.238509710,0.066061570,9.845718380,0.048395990,-0.062265990,0.005660950
1640841388.681200,-0.111097720,-0.026422570,9.604075430,0.118272010,-0.006030500,0.034298000
1640841388.683830,-0.190100280,-0.294476570,9.129280090,0.110220920,-0.041235980,-0.012658540
1640841388.686110,-0.420089540,-0.285006050,9.921409610,0.065280500,-0.026154520,0.001490120
1640841388.688609,-0.309764030,0.157145950,9.559350010,0.037367640,0.043824320,-0.016273560
1640841388.691130,-0.266681880,0.281815590,10.363307000,0.011858350,-0.015923390,-0.042358050
1640841388.694380,-0.334203840,0.827973130,10.493461610,0.055044890,-0.005906820,-0.003176930
1640841388.699930,-0.058723340,0.855476140,9.498863220,0.065623220,-0.048515200,-0.015155970
1640841388.700630,-0.247091050,0.632149580,9.910676000,0.069805990,-0.038401780,0.008939210
1640841388.701160,-0.316299140,0.815299510,9.361659050,0.069829820,-0.012001400,0.025424360
1640841388.703640,-0.155042200,0.406586860,9.509246830,-0.009071830,-0.066508350,0.017409030
1640841388.706149,-0.129061370,0.448936970,9.759038930,-0.028038030,0.005982820,0.034919380
1640841388.708580,0.107870930,0.378855500,9.707615850,-0.028623640,0.005018710,0.001080330
1640841388.711429,0.238458530,0.090818930,10.335582730,-0.011062620,0.004926320,0.001537800
1640841388.713770,0.225332590,0.215637180,9.914572720,0.056174400,0.012773280,0.007237490
1640841388.716570,0.037798310,-0.004286030,10.020774840,0.022013490,-0.074340390,-0.025920570
1640841388.718629,-0.059738410,0.113093760,9.431266780,-0.022050740,-0.040487940,0.008344650
1640841388.721160,-0.084150980,0.122281000,9.022533420,-0.041538480,-0.019679960,-0.012919310
1640841388.723610,-0.091538790,0.079715670,9.777347560,-0.019849840,0.052963210,-0.013832750
1640841388.726430,-0.021950080,0.367725550,9.575524330,0.032855570,0.064058600,0.017291310
1640841388.729640,-0.100125890,0.134406000,10.186396600,0.026242440,-0.028331580,0.010977690
1640841388.731200,-0.140917750,0.114019330,10.005094530,0.025697050,0.007204710,0.024284420
1640841388.734720,-0.172605660,0.113041760,9.336832050,0.020468240,-0.049079960,0.028958920
1640841388.735170,-0.201932470,-0.250763950,9.885704040,0.006350880,-0.003838540,0.005368890
1640841388.738620,0.092522310,-0.129051040,9.120188710,0.054083760,0.101333860,-0.023886560
1640841388.741119,0.023018860,-0.064499880,9.969042780,0.058203940,0.033253430,-0.035363440
1640841388.744050,-0.088572500,-0.049360030,10.323965070,0.051197410,0.031398240,0.001819430
1640841388.745319,0.041953990,0.023241780,9.126385690,0.070701550,-0.045597560,0.018092990
1640841388.750170,-0.326710670,-0.088057980,10.002542500,0.082904100,-0.058397650,0.025559960
1640841388.751190,-0.310283300,0.228492040,9.319526670,0.090835970,0.056152040,0.027196110
1640841388.753630,-0.208801080,0.342805860,9.756223680,0.059281300,-0.014871360,0.007955730
1640841388.754000,-0.336170140,0.388470170,10.744805340,0.050917270,0.066941980,-0.014150150
1640841388.758600,-0.010781070,0.749100690,9.491411210,0.061622270,0.016097730,-0.018088520
1640841388.761400,-0.238706170,0.626944120,10.311167720,0.048965210,-0.095434490,0.000073020
1640841388.765230,-0.233569670,0.548849230,9.313153270,0.059047350,0.026144090,0.020164250
1640841388.767439,-0.069364580,0.567499340,8.935816760,0.031779710,-0.062869490,0.016488140
1640841388.769140,-0.332728530,0.449676810,10.306862830,-0.006315110,0.018757590,0.039742890
1640841388.771160,0.076153400,0.318510170,9.482936860,-0.015786290,0.081714990,0.033175950
1640841388.773620,-0.141719450,0.178845260,10.937442780,0.011448560,-0.053296980,0.012299420
1640841388.773870,-0.184772190,0.187135040,10.352924350,0.042475760,-0.009615720,0.020688770
1640841388.778770,0.288158420,0.220626470,8.651526450,0.009478630,-0.062882900,-0.013177100
1640841388.781280,-0.064659370,0.250622270,9.931233410,-0.031504030,0.030428180,-0.012303890
1640841388.784129,0.060609130,0.545616270,9.221341130,-0.042419150,0.095918790,-0.010880830
1640841388.784590,0.020013960,0.507643400,9.972124100,-0.052742660,-0.068953630,-0.002910200
1640841388.788570,-0.250715700,0.401037100,10.187766080,-0.009910760,0.002399090,0.030484800
1640841388.791119,-0.023417280,0.256603120,9.216613770,0.015172360,0.000272690,0.021250550
1640841388.793779,-0.374561040,-0.010870220,10.280614850,0.000277160,-0.019547350,0.045067070
1640841388.794839,-0.124923800,-0.148618040,9.275880810,-0.014021990,0.067815180,0.030432640
1640841388.799470,0.213580210,-0.204045400,9.458546640,-0.027975440,0.013357400,-0.009462240
1640841388.801380,-0.013414630,-0.121874500,10.248097420,-0.003999470,0.058670350,0.008106230
1640841388.803660,0.250948790,-0.151627670,9.419487000,0.014966730,0.026518110,0.000292060
1640841388.804119,-0.144182290,-0.247733060,10.149231910,0.049459940,-0.039415060,-0.004218520
1640841388.809120,-0.420169170,-0.138803750,9.447364810,0.081358850,-0.005902350,0.001206990
1640841388.811499,-0.326440810,-0.069879980,9.144367220,0.050847240,-0.028188530,-0.006818770
1640841388.813710,-0.654837130,0.080542180,10.117305760,0.040394070,0.045360630,0.001174210
1640841388.814299,-0.226449730,0.452173020,9.561237340,0.031666460,0.037173930,0.000615420
1640841388.818600,-0.102436360,0.676534470,10.293978690,0.023230910,-0.012904410,0.008165840
1640841388.821139,-0.092139080,0.681554440,10.056701660,0.030300020,0.045318910,0.027258700
1640841388.823650,0.084595210,0.507409510,9.839196210,0.054202990,-0.037975620,0.014112890
1640841388.823979,-0.320929710,0.284345000,10.031435970,0.076773770,-0.042046610,0.008541350
1640841388.828850,-0.125523600,0.139094560,8.976684570,0.050222880,-0.032275930,0.001920760
1640841388.831240,-0.130276690,0.161892830,9.737287520,0.004795190,-0.001172720,-0.008718670
1640841388.833700,-0.218391000,0.339924690,9.858136180,-0.025139750,0.051333010,0.009261070
1640841388.834250,0.150417880,0.338104520,9.871987340,-0.034505130,-0.020426510,0.009539720
1640841388.838620,0.006621030,0.273988540,10.359364510,0.026166440,0.031480190,0.013998150
1640841388.841199,-0.102844440,0.254319910,9.984371190,0.075584660,-0.012871620,0.006231670
1640841388.843710,-0.275351170,0.323315500,10.046747210,0.040926040,-0.097225610,0.007648770
1640841388.844179,-0.231911870,0.326298920,8.885579110,-0.033198300,-0.012019280,0.006185470
1640841388.849490,-0.015687350,0.278773250,9.163650510,-0.064417730,0.022237000,-0.003694000
1640841388.851140,-0.141105830,0.376620950,10.141179080,-0.016085800,0.101833050,0.015929340
1640841388.853600,0.050593980,0.177460860,9.878903390,0.038774320,-0.010837610,0.031735010
1640841388.853900,0.028517450,0.016713420,10.361348150,0.066371270,-0.073450810,0.034071510
1640841388.858770,-0.092664380,-0.102382860,9.436357500,0.032849600,0.012482700,0.025494400
1640841388.861580,-0.095204370,-0.420405630,9.535938260,-0.009979310,-0.041443110,0.013616680
1640841388.863690,-0.226731930,-0.359113010,10.036203380,0.028985740,0.051258500,-0.022991000
1640841388.864149,-0.015089970,-0.242068040,9.171952250,0.064215090,0.046210000,-0.049999360
1640841388.868759,-0.191196460,0.108154850,10.206230160,0.071041290,-0.029557950,-0.021660330
1640841388.869170,-0.265032620,0.284461680,9.633493420,0.052541500,0.025177010,0.022087990
1640841388.873930,-0.318480820,0.081722080,9.520156860,0.049744550,-0.098481770,0.045202680
1640841388.874750,-0.531628850,0.218893020,10.161888120,0.103414060,-0.037360190,0.046518450
1640841388.878970,-0.024307600,0.234652850,9.117467880,0.085543100,0.046797100,0.008371470
1640841388.881199,0.115635710,0.260117500,10.524913790,0.073513390,0.029824680,0.001037120
1640841388.883630,0.088700590,0.551381710,10.481220250,0.045968590,0.093248490,-0.011159480
1640841388.883950,0.291631100,0.432583930,9.637217520,0.021402540,-0.108876830,-0.008395310
1640841388.888810,-0.100489230,0.519270240,9.813484190,0.071397430,-0.092226270,0.005029140
1640841388.890080,-0.067972560,0.511206390,8.461186410,0.059869890,0.025618080,-0.009278950
1640841388.893659,-0.244912950,0.356306940,9.901549340,0.033789870,-0.012144450,0.020021200
1640841388.894060,-0.445516590,0.432013120,10.639322280,0.023823970,0.079023830,0.018550450
1640841388.899350,-0.065844500,0.277652530,10.076416970,-0.005690750,-0.021380190,0.015164910
1640841388.899950,-0.211602790,0.483933660,10.638576510,0.015202160,-0.055883830,0.042310360
1640841388.903669,-0.074055510,0.415084240,9.235417370,-0.008128580,0.018028910,0.002209840
1640841388.904389,0.178077790,0.262248550,9.182338710,-0.008018310,-0.029549010,-0.011897090
1640841388.908700,-0.047114630,0.492056850,9.884365080,0.023299460,0.052078080,-0.007833540
1640841388.909080,0.262047590,0.154072300,9.544504170,-0.018252440,0.034132610,-0.001031160
1640841388.913720,0.052750380,0.118604860,10.372717860,0.002877410,-0.024123490,0.042092800
1640841388.914320,-0.171341030,0.098927450,9.934012410,-0.008431080,0.007595120,0.033435230
1640841388.918640,0.055914420,-0.162217740,9.383957860,-0.023719670,-0.023768840,0.054030120
1640841388.918959,-0.143302800,-0.009056690,9.640540120,0.015731160,0.046269600,0.032223760
1640841388.923679,0.018036170,-0.100351070,9.564306260,0.012919310,0.079105790,-0.007213650
1640841388.924039,0.025630180,0.057322140,10.124250410,0.033470990,0.013218820,0.006836650
1640841388.928810,-0.236145230,0.145942490,9.944170950,0.025004150,0.014829640,-0.012144450
1640841388.929459,-0.068615730,-0.083690810,9.533984180,0.015757980,-0.021553040,-0.000077490
1640841388.933699,-0.409976660,0.122657050,9.558280940,0.062654920,0.013729930,0.007271770
1640841388.934190,-0.308410970,0.017869890,9.198949810,0.035436460,0.022998460,-0.005069380
1640841388.938730,-0.109790710,-0.014351160,9.788292880,0.049959130,0.049120190,0.025479500
1640841388.939170,-0.224224820,0.205649900,10.083807950,0.072096290,0.047771640,0.004234910
1640841388.943879,0.001978040,0.154286770,10.145550730,0.031027190,-0.031986830,0.011543930
1640841388.944870,-0.045485810,0.210211470,9.880772590,0.049237910,0.008909400,0.030383470
1640841388.948690,-0.071255450,0.000613800,9.597041130,0.064948190,0.028987230,-0.015369060
1640841388.949020,-0.249394640,0.069106030,10.132362370,0.108496840,0.026528540,0.009320680
1640841388.953740,-0.383889320,0.346514430,9.424830440,0.101198260,-0.022888190,-0.009764730
1640841388.954200,-0.256413160,0.398983120,9.495677950,0.012288990,-0.050120060,-0.015597050
1640841388.958680,-0.240482850,0.895510080,9.506783490,-0.022274250,0.047092130,0.014495850
1640841388.959080,-0.253100100,0.881987630,9.963085170,-0.039152800,0.011782350,-0.013266500
1640841388.965119,-0.074063160,0.739152370,10.693112370,0.022178890,0.018945340,0.023344160
1640841388.965690,-0.003668270,0.686279540,9.955830570,0.093531620,0.013133880,0.015348200
1640841388.969709,-0.136427030,0.277961820,10.231611250,0.018970670,-0.063298640,0.014583770
1640841388.970600,0.075960840,0.230709170,9.298503880,-0.044387580,0.024835770,0.040991600
1640841388.973640,0.139278200,-0.095872100,9.016799930,-0.074343380,-0.000789760,-0.025552510
1640841388.973960,0.033696900,0.032428780,10.068353650,-0.046557180,0.049811610,-0.017741320
1640841388.978780,0.165415180,0.302257480,9.402981760,-0.001558660,0.048717850,-0.022093950
1640841388.979420,-0.149357080,-0.017022300,10.423398020,-0.001497570,-0.047780570,-0.021006170
1640841388.983640,-0.327057990,0.299475280,10.087318420,0.017662340,0.019073480,0.035630160
1640841388.983990,-0.312163350,0.043970790,9.215813640,-0.027044120,-0.048753620,0.012277070
1640841388.988649,-0.307870060,-0.094534520,9.886574750,-0.038786230,0.027306380,0.019964580
1640841388.988989,0.055684350,0.342092870,9.310039520,0.010156630,0.132063000,-0.000137090
1640841388.994120,0.000438370,0.175192330,10.222375870,-0.012503570,-0.002104040,-0.020062930
1640841388.994880,0.124268230,0.305153610,10.014334680,-0.010140240,0.003573300,0.021526220
1640841388.998669,0.217429090,-0.002257470,8.981886860,0.004331770,0.004899500,-0.010304150
1640841388.999080,-0.173022420,-0.366478150,9.950851440,0.033465030,-0.009036070,0.006890300
1640841389.003729,-0.218997600,-0.155339350,9.299971580,0.076171760,0.062757740,0.013783580
1640841389.004279,-0.298906150,-0.412839080,9.656802180,0.023430590,-0.011844930,-0.022470950
1640841389.008679,-0.428593990,0.065150040,10.413597110,0.008814040,0.028485060,0.010390580
1640841389.009070,-0.194142800,0.225535080,9.553502080,0.000828500,0.026448070,0.002303720
1640841389.014180,-0.257283090,-0.075254280,10.380406380,0.051286820,-0.022302570,0.001229350
1640841389.014819,-0.260327820,0.353633460,9.925243380,0.147849340,0.041703880,0.012496110
1640841389.018700,-0.186111760,0.268870120,9.369411470,0.096985700,-0.053422160,-0.002798440
1640841389.019100,-0.223168910,0.464602980,9.721797940,0.005976860,-0.023056570,0.043389200
1640841389.023640,-0.033230940,0.667644200,9.213657380,-0.034935780,0.043696170,0.009407100
1640841389.023929,-0.094971060,0.595059160,10.250494960,-0.035239760,-0.026357170,-0.003273790
1640841389.028760,-0.120997390,0.873684880,10.293171880,0.040884310,0.007580220,0.029303130
1640841389.029410,0.029717380,0.470362130,9.840731620,0.040861960,-0.019361080,-0.000831480
1640841389.034119,-0.309124950,0.264864920,10.486234660,0.030912460,-0.028458240,0.038509070
1640841389.035159,-0.284087570,0.246313660,9.457665440,0.000433620,-0.033581260,0.065854190
1640841389.038669,-0.128752200,-0.276278500,9.364838600,-0.054672360,-0.048092010,0.016759330
1640841389.039090,-0.097396750,0.313462170,9.570137020,-0.028945510,0.032831730,0.010059770
1640841389.043980,0.002710360,0.466831270,9.676201820,-0.041575730,0.020667910,-0.017328560
1640841389.044809,0.070680100,0.431623250,10.243790630,-0.056046250,-0.011689960,-0.005927680
1640841389.048790,-0.006206800,0.749728800,9.992384910,0.000359120,-0.017504390,0.042322270
1640841389.049990,-0.062085440,0.202450250,9.938037870,-0.017932060,-0.056065620,0.048124790
1640841389.053609,-0.010164590,0.157041760,9.394893650,-0.009419030,-0.007686020,0.081585360
1640841389.053949,0.072564540,0.017604100,9.364856720,-0.035712120,0.033859910,0.040787460
1640841389.058670,0.139969160,-0.181174130,9.965433120,-0.070369240,0.076796110,0.014282760
1640841389.059049,0.038826180,0.040939990,10.016708370,-0.029325490,0.014582280,0.012461840
1640841389.063740,-0.103825460,-0.243480670,10.026256560,-0.011789800,-0.047166650,-0.015941260
1640841389.065230,-0.199532630,-0.196480800,9.369542120,0.030809640,-0.021854040,0.010912120
1640841389.068980,-0.514569520,-0.077384350,9.240018840,0.041443100,-0.026637310,0.020585950
1640841389.069650,-0.387073810,-0.258844020,9.621280670,-0.010801850,0.036102530,0.023268160
1640841389.073650,-0.223794530,0.119342300,9.731934550,0.016659500,0.048325960,0.035379830
1640841389.074080,-0.186373620,0.217860060,10.404652600,0.009189550,-0.010919570,0.022366640
1640841389.078800,0.108607930,0.185450480,10.014044760,0.031407180,0.008131560,0.032711030
1640841389.079620,0.036050500,0.220252690,9.719981190,0.091151890,-0.026766960,0.023329260
1640841389.083700,-0.074654880,-0.013389470,9.778411870,0.084161760,-0.020986800,0.014053290
1640841389.084120,-0.061475140,0.097467390,9.115850450,0.063690550,-0.016199050,0.030723210
1640841389.088670,-0.197162760,0.077226030,9.537766460,0.023563210,-0.030186770,0.025518240
1640841389.089049,-0.223940240,0.150980560,9.979014400,0.011223550,0.036519770,0.014494360
1640841389.094090,-0.307262870,0.430897800,10.179677960,0.044287740,-0.027321280,0.012125070
1640841389.094910,-0.333086880,0.356960270,10.500537870,0.047999630,-0.051690650,0.004267690
1640841389.100139,-0.211884830,0.384664330,9.740993500,0.075326870,-0.017488000,0.013493000
1640841389.100780,-0.378637340,0.471957360,9.808927540,0.062128900,-0.058723990,0.023245810
1640841389.103659,-0.268952370,0.473966840,9.652217860,0.006422400,-0.014933940,0.039342050
1640841389.104070,-0.061894520,0.645535110,9.248612400,-0.025039910,-0.041489300,0.036472090
1640841389.108820,-0.086240920,0.842662930,9.944223400,-0.071659690,-0.039017200,0.006894770
1640841389.110119,0.177839860,0.803809400,9.817452430,-0.064168870,0.020799040,0.012515490
1640841389.115569,0.021501630,0.558279810,10.509419440,-0.001388790,-0.028713050,0.007724760
1640841389.116010,-0.110550040,0.458047960,10.608762740,0.006403030,-0.046697260,0.026007000
1640841389.118620,0.069814940,0.315359560,9.428537370,-0.033831600,-0.083297490,0.057335200
1640841389.119269,-0.124521470,0.058724840,9.508129120,-0.115405030,-0.032471110,0.050182640
1640841389.123620,-0.004801520,0.022944240,9.252171520,-0.117665550,0.058160730,0.013661390
1640841389.123970,-0.144526690,0.043489310,9.877944950,-0.047078730,-0.035877530,-0.010748210
1640841389.129240,-0.171369150,0.208958580,10.027827260,-0.034955150,-0.031124060,-0.021387640
1640841389.130470,-0.094094340,0.226572530,9.708020210,-0.041103360,-0.037023430,-0.001709160
1640841389.133710,-0.386812540,0.227494940,10.187871930,-0.065815460,-0.042536860,0.040321060
1640841389.134199,-0.067930710,0.184190230,9.393835070,-0.084979840,-0.011974570,0.063602630
1640841389.138680,0.195610180,-0.054541800,9.454863550,-0.047692650,0.022904570,0.054322180
1640841389.139020,0.196290550,0.021705510,9.841610910,-0.015112760,0.073194510,0.024631620
1640841389.143740,0.287813660,-0.093827780,9.926013950,-0.011000040,-0.023318830,-0.000895560
1640841389.144310,-0.003389930,-0.336934360,9.933490750,-0.013488530,-0.054438420,-0.003193320
1640841389.148720,-0.074527970,-0.433948730,9.295810700,0.013150280,-0.023533400,-0.024855140
1640841389.149070,-0.503826440,-0.490559910,9.759317400,0.044442710,-0.021207330,-0.015231970
1640841389.153620,-0.532587350,-0.159382420,9.407274250,0.023032730,0.012588500,0.009790060
1640841389.153960,-0.455151320,-0.082588180,9.676506040,0.008685880,-0.015380970,0.003927950
1640841389.158919,-0.442807470,0.143277620,10.157113080,0.032372780,0.006675720,0.011210140
1640841389.159770,-0.180291710,0.401067380,9.768825530,0.055544080,-0.030571220,0.004826490
1640841389.164830,-0.124023360,0.031355280,10.078755380,0.094753490,-0.052121280,-0.000219050
1640841389.165510,0.005283130,0.153096390,9.538522720,0.117309390,0.018754600,0.006209310
1640841389.168759,-0.052873590,0.144697760,9.755046840,0.082638860,-0.053751470,0.005915760
1640841389.169099,-0.176439520,0.056380060,9.797162060,0.033445660,-0.024302300,0.021158160
1640841389.173640,-0.010614040,0.400025670,9.163943290,0.027625260,-0.049951680,-0.004394350
1640841389.174180,-0.276005270,0.369025620,10.169641490,0.037994980,-0.047931080,-0.015833970
1640841389.181290,-0.154328690,0.515670060,9.859729770,0.051334510,0.029094520,-0.003425780
1640841389.181790,-0.251413400,0.471803220,10.383307460,0.076673930,-0.065805000,-0.013963880
1640841389.183600,-0.467323600,0.328193810,10.679624560,0.069224830,-0.041794790,0.013762710
1640841389.183869,-0.132097770,0.610800210,9.050628660,0.014834110,-0.075003500,0.034941740
1640841389.188629,-0.408615680,0.417680050,9.849464420,-0.026778870,-0.095334650,0.021700560
1640841389.188910,-0.103793280,0.592945400,9.114686970,-0.037205210,0.036202370,-0.000888110
1640841389.193790,0.139282140,0.745631280,9.450413700,-0.021800400,-0.062258540,-0.009958450
1640841389.194680,-0.149775420,0.365087240,10.873796460,0.001673400,0.008060040,-0.002495940
1640841389.198670,0.380130530,0.518820880,9.448771480,0.000530480,-0.012810530,0.002564490
1640841389.199060,-0.123499240,0.164392770,10.672252660,-0.014328950,-0.152151270,0.031815470
1640841389.203620,-0.008980660,-0.011686350,9.302334790,-0.056844960,0.004234910,0.039231780
1640841389.204079,0.307320330,0.043445980,8.607704160,-0.050564110,-0.045154990,-0.012275580
1640841389.210780,-0.338008110,-0.114067350,10.608090400,-0.015190240,0.035271040,-0.012286010
1640841389.211710,0.116479210,0.140601280,9.105501170,-0.000603500,0.032594800,-0.026215620
1640841389.213790,-0.293027550,-0.035634360,10.324961660,0.011412800,-0.154691950,-0.015176830
1640841389.214520,-0.485255660,-0.049309240,9.724184990,0.003805760,0.007550420,0.028307740
1640841389.218700,-0.069356210,-0.005980800,8.676062580,-0.012232360,-0.057698790,0.003445150
1640841389.219070,-0.493925330,-0.205836680,10.643364910,0.007785860,-0.003302100,0.007621940
1640841389.223650,0.294413000,0.099444390,9.135404590,0.029557950,0.077889860,-0.005997720
1640841389.224130,0.212792380,0.028050620,10.313210490,0.054894390,-0.085301700,-0.029943890
1640841389.228750,0.071583090,-0.028214660,10.090346340,0.043387710,0.026285650,0.008584560
1640841389.229130,0.376028660,-0.036066540,8.762067790,0.059464590,-0.056867310,-0.009541220
1640841389.233719,-0.549047350,-0.320802540,10.403338430,0.085070740,-0.074198830,0.004617870
1640841389.234920,-0.187953960,-0.097964580,8.680458070,0.077049430,0.011549890,0.009478630
1640841389.238720,-0.280892850,-0.057031040,9.723372460,0.090318920,-0.059698530,-0.021699070
1640841389.239230,-0.583726760,0.196249380,10.632254600,0.069037090,0.061936680,-0.010994080
1640841389.243620,0.095632820,0.690568390,9.467133520,0.048291680,-0.040392580,-0.009907780
1640841389.243929,-0.382260380,0.450018550,10.863849640,0.055740780,-0.074432800,-0.014907120
1640841389.248629,0.026978120,0.556070980,9.229761120,0.082708900,0.027856230,-0.004225970
1640841389.248999,-0.002318930,0.508065820,9.560489650,0.117538890,-0.086958710,-0.008264180
1640841389.253939,-0.357849210,0.302547040,10.118141170,0.074060270,-0.011421740,0.011070070
1640841389.254779,0.367885590,0.585595970,8.673186300,0.006036460,-0.034791230,0.001630190
1640841389.258679,0.019136960,0.449984520,10.357057570,-0.042144960,-0.004476310,0.006367270
1640841389.258960,0.163127030,0.361182570,9.968330380,-0.021503870,0.087873630,0.010377170
1640841389.263810,0.183219390,0.330788910,10.263910290,0.080390270,-0.072957580,-0.014249980
1640841389.264330,-0.455559880,0.206172440,10.534122470,0.089776520,-0.058729940,-0.008726120
1640841389.269160,-0.118057080,0.358206450,8.625656130,0.011271240,-0.075304520,0.005786120
1640841389.270059,-0.445037600,0.182582840,9.675860400,-0.058490040,-0.023661550,-0.012376900
1640841389.273700,-0.045474010,0.167616710,9.244401930,-0.067693020,0.129950080,-0.005762280
1640841389.274220,0.494538810,0.041226130,9.899064060,0.021252040,0.056390460,-0.001733010
1640841389.278699,0.628381310,-0.643467660,10.488352780,0.121222440,0.109747050,0.012244290
1640841389.279250,1.340185520,-1.277418140,9.181985860,0.202718390,0.031851230,0.015823540
1640841389.284040,1.227149130,-2.159213780,9.692387580,0.255759000,0.058363380,-0.016218420
1640841389.284780,1.519168850,-2.796066520,8.657581330,0.271731620,0.225855440,-0.061541810
1640841389.288750,1.132702110,-2.935703750,10.124034880,0.369951160,0.186686220,-0.130110990
1640841389.290400,0.361494090,-2.386379720,10.529176710,0.435108040,0.250507890,-0.154286620
1640841389.293740,0.070948960,-1.307446000,9.247517590,0.440943300,0.071096440,-0.159844790
1640841389.294330,-1.077797890,-0.241112040,9.949441910,0.419947590,0.070768600,-0.104853510
1640841389.298790,-1.066629290,0.823716280,8.335738180,0.411747460,0.207820580,-0.087408720
1640841389.299500,-1.056855680,1.243290070,9.535183910,0.478151530,0.170433520,-0.081451240
1640841389.303700,-0.578812780,1.495115280,10.213153840,0.540463750,0.330370720,-0.069338090
1640841389.305019,0.563302520,1.233459590,9.962876320,0.546379390,0.278429720,-0.108750160
1640841389.308689,0.653395770,0.498151360,11.049177170,0.505627690,0.249050560,-0.093081600
1640841389.309280,1.031897430,0.019584580,9.259300230,0.460459380,0.206685070,-0.109592100
1640841389.313650,0.676729680,-0.725753550,9.191937450,0.461509880,0.094175360,-0.174324240
1640841389.314340,0.112800610,-0.798128190,8.669374470,0.479863640,0.227665930,-0.197628190
1640841389.319300,-0.259496390,-0.275602580,8.927384380,0.481925900,0.193783660,-0.240442160
1640841389.320310,-1.121820570,0.210666630,10.985863690,0.436222550,0.213584320,-0.245291010
1640841389.323910,-0.868162040,1.226133230,9.947639470,0.378635620,0.193166760,-0.217440770
1640841389.324460,-0.899432780,1.731272580,10.796110150,0.342510610,0.133408620,-0.169306990
1640841389.328650,-0.442678150,1.694791080,9.916341780,0.361842010,0.306093690,-0.132361100
1640841389.329030,0.254110930,1.615101100,9.388709070,0.421401920,0.208422590,-0.125038640
1640841389.333819,0.287293490,1.184881810,10.177443500,0.400975410,0.236912120,-0.134971770
1640841389.334679,0.941667970,0.631161810,8.641728400,0.297555330,0.236776500,-0.163741450
1640841389.339150,0.780397530,0.110482170,9.740457530,0.227874550,0.192002970,-0.212845240
1640841389.339910,0.539419710,-0.280186890,9.673600200,0.247350380,0.291240220,-0.262962280
1640841389.343639,0.248985160,-0.417519120,9.774768830,0.308640360,0.212563620,-0.289866330
1640841389.343979,-0.554717180,-0.153221880,10.425984380,0.337353350,0.225888190,-0.283484190
1640841389.348660,-0.920558810,0.139721940,9.694157600,0.273278390,0.157143180,-0.282198220
1640841389.349140,-1.339202880,0.401605430,9.848587040,0.216502000,0.140531390,-0.253419640
1640841389.354009,-0.909020540,0.662129460,9.068777080,0.227433440,0.230792150,-0.268968880
1640841389.354770,-0.572647150,0.674521330,9.994006160,0.279529390,0.249061020,-0.288413550
1640841389.358620,0.214872720,0.888040130,9.925995830,0.307102560,0.323827650,-0.259198250
1640841389.358889,0.883889680,0.412100400,10.197172160,0.273367790,0.230003920,-0.252124670
1640841389.363620,0.779916350,-0.205628570,10.516958240,0.269412990,0.238998250,-0.221864880
1640841389.363989,0.926694390,-0.557596210,9.145276070,0.302617220,0.160703050,-0.241783260
1640841389.370730,0.077550210,-1.146992440,9.875516890,0.328119190,0.161661210,-0.288628070
1640841389.372059,-0.271590800,-0.876852870,8.960797310,0.351417060,0.268930230,-0.312258330
1640841389.373680,-0.938947380,-0.396837650,10.107372280,0.317391810,0.166937750,-0.348222320
1640841389.374050,-1.578347920,0.186270280,10.479611400,0.286880200,0.213184980,-0.336051080
1640841389.378630,-1.273605230,0.927631200,9.581674580,0.284107120,0.113570710,-0.330185980
1640841389.378990,-1.559790250,1.387855170,10.625024800,0.302919830,0.106331720,-0.331446590
1640841389.383649,-0.684647440,1.711945770,9.247732160,0.288979740,0.184814630,-0.315125380
1640841389.384220,0.152435230,1.621332410,9.865295410,0.255702410,0.177472810,-0.312708260
1640841389.388620,0.674662530,1.303535460,10.468221660,0.232368740,0.280699220,-0.307925110
1640841389.388990,1.431450840,0.839089330,10.190618520,0.189824450,0.178973410,-0.283418660
1640841389.393580,1.448111650,0.166953730,10.173387530,0.186595370,0.174219940,-0.272880580
1640841389.393800,1.094649670,-0.448808820,9.624888420,0.208734020,0.184257370,-0.303784010
1640841389.398759,0.159110960,-0.775386510,10.029502870,0.223277510,0.169108820,-0.333185430
1640841389.399500,-0.783408220,-0.538480940,9.669579510,0.218421220,0.135195270,-0.353553920
1640841389.403740,-1.722609640,-0.384257410,10.243109700,0.174961970,0.088177610,-0.388294430
1640841389.404379,-1.853029610,0.460170300,9.358098030,0.164265980,0.172823710,-0.386489990
1640841389.408660,-1.701759220,1.193240050,9.838209150,0.134859960,0.111897290,-0.380209120
1640841389.409070,-1.196230290,1.461130380,10.499639510,0.130341960,0.235760210,-0.345928970
1640841389.413659,0.120779800,1.758218410,9.637158390,0.159348560,0.179758670,-0.347371430
1640841389.414000,0.460111110,1.317335840,11.205824850,0.157474000,0.110995790,-0.330841600
1640841389.418759,1.472889180,0.766884980,9.291842460,0.124448540,0.212118040,-0.316587090
1640841389.419119,1.645672320,0.046775670,9.635053630,0.107198980,0.112928470,-0.352403520
1640841389.423590,0.969119670,-0.577640650,10.286404610,0.092552610,0.237381460,-0.347566630
1640841389.423910,0.837235810,-0.751904370,8.870074270,0.085783000,0.143563750,-0.370298360
1640841389.428599,-0.508271340,-0.892112790,10.695952420,0.107538710,0.089308620,-0.399994880
1640841389.428939,-1.222117540,-0.476634090,9.679760930,0.124938800,0.177331280,-0.402890240
1640841389.434199,-1.796572800,-0.008685640,10.060276030,0.123043360,0.012224910,-0.413286750
1640841389.437029,-2.185345170,0.382839410,10.537091260,0.120718810,0.150689510,-0.417991070
1640841389.438670,-1.419977550,0.901495460,9.406403540,0.123183440,0.157812280,-0.415687320
1640841389.439040,-1.126730440,1.158179880,10.910403250,0.127291660,0.110474230,-0.388313770
1640841389.443600,-0.138365460,1.174263240,9.745555880,0.114296380,0.133451830,-0.376792250
1640841389.443950,0.750185250,0.982418660,9.548961640,0.090643790,0.029605630,-0.360214770
1640841389.449010,0.961108680,0.748088960,10.102913860,0.081081670,0.133822840,-0.366158720
1640841389.449980,1.341577410,0.377510520,9.713969230,0.040021540,0.110046570,-0.388228830
1640841389.453699,0.893408720,0.095463240,10.847901340,0.034005930,0.101706380,-0.381942030
1640841389.454130,0.479067440,0.129029180,10.456195830,0.041899090,0.115089130,-0.410500170
1640841389.458609,-0.310946610,0.090135670,10.576427460,0.008089840,0.034756960,-0.396524460
1640841389.458940,-1.001950380,0.383308260,9.832070350,-0.013205410,0.067491810,-0.378923060
1640841389.465829,-1.454972980,0.369734820,9.681771280,-0.004065040,0.039264560,-0.421781930
1640841389.467039,-1.784852150,0.697137300,10.115196230,0.009313230,0.068248810,-0.420087670
1640841389.469040,-1.290148260,1.066243890,9.698404310,-0.019060080,0.046582520,-0.418803100
1640841389.470379,-0.930906300,0.781079530,10.903264050,-0.051698090,0.055487450,-0.415790020
1640841389.473709,-0.071848580,1.020380850,10.200004580,-0.054459280,0.113458950,-0.391788870
1640841389.474190,0.625538950,0.786244690,10.398853300,-0.075235960,-0.006176530,-0.396662980
1640841389.478629,1.032483820,0.374339160,10.125379560,-0.078307100,0.084692220,-0.383424790
1640841389.478960,1.469542740,0.365454290,9.181805610,-0.084532800,0.076952580,-0.425727730
1640841389.483719,0.865852300,-0.019287480,10.648093220,-0.090056660,0.059404970,-0.416241590
1640841389.484949,0.433662440,-0.128969150,9.792845730,-0.091947600,0.098201630,-0.407034190
1640841389.488590,-0.246724950,-0.148211810,10.152676580,-0.097236040,-0.033544000,-0.431522760
1640841389.488890,-1.211932180,-0.130721140,10.488735200,-0.091862680,0.058865550,-0.415790110
1640841389.493600,-1.292411800,0.132802800,9.203175540,-0.090906020,0.032146280,-0.436399880
1640841389.493909,-1.648055550,0.256835580,10.694045070,-0.082819170,0.018537050,-0.458219650
1640841389.499699,-1.198544260,0.756538930,9.958126070,-0.088782620,0.091822470,-0.452147480
1640841389.500380,-0.506928560,0.871977210,10.105149270,-0.116445140,-0.018927460,-0.446745840
1640841389.504550,-0.046768990,0.613704140,10.638319020,-0.110138960,0.078192350,-0.424911170
1640841389.504989,0.671837090,0.341203750,9.655085560,-0.064326820,0.057655570,-0.425304500
1640841389.508639,0.658828440,-0.028709710,10.579074860,-0.043106080,-0.032217800,-0.429405300
1640841389.508989,0.737820450,-0.172476340,9.589078900,-0.077591840,0.032594800,-0.427471190
1640841389.513660,0.515136840,-0.170082060,9.582969670,-0.127497320,-0.020812450,-0.437311890
1640841389.514130,-0.140077490,0.076000060,10.713862420,-0.155399740,0.036172570,-0.443904130
1640841389.518990,-0.361701850,0.294369310,10.178153990,-0.133362410,0.018696490,-0.440129700
1640841389.519420,-0.960571230,0.388818090,11.023777960,-0.074329970,-0.044377160,-0.447748690
1640841389.523579,-1.197988750,0.755586620,10.393618580,-0.063049800,0.012236840,-0.443479510
1640841389.523909,-1.203067060,0.957022250,9.848848340,-0.129450860,-0.092145800,-0.436894630
1640841389.528689,-0.995225070,1.128211500,10.009021760,-0.202076180,-0.019906460,-0.427067370
1640841389.529340,-0.209361490,1.300023080,9.344877240,-0.241249830,0.040039430,-0.455817670
1640841389.533779,0.109527540,1.216819520,10.706646920,-0.219844330,-0.003673140,-0.447285260
1640841389.534570,0.716307820,1.090590360,10.504295350,-0.216321660,0.053639720,-0.440974590
1640841389.538730,0.853638470,0.479310840,10.803149220,-0.204935700,-0.029787430,-0.451418820
1640841389.539189,0.306725410,0.155489490,11.087655070,-0.214563340,-0.064452010,-0.417988090
1640841389.543619,0.393921410,-0.162545950,9.307153700,-0.264500080,-0.078149160,-0.417777960
1640841389.544040,-0.181565930,-0.599848930,9.929096220,-0.262840120,-0.024540730,-0.436015490
1640841389.548679,-0.578070100,-0.055370390,9.965885160,-0.245149480,0.072699800,-0.449738000
1640841389.548960,-0.580716190,0.197792710,10.261138920,-0.271789730,-0.046296430,-0.464241300
1640841389.553609,-0.835208300,0.440696630,10.822587970,-0.276833800,-0.015112760,-0.430365000
1640841389.554000,-0.463199050,0.838688020,10.068696980,-0.265258580,-0.012394790,-0.439435300
1640841389.558600,-0.459676560,0.788521230,10.956101420,-0.241602990,-0.074414920,-0.424063270
1640841389.558889,0.053589190,0.833028730,9.747115140,-0.256648750,0.019234420,-0.406594630
1640841389.563619,0.620168150,0.615885140,9.601778980,-0.290946750,0.014232100,-0.457356960
1640841389.564010,0.447020200,0.267993180,10.692631720,-0.290207560,0.067819670,-0.432647850
1640841389.568840,0.596924010,-0.002250480,9.666916850,-0.280211870,0.001633170,-0.433661040
1640841389.569540,0.069955400,-0.654345810,10.624233250,-0.227990760,-0.108884270,-0.418585540
1640841389.573670,-0.458932610,-0.858241800,10.095577240,-0.177441510,-0.003056230,-0.398240920
1640841389.574149,-0.579194490,-0.840368390,9.770936010,-0.197860640,-0.071816170,-0.421151580
1640841389.578850,-0.936398740,-0.771428350,11.121953960,-0.214099930,0.027173760,-0.428842100
1640841389.579560,-0.466348980,-0.172815190,10.009675030,-0.210075110,0.072902460,-0.458867940
1640841389.583920,-0.391908910,0.381411790,10.812147140,-0.181758450,-0.072847320,-0.470306070
1640841389.585080,-0.313521890,0.742067810,10.395680430,-0.161455600,-0.010110440,-0.423872560
1640841389.588620,0.205412790,0.974148040,9.021172520,-0.160050390,-0.066460680,-0.412699640
1640841389.588889,-0.203427140,0.821408330,10.752722740,-0.157766060,-0.073350970,-0.385667380
1640841389.593710,0.101266010,0.679339170,9.671039580,-0.196734120,0.025133790,-0.379239050
1640841389.594329,0.322032090,0.402426570,10.192533490,-0.218303550,-0.042063010,-0.416797460
1640841389.598660,-0.132022310,0.151992920,11.702037810,-0.210849990,0.045919430,-0.434725080
1640841389.598980,0.077155040,0.135376870,9.969436650,-0.199133190,-0.026977070,-0.438334140
1640841389.603690,-0.456138850,-0.067000240,10.670228960,-0.182586940,-0.173364620,-0.434881510
1640841389.604159,-0.784711840,-0.114454900,9.846626280,-0.188402860,-0.025960810,-0.425911040
1640841389.608680,-0.584860920,0.083298950,9.159853940,-0.208397220,-0.085350870,-0.423751860
1640841389.609110,-0.991819620,0.193705440,11.331842420,-0.219111170,-0.063730780,-0.418442520
1640841389.613750,-0.360405120,0.596698050,10.279611590,-0.235335570,0.037528580,-0.417862920
1640841389.614260,0.117859570,0.958210050,10.806310650,-0.232000690,-0.107039530,-0.418140050
1640841389.618660,0.145151640,1.179877520,11.325983050,-0.252360110,-0.026267770,-0.399679010
1640841389.619020,0.927902220,1.222769020,9.178343770,-0.294031290,-0.011527540,-0.406968650
1640841389.623610,0.549757540,0.984735430,10.451607700,-0.293208720,-0.085896280,-0.423413570
1640841389.624050,0.108506440,0.835884090,10.207419400,-0.302966030,0.003083050,-0.418640730
1640841389.628610,0.153379770,0.376539800,9.385271070,-0.320246910,-0.091192140,-0.414578710
1640841389.628929,-0.641323330,-0.081253100,11.102075580,-0.310964910,-0.072063510,-0.411944150
1640841389.634179,-0.603803580,-0.295407800,10.032229420,-0.305180280,0.022384520,-0.399073990
1640841389.635130,-0.451947690,-0.585648120,10.327940940,-0.289790420,-0.062038020,-0.405830200
1640841389.638610,-0.566894230,-0.410397410,11.072690960,-0.275406330,0.027816000,-0.417317540
1640841389.638949,0.083418410,-0.078061310,9.678457260,-0.291828870,-0.004859270,-0.433474870
1640841389.643649,0.148225690,0.219459620,10.381070140,-0.295062420,-0.083479310,-0.420108500
1640841389.644160,0.269436150,0.437772130,9.933346750,-0.280448850,0.027912860,-0.409793940
1640841389.648720,0.533920760,0.442364130,9.731321330,-0.256033300,-0.008589030,-0.412528280
1640841389.649109,0.144326820,0.569856760,10.809166910,-0.248040300,-0.004783270,-0.389616250
1640841389.654840,0.272299410,0.378336880,9.902465820,-0.279070470,0.028395650,-0.379835100
1640841389.655320,0.127703290,0.128973810,10.421332360,-0.284816320,-0.022196770,-0.376881750
1640841389.658779,-0.425072940,-0.003928580,10.748287200,-0.260025260,0.019843880,-0.380909440
1640841389.659109,-0.384756680,-0.312557970,9.869447710,-0.249071420,-0.041550400,-0.405000180
1640841389.663560,-0.569735770,-0.454651710,10.338640210,-0.209187000,-0.014466050,-0.408926670
1640841389.663910,-0.757670940,-0.489058910,10.093627930,-0.196911440,0.057145960,-0.430779220
1640841389.668759,-0.592131380,-0.379156770,10.294338230,-0.197938130,-0.062626600,-0.427277480
1640841389.669220,-0.527208210,0.026135300,10.482290270,-0.198593780,-0.032986710,-0.402578770
1640841389.673669,-0.056675270,0.304089220,9.811388020,-0.229564350,-0.009110570,-0.404127030
1640841389.674290,0.220974980,0.734863640,10.633524890,-0.221122790,-0.007782880,-0.375731230
1640841389.678640,0.340614140,0.846338450,10.594272610,-0.197391210,0.042378900,-0.371079090
1640841389.678959,0.474912350,0.703629730,10.445345880,-0.186704110,-0.039313730,-0.388965010
1640841389.683840,0.157775920,0.825108050,10.660541530,-0.183220210,-0.033646830,-0.368907990
1640841389.685130,-0.171047480,0.534840880,9.786091800,-0.260096880,-0.029502810,-0.390347900
1640841389.688740,-0.461484820,0.356900630,10.243143080,-0.289474520,-0.085487980,-0.393681320
1640841389.689240,-0.690287950,0.374459120,10.185397150,-0.262008640,0.012415650,-0.403899010
1640841389.693940,-0.577698110,0.202507500,10.199727060,-0.260317360,-0.018657740,-0.421804280
1640841389.694850,-0.550170240,0.180903810,11.265715600,-0.230482220,0.005638600,-0.382806390
1640841389.698650,-0.309482310,0.168971330,10.745506290,-0.233131690,0.007051230,-0.397689730
1640841389.698959,-0.100628060,0.184013020,10.601080890,-0.274495780,-0.110486160,-0.379204780
1640841389.703630,0.164988680,0.504406750,10.108411790,-0.292466640,-0.018554930,-0.366795120
1640841389.704000,0.600306150,0.616705300,9.262798310,-0.323514670,0.046893970,-0.419691260
1640841389.708680,0.521636190,0.856761810,10.632827760,-0.322569970,0.022891170,-0.398483930
1640841389.709020,0.399106680,1.020976780,10.604507450,-0.310319750,0.058083240,-0.385388790
1640841389.713620,0.318070980,0.451110480,10.275068280,-0.311729310,-0.061486670,-0.369609950
1640841389.713930,-0.290544060,0.163630400,11.014869690,-0.268088280,-0.040720400,-0.318017630
1640841389.718780,-0.487501980,-0.219269660,9.909161570,-0.273515280,0.024285920,-0.350090920
1640841389.719190,-0.414409160,-0.738023940,9.984027860,-0.291751330,-0.014621020,-0.368349340
1640841389.723739,-0.440389390,-0.407416190,10.553054810,-0.274795290,0.095751900,-0.400258660
1640841389.724360,-0.090706390,-0.281866160,9.951958660,-0.299944070,0.090180340,-0.432303610
1640841389.728639,-0.102272910,-0.162100020,10.833035470,-0.266087110,-0.034442550,-0.390535590
1640841389.729090,-0.275981750,0.317796440,10.466782570,-0.214673590,-0.008530910,-0.390332880
1640841389.733719,0.018977660,0.109114930,9.423958780,-0.218194720,-0.039565570,-0.372923850
1640841389.735469,-0.159616470,0.264353450,10.495491030,-0.211600990,0.019539890,-0.349633490
1640841389.738940,-0.018933470,0.401151840,10.468765260,-0.238949110,0.129105180,-0.375214310
1640841389.739400,0.380764010,0.219071730,10.544805530,-0.269584330,0.031305850,-0.353005470
1640841389.743660,0.173957350,0.405116110,11.037378310,-0.227701680,0.039386750,-0.318112940
1640841389.743950,0.159474330,0.078055270,10.034491540,-0.217345360,0.060929360,-0.331060620
1640841389.748600,-0.257825760,-0.287588860,10.325373650,-0.166101770,-0.057853770,-0.304669170
1640841389.748849,-0.852082850,-0.060459590,10.174974440,-0.146110360,-0.023014850,-0.326921080
1640841389.753620,-0.706631240,-0.206774680,9.603082660,-0.224649890,0.012266630,-0.354912850
1640841389.754570,-0.761204240,0.229278420,10.916395190,-0.249689820,0.053517520,-0.336176190
1640841389.758600,-0.571177180,0.778747140,11.281454090,-0.252407820,0.087088350,-0.358147950
1640841389.758900,0.082254130,0.725795750,10.879664420,-0.238367920,-0.003169480,-0.318901270
1640841389.763700,0.227216300,0.927295920,10.650799750,-0.170727090,0.002849100,-0.283955070
1640841389.764999,0.335716040,0.786090610,9.961982730,-0.192089380,0.029137730,-0.288657870
1640841389.769080,0.392574640,0.412589790,10.084885600,-0.241465870,-0.005650520,-0.245630740
1640841389.770900,0.088774570,0.337413880,10.263063430,-0.269564990,0.026623910,-0.241276670
1640841389.773779,0.154076380,-0.068500760,10.315920830,-0.285965230,0.049531460,-0.258921120
1640841389.774309,-0.035578560,-0.044057510,11.042408940,-0.239938510,0.072552270,-0.230354070
1640841389.778640,-0.195990880,0.061415750,10.645627980,-0.219085800,0.058211380,-0.255361230
1640841389.778960,-0.217239800,-0.102960620,10.762470250,-0.225937410,-0.006343420,-0.252515080
1640841389.783660,-0.324255440,0.305305090,10.286939620,-0.226347160,0.059302150,-0.241029280
1640841389.784240,-0.112408820,0.407233480,9.671008110,-0.283446970,0.040090090,-0.252266320
1640841389.788630,-0.140611630,0.372510020,10.794362070,-0.258509840,0.071901080,-0.235787050
1640841389.788960,0.060190250,0.681164320,10.181890490,-0.217016090,0.139042740,-0.236944850
1640841389.793599,0.347116950,0.518616500,10.092356680,-0.248980540,0.022178890,-0.208178180
1640841389.793860,0.105735880,0.312754960,10.967621800,-0.238893930,0.090700390,-0.145092620
1640841389.798640,0.325221150,-0.062733580,9.722289090,-0.235872020,0.129714610,-0.159733010
1640841389.798910,0.049824480,-0.488053770,10.903930660,-0.205741820,-0.000824030,-0.149327500
1640841389.804220,-0.206401110,-0.494425680,10.744506840,-0.173266200,0.118060400,-0.163245170
1640841389.805519,0.243342340,-0.687321360,9.369020460,-0.203642280,0.138449670,-0.212810950
1640841389.808709,-0.384995280,-0.436210040,11.257465360,-0.164869410,0.097607080,-0.189030160
1640841389.809160,-0.537274180,-0.011728900,10.402609830,-0.162923380,0.133004780,-0.168789950
1640841389.813690,-0.225904550,-0.058848030,9.424446110,-0.156562030,-0.014717880,-0.139068070
1640841389.814070,-0.848717450,0.277092400,10.881985660,-0.095669920,0.049750500,-0.103855120
1640841389.819120,-0.389280290,0.478789360,9.926215170,-0.120908040,0.157317560,-0.111320630
1640841389.819840,-0.065170870,0.336094470,10.595704080,-0.141011150,0.061647600,-0.112079090
1640841389.823619,-0.126675590,0.580567720,11.429754260,-0.133632140,0.132329730,-0.119753190
1640841389.823910,0.443443300,0.615666030,10.081099510,-0.160315650,0.131256890,-0.125740470
1640841389.828620,0.167258740,0.452761080,10.293759350,-0.143948200,0.013154750,-0.088338550
1640841389.828889,-0.051007060,0.415195440,10.094984050,-0.146520140,0.060257320,-0.065341600
1640841389.834869,-0.050296310,0.049011090,9.715704920,-0.146473960,0.104013090,-0.068649660
1640841389.835709,-0.521748240,-0.118036180,10.840360640,-0.113098330,0.075769430,-0.054731970
1640841389.838690,-0.604906800,-0.028548950,11.333560940,-0.125978890,0.080645090,-0.074467050
1640841389.839059,-0.447984280,0.145357880,10.836644170,-0.149342420,0.084693740,-0.086423780
1640841389.843629,-0.410618570,0.594061670,10.595126150,-0.188553330,0.040787460,-0.064459440
1640841389.843950,-0.416745160,0.867645620,10.661615370,-0.219404700,0.062216820,-0.052104890
1640841389.848820,-0.196407290,0.944613040,9.844597820,-0.176909580,0.082243980,-0.045560300
1640841389.850750,-0.193886610,1.152333860,10.275021550,-0.168558960,-0.000512600,-0.037151580
1640841389.853890,-0.308060620,1.182318810,10.867352490,-0.229163510,0.059072680,-0.017605720
1640841389.854470,-0.028750310,0.928342220,10.315692900,-0.294220540,0.080418590,-0.004002450
1640841389.858620,-0.051075920,0.493943510,11.376288410,-0.287823380,0.023944680,0.014993550
1640841389.858909,0.023851000,0.228538650,10.939774510,-0.233240460,0.098901990,0.034376980
1640841389.863639,0.412577480,-0.123769540,9.996608730,-0.223627700,0.069394710,0.019843870
1640841389.864019,0.009622780,-0.340432380,10.957546230,-0.241082950,0.068423160,0.014817710
1640841389.868800,-0.209691240,-0.128507410,10.209767340,-0.281572340,0.063252460,0.009301300
1640841389.869279,-0.336499450,-0.158798250,10.281326290,-0.299875440,-0.035108630,-0.005425510
1640841389.873600,-0.603541610,0.088109120,10.643211360,-0.249138500,0.055655850,0.025452680
1640841389.873989,-0.407541220,0.526803260,10.116241460,-0.212581430,0.096392620,0.058178600
1640841389.878650,-0.332678380,0.627237680,11.213109970,-0.244355190,0.071302060,0.095145400
1640841389.879010,-0.007138300,0.660831210,10.586860660,-0.269392160,0.132472810,0.127820670
1640841389.883880,0.392186310,0.464309100,10.265044210,-0.273060830,0.036829710,0.104562950
1640841389.884480,0.156896000,0.112960640,11.167684560,-0.232531130,0.065702200,0.093068190
1640841389.889590,0.457912180,-0.073249940,9.647823330,-0.206454100,0.116020450,0.087572630
1640841389.890090,0.240060690,-0.396563050,10.396894450,-0.192998350,0.034084920,0.065681350
1640841389.893620,-0.183365540,-0.430614590,10.902266500,-0.216746350,0.135397910,0.091899940
1640841389.893999,0.087460540,-0.404211070,9.657947540,-0.247499390,0.116023430,0.128109750
1640841389.898749,-0.543862040,-0.645334900,11.274230960,-0.177669540,0.039783120,0.140172260
1640841389.899190,-0.716594930,-0.317919880,10.858736990,-0.106096290,0.097079580,0.147041680
1640841389.903960,-0.378312770,0.009435130,9.822927470,-0.105164950,0.016012790,0.140200570
1640841389.904860,-0.623335120,0.012001600,10.737873080,-0.139868270,0.086610040,0.135943290
1640841389.908670,-0.190420300,0.499205200,10.348351480,-0.158734630,0.178037580,0.135703400
1640841389.909010,-0.036641720,0.586813570,10.444237710,-0.151620820,0.074921530,0.144721540
1640841389.913760,-0.032731620,0.488353430,10.561158180,-0.119723390,0.023111700,0.179681170
1640841389.914350,0.110797190,0.430339490,10.256205560,-0.090630360,0.072678920,0.195218620
1640841389.918670,-0.115879100,0.045888770,10.272706030,-0.102473800,0.079408300,0.194823710
1640841389.919230,-0.232704560,-0.201686550,10.857128140,-0.115855050,0.022137170,0.196965080
1640841389.923950,-0.274051460,-0.240938110,10.926928520,-0.106331710,0.112552950,0.162918870
1640841389.924640,-0.113188710,-0.183536540,10.196640970,-0.114937130,0.098469850,0.154238910
1640841389.928680,-0.511077170,0.297798990,11.323050500,-0.109009450,0.013637540,0.201079260
1640841389.929459,-0.615668120,0.531707940,10.433859830,-0.139150020,0.069400690,0.204527390
1640841389.933699,-0.375979450,0.563037220,9.612531660,-0.146199750,-0.023560220,0.211635220
1640841389.934199,-0.881987510,0.882084010,11.223078730,-0.101919480,-0.003829600,0.229461490
1640841389.938740,-0.491753700,0.830487730,10.230511670,-0.138697040,0.108601170,0.213208840
1640841389.939139,-0.020546180,0.883072140,10.551213260,-0.161147130,0.001028180,0.238294900
1640841389.943640,-0.230097850,0.961611030,11.988164900,-0.196266170,0.063608590,0.264054540
1640841389.943960,0.501062750,0.668684540,10.110465050,-0.257094230,0.095535840,0.285549520
1640841389.948660,0.443658500,0.321902100,10.502963070,-0.190824290,-0.021769110,0.291304320
1640841389.948969,-0.205242540,0.116260080,11.124517440,-0.153429790,0.034452970,0.257301270
1640841389.953920,-0.025094750,0.024694250,9.585777280,-0.185680390,0.013667350,0.243559510
1640841389.954910,-0.623514890,-0.050132710,10.767129900,-0.228787990,-0.058533260,0.241915930
1640841389.958670,-0.884089230,0.002137980,11.019451140,-0.254725010,0.065809500,0.261890980
1640841389.959270,-0.372015090,0.392710180,10.267832760,-0.231993200,0.044015060,0.281980660
1640841389.964140,-0.396347700,0.513795670,11.239520070,-0.224140290,0.017036500,0.296181440
1640841389.965020,0.120917770,0.639502350,10.598824500,-0.231051420,0.105196240,0.316372540
1640841389.969410,0.361390710,0.723090830,10.539406780,-0.208920260,0.023755430,0.303164150
1640841389.970290,0.186347140,0.364000950,10.826473240,-0.229311030,-0.003863870,0.313733580
1640841389.973690,0.467160080,0.176656950,9.813160900,-0.230120140,0.030231470,0.330145690
1640841389.974110,0.113099790,-0.052133390,10.380317690,-0.212794540,0.062584880,0.315170020
1640841389.978750,-0.023024710,-0.325853650,10.621464730,-0.228115930,0.095805530,0.340397690
1640841389.979220,-0.111568720,-0.314204220,10.635797500,-0.202050820,0.056335330,0.358235840
1640841389.983690,-0.479653980,-0.551774620,10.992362020,-0.177252340,0.052960220,0.322836730
1640841389.984099,-0.448480070,-0.344101730,10.656626700,-0.162485240,0.012184680,0.327542450
1640841389.988900,-0.600148260,-0.051550470,10.433454510,-0.153601200,0.017675760,0.327651260
1640841389.989320,-0.320443930,-0.206320480,10.205750470,-0.168550010,0.094038260,0.303803410
1640841389.994060,-0.094702700,0.255593720,10.513247490,-0.125117600,0.102472330,0.337238610
1640841389.994949,-0.165465740,0.422279600,10.575423240,-0.129945580,0.078298150,0.364190370
1640841389.998730,0.081863870,0.078876000,10.510639190,-0.137527290,0.007675590,0.393354890
1640841389.999250,-0.143455340,0.121723860,10.674927710,-0.082413850,0.019682950,0.414016810
1640841390.003759,-0.145964150,-0.227788330,10.161782260,-0.087334220,0.023181740,0.388149920
1640841390.004560,-0.142134160,-0.433716420,10.812815670,-0.082111360,0.042833390,0.368605580
1640841390.008700,-0.284910290,-0.179590060,10.889472010,-0.064004980,0.133261110,0.337997170
1640841390.009130,-0.222871870,-0.092583170,10.618779180,-0.101210180,0.015947220,0.330872830
1640841390.013640,-0.596182940,0.252495260,10.993995670,-0.093236590,-0.038300460,0.361949290
1640841390.014000,-0.551901340,0.387001660,9.657291410,-0.083440560,0.003637370,0.363156290
1640841390.018580,-0.543264270,0.388118450,10.194544790,-0.058755290,-0.036354370,0.380039270
1640841390.018930,-0.812385860,0.705383180,11.262616160,-0.046420100,0.044631960,0.399114190
1640841390.023640,-0.165054280,0.573890510,10.465631480,-0.115545100,0.056284660,0.391805200
1640841390.024279,-0.162778010,0.564583660,11.650369640,-0.119847080,-0.035662950,0.408904250
1640841390.028620,-0.168449770,0.914366250,11.248125080,-0.122573980,0.023320320,0.403001930
1640841390.028980,0.348113630,0.645621420,9.457788470,-0.179852590,-0.057008870,0.407093820
1640841390.033599,-0.052859860,0.513099190,10.667428020,-0.140926260,-0.054003300,0.411896440
1640841390.034050,-0.215180550,0.423694670,10.416587830,-0.135806200,0.074571370,0.383926960
1640841390.039549,-0.122963300,0.117550770,10.338583950,-0.155781220,-0.052256880,0.390577350
1640841390.040120,-0.851663410,0.250128920,12.020771980,-0.160893770,-0.080619740,0.407719640
1640841390.044119,-0.558857740,0.216911020,10.446665760,-0.210246490,0.001686810,0.408855170
1640841390.044770,-0.336357180,0.251668840,10.166902540,-0.212365430,-0.095270600,0.434915780
1640841390.048859,-0.537920590,0.489236590,11.129834180,-0.191567850,0.000256300,0.432129230
1640841390.049420,0.240821300,0.382117600,9.715607640,-0.190421970,0.086054210,0.407826990
1640841390.053589,0.133741990,0.446076780,10.944168090,-0.157952310,-0.084826360,0.408470630
1640841390.053990,-0.207927240,0.538359280,11.445401190,-0.199139160,-0.039072340,0.418721200
1640841390.058889,0.342960270,0.069522040,9.570476530,-0.242647570,-0.054363910,0.425696460
1640841390.059460,-0.143579100,-0.069058630,10.827925680,-0.174066420,-0.088752810,0.451630380
1640841390.063640,-0.185456500,-0.049287480,10.533671380,-0.166715680,0.074546060,0.458969240
1640841390.064040,0.290299590,-0.228413150,9.880943300,-0.187343390,0.021797420,0.458829190
1640841390.068640,-0.262212510,-0.095158910,11.534367560,-0.167256590,-0.028893360,0.455354210
1640841390.068970,-0.212634190,0.040450960,10.560564990,-0.187309100,-0.018560890,0.427968860
1640841390.074040,-0.194232460,-0.091298600,10.041027070,-0.159765780,-0.095337650,0.408677820
1640841390.074649,-0.667108600,-0.033870380,10.856657980,-0.114306820,-0.024443870,0.407232430
1640841390.078689,-0.347581950,0.052353260,10.036443710,-0.119437280,0.040119890,0.413528080
1640841390.079190,-0.332704540,0.014297150,10.566552160,-0.121960060,-0.032153740,0.445026250
1640841390.083830,-0.342945070,0.091627340,10.831971170,-0.144861640,-0.017318130,0.476932530
1640841390.084309,0.032015170,0.041399080,10.259551050,-0.141774160,-0.031748430,0.476296310
1640841390.089550,-0.149012740,-0.111194070,10.844532970,-0.094476360,-0.065831850,0.468693730
1640841390.090060,0.041402630,-0.147013130,10.448737140,-0.072325780,-0.004450980,0.445620810
1640841390.093600,0.104787540,-0.389032960,10.443587300,-0.036248560,0.010634960,0.411035090
1640841390.093989,-0.298521730,-0.304173800,11.055284500,-0.033788380,-0.020074840,0.429321860
1640841390.098640,-0.448364590,-0.039827650,10.446889880,-0.079794250,-0.077903290,0.454519780
1640841390.098899,-0.676470940,-0.016942710,10.177242280,-0.091137010,-0.124898550,0.462427790
1640841390.103580,-0.775244650,0.276590200,10.259398460,-0.068947680,-0.068405270,0.466291700
1640841390.104009,-0.546063600,0.493037520,10.472496030,-0.042997300,-0.006352370,0.448679980
1640841390.108610,-0.440266910,0.510460080,11.373565670,-0.021375720,-0.022821130,0.432467490
1640841390.108940,-0.183508220,0.756792960,11.323015210,-0.053702290,-0.063109410,0.436605540
1640841390.113600,0.023031450,0.807561460,10.475391390,-0.118494050,-0.114280010,0.456519480
1640841390.113880,-0.130187820,0.473164770,10.355026250,-0.126281400,-0.108742740,0.476186040
1640841390.118780,-0.084032070,0.378140630,9.956821440,-0.087435570,-0.066734850,0.465679260
1640841390.119340,-0.221130340,0.242091220,10.402131080,-0.066281870,-0.110106190,0.442734450
1640841390.123760,-0.335092630,0.052038080,11.161140440,-0.092393160,-0.055252030,0.454726870
1640841390.124640,-0.150915740,0.167437780,10.869069100,-0.136411190,-0.043867530,0.444632860
1640841390.128660,-0.470738110,0.302312790,11.589529040,-0.152973880,-0.155758890,0.439688650
1640841390.128990,-0.422640060,0.502556980,10.740093230,-0.164817300,-0.111103080,0.469186990
1640841390.133610,-0.136202980,0.614150760,9.568475720,-0.156046470,-0.095482170,0.444124670
1640841390.134060,-0.635406490,0.632291670,11.079078670,-0.121083870,-0.108365730,0.432449670
1640841390.138840,-0.437801930,0.757162810,10.475770000,-0.147394870,-0.074546060,0.447642860
1640841390.139720,-0.116745340,0.624827210,10.278787610,-0.204284520,-0.173510660,0.445953100
1640841390.143610,-0.305788430,0.375772680,11.720243450,-0.206960750,-0.093197820,0.485336870
1640841390.143890,0.309279950,0.415523350,10.394954680,-0.202131300,-0.012063980,0.489930900
1640841390.148599,0.492724840,0.074432830,10.814534190,-0.179040430,-0.131450610,0.471699240
1640841390.148860,0.225911130,-0.014302720,11.278635980,-0.172568870,-0.039510430,0.468057390
1640841390.154039,0.464245860,0.051682140,9.689894680,-0.214152080,-0.053589050,0.425890180
1640841390.154960,-0.320312110,-0.222891820,11.006852150,-0.197146860,-0.190159710,0.436535570
1640841390.158800,-0.660619200,-0.029834550,10.613882060,-0.173148540,-0.090467950,0.448183770
1640841390.159489,-0.316521380,0.134167160,9.610990520,-0.179135840,-0.085362810,0.462654290
1640841390.163689,-0.618374050,-0.058041690,11.531780240,-0.174765290,-0.038798160,0.495100080
1640841390.164110,-0.163319900,0.184081510,11.046405790,-0.171996670,0.056535020,0.478531480
1640841390.168700,0.271420570,0.182528230,10.659478190,-0.157141700,-0.100812330,0.452867240
1640841390.169669,-0.011685750,0.096254900,11.125075340,-0.151443480,-0.111123940,0.458909600
1640841390.173630,0.308362010,0.115014640,9.474442480,-0.162658140,-0.050508980,0.444467460
1640841390.174100,0.109960720,-0.291600440,10.051717760,-0.118149830,-0.074075160,0.443475040
1640841390.178579,-0.214289160,-0.345502850,10.906890870,-0.094808660,0.006040930,0.478607510
1640841390.178850,0.115831140,-0.305815250,10.313986780,-0.100743790,-0.009216370,0.482642770
1640841390.183620,-0.220329550,-0.527100320,11.470107080,-0.115317130,-0.053887080,0.464576570
1640841390.183950,-0.317471860,-0.261761430,10.943825720,-0.106813040,-0.015234950,0.465577900
1640841390.189090,-0.270271390,-0.170785160,10.235069270,-0.061643130,-0.097857440,0.435929060
1640841390.190199,-0.573271750,-0.270926680,10.498382570,-0.014926500,-0.058953460,0.410319920
1640841390.193610,-0.395241980,0.051339080,9.651510240,-0.027062000,-0.007732210,0.421048700
1640841390.193910,-0.466101860,0.130399050,10.531187060,-0.042712690,-0.060904030,0.439052310
1640841390.198740,-0.468981680,0.045275090,10.980252270,-0.057820990,-0.028885900,0.463175860
1640841390.199410,-0.077430520,0.215240480,10.478178980,-0.035478180,-0.081776080,0.463435110
1640841390.204000,-0.223711340,0.016311070,11.368509290,0.005748870,-0.089404010,0.467658100
1640841390.204939,0.139358820,-0.275633660,10.411713600,0.030568250,0.000171360,0.446830780
1640841390.209720,0.182902260,-0.328906090,10.409993170,0.065472730,-0.052686040,0.420396120
1640841390.210280,-0.428405400,-0.265430270,11.171829220,0.050567090,-0.074516240,0.417849420
1640841390.213660,-0.319081430,-0.124389910,9.529329300,-0.025898220,-0.129066410,0.419087740
1640841390.214020,-0.573932350,0.060582450,10.172920230,-0.014461580,-0.166976500,0.421120290
1640841390.218770,-0.857614160,0.335694790,11.000777240,0.025841590,-0.008119640,0.425238910
1640841390.219519,-0.376165810,0.462562410,10.728435520,0.042267150,-0.045531990,0.423137840
1640841390.223820,-0.437091650,0.460064170,12.085109710,0.083997860,-0.120832050,0.429976050
1640841390.225070,-0.054852090,0.537023480,10.730112080,0.043468170,-0.039386750,0.427064240
1640841390.228619,0.252461970,0.395666300,9.868944170,-0.018145150,-0.132690370,0.438532320
1640841390.228930,-0.174522410,0.481229340,10.660782810,-0.022736200,-0.122885420,0.453244210
1640841390.233680,0.075603950,0.465238270,9.501471520,-0.040660800,-0.084151330,0.414010910
1640841390.234360,0.010088630,0.325048120,10.578627590,-0.034156440,-0.108905140,0.398316980
1640841390.238710,-0.376993690,0.426378700,11.793075560,-0.006702540,-0.015558300,0.408250180
1640841390.239240,-0.233432410,0.159216940,11.274016380,-0.010605160,-0.074762110,0.389482110
1640841390.244109,-0.443891200,0.278512600,11.628408430,-0.027947130,-0.175789030,0.410887690
1640841390.245290,-0.367871760,0.547752500,10.103630070,-0.083051640,-0.088243200,0.436343340
1640841390.248770,-0.074450210,0.302220340,9.553294180,-0.110499560,-0.086466980,0.407394770
1640841390.249420,-0.133240150,0.544538560,10.598011020,-0.077493500,-0.030551850,0.407382910
1640841390.253620,0.028353220,0.719265520,10.511317250,-0.065949560,-0.037606070,0.390943940
1640841390.254050,0.017624110,0.386839810,11.346261020,-0.096525250,-0.113452990,0.404830370
1640841390.258669,-0.070384740,0.399241660,11.360626220,-0.105649260,-0.075005010,0.434371920
1640841390.259120,-0.036070570,0.158971380,10.618793490,-0.107088700,-0.118082780,0.437699350
1640841390.263620,-0.040265030,-0.186416910,10.542445180,-0.106754910,-0.066801930,0.434735480
1640841390.263960,0.161719860,-0.035262670,9.875058170,-0.092215850,0.019122660,0.399579200
1640841390.268790,-0.049139690,-0.125622780,10.595681190,-0.088417540,-0.044018020,0.381070410
1640841390.269189,-0.180812630,-0.107456970,10.791642190,-0.101421780,-0.049823530,0.378254060
1640841390.273980,-0.241127820,-0.014476080,10.321922300,-0.075261320,-0.114503520,0.394541110
1640841390.274730,-0.558823650,-0.163615730,11.048451420,-0.053779780,-0.095884510,0.400359930
1640841390.278689,-0.187486690,0.022803800,10.253391270,-0.065268570,0.024418530,0.401683120
1640841390.279150,0.012697510,0.016467670,10.802359580,-0.054313250,-0.010022520,0.398729770
1640841390.283749,-0.013261430,0.032374160,11.302063940,-0.052665170,0.008496640,0.387370590
1640841390.284700,0.446355520,0.219331500,9.746278760,-0.055985160,-0.025749210,0.387206700
1640841390.288730,-0.078178330,-0.187526320,10.742185590,-0.021351870,-0.111335520,0.404588880
1640841390.289170,-0.363997280,-0.257450130,10.334284780,0.013881920,-0.018040840,0.405104520
1640841390.293670,-0.292623730,-0.383590850,9.853610990,0.020501020,-0.068463390,0.385378330
1640841390.294000,-0.706552800,-0.467096780,11.229547500,0.019471350,-0.012569130,0.393016700
1640841390.298740,-0.374551530,-0.007576710,10.590353010,-0.009624660,0.047761210,0.367210890
1640841390.299199,-0.243382660,0.082803300,10.944577220,-0.027145450,-0.082495810,0.357800720
1640841390.303589,-0.349698040,0.173183010,10.908952710,0.019918380,-0.048244000,0.395621420
1640841390.303920,-0.009067070,0.055048950,9.726696010,0.090001520,-0.025781990,0.380748540
1640841390.308650,-0.319292460,-0.225534870,10.719379430,0.127111380,-0.072032220,0.380028780
1640841390.309110,-0.374208510,-0.044811620,10.277702330,0.084500010,-0.048725320,0.404539730
1640841390.313840,-0.053946100,-0.029965180,10.075506210,0.002628570,-0.066503900,0.372989540
1640841390.315330,-0.196563410,0.206929210,11.155395510,-0.025004150,0.002442300,0.363186090
1640841390.319059,-0.036138050,0.546271680,10.787292480,0.016240780,-0.009730460,0.371205870
1640841390.321480,0.002277090,0.444088790,11.195666310,0.095805530,-0.074094530,0.350548330
1640841390.323619,-0.224405970,0.386554300,10.720589640,0.119249540,-0.040939460,0.358347590
1640841390.324700,-0.336232510,0.338301720,9.973055840,0.072178240,-0.115695600,0.385943080
1640841390.329490,-0.605366050,0.167220340,10.572347640,0.001285970,-0.073851650,0.370422070
1640841390.331140,-0.374113710,0.261230830,9.981328960,-0.029331450,-0.000399350,0.350749520
1640841390.333789,-0.271798100,0.498424140,10.968190190,-0.016900900,-0.075170410,0.344485040
1640841390.334200,-0.100645680,0.605722310,11.426824570,0.003160540,0.024242700,0.337156620
1640841390.338660,0.191089940,0.482551100,10.727584840,0.028114030,-0.026576220,0.336156820
1640841390.339020,-0.168511910,0.473746480,11.631896970,0.030505660,-0.119952860,0.358551740
1640841390.343999,-0.065827120,0.491954450,10.036576270,-0.032603740,-0.051914170,0.375325980
1640841390.345070,-0.049411060,0.192921370,9.686836240,-0.079962630,-0.101822640,0.362794160
1640841390.348709,-0.300593470,0.403089490,10.885726930,-0.074693570,0.012411180,0.350818070
1640841390.349079,0.035652260,0.564684090,10.330824850,-0.072409210,0.053687400,0.329139860
1640841390.353580,-0.158029290,0.203718530,11.815296170,-0.042766330,-0.077600780,0.332850220
1640841390.353900,-0.231489750,0.463494150,11.404674530,-0.032268460,-0.017751750,0.336912300
1640841390.358739,-0.078892010,0.374697770,10.214941020,-0.075118240,-0.093215710,0.347435470
1640841390.359300,-0.379794510,0.082343220,10.728865620,-0.108835100,-0.051495440,0.380049680
1640841390.370090,-0.010095020,0.261767980,9.781752590,-0.101871790,0.047795490,0.330241020
1640841390.370730,-0.010153790,0.154197050,10.575398450,-0.086653230,-0.009094180,0.309093330
1640841390.371199,-0.176623390,0.148157210,11.156572340,-0.085653370,0.001102690,0.330148670
1640841390.371580,-0.003964310,0.109878760,10.586411480,-0.071164980,-0.033597660,0.316605000
1640841390.373620,-0.315579000,-0.224119960,11.232826230,-0.056119270,-0.074568410,0.348797500
1640841390.374019,-0.193605710,-0.268793080,10.294452670,-0.051380700,-0.007668140,0.380075010
1640841390.379259,0.075900980,-0.302575440,10.298833850,-0.044797360,0.018860400,0.351017740
1640841390.379920,-0.002241750,-0.329373000,10.932586670,-0.043992700,0.101770470,0.336763290
1640841390.383620,0.190060760,-0.065584290,10.347915650,-0.050120060,0.020584460,0.321720570
1640841390.383960,-0.195469250,-0.076410270,11.121125220,-0.025025010,-0.064072020,0.318314140
1640841390.388620,-0.380055250,-0.250430580,10.219925880,0.015963610,-0.009052460,0.328008890
1640841390.389020,-0.372851850,-0.251826050,9.905963900,0.051981210,-0.068292020,0.329442320
1640841390.393890,-0.697474540,-0.250174050,11.094744680,0.053951160,0.042328240,0.330878820
1640841390.395200,-0.255435440,-0.165749160,10.214035990,0.009192530,0.099685810,0.314521850
1640841390.398870,-0.215292320,-0.010553350,11.242789270,0.003226100,-0.046513970,0.311663780
1640841390.399629,-0.310427550,0.096339160,11.067638400,0.036418440,0.005181130,0.322382120
1640841390.403750,-0.024286460,-0.156599790,9.572694780,0.081889340,-0.043405590,0.300605620
1640841390.404559,-0.511866030,-0.331194100,10.785484310,0.153493910,-0.077739370,0.318420020
1640841390.409020,-0.642487530,-0.283798520,10.177697180,0.144381850,-0.000320370,0.316117700
1640841390.410790,-0.300541250,-0.502080260,9.999874110,0.087369980,-0.058290370,0.312405850
1640841390.413669,-0.390620080,-0.225006920,11.448001860,0.082889210,0.010320540,0.312066050
1640841390.414199,-0.165248660,0.179951980,10.929109570,0.099088270,0.029771030,0.285013050
1640841390.418690,-0.017928920,0.127727060,10.924189570,0.125652550,-0.093387090,0.286309480
1640841390.419649,-0.124916870,0.404747960,10.604388240,0.169451550,-0.056037310,0.279518960
1640841390.423940,-0.177963550,0.507312480,9.866737370,0.155954050,-0.042930240,0.273664270
1640841390.425900,-0.384694550,0.463754300,10.482883450,0.106376420,-0.054268550,0.311312110
1640841390.429010,-0.362682040,0.792876720,10.381869320,0.051061810,-0.044737760,0.316755500
1640841390.430349,-0.260181520,0.737111210,10.813875200,0.018946830,-0.056755540,0.308600070
1640841390.433750,-0.084921360,0.552666250,11.243790630,0.025017560,0.026564300,0.310114000
1640841390.434340,0.042167830,0.370549320,11.118529320,0.109384960,-0.007587670,0.298506020
1640841390.438740,-0.266045090,0.003458810,11.614225390,0.136540820,-0.088040520,0.277861920
1640841390.439450,-0.071780130,0.087990770,10.015884400,0.062777090,-0.060907000,0.285036830
1640841390.444370,-0.151137280,0.087972950,9.914410590,-0.024524330,-0.099009280,0.287787620
1640841390.445469,-0.353351620,0.203714480,10.719275470,-0.052392480,0.043684240,0.278233020
1640841390.449080,0.234621730,0.627250080,10.058105470,-0.031256680,0.060722230,0.274096460
1640841390.451170,-0.086959540,0.579174040,12.021138190,0.047349930,-0.045451520,0.286225970
1640841390.456270,-0.153068110,0.669084610,11.477417950,0.052715840,0.027133520,0.296297700
1640841390.456740,0.064823050,0.656199630,10.188632010,-0.010265410,-0.104744730,0.304703380
1640841390.459030,-0.524225180,0.363029480,10.967537880,-0.060854850,-0.078819700,0.341139730
1640841390.459679,-0.019315050,0.220246910,9.294672010,-0.082324450,0.076518950,0.288631080
1640841390.463719,0.093525980,-0.001481030,10.355439190,-0.038433070,0.036339470,0.267492230
1640841390.464190,-0.306669530,-0.043716380,11.752347950,0.009790060,0.071458520,0.291383300
1640841390.468660,0.038733830,-0.350650340,10.671442030,0.001335140,-0.017394130,0.267860320
1640841390.468999,-0.260486510,-0.647953030,11.246771810,0.017595290,-0.096701110,0.296215740
1640841390.473660,-0.428270880,-0.559415460,10.453668590,0.017698110,0.018604100,0.312435630
1640841390.474110,-0.072235520,-0.601881860,9.966506000,0.013308230,0.030142070,0.277622070
1640841390.478960,-0.122166710,-0.246954010,10.837027550,0.033959750,0.079706330,0.268577040
1640841390.479550,0.029042960,0.333152320,10.479445460,0.027285510,0.077003230,0.258333950
1640841390.483840,-0.011647300,0.361223880,10.857851030,0.013153260,-0.024773180,0.277932020
1640841390.484500,-0.365786760,0.268399030,10.727849010,0.055207320,-0.018490850,0.302594900
1640841390.488910,-0.512886700,0.107053050,10.260539050,0.107303260,-0.049631300,0.300525130
1640841390.489420,-0.591320570,-0.200334030,10.741432190,0.101973120,0.004774330,0.290809570
1640841390.493960,-0.270352780,-0.280235620,10.266791340,0.060044230,0.099758800,0.272147390
1640841390.495129,-0.107421880,-0.244534550,11.057455060,0.042976440,0.051696600,0.259062650
1640841390.498649,-0.053977060,-0.166475160,11.388187410,0.055524710,0.048226120,0.263606010
1640841390.499009,0.066491290,-0.224412980,10.070298190,0.104002660,-0.045256320,0.272163750
1640841390.503610,-0.357303380,-0.284412030,10.591012950,0.166465310,-0.087825950,0.280226710
1640841390.504070,-0.513094370,-0.154232000,10.171909330,0.157938910,0.051762170,0.276055930
1640841390.508659,-0.528324720,-0.029742580,10.317436220,0.113274180,-0.023412700,0.265368850
1640841390.509029,-0.655338940,0.414263460,11.640674590,0.068320340,-0.003670160,0.273860990
1640841390.513640,-0.114915130,0.789460360,10.509195330,0.034144520,0.069010250,0.270849410
1640841390.513939,-0.057441920,0.652678790,11.065334320,0.068628770,-0.030680000,0.279697810
1640841390.518659,-0.207866700,0.646332320,11.259809490,0.147165370,0.005145370,0.281466570
1640841390.519220,0.000539460,0.388795260,9.829422000,0.143596530,-0.039899350,0.264950130
1640841390.523749,-0.494358840,0.082315430,10.697223660,0.078304120,-0.097522140,0.288160180
1640841390.524380,-0.511786580,0.163297580,10.382112500,0.006783010,0.013561550,0.285386980
1640841390.530660,-0.284290460,-0.051854950,10.393123630,0.000430640,-0.024014710,0.262263450
1640841390.531139,-0.344646810,0.207865420,11.620652200,0.043955450,0.002513830,0.289060210
1640841390.533640,0.000239120,0.469816330,10.972495080,0.069792560,0.052744150,0.278955670
1640841390.534240,-0.067866240,0.287433950,11.194161420,0.060838460,-0.067223610,0.268785690
1640841390.538790,-0.337147950,0.602288540,10.880821230,0.022101400,-0.075003510,0.291763250
1640841390.540010,-0.218980310,0.709093210,9.626195910,-0.032523280,-0.074625020,0.275251270
1640841390.543900,-0.338176460,0.419804360,10.257973670,-0.046856710,-0.022231040,0.282248880
1640841390.544540,-0.190902130,0.695728480,10.657203670,-0.023378430,0.070603190,0.292997090
1640841390.548640,0.063046750,0.505120580,11.201214790,-0.008703770,0.015132130,0.300015480
1640841390.548920,0.033368710,0.008134160,11.618558880,-0.009219350,-0.003334880,0.313906400
1640841390.553660,0.061358170,0.026121450,10.585890770,-0.013914710,-0.048609080,0.304997000
1640841390.554090,-0.249651280,-0.369914260,10.662815090,-0.025624030,-0.083430100,0.288051310
1640841390.558750,-0.306422410,-0.593509910,9.853031160,-0.023972990,0.022043290,0.285485420
1640841390.559300,-0.232989060,-0.364390020,9.905035020,0.013959410,0.000274180,0.261145830
1640841390.563979,-0.480255540,-0.164224730,11.261535640,0.002139810,0.059658300,0.271347190
1640841390.565519,-0.120232510,0.041108320,10.394103050,-0.022594630,0.040362780,0.305397840
1640841390.569110,-0.241706480,0.211002010,11.166812900,0.010323520,-0.092116000,0.293387500
1640841390.571159,-0.349635690,0.284870090,11.047389980,0.028182570,0.020393730,0.304856900
1640841390.573629,0.120942190,0.166805490,9.497653960,0.033833090,-0.011152030,0.305214520
1640841390.574070,-0.200800640,-0.030508330,11.080802920,0.070433330,-0.016112630,0.275214020
1640841390.578640,0.009405850,-0.079239410,10.227249150,0.036855050,0.138002630,0.268641140
1640841390.579020,0.081725310,-0.237895220,10.119010930,0.015723700,-0.033994010,0.290887060
1640841390.583600,-0.607261360,-0.350762430,11.664921760,0.046437980,-0.041066110,0.308434670
1640841390.583920,-0.305011810,-0.576864120,9.691289900,0.077846630,0.024038550,0.296153160
1640841390.588640,-0.580966890,-0.532758120,10.613613130,0.132736560,-0.095048550,0.299547610
1640841390.589069,-0.896010280,-0.292536350,11.526681900,0.140054520,0.055819750,0.296774540
1640841390.593900,-0.146436480,-0.197612090,9.716790200,0.080004330,0.059860950,0.264054540
1640841390.594380,-0.434480280,0.290656830,11.331092830,0.083555290,-0.076325250,0.284697120
1640841390.598699,-0.430465490,0.679346260,10.912042620,0.082740200,0.028538710,0.286534430
1640841390.599130,0.153647990,0.696197270,9.235251430,0.075136140,-0.076660540,0.273962350
1640841390.605290,-0.395336180,1.044682740,11.171154020,0.085650390,-0.098009410,0.302445920
1640841390.606750,-0.137340200,0.854239230,10.456454280,0.041212150,0.089859970,0.293938760
1640841390.609490,0.216683210,0.360579010,10.481581690,0.027513510,-0.012673440,0.295734440
1640841390.609939,-0.341125280,0.384680810,12.197461130,0.066755720,-0.022828580,0.322505830
1640841390.613629,-0.166288850,0.156231120,10.302534100,0.019955640,0.004936760,0.301125680
1640841390.614009,-0.217161510,-0.096264350,9.965794560,-0.012534860,-0.126332060,0.315232570
1640841390.618700,-0.723424910,0.074016570,10.682788850,-0.003066660,-0.025062270,0.295347010
1640841390.619140,-0.508795380,0.093104380,9.903226850,-0.009357930,0.034862760,0.258845090
1640841390.623620,-0.511872650,0.285394430,11.043921470,-0.002522770,-0.053420670,0.297258730
1640841390.623940,-0.539283570,0.748265740,11.424891470,-0.015926360,-0.017462670,0.298030670
1640841390.628650,-0.094014470,0.823946830,10.667024610,-0.089447210,-0.025655330,0.315552980
1640841390.629099,0.103771360,0.800091860,10.652247430,-0.093425810,-0.040191420,0.358128580
1640841390.634100,0.144470660,0.679052770,10.442317960,-0.054974850,-0.004853310,0.315274300
1640841390.635120,0.266115870,0.309244900,10.317982670,-0.052437200,0.012449920,0.290076430
1640841390.638830,0.073995990,0.175882950,10.438385010,-0.052773960,-0.010804830,0.312724710
1640841390.639580,-0.355650750,-0.105073280,10.843995090,-0.091055040,-0.065465270,0.299419460
1640841390.643780,-0.445204410,-0.360757650,10.586833950,-0.127811720,-0.034826990,0.328835820
1640841390.644940,-0.346201450,-0.321365740,10.099536900,-0.090506690,0.004406270,0.359454840
1640841390.648800,-0.502478480,-0.515205740,11.095947270,-0.037160520,0.037465990,0.321994720
1640841390.649350,-0.206878070,-0.244483100,10.842965130,-0.017440320,0.061459830,0.310951410
1640841390.653570,-0.118484390,0.151434510,10.426542280,-0.034059590,-0.049148500,0.309051600
1640841390.654000,-0.335667940,0.157512900,10.675844190,-0.093461570,-0.046141450,0.310350890
1640841390.658630,-0.029621760,0.270143180,9.650688170,-0.090786800,0.013908740,0.321672800
1640841390.658939,-0.154240850,0.153790760,10.206195830,-0.005780160,-0.006121400,0.332884520
1640841390.663620,-0.150434610,0.010483490,10.843461040,0.019375980,0.079202670,0.346595110
1640841390.663970,0.172103430,-0.077523860,10.381440160,-0.003021960,0.053074960,0.361260800
1640841390.668840,-0.178209740,-0.323804410,11.234749790,-0.033587220,-0.038428620,0.359138910
1640841390.669330,-0.151075690,-0.436349870,10.524044990,-0.052079560,0.008630750,0.340344010
1640841390.673610,-0.117429670,-0.648871180,9.794934270,0.026924910,-0.005204980,0.322470100
1640841390.673910,-0.677173790,-0.638330760,10.786671640,0.107043980,0.011263790,0.297898080
1640841390.679020,-0.554945590,-0.182228460,9.965448380,0.067083540,0.052322460,0.308604600
1640841390.680019,-0.569022890,-0.067692240,10.219827650,0.002098080,-0.036272410,0.339689880
1640841390.683859,-0.720289050,0.107037190,10.981435780,-0.005659460,0.013527280,0.354000930
1640841390.685089,-0.228096310,0.385875520,10.200138090,0.047326090,0.021609670,0.341930990
1640841390.688660,-0.209526020,0.196007060,10.895863530,0.108595200,-0.040329990,0.331749050
1640841390.689080,0.005375560,0.213572590,10.603359220,0.117906940,0.057050600,0.332805600
1640841390.693640,0.216582550,-0.002091710,10.036818500,0.076763320,0.031612810,0.319585170
1640841390.694059,-0.303142940,-0.272932230,10.913095470,0.054298350,-0.035779180,0.345905150
1640841390.698880,-0.346545900,-0.293341190,9.900137900,0.054478660,-0.033617020,0.359459250
1640841390.699339,-0.601984200,-0.375210230,10.015464780,0.091969970,-0.082167980,0.331498680
1640841390.703600,-0.876537680,-0.154178690,10.671547890,0.105346750,-0.007754570,0.341551010
1640841390.703980,-0.547772350,0.012761400,10.480851170,0.097437200,0.040359790,0.312258300
1640841390.708609,-0.607707920,0.113072330,11.604741100,0.100393600,-0.020881000,0.296969740
1640841390.708920,-0.400672760,0.563617830,10.843218800,0.084389750,-0.031442940,0.336064430
1640841390.714000,-0.174263250,0.785458450,9.859216690,0.047701600,-0.108039390,0.336310300
1640841390.714599,-0.463706610,0.739105050,10.408702850,0.032694650,-0.075480360,0.356464180
1640841390.718649,-0.128907710,0.890586790,9.471382140,0.024908780,-0.029738250,0.344778600
1640841390.719149,-0.120055860,0.617231730,10.686004640,0.013941530,-0.053808090,0.331543390
1640841390.723590,-0.208297400,0.235648990,11.688550950,0.026133660,0.043156750,0.335282150
1640841390.726400,0.062614180,0.246059190,10.813965800,0.023233890,-0.035770240,0.326652820
1640841390.728979,-0.336025980,0.049645130,11.434705730,-0.007647280,-0.155523450,0.350618450
1640841390.730160,-0.269247260,-0.018155340,9.752687450,-0.049853330,-0.025545060,0.362366440
1640841390.733650,-0.212180940,0.081144970,9.279700280,-0.039130450,-0.067159540,0.337728860
1640841390.734079,-0.840986610,0.224996540,11.200055120,-0.022760030,-0.038377950,0.334496890
1640841390.738659,-0.475284640,0.477124390,10.089828490,-0.038905450,-0.014032420,0.329962400
1640841390.739100,-0.363448830,0.579027300,11.019128800,-0.061056030,-0.126087680,0.331738620
1640841390.743899,-0.475781500,0.700096490,11.674341200,-0.077475630,-0.008596480,0.370779720
1640841390.745050,0.231204690,0.571627560,9.872393610,-0.089639440,-0.016716120,0.368306130
1640841390.748680,0.210355270,0.343743150,10.710428240,-0.066518780,-0.078856950,0.349338350
1640841390.749060,0.184716170,0.311190310,10.163456920,-0.080333660,0.036391620,0.353974160
1640841390.753579,0.305335340,0.023311850,9.608130460,-0.111655910,-0.034046170,0.343680410
1640841390.753929,-0.392850880,-0.283248340,11.140896800,-0.102289040,-0.081890820,0.355905320
1640841390.758740,-0.521739960,-0.364224020,10.356898310,-0.086620470,-0.033909090,0.359138940
1640841390.759349,-0.403114020,-0.503232120,10.311360360,-0.071324420,-0.043255100,0.367203440
1640841390.763909,-0.558396640,-0.369338750,11.173292160,-0.061187150,0.060425700,0.363521220
1640841390.766680,-0.245080280,-0.163304360,10.462385180,-0.067187840,0.042486190,0.340492960
1640841390.768829,-0.143238470,0.008789140,10.518340110,-0.070798410,-0.073933620,0.345762130
1640841390.769430,-0.218666340,0.074922370,9.924363140,-0.061619290,-0.021946430,0.363476600
1640841390.773640,-0.160615040,-0.123099600,9.657051090,-0.027073920,-0.045008960,0.369603930
1640841390.774089,-0.326206030,-0.226599890,10.590953830,0.026232000,-0.006265940,0.389760760
1640841390.779019,-0.103781490,-0.308725770,10.278631210,0.023253260,0.039254130,0.373470780
1640841390.779650,0.023857760,-0.369699510,10.983993530,-0.017906730,0.020360950,0.371262460
1640841390.783579,-0.027919910,-0.109681820,10.980766300,-0.032287840,0.040729360,0.362207060
1640841390.783959,-0.003073250,-0.250800250,10.066290860,-0.014638900,-0.035825370,0.350706250
1640841390.788600,-0.408784210,-0.401384440,10.246186260,0.068847840,-0.059409440,0.366859140
1640841390.788980,-0.677142140,-0.287797060,9.503836630,0.119264450,-0.014005600,0.349463580
1640841390.793690,-0.839167000,-0.540909050,9.965690610,0.083118690,-0.047276930,0.358122650
1640841390.794330,-0.885319530,-0.228060570,10.731378560,0.053495170,0.020375850,0.377176730
1640841390.798699,-0.505030810,0.023116040,10.497467040,0.025051830,0.008717180,0.344349440
1640841390.799190,-0.175727230,0.168984290,11.050548550,0.026193260,-0.031188130,0.357964580
1640841390.803939,0.097597760,0.477533790,10.577197070,0.093142710,0.021560490,0.374582500
1640841390.804450,0.156581210,0.095377870,10.073581700,0.127419830,-0.034642220,0.345483510
1640841390.808620,-0.157253730,0.000878630,10.364844320,0.136831420,-0.077830260,0.369986920
1640841390.809430,-0.343582480,0.083431830,9.486755370,0.095742940,-0.067767510,0.370867580
1640841390.813670,-0.619221330,-0.218738790,10.140117650,0.026778880,-0.085033490,0.345315130
1640841390.814050,-0.590506850,0.264200450,10.717601780,0.011879210,0.009781130,0.355637130
1640841390.818580,-0.392017570,0.338283600,10.776947980,0.045885160,0.027151410,0.353932470
1640841390.818889,-0.437798500,0.129395750,11.678030010,0.093884770,-0.019226970,0.343620780
1640841390.823570,-0.410124180,0.397012380,10.729771610,0.129693750,-0.061567130,0.365084410
1640841390.823940,-0.495232880,0.194640820,9.755708690,0.081840160,-0.172485430,0.356775520
1640841390.828820,-0.515043850,0.206091390,9.549244880,0.002051890,-0.076900430,0.370424990
1640841390.829259,-0.201849770,0.578945460,9.444336890,-0.021258000,0.016166270,0.367520780
1640841390.833629,-0.151418750,0.593691950,11.079564090,-0.031055510,0.003710390,0.350730120
1640841390.834040,0.251048620,0.665686250,11.347440720,-0.010207300,0.028206410,0.358790220
1640841390.838940,0.309310880,0.633362830,11.254963870,0.034771860,-0.054515900,0.351819400
1640841390.839650,-0.212694570,0.342210740,11.140515330,0.008076430,-0.095571560,0.363947450
1640841390.846900,-0.270342470,0.246229160,9.279052730,-0.052687530,-0.117605920,0.389955910
1640841390.849700,-0.506929990,0.015311330,9.459366800,-0.072790670,-0.079588580,0.373740520
1640841390.850649,-0.504181390,-0.038330610,9.824682240,-0.082041320,0.106734040,0.366340580
1640841390.851019,-0.197761550,0.104132150,10.571822170,-0.062941010,0.026518110,0.356975230
1640841390.853560,-0.408253580,-0.009552260,12.072455410,-0.023783740,-0.011822580,0.366745890
1640841390.853930,0.039252190,0.046556230,10.397665980,-0.030316420,-0.029174990,0.364997980
1640841390.858700,-0.014960840,-0.059650590,10.477185250,-0.034423170,-0.127008570,0.368268790
1640841390.859200,-0.135125610,-0.106387730,9.991891860,-0.035503520,0.055317590,0.370688800
1640841390.863950,0.370147680,-0.018456000,8.703574180,-0.050321230,0.043529270,0.351895420
1640841390.865020,-0.076183980,0.007204340,10.958990100,-0.035904360,0.014953320,0.367827770
1640841390.868680,0.009841430,0.073492320,10.282105450,-0.051534180,0.113305460,0.378115480
1640841390.869310,-0.110189230,-0.322127940,10.563311580,-0.009903310,-0.086621950,0.381046560
1640841390.873629,-0.814064380,-0.466686250,11.481258390,0.064094360,-0.029259930,0.393498000
1640841390.874029,-0.338858100,-0.487159850,9.169740680,0.040644410,0.050868090,0.358372960
1640841390.878710,-0.421251710,-0.654653430,10.288714410,0.026558340,0.012448430,0.344216820
1640841390.879230,-0.467316330,-0.275091740,10.474140170,0.011736160,0.138253000,0.331483840
1640841390.884090,0.085457770,-0.079122510,9.363145830,0.004126130,0.028957430,0.326654340
1640841390.885120,-0.451687070,-0.214592620,10.994868280,0.077301270,-0.073044010,0.357440110
1640841390.889010,-0.438322130,-0.091988010,9.818742750,0.129930700,0.012229390,0.353074130
1640841390.890750,-0.333597150,-0.280898750,9.784358020,0.145497890,-0.061801070,0.370351940
1640841390.893590,-0.695743320,-0.454328390,11.067684170,0.124417230,0.050245230,0.376725140
1640841390.894090,-0.047206950,-0.261539190,9.781815530,0.086128730,0.104311130,0.345417920
1640841390.898779,-0.075425010,-0.157748510,10.807832720,0.092096630,-0.010882320,0.338035820
1640841390.899180,-0.248750810,0.007970010,10.422447200,0.119861970,0.028450790,0.347182150
1640841390.903649,0.013128770,0.014650440,9.099971770,0.165772440,-0.046853720,0.338009000
1640841390.904120,-0.722084110,0.054055010,10.546008110,0.190246130,-0.058808930,0.337767690
1640841390.908579,-0.581896130,0.218664480,9.691740990,0.132635250,0.042934720,0.347070490
1640841390.908959,-0.232776120,0.171905060,10.170260430,0.100785490,-0.001056490,0.337487490
1640841390.913659,-0.383124530,0.411499560,11.375719070,0.101150590,0.102914890,0.328142940
1640841390.915030,0.045028400,0.537483330,10.170132640,0.091668960,0.047074250,0.330357190
1640841390.918660,-0.154236850,0.390494730,10.593374250,0.121425110,-0.093132260,0.346705320
1640841390.919260,-0.371397290,0.320840030,9.650744440,0.131540050,-0.012569130,0.343672990
1640841390.923730,-0.270173400,0.079569440,9.225483890,0.102753940,-0.031904880,0.334285230
1640841390.924379,-0.676353160,0.168844880,10.592070580,0.080433500,0.023365020,0.335474310
1640841390.929230,-0.392757920,0.238863100,10.486440660,0.034794200,0.063382080,0.319538950
1640841390.929819,-0.149616350,0.371592340,11.044019700,0.020709640,0.009362400,0.333353880
1640841390.933630,-0.148438840,0.568253580,10.857563020,0.040727860,0.037084520,0.348498020
1640841390.934130,-0.103260140,0.291342530,10.178446770,0.051084160,-0.031478700,0.323489340
1640841390.938760,-0.279668510,0.312103060,9.876430510,0.070892270,-0.030565260,0.327964130
1640841390.939299,-0.374060600,0.409385620,9.384508130,0.026001030,0.000683960,0.313305800
1640841390.943570,-0.556601230,0.178372800,10.452112200,-0.032527740,-0.000658630,0.319468920
1640841390.943980,-0.390815320,0.499638920,10.503968240,-0.040686130,0.067335370,0.346791740
1640841390.948670,-0.250072540,0.427561730,10.772506710,-0.035494570,-0.003847480,0.336539780
1640841390.949120,-0.171801870,0.157452550,11.145379070,-0.009912250,0.046639150,0.354959100
1640841390.953790,0.142459080,0.205080700,9.854894640,0.027935210,0.044143210,0.327537950
1640841390.954460,-0.327460290,-0.074308750,10.521645550,-0.000073020,-0.046983360,0.322547550
1640841390.958850,-0.373021450,-0.035527630,9.783756260,-0.045859820,0.008155410,0.349363710
1640841390.959550,-0.220490170,-0.000167210,9.232028010,-0.070852040,-0.012603400,0.327424730
1640841390.963699,-0.486156080,-0.097578410,10.773329730,-0.072512040,0.059428820,0.342494340
1640841390.965109,-0.031467120,0.104123340,10.386962890,-0.021456190,0.134278860,0.358420700
1640841390.971870,-0.039668530,-0.109061430,11.107808110,0.032435360,0.018933420,0.327950750
1640841390.972299,-0.250812980,-0.112321350,10.913302420,0.021247570,0.024364890,0.336523380
1640841390.973539,-0.087855360,-0.048486130,9.317886350,-0.004287070,-0.029306120,0.355075390
1640841390.973820,-0.495832150,-0.361254660,9.762398720,-0.017619130,-0.007976590,0.339831410
1640841390.978600,-0.361548360,-0.222125690,9.223572730,-0.004905460,0.098007930,0.360410000
1640841390.979060,-0.260157290,-0.129621340,10.007644650,0.037996470,0.071406370,0.355571540
1640841390.983640,-0.408294800,-0.247495700,11.138195990,0.049343710,0.104564430,0.355191560
1640841390.984150,-0.135762560,-0.139291900,10.432721140,0.042878090,0.020439920,0.353351270
1640841390.988700,-0.383735390,-0.352570470,10.772301670,0.063933430,-0.049372020,0.345140700
1640841390.989130,-0.223186370,-0.530860480,9.491537090,0.087164350,0.080291930,0.326372680
1640841390.993579,-0.095992410,-0.430183860,9.309911730,0.129877030,0.036135320,0.324453410
1640841390.993980,-0.464543100,-0.323182610,10.294032100,0.117023300,0.102210060,0.338192370
1640841390.998750,-0.160263510,-0.134962680,9.412814140,0.063054270,0.063855950,0.345091550
1640841390.999300,-0.547950630,-0.087579880,10.680238720,0.097848490,-0.057633230,0.348535210
1640841391.004200,-0.677414360,0.096161050,10.314170840,0.127874330,0.042712690,0.341478020
1640841391.006029,-0.392817940,0.014619230,9.610907550,0.148817910,0.001908840,0.332616270
1640841391.008659,-0.763435010,-0.108267320,10.964272500,0.179122400,0.029759110,0.328166810
1640841391.009060,-0.340485040,-0.026431400,9.455687520,0.151512060,0.088274500,0.320629860
1640841391.013739,-0.383386610,-0.237547230,9.964689250,0.133122500,-0.051578880,0.340354440
1640841391.014279,-0.715182130,-0.157801090,10.260690690,0.141020150,-0.006487970,0.351590010
1640841391.019290,-0.250327320,-0.011858000,8.879112240,0.139990450,-0.057433560,0.325018170
1640841391.020059,-0.530695380,0.041719090,10.581420900,0.150889190,-0.042291000,0.325949580
1640841391.023579,-0.245453490,0.267864670,10.252859120,0.145852600,0.129792140,0.312915500
1640841391.023909,0.002671050,0.235760080,10.600651740,0.148278470,-0.005781650,0.289824630
1640841391.028630,-0.487911640,0.457088560,11.338666920,0.154055670,-0.049331790,0.327175890
1640841391.028980,-0.165463750,0.630132320,8.690722470,0.104990620,-0.057385870,0.343471770
1640841391.034030,-0.528168440,0.428704440,9.432733540,0.079068560,-0.113900020,0.336892990
1640841391.034860,-0.761892200,0.656245530,9.743944170,0.070154670,0.059695550,0.344492520
1640841391.038689,-0.270222400,0.452304150,9.534874920,0.059257440,0.008676950,0.326938870
1640841391.039260,-0.601605120,0.242925720,11.898123740,0.081057850,-0.013032560,0.319497320
1640841391.043650,-0.239033120,0.416044890,10.515617370,0.071676080,0.024433430,0.325536760
1640841391.044489,-0.126713870,0.138424130,10.097270010,0.029408930,-0.142739730,0.318275390
1640841391.050230,-0.357271080,0.162314550,9.874979970,0.016985840,-0.034149000,0.329978790
1640841391.051299,0.125447140,0.142867850,8.379867550,0.009424990,0.020915270,0.301328300
1640841391.053589,-0.113708730,0.062887460,10.102513310,0.021819770,-0.004111230,0.320744540
1640841391.053900,-0.221960380,0.138115290,10.379448890,0.037615000,0.053922840,0.346264240
1640841391.058600,-0.093382050,0.024820680,10.250234600,0.022982060,-0.061313820,0.339585570
1640841391.058980,-0.534595190,-0.058438620,10.931421280,0.012595950,-0.062359890,0.369034800
1640841391.063949,-0.299654540,-0.188234510,9.467634200,0.011000040,0.000694390,0.340700180
1640841391.064460,-0.202278910,-0.301798280,9.540895460,0.044429310,0.009644030,0.316779320
1640841391.068620,-0.389791220,-0.208115920,9.784718510,0.081522770,0.059065220,0.327123730
1640841391.069140,-0.219011230,-0.229182500,9.564902310,0.055803370,-0.022470950,0.322867930
1640841391.073590,-0.358995350,-0.284742500,10.113727570,0.048230590,-0.035671890,0.348649890
1640841391.074040,-0.443385900,-0.393580910,9.841658590,0.079576680,-0.016854710,0.352653860
1640841391.078670,-0.329313640,-0.448170810,10.058752060,0.109954180,-0.028963390,0.343862180
1640841391.079259,-0.254289330,-0.253928870,9.997556690,0.139620900,0.038407750,0.322674240
1640841391.086670,-0.060905110,-0.106228740,9.796231270,0.101515670,0.017911200,0.301358100
1640841391.087550,-0.089671930,0.043734910,9.966999050,0.074155630,0.012540820,0.332754880
1640841391.088660,-0.244806140,-0.021639920,9.452557560,0.111679750,-0.020582980,0.337122440
1640841391.089609,-0.532829050,-0.346200020,9.886886600,0.173278150,-0.071512170,0.351758330
1640841391.093660,-0.746726040,-0.227044020,9.593625070,0.211867700,-0.028224290,0.356903700
1640841391.094030,-0.803638460,-0.375522320,9.712080960,0.153371690,-0.052286680,0.329265030
1640841391.098750,-0.579003210,-0.313631060,10.297305110,0.119160130,0.038903960,0.337126910
1640841391.099530,-0.263925280,0.149698200,9.977749820,0.132189680,0.036548070,0.316448450
1640841391.103600,-0.232493130,0.072872280,10.599796300,0.144489120,-0.054553150,0.322589310
1640841391.104030,0.008400820,0.348195370,9.536188130,0.185155910,-0.036516800,0.333267510
1640841391.108640,-0.253928450,0.256197270,9.351513860,0.190976310,-0.093142700,0.305599060
1640841391.109069,-0.530284290,0.097320390,9.908954620,0.155645620,-0.036208330,0.340358910
1640841391.113760,-0.379396410,0.391856400,9.304918290,0.133527820,-0.030986970,0.335523490
1640841391.115140,-0.542332110,0.329981480,10.469230650,0.081914670,-0.047633060,0.338095430
1640841391.119060,-0.230717210,0.543690440,10.193605420,0.062236200,0.046880550,0.362430600
1640841391.120090,-0.063816870,0.502450590,9.963973050,0.108344850,-0.045044720,0.347603890
1640841391.123760,-0.295908630,0.093716000,10.545682910,0.128032270,-0.040437290,0.334726330
1640841391.124400,-0.114517370,0.263853640,9.148582460,0.146053750,-0.049279630,0.328129530
1640841391.128929,-0.517054140,0.070557040,9.667500500,0.085242100,-0.101979080,0.316779350
1640841391.130370,-0.412729200,0.089953400,9.450764660,0.013288860,-0.000348690,0.323471460
1640841391.133690,-0.095272310,0.421458070,9.347154620,0.011628870,-0.005641580,0.332996220
1640841391.134400,-0.275287630,0.189694940,10.684001920,0.036844620,0.024481120,0.341723920
1640841391.138710,0.100190870,0.195693940,9.997331620,0.101038810,0.008405750,0.349213210
1640841391.139160,-0.142525820,0.122912650,10.282831190,0.126595840,-0.088143360,0.353668690
1640841391.143640,-0.302705530,-0.185485540,9.545819280,0.052568330,-0.030431160,0.363676340
1640841391.144110,-0.173264830,-0.258306530,8.943686490,0.032530730,-0.069218870,0.347155420
1640841391.148710,-0.457516370,-0.335370990,9.629755020,0.052699460,0.049576160,0.335249330
1640841391.149190,-0.033974140,-0.181348670,9.096828460,0.067906090,0.055687130,0.333039460
1640841391.153649,-0.291562200,-0.210374590,10.643926620,0.114794080,-0.012519960,0.347547230
1640841391.154100,-0.203944160,-0.253352020,9.878751750,0.120666630,0.014260410,0.346672530
1640841391.158779,-0.129694460,-0.317798230,9.553174970,0.127458570,-0.104253000,0.357165930
1640841391.159400,-0.562668740,-0.441467940,9.892299650,0.141841170,0.007548930,0.353790850
1640841391.163780,-0.026061910,-0.355586710,8.401446340,0.122646990,0.049564240,0.306023600
