# timestamp,accel_x,accel_y,accel_z,gyro_x,gyro_y,gyro_z
1640841950.506000,0.085908110,0.346904400,9.416013720,0.180274260,-0.077417500,-0.026014450
1640841950.508410,-0.237012280,0.309549030,10.098202710,0.112357740,0.049963600,-0.042122600
1640841950.511430,0.155752450,0.484804480,9.226409910,0.023353100,0.054265560,-0.020059940
1640841950.513599,-0.213706030,0.303943510,10.680065160,-0.029267370,-0.054205960,-0.029338900
1640841950.515990,0.124394080,0.218410450,9.788155560,0.004304950,0.065578520,-0.009912250
1640841950.518450,0.111775190,0.368203910,9.566709520,0.069966920,-0.038403270,-0.034599010
1640841950.521600,-0.549787640,0.153550270,10.840088840,0.022023920,0.001803040,-0.028952960
1640841950.523440,-0.108882250,-0.032889970,9.101809500,0.020858650,0.020773710,0.007674100
1640841950.526080,-0.516550240,-0.513118090,10.256292340,0.067429240,-0.096759200,-0.009255110
1640841950.528699,-0.352990660,-0.450976100,9.788211820,0.089040390,0.071857870,-0.005304810
1640841950.531380,0.281189230,0.193547990,8.679485320,0.033797320,-0.009986760,-0.007854400
1640841950.533500,-0.048738680,0.245230880,10.652703290,-0.084635620,0.039024650,0.003580750
1640841950.536219,0.588281150,0.587175670,9.614446640,-0.072142470,0.125013260,0.013473630
1640841950.538440,0.071429480,0.304129030,10.669093130,0.053086880,-0.113403820,-0.028264530
1640841950.541110,-0.287795280,-0.007455600,10.011013980,0.145177560,-0.049753490,-0.011830030
1640841950.543439,0.036076360,-0.005204770,8.213829990,0.100524720,-0.016988810,-0.030815600
1640841950.547080,-0.721735420,-0.628958340,10.403110500,-0.005678830,0.063259910,0.000286100
1640841950.549369,-0.361243750,-0.381802260,9.777211190,-0.008739530,0.090554360,0.026819110
1640841950.551070,-0.175706330,-0.239903020,10.053248410,0.023031230,-0.092762730,-0.002230700
1640841950.553830,-0.115138580,0.098197020,9.991078380,0.033125280,0.039571530,0.019028780
1640841950.556059,0.159742580,0.628964900,9.445862770,0.020091240,0.032028560,-0.018011030
1640841950.558430,-0.416233720,0.296411190,10.933448790,0.024296340,-0.041221090,-0.027878590
1640841950.561180,-0.025989220,0.495758740,9.326169970,0.074784470,-0.032480060,-0.001540780
1640841950.563640,-0.049121220,0.337001770,9.503109930,0.064033270,-0.062631080,-0.034141540
1640841950.566730,-0.253352880,0.379340800,10.087355610,-0.013215840,0.091864180,0.006982680
1640841950.568390,0.112152080,0.741843400,9.386485100,-0.098325310,0.004875660,0.026285650
1640841950.571310,-0.173102110,0.259712610,10.801198960,-0.105682020,-0.039246680,0.031824410
1640841950.573470,0.215703160,0.367268650,9.478434560,-0.012554230,0.060394410,0.007021430
1640841950.576140,0.006011440,0.307899920,9.804226880,0.028203430,-0.063452120,-0.026160480
1640841950.578430,-0.270751710,0.048196220,10.111615180,-0.029137740,0.018085540,0.004939740
1640841950.581030,0.263947010,0.083860370,8.714146610,-0.113175820,0.047060860,-0.000809130
1640841950.583540,-0.324107710,-0.455683650,10.768990520,-0.095649070,-0.000566240,0.014717880
1640841950.586040,-0.178078800,-0.262475670,9.839632030,-0.001266600,0.045555830,0.015003980
1640841950.588310,-0.039374680,-0.133105070,9.352457050,0.005316730,-0.106413670,-0.010660290
1640841950.591220,-0.315089170,-0.126344410,10.002427100,-0.055682660,0.031600900,0.011624400
1640841950.593459,0.198862840,0.194078120,9.162664410,-0.113530480,0.105690970,-0.026454030
1640841950.596040,-0.120502110,0.028093190,10.551884650,-0.048644840,-0.019930300,-0.008960070
1640841950.600040,0.009225970,0.503397520,9.836832050,0.007297100,-0.002630060,0.004780290
1640841950.601430,0.147227760,0.515968260,9.327036860,-0.055831670,-0.014331940,0.007629390
1640841950.603540,-0.506285310,0.194049110,10.413033490,-0.101751100,0.010949370,0.039741400
1640841950.606010,-0.403108600,-0.021183660,9.814709660,-0.080992280,-0.010621550,0.014089050
1640841950.608430,-0.482486670,-0.445220350,9.946447370,0.025005640,-0.060467430,0.000537930
1640841950.610989,-0.436803970,-0.101443500,9.816004750,0.033256410,0.017453730,-0.007188320
1640841950.613469,-0.131930500,0.275151430,9.694469450,-0.108510280,0.012592970,-0.000530480
1640841950.616279,-0.038417610,0.469792130,10.082672120,-0.194250060,-0.012351570,0.032110510
1640841950.618409,0.284359430,0.574381470,9.798368450,-0.176854430,-0.001624230,0.007964670
1640841950.621029,0.190607880,0.596790550,10.203377720,-0.030855840,-0.011095400,-0.011138620
1640841950.623690,-0.143206270,0.550534670,10.239487650,0.001983340,-0.059016050,-0.002093610
1640841950.626160,-0.055423130,0.215124380,9.332595830,-0.088818380,-0.082880270,0.023339690
1640841950.628379,-0.112434850,-0.248025060,9.525386810,-0.147800180,0.014393030,0.038114200
1640841950.631090,-0.031949020,-0.490687430,9.743405340,-0.149039950,0.082734250,0.029483440
1640841950.633570,-0.011640940,-0.308694150,10.096931460,-0.069524350,-0.013910240,0.030474370
1640841950.636150,-0.071197260,-0.078344610,10.042041780,-0.091506560,-0.034779320,0.012528900
1640841950.638650,0.086408310,-0.065082820,9.421875000,-0.150226060,-0.011189280,0.011594590
1640841950.641219,-0.353294430,-0.137887190,10.154673580,-0.079685460,-0.040134790,-0.001612310
1640841950.643360,-0.352833570,-0.251040460,9.823617940,-0.030107800,0.000943240,-0.030721730
1640841950.645990,-0.173198150,0.046168380,9.399535180,0.001557170,-0.029745700,-0.005075330
1640841950.649370,-0.452641220,0.183866610,10.397422790,-0.103621190,-0.010764600,0.018893180
1640841950.651120,0.011402180,0.173299690,9.725724220,-0.174772740,0.017647450,0.040179490
1640841950.653950,-0.082540410,0.136232480,10.059480670,-0.090836000,-0.074401500,0.036448240
1640841950.656630,-0.065867010,0.058643880,10.078694340,-0.041875240,-0.006031990,-0.006121400
1640841950.658380,0.227575420,0.278207090,9.366478920,-0.011876230,-0.000229480,-0.000642240
1640841950.661000,-0.290365040,0.197357860,10.487518310,-0.099715610,-0.051827740,-0.001771750
1640841950.663420,0.023887730,0.192488120,9.704802510,-0.169155000,-0.008152430,0.030799210
1640841950.666760,-0.026160880,0.124161920,9.622442250,-0.121971990,-0.054274510,0.016771260
1640841950.668390,-0.393856050,0.033513700,10.400917050,-0.097535560,0.001648070,0.007031860
1640841950.671239,-0.233266880,0.207443570,9.737942700,-0.051543110,-0.024197990,0.028374790
1640841950.673480,-0.457987190,-0.121505490,10.141252520,-0.082202260,-0.109583160,0.012496120
1640841950.676040,-0.059881770,-0.295621280,9.523658750,-0.099271540,0.001730020,0.020922720
1640841950.678390,0.208586380,0.002252860,9.365747450,-0.069749360,-0.003309550,-0.011008980
1640841950.680990,0.142788720,0.094379470,10.087726590,-0.133903340,0.022804740,-0.013391670
1640841950.683509,0.449903040,0.477921160,9.595094680,-0.151297460,-0.002396110,0.027722120
1640841950.686139,0.011250920,0.096454310,10.403630260,-0.143371540,-0.063771020,0.007772450
1640841950.689329,-0.058435960,-0.396705840,9.796878810,-0.033748150,-0.041201710,0.019428140
1640841950.691030,-0.375985350,-0.434298870,9.534447670,0.066874920,-0.104820740,-0.010679660
1640841950.693400,-0.538392190,-0.667331400,9.705942150,-0.030472870,0.020430980,-0.007003550
1640841950.695979,-0.222893090,-0.369022460,9.482196810,-0.114613760,0.037397440,0.022856890
1640841950.699080,-0.474926470,-0.250937070,10.746480940,-0.138999520,-0.034751000,-0.008673970
1640841950.701150,0.137711850,0.122326700,9.603621480,-0.073175130,-0.024083260,0.003981590
1640841950.703500,0.074428070,0.657219890,9.624916080,0.011974570,-0.086614490,-0.027950110
1640841950.706300,-0.271731670,0.618685660,10.247227670,-0.050121560,0.003579260,-0.029349330
1640841950.708340,0.076850620,0.526985230,9.447385790,-0.069668900,-0.036855040,0.015152990
1640841950.710980,-0.299826980,0.056597370,10.397859570,-0.057382890,-0.096315130,0.013624130
1640841950.713420,0.108278230,-0.026142150,9.540520670,-0.045646730,0.027896470,0.027792160
1640841950.716120,0.127873540,0.218096460,9.495096210,-0.076824430,-0.022527580,0.009877980
1640841950.720209,-0.273066790,0.060353820,10.454955100,-0.174038160,-0.017003720,0.016301880
1640841950.721340,0.321266410,-0.063138920,9.313486100,-0.120684530,-0.015629830,0.018693510
1640841950.723400,-0.094050260,-0.437987740,10.190455440,0.000235440,-0.067076090,-0.028793510
1640841950.725980,-0.097677050,-0.442319450,9.862521170,0.056053710,-0.000488760,-0.018759070
1640841950.728360,-0.001875330,-0.010264560,9.303784370,-0.030004980,-0.039538740,-0.019244850
1640841950.731289,-0.417352710,-0.188856960,10.174283980,-0.184635860,-0.007066130,0.017006700
1640841950.735280,-0.114528300,-0.060800350,9.743661880,-0.141774130,-0.001043080,0.037378080
1640841950.739320,-0.406123610,-0.101930420,10.178774830,0.017945470,-0.095531350,-0.021645420
1640841950.739879,-0.154927550,0.050102350,9.410611150,0.088220830,-0.050571560,-0.006695090
1640841950.740990,0.044506970,0.415393050,9.392719270,-0.010186430,0.000052150,-0.027340660
1640841950.743360,-0.139653550,0.133505240,10.455987930,-0.151219960,0.066043440,-0.006030500
1640841950.745940,0.205031620,0.231683340,10.110209470,-0.110633670,-0.046071410,0.033098460
1640841950.749009,-0.022185690,0.123917380,10.195935250,-0.018474460,-0.113512580,-0.011041760
1640841950.751740,0.099143490,0.228839610,9.241260530,-0.008675460,-0.013098120,-0.013032560
1640841950.754180,-0.197319780,0.329175650,9.749326710,-0.056861340,-0.033059720,0.000326340
1640841950.756049,-0.621066330,-0.207009750,10.600726130,-0.098700810,-0.035272530,-0.006216760
1640841950.758340,0.033314830,-0.140443730,9.232097630,-0.036785010,-0.062175100,0.007735190
1640841950.761010,-0.257955850,-0.068859290,10.193562510,-0.008919840,-0.039476160,-0.014153120
1640841950.763430,-0.090379070,0.386444780,9.786740300,-0.081235180,0.043283400,0.003574790
1640841950.766170,0.103061830,0.675091920,9.652943610,-0.175239150,-0.082539020,0.020192570
1640841950.768630,-0.229974330,0.177386340,10.467691420,-0.152300310,-0.050519410,0.011992460
1640841950.771170,0.327320250,0.092680090,9.209238050,0.000880660,-0.016164790,-0.005367400
1640841950.774020,-0.110810820,-0.159158290,10.049013140,0.072793650,-0.077676770,-0.024329130
1640841950.775980,-0.027014370,-0.166473630,9.528099060,-0.028702620,0.016476210,0.005933640
1640841950.778360,0.243272960,-0.143595000,9.462850570,-0.172866880,-0.007225570,0.020922720
1640841950.781030,-0.365795880,-0.548343240,10.701872830,-0.157238590,-0.015974040,0.026480860
1640841950.783500,0.087275590,-0.262346330,9.313856120,-0.004959110,-0.075647240,0.000947710
1640841950.786130,-0.177374320,-0.170855190,9.620855330,0.067219140,-0.065344570,-0.053399810
1640841950.788380,-0.275180550,0.132225100,9.591346740,-0.010301180,0.056496260,-0.042293980
1640841950.791070,-0.219947050,0.225914110,10.187287330,-0.099635120,-0.042884050,-0.023445490
1640841950.793399,-0.413152520,-0.012421630,10.406479840,-0.079014900,-0.057399270,0.005061920
1640841950.795980,0.149167700,0.279921740,9.117001530,-0.004395840,-0.072722130,0.017884370
1640841950.799059,-0.161748010,0.266838310,10.142491340,-0.011652710,-0.021117920,-0.005784630
1640841950.801159,-0.084810990,0.303508820,9.659475330,-0.064891580,0.038941210,0.006647410
1640841950.803820,0.046801030,0.098519380,10.004423140,-0.076362500,-0.116640330,-0.012734530
1640841950.806720,-0.075150410,-0.107261950,10.075469020,-0.021056830,-0.006394090,-0.018523640
1640841950.808359,0.227161120,0.084750120,9.156606670,-0.003604590,-0.015431640,-0.026823580
1640841950.810979,-0.358802530,0.201668830,10.667857170,-0.069560110,-0.069114570,-0.015525520
1640841950.813449,-0.189325780,0.321232080,9.507883070,-0.130897750,0.008265670,0.010089580
1640841950.816630,-0.138567730,0.022797790,9.762184140,-0.110177700,-0.115323070,-0.000637770
1640841950.818450,-0.551337960,-0.028773570,10.461407660,0.020757310,-0.003583730,-0.010739270
1640841950.822209,0.001717700,0.165670310,9.002852440,0.028826300,-0.048746170,-0.027206540
1640841950.823400,-0.082587160,0.133487910,9.968802450,-0.066661830,-0.076705220,0.008040670
1640841950.826020,0.354173840,0.239258260,9.322695730,-0.146026920,0.095802550,0.020997230
1640841950.828379,0.568299590,0.051818050,9.989565850,-0.131216630,-0.007873770,-0.005932150
1640841950.831450,0.047579600,0.130071280,10.580789570,-0.016103680,-0.052499770,0.009942060
1640841950.833819,0.337058070,0.036436230,8.950855260,-0.015001000,-0.091241300,-0.037631400
1640841950.836040,-0.143455910,-0.372370210,9.788923260,-0.051744270,-0.031217930,-0.031530850
1640841950.838580,-0.392674570,-0.471932380,9.555191990,-0.021666290,0.069820870,-0.020043550
1640841950.840999,-0.219784800,-0.552416620,9.993883130,-0.000518560,-0.057923790,-0.032056870
1640841950.843750,-0.327798130,-0.077301230,9.992857930,-0.011369590,0.009307270,0.012071430
1640841950.846040,0.058692430,0.242618710,9.167515750,-0.096333030,-0.003454090,-0.003194810
1640841950.849200,-0.195045660,0.237537290,10.501196860,-0.089468070,-0.018557910,-0.009688740
1640841950.853649,0.006504380,0.479272750,9.326052670,-0.000375510,0.006298720,-0.035361950
1640841950.855130,0.122842750,0.319794710,9.886095050,0.044670700,-0.082378070,-0.067125250
1640841950.856040,-0.173124600,0.440705960,10.307666780,0.022910540,0.060179830,-0.039570040
1640841950.859810,0.211936560,0.318066150,9.270384790,-0.091616810,-0.042922800,-0.043670830
1640841950.861310,-0.149523880,0.031910010,10.662295340,-0.111234190,-0.042942170,0.000949200
1640841950.863870,0.083398940,0.200082330,9.248251910,-0.065310310,0.077492000,-0.016483670
1640841950.866269,0.005004570,0.062092390,9.906801220,-0.052389510,-0.074270360,-0.037279730
1640841950.869660,-0.342802110,0.249332800,10.338560100,-0.040601190,0.019149480,-0.005832310
1640841950.871219,0.252253140,0.053583690,8.987580300,-0.093828150,0.004498660,-0.043015180
1640841950.873459,-0.166662960,-0.186394330,10.731477740,-0.052657730,-0.017692150,-0.025169560
1640841950.876010,-0.122856260,0.312575160,9.757322310,-0.060108310,0.058202450,-0.050717590
1640841950.879420,0.101969640,0.104539420,9.704196930,-0.120595110,-0.076510020,-0.039206450
1640841950.881420,-0.244830950,0.112283620,10.266593930,-0.091414150,0.017216800,0.006899240
1640841950.883479,0.260068120,0.009291650,9.079512600,-0.067028400,0.020098690,-0.065390770
1640841950.887679,0.212317660,-0.158444660,10.032282830,-0.009191040,0.003160540,-0.034518540
1640841950.891130,0.271417680,0.252456130,9.528134350,-0.042244790,0.108350820,-0.034482780
1640841950.891630,0.461430580,-0.080864150,10.060795780,-0.146330880,0.017800920,-0.039932120
1640841950.911399,-0.084424120,-0.148104100,10.692168240,-0.110912320,0.030238930,-0.009670850
1640841950.919309,-0.032205250,-0.265166160,9.303166390,-0.031402700,-0.048959250,-0.070369230
1640841950.919849,-0.356941040,-0.446535380,9.860804560,0.034055110,-0.039815910,-0.066979230
1640841950.921059,-0.366555010,-0.180548380,9.219594960,-0.011305510,0.141790520,-0.073666860
1640841950.927680,-0.274440080,-0.396873710,10.266574860,-0.070358810,0.016143920,-0.072936710
1640841950.928419,-0.261616620,-0.078468460,10.659599300,-0.022940340,0.030118230,-0.020600850
1640841950.929540,0.364644710,0.209265830,9.025244710,-0.019159910,-0.006371740,-0.055651370
1640841950.930750,0.142351210,0.429261210,10.355226520,-0.044398010,0.013047460,-0.031952560
1640841950.931270,0.134730280,0.762948270,9.792540550,-0.085887310,0.129126030,-0.039485100
1640841950.932770,0.157184720,0.260105580,10.123027800,-0.057457390,-0.075747080,-0.067605080
1640841950.933369,-0.181455280,0.196343660,10.480038640,0.036874410,0.004279610,-0.040540100
1640841950.933840,0.186748980,0.087732560,8.954482080,0.001774730,0.072880100,-0.081536190
1640841950.934260,-0.376612870,-0.055137590,10.683872220,-0.063562390,0.008475780,-0.036221740
1640841950.934769,-0.294308570,0.221405340,10.045241360,-0.137718020,0.071486830,-0.017045440
1640841950.936010,0.201405020,-0.115993770,9.376589780,-0.122262540,-0.013801460,-0.039224330
1640841950.936849,-0.122861690,0.257171450,10.417180060,-0.015923380,0.056578220,-0.023750960
1640841950.937359,0.363963840,0.474011570,9.344219210,-0.037454070,0.101962690,-0.057183210
1640841950.937850,0.340255080,0.187078860,10.131855010,-0.080852200,0.019246340,-0.036510820
1640841950.939100,0.174941420,0.232870180,10.152225490,-0.107079760,0.101195300,-0.028468670
1640841950.941079,0.271894280,-0.169698600,9.738972660,-0.071524080,0.022792820,-0.047858070
1640841950.944100,-0.252343030,-0.165753280,10.096961020,-0.008022790,-0.005827840,-0.017081200
1640841950.946810,-0.076787430,-0.116017250,9.104219440,-0.074663760,0.058619680,-0.042487680
1640841950.950160,-0.116742750,-0.218685970,9.768263820,-0.100971770,0.098714230,-0.035704680
1640841950.953990,-0.113248420,-0.019259120,10.107947350,-0.080372390,0.129807010,-0.051243610
1640841950.955750,0.109792570,0.146838280,9.976365090,-0.043693190,0.032959880,-0.047679250
1640841950.958200,-0.120994180,0.258605480,10.237173080,-0.040285290,0.035125020,-0.024236740
1640841950.959339,-0.070593440,0.212870000,9.645195010,-0.099946560,0.051055850,-0.034192200
1640841950.962700,-0.348672840,-0.042829050,10.030712130,-0.050750380,0.012615330,-0.027406220
1640841950.963440,-0.213820900,-0.134255770,9.621035580,-0.023396320,0.087803600,-0.055658820
1640841950.970749,-0.071376790,0.037792870,9.747912410,-0.022850930,0.071655220,-0.067012010
1640841950.972460,-0.261696550,0.324795420,10.473782540,-0.079511110,0.061929230,-0.046385830
1640841950.973840,0.163280080,0.519406800,9.661955830,-0.166405750,0.042054060,-0.049024820
1640841950.974680,0.069897220,0.566987990,9.899656300,-0.114886470,0.019361080,-0.028522310
1640841950.976159,0.003034820,0.558497610,10.070114140,-0.079256280,0.091226380,-0.057655570
1640841950.980399,-0.041539480,0.516083360,10.077135090,-0.049868230,0.061273580,-0.047008690
1640841950.981240,-0.380527500,0.253109900,10.218705180,-0.064374510,-0.008229910,-0.020623210
1640841950.984789,-0.084489230,-0.019788170,9.576195720,-0.141370300,0.020708150,-0.030674040
1640841950.985989,-0.017443960,-0.029476860,9.510287280,-0.125160830,0.104002680,-0.020921230
1640841950.988440,-0.042163710,0.029043310,10.130138400,-0.143711270,0.094930840,-0.042273100
1640841950.991259,0.186788380,0.219982040,10.228880880,-0.124727170,0.063109410,-0.025241080
1640841950.993620,0.262689230,0.202266160,9.759638790,-0.121417650,0.032356380,-0.042179230
1640841950.996889,0.289194350,0.100576150,9.915532110,-0.119055810,0.044031430,-0.049543380
1640841951.006870,0.138190250,0.203288390,9.613636970,-0.070476550,0.116591170,-0.039677330
1640841951.008530,0.155611750,-0.069491980,9.481581690,-0.123363740,0.066213310,-0.057618320
1640841951.010419,-0.010878920,-0.170522060,10.227119450,-0.107431430,0.101779420,-0.005783140
1640841951.012620,-0.144526320,-0.306281860,9.836523060,-0.087639700,0.112643860,-0.033177440
1640841951.013150,-0.204358160,-0.528881310,10.009172440,-0.055098540,0.003193320,-0.026182830
1640841951.013559,-0.316165030,-0.159825550,9.592047690,-0.039350990,0.082693990,-0.029970710
1640841951.013880,0.116956920,-0.310217110,9.133568760,-0.107255590,0.151120130,-0.062075260
1640841951.016110,-0.018350300,-0.010163980,10.508058550,-0.062622130,0.133366880,-0.033357740
1640841951.018960,0.072039600,0.340842840,10.085927010,-0.045549870,0.109013930,-0.053034730
1640841951.021340,0.331766100,0.181662050,9.806736950,-0.050058960,0.018899140,-0.041209170
1640841951.024210,-0.172914480,0.478556900,10.045442580,-0.059272350,0.112834590,-0.023993850
1640841951.026090,-0.128254190,0.048118270,9.632383350,-0.073917210,0.085031990,-0.046053530
1640841951.028960,-0.389929180,-0.106428500,10.214879040,0.015202170,0.050956020,-0.023719670
1640841951.037619,-0.266452820,0.234148980,9.525980950,-0.001698730,0.125509500,-0.049802660
1640841951.039170,-0.057817650,0.276400060,9.970452310,-0.102372470,0.097565370,-0.027346620
1640841951.040050,-0.160789550,0.581932310,10.278811450,-0.165986980,0.136561660,-0.005161760
1640841951.042110,0.184116810,0.363248680,9.775796890,-0.135663200,0.064109280,-0.042204570
1640841951.044659,-0.095418480,0.336249530,10.320988660,0.002928080,0.051686170,-0.034172830
1640841951.048930,-0.132087410,0.449053760,9.371186260,-0.012713670,0.092531730,-0.041882690
1640841951.050880,-0.147514080,0.049629390,9.727360730,-0.088782610,0.025646390,-0.005526840
1640841951.053769,-0.196581260,-0.122660750,9.923789980,-0.124378510,0.145462160,0.007894640
1640841951.055879,0.193316460,-0.245571540,9.457198140,-0.100260970,0.122751300,-0.019872190
1640841951.057540,-0.116444470,0.053975370,10.528198240,-0.038775810,0.068625830,-0.004301970
1640841951.058780,0.041518630,0.170923560,9.613943100,-0.103716560,0.096607230,-0.024545190
1640841951.060220,0.018000630,-0.009100750,9.630232810,-0.102283080,0.029243530,-0.037702930
1640841951.060999,-0.380345850,-0.030759350,10.120159150,-0.038561230,0.078448650,-0.043241680
1640841951.067410,-0.059796890,-0.176164430,9.204458240,-0.011479860,0.094220040,-0.047366320
1640841951.069200,-0.411967460,-0.064712340,10.067140580,-0.004670030,0.068721180,-0.018613040
1640841951.070119,-0.341198380,-0.022236670,10.143743520,-0.114053510,0.105194760,0.003916030
1640841951.075909,-0.235398250,-0.242986110,9.944524770,-0.082407910,0.033286220,0.004293030
1640841951.076460,-0.304183720,-0.164022890,9.947861670,-0.000676510,0.013180080,-0.020794570
1640841951.077050,-0.033612210,0.064738550,9.673905370,0.032487510,0.089024010,-0.036104030
1640841951.081159,-0.076920100,0.337322560,9.808805470,-0.025394560,0.086969140,-0.037080050
1640841951.082830,-0.050496590,0.372641770,10.334939000,-0.120306020,0.030820070,-0.027562680
1640841951.085460,0.051524270,0.341986690,9.936717990,-0.065550210,0.053362550,-0.001800060
1640841951.086560,-0.123126150,0.214605060,9.761199000,-0.017528240,0.022178890,-0.048118830
1640841951.089990,-0.439217690,0.195904640,10.415512080,0.005057450,0.014050310,-0.025804340
1640841951.091070,-0.477440740,0.157237690,9.650825500,-0.027063490,0.034542380,-0.006711480
1640841951.093560,-0.194055330,-0.440383700,9.800070760,-0.055643920,-0.002431870,-0.005002320
1640841951.096040,-0.132021050,-0.179104130,10.054542540,0.001220410,0.107236210,0.002989170
1640841951.099290,0.238305420,-0.024480130,9.485586170,-0.042748450,0.088796030,-0.029793380
1640841951.108019,0.166574840,0.091537340,10.435082440,-0.064532470,0.011426210,0.016263130
1640841951.108549,0.125378240,0.181229680,9.857805250,-0.062689190,0.045302510,-0.009346010
1640841951.109140,0.211104930,-0.362048570,9.670304300,0.014342370,-0.026580690,-0.024463240
1640841951.109550,-0.297828290,-0.296668080,10.092603680,0.126077230,0.022357710,-0.010776520
1640841951.111009,-0.101425850,-0.403703270,9.137041090,0.061063470,0.079119210,-0.028167670
1640841951.113720,-0.243705850,-0.445322190,10.069576260,-0.008395310,0.048291690,0.027301910
1640841951.117110,-0.415278970,-0.246964960,10.108527180,-0.028929120,0.071460010,0.021947920
1640841951.119500,-0.098232570,-0.377785150,9.544568060,0.050760810,-0.040505830,-0.000968580
1640841951.121140,-0.325266120,-0.027296450,9.762732510,0.138361750,0.007231530,-0.001068410
1640841951.124230,-0.110574160,0.059043870,9.337894440,0.091296430,0.082059230,-0.035974390
1640841951.126700,-0.229949180,-0.107243080,10.426336290,0.087934720,0.031338620,0.000505150
1640841951.130260,-0.249745440,-0.049449300,10.097270970,0.095124550,0.008769330,0.008811060
1640841951.131880,0.002155280,-0.154766620,9.537800790,0.118105120,-0.046810510,0.010161100
1640841951.135340,-0.226045650,0.020218760,9.850363730,0.105603050,0.055022540,0.019469860
1640841951.137990,-0.167176140,0.061154640,9.695355420,0.058415540,0.040988630,0.007104870
1640841951.140489,-0.287023310,-0.101579390,10.317790990,0.117072460,-0.041107840,0.009666380
1640841951.141100,-0.012908200,-0.038448900,9.635855670,0.151284050,0.021004680,-0.015038250
1640841951.144840,-0.073351360,0.076339970,9.794085500,0.158266770,0.001189110,-0.013898320
1640841951.146590,-0.386153430,0.304763500,10.296953200,0.094960620,0.011789800,0.016687810
1640841951.148739,-0.136991100,0.264858420,9.656746860,0.021633510,-0.030462440,0.038957600
1640841951.151180,-0.331500920,0.016399100,9.948477750,0.102508070,-0.024701660,0.047273940
1640841951.155490,-0.261420040,0.030462280,9.808683400,0.170406700,0.006851550,0.015142560
1640841951.156690,-0.192957340,-0.014659910,9.667348860,0.184027850,-0.022770460,0.028172140
1640841951.158640,-0.078643020,-0.062292890,9.488137250,0.109826040,-0.013728440,0.027886030
1640841951.161480,0.171313850,-0.167042940,9.862193110,0.047488510,0.043213370,0.022107360
1640841951.164690,0.041732860,-0.114974630,10.044277190,0.119897730,0.026719270,0.037325910
1640841951.171579,-0.019565720,-0.117953470,10.038959500,0.148801520,-0.089113420,0.016079840
1640841951.172580,-0.149541170,-0.060427450,9.701931000,0.164523710,-0.042946630,0.023254750
1640841951.173100,-0.194328310,-0.235979960,9.075105670,0.136025220,0.006152690,0.004607440
1640841951.173529,-0.458800200,-0.453582730,10.291049960,0.172168030,-0.026498730,0.006715950
1640841951.176829,-0.357671080,-0.174755950,9.624340060,0.217777510,0.017939510,0.024710600
1640841951.178460,-0.100246060,-0.224427310,9.692964550,0.169774890,-0.062231720,0.026372080
1640841951.181389,-0.347193810,0.178487570,10.424809460,0.147023800,0.015376510,0.064505640
1640841951.184029,-0.017959650,0.215655100,9.351905820,0.115175560,-0.015813110,0.020512940
1640841951.190840,-0.163590270,0.094959100,10.309451100,0.190998660,-0.106892010,0.023083390
1640841951.191429,-0.192868170,0.492518540,9.661655430,0.242836820,0.014919040,-0.002200900
1640841951.191890,-0.013720950,0.229081480,9.548676490,0.179152160,-0.067205720,-0.001622740
1640841951.193840,-0.410241780,0.420701830,10.442489620,0.141015650,-0.046861180,0.048908590
1640841951.196020,0.017495830,0.242543590,9.383935930,0.086693450,-0.011718270,0.021633510
1640841951.203210,-0.071077890,-0.004254990,10.160870550,0.145182010,-0.064110760,0.046354530
1640841951.207090,-0.286390990,0.268399800,10.126171110,0.184018950,-0.019642710,0.037032370
1640841951.209509,0.168609860,-0.145453930,9.371093750,0.159241260,-0.085948420,0.028803940
1640841951.210090,-0.041952470,-0.222748700,9.864318850,0.178186600,-0.028875470,0.041602560
1640841951.210420,0.065364140,-0.274903210,9.489808080,0.157311570,0.014224650,0.009448830
1640841951.211059,-0.080578270,-0.257764910,10.144902230,0.179345910,-0.080771750,0.031891470
1640841951.213620,-0.306996700,-0.012042490,9.747375490,0.153103490,-0.065736470,0.043898820
1640841951.223130,-0.176545560,-0.189851030,9.493799210,0.140626730,-0.080879030,0.030991440
1640841951.224000,-0.442223850,-0.168439540,10.075449940,0.224053900,-0.027385360,0.036087640
1640841951.224640,-0.166016370,-0.162327320,9.343149190,0.251400470,-0.016047060,0.011655690
1640841951.225060,-0.173439890,0.047582690,10.000969890,0.249731560,-0.069606300,0.034184760
1640841951.226359,-0.110816580,0.206545410,9.882493020,0.139313940,-0.003653760,0.045573720
1640841951.232509,0.036039710,0.066306260,9.820139880,0.125527400,-0.089390580,0.046831370
1640841951.237650,-0.354458450,0.051907110,10.332448960,0.225444140,-0.106829410,0.037217140
1640841951.242110,-0.051138330,0.095690050,9.177269940,0.258739290,-0.068609410,0.008130070
1640841951.243010,-0.365917890,0.209315540,9.886356350,0.245501100,-0.069390240,0.028087200
1640841951.243539,-0.446084800,0.260696800,10.132414820,0.140675900,-0.035357490,0.047074270
1640841951.243950,-0.009195390,0.081629070,9.541288380,0.137388690,-0.098252280,0.061742950
1640841951.244360,-0.219776820,0.107477260,10.119932170,0.202481450,-0.086478900,0.056567790
1640841951.247259,-0.021020600,0.254286830,9.799905780,0.205788030,-0.036464640,0.042089820
1640841951.248629,-0.102339040,0.281775000,9.842217450,0.200751390,-0.109548860,0.052236010
1640841951.251140,-0.093693900,-0.026595030,9.849707600,0.137181590,-0.108072180,0.059217220
1640841951.254289,0.199997840,-0.303904350,9.433349610,0.210344810,-0.029484930,0.059054800
1640841951.256290,0.005379400,-0.304733690,9.855620380,0.262288750,-0.047689670,0.028032070
1640841951.258440,0.034942070,-0.021019990,9.907797810,0.206509280,-0.085143760,0.052461040
1640841951.262390,0.019591320,0.171050440,9.486985210,0.129961970,-0.067393470,0.080318740
1640841951.263520,-0.075717310,-0.134647380,9.822837830,0.104524200,-0.063055750,0.070999570
1640841951.266440,-0.262782510,-0.057994980,9.984291080,0.263711840,-0.065770750,0.078798830
1640841951.274730,-0.269650910,-0.043898660,9.437413220,0.314576860,-0.090128180,0.033733240
1640841951.275600,-0.111837860,-0.000704530,9.436789510,0.233900580,-0.052250930,0.063674160
1640841951.276140,-0.281443770,0.084602890,9.994508740,0.143921360,-0.003509220,0.082081560
1640841951.276710,-0.140301600,-0.332772970,10.132371900,0.137650980,-0.081576410,0.066921110
1640841951.278580,-0.125633340,-0.143455160,9.747711180,0.289282200,-0.131447630,0.084243710
1640841951.281090,-0.068584920,-0.104169180,9.365256310,0.295183090,-0.068895520,0.028054420
1640841951.286239,0.110460820,-0.024623720,9.621400830,0.233034830,-0.010629000,0.055928540
1640841951.287310,-0.186655370,0.062753480,10.220129970,0.193612250,-0.041763480,0.055328020
1640841951.288760,0.040775650,-0.092566210,10.065276150,0.201565040,-0.112129750,0.059068210
1640841951.291520,-0.012686110,0.257044400,9.686836240,0.279955540,-0.098602460,0.075225520
1640841951.293570,-0.244806590,0.385195820,9.598855020,0.213374240,-0.057463360,0.049291550
1640841951.294530,-0.210085650,0.417555630,9.993686680,0.179234150,-0.052927440,0.089664760
1640841951.298750,-0.301082370,0.290901330,9.900232320,0.208474740,-0.068818030,0.082621000
1640841951.299409,0.023955890,0.055549840,9.800599100,0.240202280,-0.094284120,0.070711980
1640841951.304669,0.047794390,0.366363610,9.783134460,0.259347260,-0.039081280,0.080096720
1640841951.307289,0.141435470,0.346492890,9.428353310,0.131791840,-0.026255850,0.056022410
1640841951.310020,0.208785470,0.343281780,10.146694180,0.095133480,-0.062353910,0.111706550
1640841951.310540,0.033378430,0.229914670,9.961503980,0.149200830,-0.035502010,0.079865750
1640841951.313690,0.179956990,-0.105534600,9.464632990,0.223565100,-0.110173230,0.056956710
1640841951.314560,-0.106378210,0.135884780,9.635279660,0.263835520,-0.053556270,0.076524910
1640841951.321260,0.051085170,-0.138313170,9.165094380,0.133775170,0.044919560,0.062297290
1640841951.322939,0.085647310,-0.194782470,10.082932470,0.107827780,-0.010077660,0.114086290
1640841951.323580,-0.279267280,-0.177806450,10.366413120,0.153417860,-0.026020410,0.084997700
1640841951.324180,0.167174440,-0.265622940,9.102860450,0.206805800,-0.094246880,0.067777940
1640841951.329079,-0.116986760,0.098129530,9.446860310,0.230611860,-0.028243670,0.074134770
1640841951.330809,-0.075139420,-0.103618290,9.468503000,0.148876010,0.075083980,0.047913200
1640841951.333639,0.073543880,-0.093677040,10.005126000,0.187499820,-0.023721160,0.072677430
1640841951.334910,-0.135865350,0.113900270,10.067958830,0.216484110,-0.039361420,0.072096300
1640841951.339249,0.219590010,0.181765180,9.384293560,0.181347180,-0.032219290,0.083281110
1640841951.342810,-0.193589290,0.428579660,9.887613300,0.142461030,-0.000680980,0.085359800
1640841951.344540,-0.210462300,0.188679990,9.621916770,0.117759430,-0.013090670,0.056667630
1640841951.347030,-0.054061960,0.161071390,9.803974150,0.209338960,-0.044170020,0.064307460
1640841951.348909,-0.194775390,0.254635070,9.722475050,0.227820870,0.039875510,0.044694540
1640841951.349330,0.016248170,0.307957890,9.748291970,0.153641400,-0.023877620,0.065128510
1640841951.354689,-0.283511100,0.546340880,10.099087720,0.070755180,-0.024658440,0.093017530
1640841951.355190,0.075019810,0.269847510,9.195407870,0.022207200,-0.004500150,0.087372960
1640841951.358590,0.008184960,0.203449460,10.098273280,0.149318590,-0.017023090,0.084055970
1640841951.360380,-0.235175130,0.275939260,10.099476810,0.201442880,0.027669970,0.046782200
1640841951.363659,0.229881790,0.168275330,9.183303830,0.134365280,-0.059440740,0.068931290
1640841951.364470,0.000966300,0.241668730,9.850072860,0.038805600,0.007627900,0.085334490
1640841951.368490,0.286470320,-0.126907840,9.351194380,0.006008150,0.114896890,0.067694490
1640841951.369079,0.145171610,0.056005350,10.091762540,0.125113130,-0.033804780,0.073093180
1640841951.373930,-0.232346730,0.169946540,10.016876220,0.131152590,-0.026625390,0.054055460
1640841951.375100,0.252082020,-0.018563290,8.744565960,0.068403790,0.002208350,0.068932770
1640841951.378759,-0.293383540,-0.101403120,10.074964520,0.071512160,0.044034420,0.058524310
1640841951.379830,-0.179285060,-0.242356840,9.726681710,0.084027630,0.079007440,0.046251710
1640841951.383469,0.157760640,-0.028582330,9.470539090,0.135274260,-0.025612120,0.070570420
1640841951.383989,-0.214407710,-0.004682900,9.967473030,0.073988740,0.063264370,0.067156560
1640841951.388460,0.212921980,0.105725680,9.442777630,0.036358840,0.042459370,0.080189120
1640841951.388860,-0.198163600,-0.086765600,10.138840680,0.092688210,-0.008200110,0.059989090
1640841951.393600,0.037813590,-0.139781640,9.243271830,0.138814750,0.047865510,0.039821860
1640841951.394640,0.128747420,0.154461410,9.669286730,0.164203330,0.049524010,0.048246980
1640841951.398550,-0.329909530,0.160441180,10.254451750,0.054676820,0.091202550,0.039160240
1640841951.398990,0.021614690,0.374351140,9.575493810,0.002814830,-0.030300020,0.067836030
1640841951.403990,-0.231266050,0.282521460,10.001838680,0.043383230,0.000093880,0.053991380
1640841951.404909,-0.043720080,0.282595040,9.243358610,0.082573300,0.103947530,0.025285780
1640841951.408650,-0.169226740,0.580135520,10.171217920,0.107693670,0.009682770,0.044386080
1640841951.409350,-0.277724500,0.253034980,10.082885740,0.031311810,0.053590540,0.058551130
1640841951.413480,0.414422330,0.265092730,9.002900120,0.002129380,0.018890200,0.079700360
1640841951.413930,-0.058351550,0.201368570,10.394419670,-0.001019240,0.075228510,0.061692300
1640841951.418470,0.112133510,0.206297260,9.595630650,-0.022065650,0.105899590,0.047287350
1640841951.418969,0.090261820,0.299265980,9.701992990,0.008070470,-0.046348570,0.062264500
1640841951.423540,-0.257204950,-0.108401720,9.958992000,0.000087920,0.078129760,0.054351990
1640841951.426829,0.241176580,-0.162556440,8.963320730,0.029954310,0.096788990,0.049817570
1640841951.429060,-0.340871690,-0.146182540,10.282966610,0.044001640,0.029373170,0.034052130
1640841951.429560,-0.052901520,0.017745410,9.297118190,-0.028501450,0.111006210,0.061342120
1640841951.433560,0.132073280,0.095539930,9.458435060,-0.073131930,0.056622930,0.070668760
1640841951.434510,-0.463940050,-0.181524830,10.637777330,-0.030964610,0.080637630,0.058434910
1640841951.438700,0.115792040,-0.043346930,9.098079680,0.080181660,0.020548700,0.048926470
1640841951.439400,-0.099783660,-0.061307970,9.431016920,0.084055950,0.026661160,0.017571450
1640841951.443590,-0.001028330,-0.005165500,9.432208060,-0.026187310,0.191706420,0.051102050
1640841951.445240,0.037543130,0.014495660,10.147903440,-0.066445760,0.082181390,0.075191260
1640841951.448410,-0.338303210,-0.308914300,10.431820870,-0.001433490,0.004684930,0.056792800
1640841951.448830,0.174401950,-0.025800720,8.790913580,0.082418320,0.007504230,0.048276790
1640841951.453869,-0.260599640,0.055970140,9.706851960,0.047986210,0.105750570,0.007922950
1640841951.454620,-0.294856910,0.102474120,9.942979810,-0.035074350,0.156590340,0.029143700
1640841951.458619,-0.143942070,0.242563430,10.191167830,-0.028902300,-0.004741550,0.031961500
1640841951.459240,-0.179918240,0.109717740,9.960680010,0.006338950,0.053510070,0.027883050
1640841951.463490,0.169942860,0.451981930,9.036488530,0.027062000,0.087362520,0.035892420
1640841951.463980,-0.335325660,0.530178960,10.316972730,-0.041608510,0.053976480,0.023621320
1640841951.468479,-0.161055180,0.343137170,9.613864900,-0.092451260,0.079475350,0.054675330
1640841951.468959,0.113790390,0.121237050,9.547898290,-0.049166380,-0.001685320,0.060860820
1640841951.473559,-0.181254950,-0.196204960,10.318449020,0.018683080,0.118282440,0.031878050
1640841951.474150,0.298346310,0.119076380,9.175994870,0.006647410,0.093729790,0.038871170
1640841951.478590,0.016306160,0.139235820,10.040923120,-0.109645720,0.018309060,0.047947470
1640841951.479050,0.226588100,-0.076128330,9.587424280,-0.164508830,0.158153470,0.059320030
1640841951.483520,0.263291540,-0.129891920,9.585632320,-0.063657770,0.071479380,0.029902160
1640841951.483950,-0.386493270,-0.278898660,10.402822490,0.063751650,0.015142560,0.014862420
1640841951.488580,0.208553300,0.004393830,8.423903470,0.017632550,0.084508960,0.012946130
1640841951.489889,-0.068017530,0.050868250,9.467428210,-0.124557320,0.132499650,0.031729050
1640841951.493650,-0.239162940,-0.071037810,10.395798680,-0.165466990,0.197175160,0.073830780
1640841951.495110,0.134284630,0.006268440,9.685614590,-0.060814630,0.040097530,0.040233140
1640841951.498510,-0.178120970,-0.049384490,9.915566440,0.020119550,0.019040700,0.026558350
1640841951.498900,0.035972430,0.105843160,9.037486080,-0.023210050,0.164137800,0.030398370
1640841951.504109,-0.252087560,-0.194553870,9.870718000,-0.093255940,0.110624750,0.003454090
1640841951.506120,-0.324398520,-0.421007250,10.188578610,-0.061002370,0.084085760,0.032350420
1640841951.508550,0.163962190,-0.231754620,9.211787220,-0.000242890,0.078488890,0.014944380
1640841951.509169,-0.145408630,-0.109569750,10.068721770,-0.019784270,0.129030640,0.013220310
1640841951.513470,-0.080145340,0.362007440,9.828488350,-0.100538140,0.132650140,0.037230550
1640841951.513939,-0.126338780,0.378504930,9.941732410,-0.127735750,0.024905800,0.023335220
1640841951.518479,-0.150680630,0.320454420,9.749075890,-0.059996550,0.088179120,0.026373570
1640841951.519280,-0.006993890,0.613787000,9.306962970,-0.015027820,0.107589360,0.014011560
1640841951.523500,-0.322751050,0.534178260,10.216465000,-0.067307050,0.092980270,0.012391810
1640841951.523919,-0.096936300,0.680440130,9.518408780,-0.176917030,0.112222140,0.055211780
1640841951.528509,-0.109870660,0.312731650,9.923377040,-0.219862130,0.056754060,0.060293070
1640841951.529240,-0.208989930,-0.092540440,10.203022960,-0.129933660,0.125201060,0.049877180
1640841951.533560,0.135732400,-0.043340570,9.137079240,-0.042571130,0.076846790,0.020837780
1640841951.534320,-0.109643370,-0.217758580,9.970590590,-0.079135600,0.067885240,0.024349990
1640841951.539039,0.223722100,-0.161870360,9.207628250,-0.194051860,0.197874020,0.051926080
1640841951.539780,0.065578860,-0.482954560,9.882515910,-0.200067510,0.084224340,0.037589670
1640841951.543650,-0.296493470,-0.321780950,10.407840730,-0.090326380,0.072990360,0.027643150
1640841951.544920,0.088416560,0.112269510,8.710729600,-0.072996320,0.068955120,0.016182660
1640841951.548480,-0.329960640,0.098468130,9.818911550,-0.127632920,0.081120440,0.020664930
1640841951.548830,-0.262781710,0.269873080,9.640601160,-0.171476620,0.219902430,0.032730400
1640841951.553820,-0.092288720,0.039496240,9.676827430,-0.124448560,0.071375070,0.012442470
1640841951.554819,-0.388818090,0.156903730,10.373331070,-0.055149210,0.058907280,0.037027900
1640841951.558550,0.084201330,0.261277110,8.794939990,-0.118166220,0.120809700,0.029851500
1640841951.559080,-0.248730480,-0.059536020,9.917181970,-0.178721530,0.082550930,0.028112530
1640841951.563480,-0.247896220,-0.039845050,9.942407610,-0.161224600,0.146171470,0.033357730
1640841951.563969,0.162371020,-0.352382180,9.494684220,-0.083766880,0.073061880,0.004759430
1640841951.568509,-0.256929160,-0.219719530,10.431675910,-0.030444560,0.095853220,0.012803080
1640841951.569860,-0.113843470,0.143841250,9.424697880,-0.129771200,0.102826950,0.011570750
1640841951.573500,-0.289896730,0.107488290,9.802054410,-0.200743990,0.025950370,0.023543830
1640841951.574030,-0.353482840,0.294247330,9.696825980,-0.189219430,0.122411560,0.034472350
1640841951.578450,-0.087513830,0.320884320,9.568816180,-0.112001590,0.087264170,-0.001138450
1640841951.578860,-0.321964680,0.539269510,10.369971280,-0.070807350,0.078868870,0.010283290
1640841951.583560,0.069790480,0.601736430,9.297021870,-0.179681200,0.097532570,0.024554140
1640841951.584139,0.123562080,0.087989870,9.977570530,-0.216376780,0.085629510,0.042805070
1640841951.588450,-0.033657030,-0.124279510,9.955247880,-0.169111800,0.144612790,0.036597260
1640841951.588860,0.113191620,-0.363288850,9.295288090,-0.092250110,0.009003280,0.023019310
1640841951.593580,-0.149948280,-0.434436050,9.626859660,-0.090368090,0.056329380,0.025843090
1640841951.594930,0.083517990,-0.423933660,8.815193180,-0.193718120,0.175780070,0.000445540
1640841951.598510,-0.215119410,-0.576238330,10.447129250,-0.171223300,0.093257430,0.005826350
1640841951.599180,-0.395448740,-0.266929240,10.273025510,-0.095307830,0.106541830,-0.015950200
1640841951.603490,-0.133810620,0.040935450,9.142580990,-0.085940960,-0.001172720,-0.010974710
1640841951.604149,-0.619137350,0.192415670,10.109236720,-0.107160210,0.076976420,0.016851720
1640841951.608549,-0.345648620,0.267977000,9.098044400,-0.167325150,0.146406890,0.004155930
1640841951.609180,-0.380652930,0.017097950,9.989181520,-0.094670060,-0.005222860,0.020067390
1640841951.613520,-0.273474690,0.207012560,9.865050320,-0.051939490,0.109989940,0.007599590
1640841951.614100,0.238211870,0.235917260,9.162631990,-0.108943890,0.077709560,-0.000298020
1640841951.619920,-0.274562980,0.286282240,10.745881080,-0.158007460,0.045831500,0.029249490
1640841951.620530,0.025065910,0.261912820,9.478951450,-0.210854430,0.080443920,0.001676380
1640841951.623690,0.077365180,0.018180200,9.653808590,-0.124365110,-0.025597220,0.009343030
1640841951.624310,-0.461265270,0.190268280,10.269049640,-0.066871930,0.092528760,-0.011661650
1640841951.628450,-0.118486640,0.239040630,9.129176140,-0.129771250,0.046035650,-0.014761090
1640841951.628840,-0.460626660,0.172545950,10.129550930,-0.185386810,-0.011616940,0.031304360
1640841951.633620,-0.221191720,0.059827450,9.413728710,-0.223734990,0.110252200,0.019274650
1640841951.634519,0.044929730,-0.097151120,9.695441250,-0.141887370,0.045861300,0.013600290
1640841951.638780,-0.406387390,0.089771320,10.536478040,-0.087074940,0.044511260,0.005519390
1640841951.639619,0.113802980,0.014520920,9.059184070,-0.154635330,-0.001828370,0.004747510
1640841951.643560,-0.020578300,-0.183413580,9.702418330,-0.183506310,0.020317740,0.010310110
1640841951.645810,-0.093653880,-0.286165480,9.691249850,-0.179171580,0.143283620,-0.007636850
1640841951.648559,0.099849450,-0.230203430,9.855293270,-0.092995170,-0.004039700,0.007721780
1640841951.649680,-0.178428750,0.009714370,9.970156670,-0.102841850,0.023059550,0.011551380
1640841951.653460,0.094020200,0.044563170,9.171016690,-0.198332980,0.065080820,0.015912950
1640841951.653960,-0.360105040,-0.052514700,10.481451030,-0.174005330,0.037074090,0.029608610
1640841951.658569,-0.401009110,-0.208695440,9.689940450,-0.106239340,0.032708050,-0.008907920
1640841951.659269,-0.091859330,0.004720390,9.382348060,-0.042092790,-0.043094150,-0.010448700
1640841951.663509,-0.348947580,0.280313640,10.003730770,-0.122670850,0.122056920,0.003713370
1640841951.664199,-0.047850440,0.338182330,9.598100660,-0.247061280,0.070354360,0.008746980
1640841951.668490,-0.207647920,0.391957070,10.692961690,-0.207401830,-0.046488640,0.042030220
1640841951.668920,0.069378340,0.182532710,9.400359150,-0.140771240,0.064268700,0.001968440
1640841951.673470,0.119859670,0.233653890,9.640309330,-0.082838540,0.007103380,0.008516010
1640841951.674039,-0.391328570,0.224438590,10.506135940,-0.124742090,0.046537810,0.031971940
1640841951.678550,0.237721170,-0.153474000,8.953524590,-0.229620930,0.017541650,0.033587220
1640841951.679050,0.050684600,-0.182426150,9.993780140,-0.199639810,0.015339260,0.056128200
1640841951.683480,-0.105132130,-0.231459290,9.937076570,-0.165368620,0.141660850,0.018841020
1640841951.684000,-0.010354500,-0.043823280,9.727935790,-0.123384600,-0.047354400,0.023241340
1640841951.688570,-0.569207910,0.061139140,10.249685290,-0.151786210,-0.041373090,0.033384560
1640841951.689180,-0.032111280,-0.265650180,8.753326420,-0.203679520,0.066907690,0.006628040
1640841951.694360,-0.300136060,-0.257710580,10.038236620,-0.110600910,0.026580690,0.023908910
1640841951.695119,-0.411773200,-0.190915730,10.094708440,-0.082033880,0.078573830,0.017371770
1640841951.698730,0.150243060,-0.061441980,9.330918310,-0.128790740,-0.019799170,0.035132470
1640841951.699280,-0.347157180,0.031254150,10.388177870,-0.196403260,-0.002266470,0.057190660
1640841951.703509,0.022541150,-0.255447240,9.237365720,-0.182116000,0.037287170,0.035339590
1640841951.704030,-0.071774010,-0.272849800,9.833587650,-0.041770940,-0.031495090,0.022612510
1640841951.708609,-0.317103890,-0.143120210,9.959116940,-0.024306770,0.060991950,0.007146600
1640841951.709280,0.056710370,-0.029258510,9.624430660,-0.106793640,0.002291800,0.027781720
1640841951.713670,-0.438351270,0.062585230,10.533770560,-0.175805390,-0.009855630,0.047849110
1640841951.714190,-0.076309790,0.001208440,9.332025530,-0.167682780,0.000180300,0.033606590
1640841951.718459,-0.148355890,0.200832290,9.960850720,-0.065267090,-0.030793250,0.027938190
1640841951.718860,-0.450006070,0.446158980,9.990663530,-0.072704260,0.060895090,0.024984780
1640841951.723480,-0.071998140,0.357976200,9.647083280,-0.129307810,-0.056973100,0.054296850
1640841951.724000,-0.186995070,0.184160770,10.131220820,-0.151483710,-0.015696880,0.060592600
1640841951.728560,0.248558860,-0.075859820,9.175619130,-0.141383720,0.056263810,0.038732590
1640841951.729290,0.072705620,0.132692260,10.304421420,-0.088283430,-0.001491610,0.045086440
1640841951.734040,-0.142122030,0.082533870,9.980012890,-0.142860410,0.011427700,0.048473470
1640841951.734690,0.203909310,-0.308007720,9.281114580,-0.159552690,-0.091162310,0.058923660
1640841951.738799,-0.113390690,-0.367066380,9.935309410,-0.090648240,0.036852060,0.047107040
1640841951.739329,0.086762350,-0.576169670,9.248769760,-0.058051940,0.083504610,0.028003750
1640841951.746559,-0.131695080,-0.242495830,10.182770730,-0.047062330,-0.039249660,0.053215030
1640841951.747510,-0.231926750,-0.082556540,9.801257130,-0.150673090,0.036782030,0.048618020
1640841951.748499,0.078147730,-0.236229020,9.313945770,-0.152425480,-0.033444170,0.067485880
1640841951.748809,-0.516287330,-0.152594250,10.336731910,-0.023862720,-0.015619400,0.052580240
1640841951.753480,-0.107602810,-0.201320230,8.999468800,0.016318260,0.022746620,0.010603670
1640841951.754130,-0.134403230,0.077561320,9.830658910,-0.003443660,-0.014023480,0.032408540
1640841951.758590,-0.355737150,0.079698700,10.379936220,-0.109936300,0.089380130,0.039345030
1640841951.759460,0.175545010,-0.111392890,9.588818550,-0.107963400,-0.045336790,0.060088940
1640841951.763610,-0.258647440,0.071772280,10.199583050,-0.006565450,-0.072082880,0.059506300
1640841951.764330,0.073915460,0.103546310,9.069396970,-0.025224690,0.069989270,0.027418140
1640841951.768469,-0.035206180,0.096551860,10.045202260,-0.032314660,-0.002375250,0.058417030
1640841951.768940,-0.466217340,-0.112919740,10.671518330,-0.041984020,0.001528860,0.051802400
1640841951.773500,0.243305040,-0.377051560,9.226385120,-0.008095800,-0.041405850,0.053279110
1640841951.773929,-0.189903130,-0.021457200,10.027350430,0.023658580,0.000248850,0.044913590
1640841951.778560,-0.230623950,0.129005240,9.713962550,-0.078867380,0.049579140,0.049965090
1640841951.780409,0.028973320,0.112523760,9.665447240,-0.091925260,-0.045137100,0.082492810
1640841951.783450,-0.265054400,0.001815280,10.100280760,-0.020693240,0.000897050,0.055927050
1640841951.783959,0.235865920,-0.172855880,9.347024920,0.055393580,0.024788080,0.056205690
1640841951.788460,-0.004508980,0.009553260,9.940152170,0.080269560,-0.009189550,0.057207040
1640841951.788970,0.008086440,-0.069561180,9.702655790,-0.058785070,0.035806000,0.055593250
1640841951.793759,0.260868910,-0.294272660,9.723305700,-0.084489580,0.022806230,0.093089040
1640841951.794730,-0.184201240,-0.387391360,10.250961300,0.017105040,0.022670630,0.051456690
1640841951.798480,-0.007581860,-0.459744450,9.460256580,0.108502810,-0.033520170,0.041525070
1640841951.798869,-0.126628400,-0.131446000,9.329059600,0.103786600,-0.000326340,0.035956500
1640841951.803480,-0.287138070,-0.166561290,9.713310240,-0.030219550,0.089389090,0.023049120
1640841951.804160,-0.170252520,-0.163964790,10.202674870,-0.013069810,0.018839540,0.072960560
1640841951.808740,-0.298383240,-0.039108330,10.147765160,0.092364860,-0.025723870,0.052514680
1640841951.810230,-0.033106360,0.147212590,9.448058130,0.099819920,-0.015392900,0.043679770
1640841951.814200,-0.156972800,0.500727890,9.816539760,0.053685910,0.042483210,0.063185400
1640841951.814790,-0.321324530,0.233087020,10.099752430,-0.028318170,0.040671230,0.040666760
1640841951.818480,-0.025834720,-0.056893450,9.878656390,0.042732070,-0.035819420,0.073121490
1640841951.818980,-0.044409920,-0.057935220,9.783868790,0.151635710,-0.004960600,0.044128310
1640841951.823459,0.099741830,-0.045037980,9.523749350,0.085443270,0.054435430,0.033849480
1640841951.824180,0.002474430,0.328561690,9.883822440,-0.001786650,0.031013790,0.077717010
1640841951.829550,-0.132929400,-0.042472780,10.205652240,-0.069580970,0.007681550,0.055558990
1640841951.829929,0.107774000,-0.188366250,9.640532490,0.053071980,-0.002807380,0.048875810
1640841951.833500,-0.186697710,0.137857170,9.882643700,0.186030580,-0.004708770,0.031691790
1640841951.834120,-0.135274840,0.074174460,9.485954280,0.078006100,0.047117480,0.036232170
1640841951.838610,0.063609910,0.202326220,9.325057030,-0.020211940,0.042469800,0.083300480
1640841951.839200,-0.207724590,-0.191791620,10.407858850,-0.040927530,0.066073250,0.061880060
1640841951.843560,0.014775610,-0.311870430,9.721508980,0.093503300,0.025287270,0.068217520
1640841951.844339,-0.188902210,-0.108472670,9.595978740,0.190195430,-0.079779320,0.035163760
1640841951.848430,-0.223701750,-0.209833100,9.330625530,0.063487900,0.069147360,0.014868380
1640841951.848790,-0.032323550,-0.132818210,9.321681980,0.016686320,0.091458860,0.043107570
1640841951.853469,-0.457892480,-0.321003440,10.816061020,0.057113180,0.003851950,0.023216010
1640841951.854070,0.025041900,-0.205475120,9.512456890,0.141701100,0.019702320,0.035175680
1640841951.858870,-0.081393550,0.124243770,9.579380990,0.158235430,-0.025166580,0.025509300
1640841951.859550,-0.425800770,0.140234010,10.367837910,0.047723950,0.070926550,0.032714010
1640841951.863500,-0.017756590,0.108322460,9.245553970,0.051839650,0.012867150,0.062757740
1640841951.863989,-0.270146430,-0.015717350,10.257993700,0.128240870,-0.052563850,0.029133260
1640841951.868490,0.063207500,0.252626570,9.439597130,0.152130440,0.105814640,0.022909050
1640841951.868909,0.074619140,0.628311280,9.536888120,0.081455720,-0.008806590,0.021995600
1640841951.873819,-0.338714630,0.450807390,10.754944800,-0.037263330,0.025843090,0.035388770
1640841951.875919,0.210264700,0.194299150,9.147236820,0.018031900,0.048556920,0.047402090
1640841951.878870,-0.320119320,-0.113358010,10.401689530,0.157894160,-0.078284750,0.013542170
1640841951.879279,-0.312456910,-0.100918950,9.539213180,0.157271340,0.063851480,0.025673210
1640841951.883469,0.141457750,-0.023167660,8.513371470,0.053627790,0.002500410,0.040127340
1640841951.883980,-0.416657750,-0.321877840,10.677669530,-0.037521120,0.058430430,0.051029030
1640841951.888610,0.210004630,-0.289319990,9.337086680,0.028853120,0.099538270,0.043275960
1640841951.889720,-0.062001840,-0.220106410,10.333358760,0.154618920,-0.102278600,0.005041060
1640841951.893590,-0.288332430,-0.097736840,9.925671580,0.151205080,0.031986830,-0.000071530
1640841951.894359,0.227356460,0.137071310,8.546972270,0.066176060,0.019416220,-0.005453830
1640841951.898540,-0.445882710,-0.111794110,10.649097440,0.037997960,0.030919910,0.012543800
1640841951.898970,0.006034260,0.010625300,9.270332340,0.102029740,0.084032130,0.030219560
1640841951.903489,0.113299210,0.180010680,9.655498500,0.148896890,-0.060625380,0.025892260
1640841951.904280,-0.317472900,0.205133890,10.311740880,0.078046320,0.082968180,0.031711160
1640841951.908550,0.042844210,0.232649710,9.358705520,0.034561750,0.030760470,0.028848650
1640841951.909210,-0.534140710,-0.155299870,10.747126580,0.089938950,-0.065119560,0.007094440
1640841951.913480,-0.245030600,-0.105038040,9.368690490,0.152809950,0.040902200,-0.009085240
1640841951.914070,-0.058074490,0.139345690,9.431398390,0.131371620,0.013002760,-0.014638900
1640841951.918439,-0.508165840,0.226521890,10.478652950,0.030189760,0.065785650,0.011180340
1640841951.918890,0.067879900,0.394106000,9.402334210,-0.018265850,0.003345310,0.033563380
1640841951.923480,-0.083235080,0.226839070,10.153196330,0.046423080,-0.036370750,0.016704200
1640841951.923960,-0.149654250,0.176497180,9.840703010,0.120611510,0.046612330,0.007827580
1640841951.928439,0.106495290,0.281259030,9.438082700,0.126545130,-0.016066430,0.011461980
1640841951.928779,-0.120141960,0.052482680,9.957485200,0.040775540,0.023426120,0.016602880
1640841951.933529,0.150277840,-0.084391180,9.469027520,-0.008583070,0.071060650,0.037898120
1640841951.934209,-0.021013810,-0.011055240,9.926218990,0.035578010,0.009240210,0.012984870
1640841951.938560,-0.285820510,-0.038958760,9.916052820,0.070212770,-0.020322200,0.014860930
1640841951.939630,-0.161844830,0.071844900,9.265570640,0.065447400,-0.011426210,0.018055740
1640841951.943539,-0.424171980,-0.109271530,9.880131720,0.049170850,0.024588410,-0.013975800
1640841951.945070,-0.405185670,-0.184884470,10.012393000,0.073055930,0.046797100,0.004327300
1640841951.948480,-0.181803180,0.065689710,9.646595950,0.093810280,-0.009235740,0.004440550
1640841951.948850,-0.298256990,0.024828360,10.075359340,0.047752270,-0.002302230,0.005684790
1640841951.953580,-0.101116790,0.424505530,9.576127050,0.004626810,0.018787390,0.038644670
1640841951.954180,-0.172078790,0.338291350,9.844106670,0.002940000,-0.046873090,0.010110440
1640841951.958600,-0.203740180,0.093744390,9.994212150,0.061680380,0.012163820,0.001661480
1640841951.959450,-0.045711550,0.475020440,9.567609790,0.102269650,0.007225570,-0.010712450
1640841951.963500,-0.408317980,0.166279580,10.652552600,0.033614040,-0.041420760,-0.006423890
1640841951.964000,-0.175323640,0.318122270,9.527316090,-0.034824010,-0.009600820,0.016558170
1640841951.968490,-0.099610810,0.226838280,9.604888920,-0.058026610,-0.060635810,-0.002059340
1640841951.970250,-0.329826120,-0.002418190,10.375414850,0.001642110,0.052538510,0.008317830
1640841951.973520,-0.192007240,0.355562390,9.556737900,0.049369040,-0.022529070,-0.005206470
1640841951.974110,-0.471717540,-0.025899110,10.477918620,0.001440940,-0.126051920,0.002604720
1640841951.978439,-0.054176900,-0.013801440,9.052810670,-0.021041930,0.011923910,0.017622120
1640841951.978900,0.033217810,-0.069095450,9.408135410,-0.014851990,-0.028981270,-0.022909050
1640841951.983559,-0.311694150,-0.116620090,10.663887980,-0.001019240,0.033898660,-0.000360610
1640841951.984130,0.169541270,0.238050800,9.109837530,-0.016008320,-0.034795710,-0.006473060
1640841951.988610,-0.206196440,-0.160246600,10.541983600,-0.039070840,-0.115811830,-0.013351440
1640841951.989100,-0.153613220,-0.104700980,9.556707380,0.021943450,0.038401780,0.002080200
1640841951.994449,-0.134490680,-0.212686880,9.292645450,0.055846580,-0.113429150,-0.045824060
1640841951.995050,-0.541397270,-0.228449870,10.338023190,0.028753290,-0.016008320,-0.022913520
1640841951.998520,0.068418670,0.143231510,8.825319290,-0.031687320,0.031363960,-0.019137560
1640841951.999090,-0.406731160,-0.204939630,10.865056040,-0.036595770,-0.099547210,-0.013974310
1640841952.003490,-0.344207050,0.057368200,9.908188820,0.042799120,-0.022335350,-0.007449090
1640841952.004050,-0.024805230,0.088629980,9.079535480,0.059665740,-0.146338360,-0.052019950
1640841952.008560,-0.605538670,0.052148030,10.657236100,0.027893480,-0.015911460,-0.030289590
1640841952.009199,-0.118535880,0.290671260,9.139047620,-0.005786120,0.001536310,-0.025646390
1640841952.013470,-0.220356050,0.015966900,10.407249450,-0.001494590,-0.160495940,-0.028656430
1640841952.013970,-0.085289940,0.348771990,9.757247920,0.018835070,-0.009092690,-0.023864210
1640841952.018520,0.307610540,0.560358520,9.129739760,-0.037960710,-0.061142450,-0.053779790
1640841952.019080,-0.440479310,0.370076660,11.053846360,-0.059478000,-0.067314510,-0.014500320
1640841952.023480,-0.028032160,0.233865870,9.437132840,-0.034224990,-0.069682310,-0.028832260
1640841952.024030,-0.018396830,-0.163279180,9.759779930,0.031445910,-0.154893100,-0.050441920
1640841952.028450,-0.276959750,-0.024267290,9.826745030,0.047801430,0.001318750,-0.029242040
1640841952.028839,0.127570110,0.021171330,9.039601330,-0.066120930,-0.023472310,-0.031019740
1640841952.033609,-0.238129630,-0.175369740,10.525310520,-0.129103680,-0.077539670,-0.002190470
1640841952.034479,-0.039614630,-0.108794940,9.759946820,-0.052392480,-0.043483080,-0.016868120
1640841952.038560,0.020731690,-0.325457130,9.668444630,0.059409450,-0.131668150,-0.053036220
1640841952.039049,-0.475372550,-0.146280290,9.930531500,0.087852780,-0.082372130,-0.058466200
1640841952.043550,-0.109884190,-0.001077830,9.092137340,-0.028152770,-0.030279160,-0.075010960
1640841952.044700,-0.321892380,-0.154685800,10.314993860,-0.081235170,-0.059135270,-0.055512800
1640841952.048630,-0.360014350,0.026260080,10.142615320,-0.017291310,-0.074289750,-0.037854910
1640841952.049280,0.047426130,0.128655940,9.379320140,0.028160220,-0.126811860,-0.057414170
1640841952.053480,-0.211666700,0.236293910,9.909568790,0.020417570,-0.053176300,-0.048500310
1640841952.054679,-0.122189340,0.308083150,9.987546920,-0.032019610,-0.022986530,-0.040663780
1640841952.058519,-0.059145580,-0.019884780,10.198476790,-0.022944810,-0.118690740,-0.037975600
1640841952.058970,-0.088588260,-0.090171630,9.948605540,0.034335260,-0.106112660,-0.041419270
1640841952.063599,0.163497690,0.175409900,9.348270420,0.006145240,-0.044511250,-0.070258970
1640841952.064200,-0.196293830,0.291386100,10.063195230,-0.075609980,-0.060732660,-0.065140430
1640841952.068460,-0.271097240,0.256834980,10.057839390,-0.115770100,-0.071121760,-0.042554740
1640841952.068850,-0.034552200,-0.061182130,9.642866130,-0.038988890,-0.099261110,-0.064399850
1640841952.073480,-0.346774640,-0.197864670,10.115458490,0.085426870,-0.084936620,-0.065992780
1640841952.074040,-0.140873030,0.024190760,9.407699580,0.050193080,-0.059559950,-0.059275330
1640841952.078570,-0.003602220,-0.093959790,9.522633550,-0.082558390,-0.072546310,-0.048494340
1640841952.079069,-0.027031100,-0.187653970,10.033164020,-0.129254160,0.008395320,-0.016170740
1640841952.083480,0.172265370,-0.140689910,9.878995900,-0.034998350,-0.061960520,-0.044077630
1640841952.084020,-0.127564910,-0.247109730,10.166057590,0.084003810,-0.146760050,-0.061315300
1640841952.088529,-0.011180060,-0.013686670,9.003773690,0.066234170,-0.067482900,-0.074429810
1640841952.088970,-0.149444300,-0.151545850,9.588638310,-0.031003360,-0.038510560,-0.087243330
1640841952.093609,-0.363803830,-0.266431300,10.341326710,-0.040841100,0.005404650,-0.056402390
1640841952.095049,-0.047691040,0.029742200,9.661314960,0.022809210,-0.099372890,-0.073909760
1640841952.098559,-0.179140510,0.145931930,10.065481190,0.033034390,-0.101464990,-0.068041690
1640841952.099220,-0.009213210,0.607028010,9.195359230,-0.032509860,0.020214920,-0.057916350
1640841952.103479,-0.212839650,0.421888110,10.226920130,-0.077833250,-0.088442880,-0.067363680
1640841952.104100,-0.231778130,0.144426610,10.325225830,-0.008742510,-0.050061940,-0.044886760
1640841952.108590,0.253971280,0.159106300,9.036686900,0.059194870,-0.087358060,-0.087119650
1640841952.113570,-0.154618870,-0.010416900,10.433309560,0.019000470,-0.027176740,-0.074040900
1640841952.114280,0.136938830,0.265797080,9.361276630,-0.086469960,0.050152840,-0.049681970
1640841952.114760,0.050333940,-0.022870900,10.135226250,-0.136315840,-0.139738630,-0.067833070
1640841952.118460,-0.074173030,-0.073639230,10.040691380,-0.051274890,-0.001943110,-0.053800640
1640841952.118840,0.292121710,0.071107370,8.663730620,0.027066470,-0.033830110,-0.101994000
1640841952.123560,-0.281559260,-0.083708200,10.577376370,0.012761360,-0.032474100,-0.088948010
1640841952.123940,0.128039020,0.083021480,9.221248630,-0.057737530,0.092217320,-0.055496390
1640841952.128480,0.008558750,-0.308713410,10.135954860,-0.080858180,-0.084507480,-0.074769560
1640841952.129540,-0.441590040,-0.183320730,10.447966580,-0.005286930,-0.001640620,-0.042903420
1640841952.133630,0.124534450,0.014674620,8.329352380,0.001202520,-0.068691400,-0.092273970
1640841952.134270,-0.436768200,-0.210416660,10.235767360,-0.033310060,-0.026270750,-0.098450490
1640841952.138650,-0.095689330,0.155185190,9.300477030,-0.041361160,0.138060750,-0.098700830
1640841952.139099,0.055407510,-0.201848760,10.158434870,0.001822410,-0.076529400,-0.115308180
1640841952.143849,-0.235401600,0.020125330,10.539771080,0.050958980,0.004792210,-0.079059590
1640841952.146839,0.321696610,0.367679570,8.650512700,-0.021284820,-0.014692550,-0.100965810
1640841952.148450,-0.374315290,0.027385890,10.583676340,-0.093246990,-0.039672840,-0.066633520
1640841952.148880,-0.200100940,0.235980350,9.456007000,-0.049178310,0.050483640,-0.071959180
1640841952.153460,0.039455040,-0.126970630,9.568441390,0.029884280,-0.085732360,-0.119613130
1640841952.153940,-0.395568280,0.044590900,10.444177630,0.068992380,0.056287650,-0.097320980
1640841952.158640,0.089673180,0.376038460,9.121726040,-0.026285650,0.015711780,-0.115463150
1640841952.159590,-0.264216870,0.106357900,10.549976350,-0.125482690,-0.060422730,-0.079572200
1640841952.163780,-0.036923070,0.245613430,9.313070300,-0.095774240,0.063039360,-0.052385040
1640841952.164420,0.112264980,-0.022776680,9.615852360,-0.002124910,-0.056496270,-0.112758580
1640841952.168490,-0.304648280,0.067503770,10.227613450,0.054430970,0.021737810,-0.080229350
1640841952.168929,0.218282240,0.115781710,8.559497830,-0.027075410,0.002075730,-0.099930170
1640841952.173470,-0.025659520,-0.435338500,10.332432750,-0.089231130,0.019539890,-0.091852250
1640841952.173930,0.048224830,-0.270721140,9.598705290,-0.034254790,0.127668690,-0.068616870
1640841952.179819,0.063482600,-0.413836780,9.891274450,0.030596550,-0.101301070,-0.105604530
1640841952.180519,-0.331233530,-0.246961490,10.011945720,0.036853560,0.014941400,-0.086548920
1640841952.183440,0.089232980,0.053949280,8.420308110,-0.053003430,0.029878320,-0.116667150
1640841952.183849,-0.496774730,-0.312232080,10.715723040,-0.047285850,0.021941960,-0.112013530
1640841952.188419,-0.130300520,0.005788440,9.406210900,0.056566300,0.102543820,-0.111368310
1640841952.188949,-0.040456350,0.070551160,9.821915630,0.086842460,-0.092554080,-0.128239380
1640841952.193630,-0.418520540,0.243536130,10.341615680,0.010664760,0.067940360,-0.072355570
1640841952.194850,0.082815670,0.419932540,8.693519590,-0.083377960,0.024853650,-0.086191300
1640841952.198439,-0.479323270,-0.104519070,10.850284580,-0.051406030,-0.055494900,-0.076726090
1640841952.198900,0.009709120,0.083839980,9.090523720,0.070984660,0.101846480,-0.079101350
1640841952.203500,0.118368050,0.028187900,9.631358150,0.097765040,-0.042401270,-0.125512510
1640841952.204069,-0.421631660,0.185462670,10.687543870,-0.010752680,0.071646280,-0.075548890
1640841952.208619,0.296580730,0.394585670,8.670287130,-0.131301600,0.009807940,-0.080314290
1640841952.209770,-0.284109710,-0.183484840,10.670598030,-0.082720820,-0.046899920,-0.070530180
1640841952.213510,-0.123266130,0.122161600,9.373028760,0.059697040,0.106394310,-0.085477550
1640841952.213940,0.058256110,0.055158540,9.348411560,0.078903130,-0.070719410,-0.111569450
1640841952.218469,-0.376036290,-0.082624530,10.242817880,-0.000874700,0.059415400,-0.052975120
1640841952.218840,0.319818050,-0.100044700,8.693876270,-0.087451960,0.097975150,-0.068153440
1640841952.223520,-0.272304800,-0.588407280,10.965202330,-0.027224430,-0.003565850,-0.062605750
1640841952.224220,-0.214446830,-0.160012170,9.544237140,0.072078410,0.019247830,-0.057072940
1640841952.228649,0.015211420,-0.172709140,8.950262070,0.047564500,-0.102023780,-0.110863160
1640841952.229460,-0.474590420,-0.194498210,9.850750920,-0.017896300,0.104793910,-0.072748960
1640841952.233530,-0.067999210,-0.105375590,9.086092000,-0.004260240,0.092066810,-0.101652750
1640841952.234140,-0.449943720,-0.417302910,10.958147050,0.080534840,-0.042733560,-0.105711830
1640841952.238600,-0.122610040,0.203571010,9.276930810,0.107185540,0.039255610,-0.068455930
1640841952.239159,-0.011401960,0.184263260,9.404865260,0.009292360,-0.049020360,-0.081589830
1640841952.243600,-0.466045800,0.176394300,10.361142160,-0.050948560,0.098462410,-0.048892200
1640841952.244239,0.040599550,0.306482430,8.977970120,0.003705920,-0.005586450,-0.074398520
1640841952.248499,-0.331701220,-0.034618810,10.701931000,0.087220960,-0.058014690,-0.090226520
1640841952.248890,-0.014404110,0.441086290,9.099968910,0.085003680,0.109820070,-0.078246000
1640841952.253450,-0.099085670,0.292332290,9.789308550,-0.034919380,-0.076270100,-0.081250080
1640841952.254030,-0.385826350,0.053845330,10.437250140,-0.079783810,0.054839260,-0.037036850
1640841952.258610,0.298611880,0.046467390,8.672033310,-0.016890470,0.004020330,-0.082775950
1640841952.259689,-0.443185960,-0.280838940,10.915230750,0.075212110,-0.044043350,-0.076794610
1640841952.263500,-0.050783470,0.143624050,9.063010220,0.063748670,0.073549150,-0.057867180
1640841952.264089,0.103677790,-0.114649790,9.332382200,-0.036832690,-0.077348950,-0.072705750
1640841952.268540,-0.338070360,-0.246342640,10.457101820,-0.048679110,0.093631450,-0.027848780
1640841952.269019,0.294381980,-0.000984080,8.829599380,0.010901690,0.024014710,-0.068980450
1640841952.273450,-0.416156830,-0.234026180,10.594314580,0.063566870,-0.080132480,-0.054551660
1640841952.274129,-0.236168830,0.094351250,9.052446370,0.034807610,0.052490820,-0.057148930
1640841952.279009,-0.201817040,-0.199846510,9.419892310,-0.014877320,-0.048826630,-0.093115870
1640841952.279680,-0.672170160,-0.337659270,10.426117900,0.030763450,0.053317850,-0.040313610
1640841952.283470,0.060276750,-0.067505430,8.881965640,0.085267430,0.003302100,-0.071756550
1640841952.283980,-0.294818460,-0.212562110,10.459854130,0.050966450,-0.030976540,-0.053340200
1640841952.288600,-0.061500250,0.313016150,9.454269410,-0.013671820,0.065058490,-0.015579170
1640841952.289250,-0.070062910,0.036399280,9.874944690,-0.024797020,-0.078509730,-0.050669910
1640841952.293759,-0.332084660,-0.083410660,10.164501190,0.062491010,-0.000955160,-0.038795180
1640841952.294570,0.054048860,0.183787660,8.931505200,0.123599160,-0.014081600,-0.063455110
1640841952.298610,-0.441196380,-0.006437840,10.607545850,0.061950100,-0.014239550,-0.057873140
1640841952.299470,-0.080920240,0.353816120,9.193531040,-0.030387940,0.056724250,-0.009651480
1640841952.303599,0.003004630,0.048481530,9.446290020,-0.073489550,-0.074850030,-0.022564830
1640841952.304469,0.140955090,-0.322422830,9.224198340,-0.005444880,0.092074280,0.025390090
1640841952.308630,1.128268240,-0.818231580,7.654820440,0.145287830,0.080138440,0.025278340
1640841952.309729,1.236087920,-2.343599800,9.047418590,0.269596280,0.135903080,0.063173480
1640841952.313580,2.206765650,-3.590479850,8.239399910,0.424227180,0.296027990,0.120994460
1640841952.314380,2.090179680,-5.297217370,9.265492440,0.607086780,0.231434430,0.114665950
1640841952.318760,1.572018860,-6.009481910,9.761049270,0.777705250,0.236187930,0.109964650
1640841952.320789,0.876261770,-5.306823250,8.379869460,0.827892420,0.179566520,0.092822350
1640841952.323870,-0.241609780,-4.090910430,8.352771760,0.786650360,0.147959590,0.063562400
1640841952.325600,-0.799561260,-1.562904000,7.463642120,0.788939180,0.278230100,0.047519810
1640841952.328580,-1.043539640,1.166217920,7.603652000,0.818951610,0.276985850,0.021868950
1640841952.329290,-0.903584420,3.087159400,8.631896970,0.812809410,0.374351500,0.083310920
1640841952.333639,-0.084460030,4.067806240,8.635881420,0.836594520,0.393144850,0.144912320
1640841952.334479,0.197339340,3.039264200,9.838249210,0.877934810,0.336359500,0.201910780
1640841952.338719,0.875723180,1.374627830,8.605940820,0.997366430,0.336547340,0.258630630
1640841952.339450,0.890650630,-0.551972930,7.730855940,0.975989160,0.258049430,0.208139450
1640841952.343850,0.660677430,-2.042900560,7.621572970,0.849870030,0.374899860,0.182122040
1640841952.346860,0.394838540,-2.441890480,7.307836530,0.740094720,0.342957760,0.089788470
1640841952.348460,-0.425045940,-2.174296860,9.008262630,0.708510100,0.276103680,-0.005605820
1640841952.349020,-0.547659640,-0.625214700,8.462085720,0.803801600,0.307202400,-0.049819060
1640841952.353720,-1.180357690,0.741466220,9.420052530,0.813257930,0.264296030,-0.045008960
1640841952.355209,-1.139265540,2.158984180,9.208808900,0.799991250,0.322993160,0.066423440
1640841952.358530,-0.623613480,2.491222860,8.314471240,0.740021590,0.293071660,0.181795690
1640841952.359079,-0.010167890,2.190851690,8.148216250,0.761200550,0.381521970,0.272303910
1640841952.363580,0.426055400,1.842950460,7.939582350,0.748104040,0.376921950,0.277507390
1640841952.364220,0.655650560,1.144278410,8.109124180,0.637214000,0.313001900,0.269387660
1640841952.368850,0.513234500,0.295456440,8.324198720,0.555212860,0.261180190,0.208576050
1640841952.370700,0.025255530,-0.368645640,8.574521060,0.549367250,0.292101560,0.097648810
1640841952.373610,-0.683841410,-0.368058000,8.655377390,0.613001170,0.216621190,0.020094220
1640841952.374349,-1.487177370,-0.114861730,8.674449920,0.585331080,0.177660580,-0.008489190
1640841952.378630,-1.391177060,0.617181060,7.771360870,0.464606370,0.210513200,0.005574530
1640841952.379259,-1.693720700,0.988043070,8.793441770,0.399513630,0.234828920,0.082416850
1640841952.383710,-0.993936540,1.272609230,8.639218330,0.436742630,0.224304200,0.140988840
1640841952.384450,-0.276297480,1.243239280,8.960081100,0.509654100,0.177048190,0.168396560
1640841952.388500,0.469675000,1.196297170,8.827384950,0.503373150,0.267149540,0.209356840
1640841952.389150,0.990935620,0.689018070,9.163463590,0.396108690,0.225520180,0.209693660
1640841952.393649,0.999315740,0.245333300,8.795378680,0.331005480,0.205446780,0.209426890
1640841952.394300,0.882164960,-0.135100350,8.273001670,0.316952230,0.139996410,0.164201900
1640841952.398660,0.052950650,-0.187243000,8.211963650,0.367173490,0.199623420,0.122198450
1640841952.399250,-0.799182710,0.179185780,8.304085730,0.324140550,0.118626680,0.102728630
1640841952.403710,-1.667427060,0.301212130,8.861832620,0.298461260,0.104644900,0.145392120
1640841952.404359,-1.801935790,0.463295340,8.358895300,0.277636980,0.109285120,0.142493840
1640841952.408740,-1.952946190,0.719000460,9.274214740,0.324444530,0.115773100,0.147983430
1640841952.410200,-1.458455920,1.324386840,8.662538530,0.292113450,0.118155790,0.153487950
1640841952.413580,-0.746121940,1.538328170,8.805788040,0.149346890,0.042983890,0.172653790
1640841952.414270,0.069721960,1.549309020,8.513744350,0.083118680,0.113204120,0.164222730
1640841952.418730,0.987783610,1.064001440,8.684576030,0.098478800,0.094020370,0.134776550
1640841952.419210,1.248420360,0.578395610,8.984917640,0.234685850,0.106441990,0.150246920
1640841952.423519,1.375318770,0.197573260,8.716995240,0.183068200,0.088898820,0.149035440
1640841952.424389,0.876260520,-0.286013930,8.995348930,0.081816320,0.117729610,0.246822830
1640841952.428570,-0.288365990,-0.913544000,9.197745320,0.011551380,0.038857760,0.250175600
1640841952.429139,-1.204283600,-1.036532400,8.863633160,0.105018940,-0.044214730,0.224278870
1640841952.434830,-2.112499240,-0.599324520,8.067698480,0.200001930,-0.072895000,0.175198910
1640841952.436349,-2.645965580,0.150194260,8.578220370,0.142994540,0.000439580,0.115269420
1640841952.438449,-2.526610610,1.352761270,9.123950000,0.028559570,0.000891090,0.103235240
1640841952.438930,-1.934107540,2.003906250,9.661072730,-0.072768350,-0.083705810,0.128883170
1640841952.443460,-0.490506680,2.787767170,9.087969780,-0.075665120,-0.068078940,0.146308540
1640841952.444599,0.410097240,3.030763630,9.142305370,-0.106541830,-0.029140710,0.173120220
1640841952.448439,1.434997800,2.774581190,8.871104240,-0.169596090,-0.030362610,0.243604200
1640841952.448979,1.798381330,1.552648430,9.079337120,-0.215387370,-0.059016060,0.276753400
1640841952.453519,1.818773150,0.270788850,8.627450940,-0.195413870,-0.029321020,0.281961290
1640841952.454380,0.923907460,-0.635422230,9.083045010,-0.173473360,-0.126178560,0.251364740
1640841952.458629,-0.310020060,-0.991580610,8.800967220,-0.265336070,-0.085750220,0.236995530
1640841952.459420,-1.338310240,-0.896036450,8.675739290,-0.396861230,-0.168861450,0.210294160
1640841952.463590,-2.711616040,-0.682464000,9.706613540,-0.375610590,-0.128637270,0.194847580
1640841952.464360,-2.696253780,0.084664230,8.740624430,-0.270100000,-0.184240970,0.144411670
1640841952.469280,-2.654064660,0.913530770,9.030804630,-0.181892510,-0.221435740,0.146217640
1640841952.469869,-1.480607510,1.813227890,8.237198830,-0.302244720,-0.119604190,0.177370030
1640841952.473549,-0.254865260,2.015824320,9.095630650,-0.467199120,-0.127239530,0.235171630
1640841952.474160,0.720215500,1.854267000,9.489935870,-0.470069110,-0.135388970,0.284895330
1640841952.478580,1.698053840,1.348948960,9.293949130,-0.414097370,-0.246812450,0.271175800
1640841952.479300,1.733572010,1.028574110,8.779306410,-0.384298030,-0.212429510,0.269643990
1640841952.483660,1.348652360,0.426752630,8.693956380,-0.539799090,-0.197123040,0.245076450
1640841952.484310,0.408665270,-0.181869020,9.407522200,-0.596307340,-0.169643800,0.255529580
1640841952.488530,-0.405723450,-0.532634080,8.816675190,-0.569196160,-0.258669320,0.220453780
1640841952.489120,-1.299293280,-0.542237940,9.244824410,-0.502933680,-0.255432720,0.211878120
1640841952.493539,-2.055553440,0.173719640,8.958721160,-0.525126040,-0.199016960,0.207825050
1640841952.494030,-2.450399880,0.457718640,9.538352010,-0.630416100,-0.315924080,0.243052870
1640841952.498780,-2.263535500,0.936350110,9.278282170,-0.630702200,-0.313407240,0.268638220
1640841952.499850,-1.443849440,1.171453710,8.750667570,-0.622520030,-0.310890440,0.241681960
1640841952.503540,-0.526868400,1.539802910,9.001996040,-0.591156010,-0.274798360,0.246283440
1640841952.504140,0.294485090,1.867139100,9.204801560,-0.703714850,-0.263446570,0.234510020
1640841952.508580,1.399793510,1.686298610,9.055970190,-0.813618420,-0.288592370,0.288683240
1640841952.509640,1.566341160,1.083396430,9.366725920,-0.822603820,-0.317829940,0.294019370
1640841952.513720,1.529842020,0.507636490,8.984998700,-0.763647440,-0.295233820,0.301210640
1640841952.514870,1.055016040,0.156176430,8.547651290,-0.747357430,-0.318986270,0.313958590
1640841952.518740,-0.051262050,-0.348562600,9.117131230,-0.831143860,-0.277532730,0.321096240
1640841952.519270,-0.742804590,-0.455515150,9.041540150,-0.906826910,-0.298591080,0.301309050
1640841952.523680,-1.846558810,-0.561926250,9.483014110,-0.875918870,-0.371867570,0.264427130
1640841952.524590,-1.989657640,-0.057297940,8.688794140,-0.801573870,-0.390137790,0.231860650
1640841952.528669,-2.085067750,0.576340020,8.926070210,-0.825306890,-0.352290360,0.207839940
1640841952.529610,-1.474886300,1.054923530,8.706127170,-0.899842800,-0.272700310,0.256547450
1640841952.533609,-0.733418170,1.191121940,9.663716320,-0.936723050,-0.375683720,0.278399970
1640841952.534449,0.196077420,1.178873180,9.145815850,-0.897521080,-0.326584370,0.316205680
1640841952.538519,1.055234430,0.963234720,8.797866820,-0.898230200,-0.416468170,0.323908090
1640841952.539039,0.845619200,0.500858550,9.595140460,-0.934115170,-0.334544570,0.330489960
1640841952.546909,1.240637900,0.249472600,8.340688710,-0.991523800,-0.366005420,0.321279620
1640841952.548950,0.353135850,-0.333672850,9.902416230,-0.978954430,-0.433227540,0.334516320
1640841952.551420,0.136736910,-0.142833830,8.581082340,-0.953291710,-0.305318950,0.310683400
1640841952.551780,-0.710320950,0.083220000,9.530617710,-1.016123770,-0.459337380,0.271989490
1640841952.553480,-1.605629680,0.804891470,9.428921700,-1.076797250,-0.364923690,0.315448760
1640841952.554040,-1.498083590,0.973759710,8.900304790,-1.142645360,-0.480632660,0.288944100
1640841952.559280,-1.846246240,1.204579710,9.789184570,-1.073341370,-0.402923140,0.302365540
1640841952.560220,-0.999002340,1.636891130,8.352270130,-1.054463150,-0.431381310,0.281459180
1640841952.563629,-0.455371980,1.358531480,9.376203540,-1.127696630,-0.425534130,0.328813640
1640841952.565100,0.531636180,1.179715390,8.536610600,-1.223503590,-0.291197120,0.382337120
1640841952.568790,0.978343190,0.107294660,9.932127950,-1.235200880,-0.439000400,0.385041710
1640841952.569620,1.040280220,-0.269425150,9.480854030,-1.125151520,-0.400528490,0.389963570
1640841952.573580,1.160989880,-0.723701120,8.238988880,-1.129904750,-0.529301460,0.347502650
1640841952.574299,0.252192470,-0.829216540,9.258680340,-1.178096770,-0.375776110,0.343853380
1640841952.578610,-0.050405550,-0.458676960,8.562214850,-1.271136760,-0.328907580,0.315681220
1640841952.579910,-0.929265020,-0.342214610,10.194271090,-1.218878270,-0.484958560,0.337879510
1640841952.583660,-1.141432050,0.519523320,9.136652950,-1.162295580,-0.442128090,0.324371580
1640841952.584540,-1.030978680,0.979415600,8.761596680,-1.188199640,-0.477525800,0.324596580
1640841952.588490,-1.241167310,1.263570550,9.523117070,-1.237729790,-0.368461160,0.366379440
1640841952.588909,-0.448612630,1.015387540,8.908504490,-1.263756160,-0.402173580,0.356429990
1640841952.593809,0.061466290,0.559516850,9.459753040,-1.182005520,-0.429091100,0.390644640
1640841952.595290,0.497661950,0.288751990,9.120090480,-1.177330970,-0.372377220,0.381736670
1640841952.599660,0.694855210,0.007533830,9.281178470,-1.255384560,-0.430174350,0.393577070
1640841952.600700,0.371350500,-0.146386120,9.365779880,-1.353991870,-0.446696820,0.412717700
1640841952.603469,0.304574460,-0.394961570,8.985300060,-1.336076020,-0.459605720,0.396466490
1640841952.603999,-0.212461290,-0.359616760,9.427345280,-1.236373660,-0.404992880,0.376808850
1640841952.609640,-0.590312540,0.065040900,9.344405170,-1.198620080,-0.417813930,0.379029100
1640841952.610890,-0.808496240,0.426112030,9.448985100,-1.250453830,-0.470809880,0.406737800
1640841952.613540,-0.834301830,0.627147610,9.222559930,-1.376769660,-0.411705850,0.419488820
1640841952.614359,-0.677105550,0.893618700,9.091962810,-1.357678170,-0.435444950,0.439064470
1640841952.618530,-0.556430940,1.104581590,9.424409870,-1.329461570,-0.454731550,0.424228850
1640841952.618990,0.129727210,1.157939080,8.548081400,-1.334530950,-0.402365860,0.427758930
1640841952.623450,0.418509540,0.952537890,8.953462600,-1.391749980,-0.401093240,0.426566870
1640841952.624130,0.502447900,0.305632500,9.575319290,-1.438395140,-0.334230270,0.438966100
1640841952.628559,0.535157260,-0.297540130,9.064403530,-1.349785330,-0.444867040,0.439617280
1640841952.629269,0.152659620,-0.967978240,9.351948740,-1.336110350,-0.496863100,0.436289880
1640841952.634670,0.124632720,-1.306379440,8.532808300,-1.320146920,-0.348709700,0.454651090
1640841952.635480,-0.195509240,-1.555528280,9.061901090,-1.323511360,-0.372417450,0.425403030
1640841952.638550,-0.453863200,-1.425327780,9.888470650,-1.263657930,-0.331910130,0.437122850
1640841952.639210,-0.359027420,-0.716244580,9.106724740,-1.235245700,-0.393569620,0.425175040
1640841952.643790,-0.561954980,-0.235759710,9.645805360,-1.277018310,-0.449385020,0.427013870
1640841952.644430,-0.521233740,0.603217010,8.976669310,-1.258453010,-0.370982560,0.451623140
1640841952.648569,-0.270193130,0.865168390,8.979397770,-1.265581730,-0.401476260,0.431998340
1640841952.649070,-0.189838410,1.213784930,9.593447690,-1.217836620,-0.343187300,0.473174720
1640841952.653620,0.180719290,1.480647330,9.073608400,-1.280323270,-0.338435380,0.463985150
1640841952.654410,0.294173720,1.079034450,9.684475900,-1.366845850,-0.387032570,0.503333270
1640841952.658779,0.298412500,0.775216880,9.041110040,-1.362679360,-0.359101830,0.514765440
1640841952.659829,0.324579600,-0.081047700,9.096877100,-1.351786490,-0.372947930,0.458741430
1640841952.663800,-0.146615180,-0.439274070,9.482840540,-1.266755820,-0.321571740,0.472212080
1640841952.664369,-0.390063940,-0.811456020,9.247491840,-1.305807230,-0.392864850,0.439554630
1640841952.668579,-0.477659760,-1.264979720,9.663362500,-1.316326140,-0.397141550,0.469403270
1640841952.669279,-0.358715680,-1.060494420,8.764819150,-1.283731580,-0.304655910,0.466263530
1640841952.673849,-0.265706510,-0.936787960,9.563099860,-1.253890040,-0.350479930,0.452928420
1640841952.674670,-0.111442200,-0.124211810,9.292644500,-1.228141190,-0.284208570,0.490828160
1640841952.678750,0.235116110,0.102077170,9.093777660,-1.287711260,-0.372502390,0.472398370
1640841952.679829,0.070975700,0.156661060,9.925336840,-1.219462510,-0.343096440,0.506064530
1640841952.683519,0.361320110,0.371417020,8.466466900,-1.158092020,-0.320191830,0.474992630
1640841952.684190,0.104701190,0.154173210,9.545508380,-1.164523120,-0.365629910,0.469570070
1640841952.688530,0.096674670,0.388893810,9.115479470,-1.233974700,-0.200675530,0.503587960
1640841952.690359,0.136451380,-0.178632210,9.432198520,-1.287004950,-0.329522940,0.480768350
1640841952.693460,-0.331532270,-0.469769630,10.147808070,-1.191479560,-0.306013350,0.500239790
1640841952.694029,0.046579550,-0.555729990,8.424846650,-1.120506640,-0.305305570,0.447933550
1640841952.698690,-0.516902210,-1.055329080,10.000955580,-1.102656600,-0.319293290,0.440097030
1640841952.699479,-0.332802000,-0.722864810,9.261773110,-1.123069640,-0.209537240,0.459915580
1640841952.703830,-0.166827410,-0.983230110,9.573844910,-1.126032230,-0.357434330,0.455986230
1640841952.705469,-0.193630670,-0.589889650,9.817244530,-1.074903010,-0.247851130,0.502118650
1640841952.708580,0.288036970,-0.008566910,8.900391580,-1.081635590,-0.239977330,0.471231550
1640841952.709250,-0.155123530,0.079222240,10.393376350,-1.104234580,-0.281161130,0.508758540
1640841952.713470,0.182903930,0.453230050,9.116617200,-1.067747590,-0.262960940,0.531322000
1640841952.713990,0.309379760,0.050552140,9.435144420,-1.026192670,-0.314757350,0.481292810
1640841952.718560,0.152079120,0.178346130,9.453420640,-0.992238940,-0.162100850,0.513018910
1640841952.719159,0.320419310,0.163690920,9.102078440,-1.053972960,-0.227029760,0.484285030
1640841952.723610,0.014679150,-0.361878960,10.055928230,-1.124622700,-0.219780330,0.509246050
1640841952.724400,0.239701270,-0.402720780,8.953794480,-1.054062370,-0.195880290,0.497053770
1640841952.728740,-0.298411580,-0.948677840,10.018519400,-0.968478920,-0.263641920,0.445707320
1640841952.729760,-0.247033600,-0.876245860,9.168963430,-0.908187210,-0.189015300,0.463450010
1640841952.733590,-0.254487400,-0.857722640,9.011172290,-0.934902070,-0.244493860,0.444765510
1640841952.734460,-0.338159410,-1.032237890,9.927658080,-0.994453070,-0.121662050,0.475362090
1640841952.739179,0.129841510,-0.557381570,9.215921400,-0.921434280,-0.160189020,0.503516320
1640841952.739869,-0.071028250,-0.545943860,10.052655220,-0.877581780,-0.244759080,0.493008020
1640841952.743729,0.465739700,-0.214618070,8.888072970,-0.850525800,-0.146280290,0.514242230
1640841952.744429,0.286528650,-0.213125880,9.371494290,-0.856344760,-0.177699400,0.481443290
1640841952.748420,0.194929380,-0.567635060,9.893947600,-0.838254690,-0.112129800,0.486216070
1640841952.748809,0.313937280,-0.496669020,9.173657420,-0.728750410,-0.170098270,0.481547530
1640841952.753890,-0.124778100,-0.560606720,9.886836050,-0.756041770,-0.169237000,0.454597230
1640841952.754629,-0.043208420,-0.295397310,9.365729330,-0.827691140,-0.105188820,0.487245740
1640841952.758420,-0.365493030,-0.298323570,9.646046640,-0.851136680,-0.156001790,0.469145360
1640841952.758980,-0.309177760,-0.427957150,9.723570820,-0.778366800,-0.133502530,0.455063730
1640841952.763510,-0.158354710,-0.173744590,9.281514170,-0.652082380,-0.112713890,0.448970590
1640841952.763970,-0.238718760,-0.221309510,9.761658670,-0.672692180,-0.117342200,0.433974060
1640841952.768999,0.053532120,-0.129623000,9.544609070,-0.744730350,-0.113390410,0.488716420
1640841952.769980,0.277025640,-0.360236530,9.315247540,-0.776007890,-0.098967570,0.506085340
1640841952.773970,0.478062120,-0.599674340,9.744771960,-0.721952440,-0.058411070,0.497497740
1640841952.775410,0.300215660,-0.381512220,9.852391240,-0.604397120,-0.058735920,0.496767520
1640841952.779080,0.311754970,-0.440098940,9.405522350,-0.641626240,-0.144296930,0.476792510
1640841952.779559,0.210514200,-0.606579120,9.190542220,-0.681385580,-0.088731960,0.492434260
1640841952.783480,0.182369520,-0.798142140,8.975065230,-0.643897060,0.021527710,0.468584900
1640841952.784050,-0.143359180,-0.871592940,9.966927530,-0.553448620,-0.051783040,0.427797500
1640841952.789559,-0.402766700,-0.476752280,9.654094700,-0.506524860,-0.080020740,0.450967340
1640841952.790439,-0.163468880,-0.523622330,9.027681350,-0.597690170,-0.092694180,0.449793100
1640841952.793579,-0.496225300,-0.564261970,9.829947470,-0.598926960,-0.012589990,0.456583590
1640841952.794340,-0.145907950,-0.637189690,9.233851430,-0.498561680,-0.002616640,0.447097510
1640841952.798820,0.062467180,-0.689820650,9.608222960,-0.407342670,-0.056344280,0.424069230
1640841952.799950,0.197199310,-0.401967080,9.393781660,-0.436253850,0.034581130,0.457854600
1640841952.803460,0.573714200,-0.533288600,9.428005220,-0.511501790,-0.007878250,0.474543930
1640841952.804020,0.132480680,-0.885923210,10.126352310,-0.473371210,-0.039595370,0.478580680
1640841952.808490,0.449292630,-0.922234060,8.966887470,-0.358460840,-0.019788740,0.461322130
1640841952.808960,0.065207320,-1.001953960,9.735681530,-0.293180350,0.001496080,0.427272950
1640841952.813429,-0.373412580,-0.881506620,9.941578870,-0.314320620,0.071488330,0.432218610
1640841952.813949,-0.163676370,-0.677593050,9.570175170,-0.341069730,-0.062339020,0.433845880
1640841952.818460,-0.459583280,-0.608724650,9.697206500,-0.322857560,-0.011365120,0.431500430
1640841952.818960,-0.077675660,-0.135232480,8.887846950,-0.287324280,0.055003170,0.429067080
1640841952.823520,-0.305355970,0.244101320,9.939307210,-0.279119610,0.029991570,0.422041180
1640841952.824390,-0.089192140,0.219857290,9.623061180,-0.304444220,0.022527580,0.447738230
1640841952.828630,0.415642500,-0.031844100,9.357855800,-0.256323870,-0.012668970,0.456102250
1640841952.829599,0.296192740,-0.543272440,9.669360160,-0.195567340,0.101666170,0.431144330
1640841952.833619,0.602151810,-0.748983380,9.396802900,-0.175479050,0.070072720,0.442305270
1640841952.835780,0.388108970,-1.031767490,9.802799220,-0.200372980,0.064343240,0.453062420
1640841952.838519,0.449256780,-1.464413170,9.272396090,-0.221911100,0.085036480,0.447747170
1640841952.838930,0.164117890,-1.531781910,9.736774440,-0.104858000,0.058127950,0.433385460
1640841952.843560,-0.213154870,-1.411313770,9.230865480,-0.021258000,0.070700050,0.384734600
1640841952.844359,-0.114720990,-0.983401780,8.917654990,-0.024212900,0.060422730,0.380676980
1640841952.849560,-0.474453900,-0.478594510,9.569353100,-0.067348790,0.178813900,0.391297010
1640841952.850170,-0.291228000,-0.416403080,9.614890100,-0.078697500,0.116981590,0.391165940
1640841952.853469,-0.414700120,-0.124168600,10.053077700,0.055284800,0.030702350,0.413533990
1640841952.853950,-0.113512830,-0.043347470,8.776668550,0.076104720,0.083419700,0.388495710
1640841952.858460,0.086334000,-0.290317710,9.207718850,0.049613430,0.108583290,0.403389420
1640841952.859010,0.011307990,-0.445911880,9.677886010,0.047230720,0.197406110,0.397969720
1640841952.863720,0.551549790,-0.944573820,9.353442190,0.065529350,0.086972120,0.376161930
1640841952.865039,0.403122010,-0.866850200,9.883149150,0.153747200,0.102156420,0.386732850
1640841952.870620,0.478237540,-0.770085220,9.136674880,0.114510950,0.166805100,0.345762010
1640841952.871199,0.067538250,-0.822206020,9.880353930,0.098012390,0.087445970,0.360734730
1640841952.873420,-0.359095280,-0.592340410,9.586933140,0.147202610,0.120773920,0.359310210
1640841952.874159,-0.189740990,-0.723549190,8.983131410,0.198017090,0.090543930,0.335399840
1640841952.880159,-0.684149680,-0.298904390,9.735480310,0.273080170,0.143650190,0.360207260
1640841952.881080,-0.392191170,-0.030894630,9.068037990,0.185747430,0.165107850,0.343671440
1640841952.883450,-0.178144500,-0.051124390,9.575025560,0.130538640,0.107863550,0.384239850
1640841952.884080,-0.054786670,0.010157970,9.617998120,0.174771290,0.181683940,0.370852710
1640841952.888510,0.439939830,-0.198383870,9.356003760,0.238850730,0.150062140,0.337719890
1640841952.888980,0.284377340,-0.182380990,9.610538480,0.303517340,0.118300340,0.366135030
1640841952.893450,0.665047050,-0.462336180,8.736344340,0.226211550,0.183333500,0.343094830
1640841952.894460,0.693049430,-0.936923920,9.147976880,0.218291610,0.201702150,0.347082410
1640841952.898939,0.267236830,-1.069461700,9.674141880,0.299570050,0.220988720,0.338749680
1640841952.900740,0.248076470,-1.066907290,9.241671560,0.336453380,0.143067550,0.318737420
1640841952.903580,-0.341564570,-0.937971000,9.428410530,0.344111030,0.120934850,0.328452890
1640841952.904260,-0.464384320,-0.794405220,9.120849610,0.292751220,0.203523080,0.299374760
1640841952.908429,-0.599774120,-0.784590540,9.401891710,0.370273080,0.186245170,0.293018010
1640841952.908800,-0.668489690,-0.427945020,9.397495270,0.448635310,0.173617930,0.294974510
1640841952.913560,-0.139727940,-0.104910740,8.842225070,0.428587290,0.196181270,0.301721720
1640841952.916520,-0.141813200,-0.072094260,9.580404280,0.375276800,0.187276300,0.335063070
1640841952.920120,0.147015690,-0.181028380,9.414403920,0.365965070,0.199332880,0.344426990
1640841952.920600,0.400798080,-0.554928120,9.309334750,0.463824000,0.144761800,0.310777070
1640841952.923709,0.224229040,-0.624161420,9.533168790,0.532636230,0.205904280,0.300055830
1640841952.924810,0.276247890,-0.684119280,9.200778010,0.498938620,0.214803250,0.277881350
1640841952.928769,-0.123495220,-0.831299840,9.748888970,0.454864000,0.131201770,0.298000960
1640841952.929329,-0.054266060,-0.661538000,8.971778870,0.454616610,0.187563910,0.305970040
1640841952.933450,-0.202770500,-0.599191250,9.236331940,0.508643810,0.172933970,0.273133900
1640841952.934100,-0.671015560,-0.117796150,9.860076900,0.545539020,0.217968260,0.292265500
1640841952.938880,-0.452662590,0.123374970,9.241656300,0.522914590,0.124917940,0.305974510
1640841952.942550,-0.484249170,-0.063079660,9.648789410,0.506062750,0.135244440,0.315909120
1640841952.943500,-0.084376420,0.180439520,8.754677770,0.530429240,0.235131430,0.319485370
1640841952.944270,0.083616170,-0.080960090,9.459568980,0.532330630,0.168718400,0.304143220
1640841952.948439,0.210928660,-0.148008870,9.411418910,0.520721200,0.229764060,0.326296750
1640841952.949100,0.581869130,-0.540827690,8.934758190,0.520506620,0.157214750,0.311675760
1640841952.953460,0.139168780,-1.278420210,10.040072440,0.610065580,0.180280250,0.304502250
1640841952.954079,0.279097230,-1.163651590,8.481338500,0.683075190,0.186477600,0.270777970
1640841952.958900,-0.164242660,-1.277984380,9.409312250,0.644096790,0.109522040,0.250653950
1640841952.959440,-0.242257570,-0.878283920,8.859087940,0.581515010,0.284878970,0.287225900
1640841952.963470,-0.336367880,-0.623474060,9.249474530,0.586432280,0.142163040,0.259693000
1640841952.964030,-0.838107350,-0.368048310,10.200820920,0.687785630,0.150482390,0.279671040
1640841952.968540,-0.201880230,0.168346850,8.014181140,0.728656410,0.134520280,0.256276130
1640841952.970130,-0.547480520,-0.087409800,9.829015730,0.688201310,0.145979240,0.252954690
1640841952.973660,-0.168136130,-0.092497120,9.089256290,0.694622340,0.302989840,0.296069770
1640841952.974439,0.155398120,-0.615757170,9.490437510,0.738941190,0.068616880,0.276446430
1640841952.978809,0.016247180,-0.810608570,9.815606120,0.787978050,0.177240420,0.298053090
1640841952.980219,0.585533740,-0.652915540,8.041730880,0.736718000,0.160728390,0.258786980
1640841952.983480,-0.325948150,-0.978861870,10.454319950,0.693039660,0.118267560,0.261780620
1640841952.984160,-0.115070630,-0.695216120,8.757309910,0.758221980,0.189772310,0.259748190
1640841952.988500,-0.258827420,-0.751967850,9.409746170,0.837703350,0.020213430,0.201115040
1640841952.989930,-0.742779020,-0.166539740,9.822638510,0.872504890,0.218457010,0.250057880
1640841952.993590,-0.213412540,0.392130260,8.325938220,0.757980470,0.114385810,0.240691040
1640841952.994809,-0.734042820,0.360296460,10.373514180,0.678597450,0.087235880,0.296148690
1640841952.998459,-0.061302960,0.582503440,8.551589970,0.727233350,0.196309390,0.291380320
1640841952.998890,0.062592130,0.172591460,9.518806460,0.817950370,0.032316170,0.252340880
1640841953.003500,-0.022229150,0.121967850,9.372282980,0.860937120,0.182850700,0.284875990
1640841953.005750,0.696755290,-0.252500180,8.270850180,0.752261400,0.124220580,0.256204690
1640841953.008790,0.018062560,-1.003426430,10.341171260,0.728446420,0.147806140,0.272044630
1640841953.009580,0.135473970,-1.016498450,8.928853990,0.783619460,0.141032070,0.251469080
1640841953.013530,-0.260336760,-1.372993350,9.370892520,0.856284980,-0.029756130,0.227874550
1640841953.014060,-0.687178020,-0.988436040,8.764651300,0.877744080,0.121904920,0.248973120
1640841953.018420,-0.429003860,-0.856767300,8.472384450,0.822338640,0.112107410,0.208124560
1640841953.018770,-0.924748480,-0.631070850,10.137954710,0.866343260,0.131572830,0.243458200
1640841953.023470,-0.376896620,-0.027669810,8.934113500,0.903476950,0.080275560,0.248774920
1640841953.024510,-0.285639880,-0.069788760,9.660711290,0.895497320,0.015966600,0.257821470
1640841953.028699,-0.178056850,0.359550060,8.942228320,0.886890410,0.117939730,0.268612860
1640841953.029389,0.270955410,0.182515410,8.758847240,0.847454550,0.022144620,0.249472310
1640841953.033460,0.093929690,-0.082511880,9.357566830,0.898197470,0.105485330,0.261533350
1640841953.034090,0.378594040,0.021644700,8.808400150,0.898030520,0.080001370,0.222396900
1640841953.038780,-0.156943590,-0.244193200,10.135629650,0.873938320,0.016631190,0.243422420
1640841953.039670,-0.393244300,-0.168009280,9.035701750,0.850008670,0.012598930,0.250989260
1640841953.043550,-0.533621310,-0.399795680,9.061127660,0.819078270,-0.068998350,0.221563920
1640841953.044979,-0.918165680,-0.397434680,9.335987090,0.888197300,0.086030380,0.238275600
1640841953.048489,-0.655650680,-0.266372170,8.966941830,0.900914010,0.022394960,0.221656310
1640841953.048980,-0.659089980,-0.453105630,9.916844370,0.922413410,-0.016787650,0.260411260
1640841953.053460,-0.054497020,-0.405293760,8.799569130,0.904785280,0.034850850,0.255283770
1640841953.053900,0.173061530,-0.526542840,9.321732520,0.881445530,-0.031147900,0.252585200
1640841953.058900,0.111173140,-0.438655820,9.516002660,0.924557750,0.028558080,0.282445640
1640841953.060099,0.382860900,-0.513992910,8.864647870,0.914018090,-0.053812570,0.248709380
1640841953.063540,0.191868340,-0.610750500,9.293519970,0.961701750,-0.046809030,0.265622200
1640841953.064220,0.149961930,-0.472818670,8.788974760,0.969367090,0.042693330,0.237670600
1640841953.068420,-0.084556330,-0.348846170,9.270131110,0.951940060,-0.039219870,0.229767020
1640841953.068899,-0.454373510,-0.107275460,9.344462390,0.938509760,-0.042989860,0.256206150
1640841953.073660,-0.265133770,-0.307302450,8.835519790,0.894603370,-0.038500140,0.215943190
1640841953.075640,-0.603284720,-0.508627890,9.442091940,0.999690890,-0.043873500,0.243315180
1640841953.078519,-0.496487380,-0.741111930,9.056316380,1.084681270,-0.028584910,0.212976430
1640841953.079180,-0.243719180,-0.870986640,8.971403120,1.083268640,-0.051160170,0.215369540
1640841953.083510,-0.359636930,-0.739897910,9.336112020,1.016083600,-0.034703320,0.247198390
1640841953.084060,-0.002970090,-0.842123030,9.266196250,0.960563360,-0.065092760,0.235427950
1640841953.088680,0.052549430,-0.601210710,9.260814670,1.061211940,-0.098103330,0.235882510
1640841953.089579,0.177714260,-0.248641640,9.059946060,1.086585520,-0.067546990,0.202551560
1640841953.097530,0.222550870,-0.121970250,9.323618890,1.092940930,-0.028507420,0.206004160
1640841953.098250,-0.091197330,-0.136108710,9.656926160,1.079620960,-0.067925490,0.231614800
1640841953.098919,-0.074768280,-0.464628310,9.419183730,1.102243660,-0.131894690,0.249952170
1640841953.099350,-0.266180780,-0.577329460,9.005442620,1.167764310,-0.111123960,0.247933060
1640841953.103659,-0.358246920,-0.382799450,8.854065900,1.116922860,-0.076994320,0.227828380
1640841953.105170,-0.558514240,-0.265121310,9.464775090,1.060619000,-0.077472650,0.263205230
1640841953.108530,-0.398265630,-0.221337510,9.323261260,1.040022490,-0.099191080,0.232322560
1640841953.109040,-0.129400390,-0.074738590,9.388010980,1.108521460,-0.128670080,0.201754350
1640841953.113510,-0.070205180,0.215112020,9.256921770,1.169196130,-0.089179020,0.204196630
1640841953.114260,0.305636500,0.398167280,8.738029480,1.085155010,-0.095783200,0.211131620
1640841953.118600,0.291952790,0.140071960,9.313782690,1.036057110,-0.082401950,0.272485700
1640841953.120010,0.358168480,-0.369340210,9.339306830,1.057276490,-0.063492380,0.262376760
1640841953.123900,0.383460370,-0.839506750,9.240987780,1.173112150,-0.138489950,0.250834290
1640841953.124930,0.013769280,-0.953693810,9.224208830,1.219675300,-0.125981900,0.254328640
1640841953.128500,0.079945970,-1.079470400,8.749347690,1.119675160,-0.052255410,0.218443630
1640841953.129109,-0.354464350,-0.960247040,9.560602190,1.098047610,-0.084513460,0.232917160
1640841953.133479,-0.553672020,-0.674508630,9.573154450,1.123628500,-0.114330690,0.227898460
1640841953.134369,-0.382847370,-0.392672900,8.900343890,1.213427310,-0.168716970,0.216668950
1640841953.138840,-0.552284900,0.093910250,9.143010140,1.209199910,-0.121216540,0.212693300
1640841953.139360,-0.346404430,0.174273700,9.270562170,1.158118720,-0.071930920,0.226555900
1640841953.143479,-0.164400180,-0.035372020,9.579255100,1.187098500,-0.124029880,0.244993090
1640841953.144160,0.148753050,-0.211362510,9.428417210,1.217967510,-0.148397710,0.245185300
1640841953.148730,0.399347870,-0.385482040,9.238786700,1.257064220,-0.111660420,0.257599500
1640841953.149570,0.285786180,-0.344434110,9.362113950,1.179507730,-0.094358660,0.249894100
1640841953.153460,0.122462110,-0.379092720,9.548255920,1.128697630,-0.164227230,0.260774850
1640841953.154250,-0.040844730,-0.423083630,9.401058200,1.168702840,-0.153212310,0.243961920
1640841953.158860,-0.032933700,-0.222205980,9.012073520,1.205089810,-0.125277090,0.211130110
1640841953.159880,-0.330701950,0.037915210,9.535494800,1.255259630,-0.126573500,0.227785200
1640841953.163470,-0.273034660,0.274858390,9.290005680,1.154806260,-0.104445260,0.240787970
1640841953.164009,-0.078771090,0.108209010,9.221879010,1.124586340,-0.127728310,0.284230800
1640841953.169050,-0.301575870,-0.017158890,9.780820850,1.158634540,-0.119103540,0.276217010
1640841953.170410,-0.025384580,-0.192751780,9.115220070,1.206538680,-0.153426900,0.258472710
1640841953.173460,0.090977040,-0.561535420,8.914632800,1.254948140,-0.177128720,0.264379500
1640841953.174280,0.306199520,-0.786668420,9.127026560,1.198130010,-0.046472270,0.226788340
1640841953.178640,0.503635230,-0.938804150,9.520882610,1.216653470,-0.043444350,0.246340110
1640841953.179109,0.296405790,-0.928321300,9.936267850,1.238631010,-0.145515870,0.249406800
1640841953.183960,0.326086430,-0.644335030,9.294635770,1.235384350,-0.162486790,0.250391750
1640841953.184939,0.050199540,-0.393840400,8.897027970,1.234347110,-0.116667200,0.258858650
1640841953.188520,-0.199479640,-0.295376390,9.255409240,1.226158860,-0.095282530,0.254088700
1640841953.189180,-0.323313530,-0.181491270,9.582620620,1.319355250,-0.093504820,0.251402110
1640841953.193800,-0.203315840,0.020044770,9.380056380,1.327870010,-0.101114840,0.241877270
1640841953.195250,-0.228364590,0.027910320,9.794559480,1.279740690,-0.114527410,0.251412510
1640841953.198449,-0.299647870,0.250417440,9.663982390,1.197967410,-0.100965830,0.254382280
1640841953.199720,-0.017884110,-0.064458610,9.250706670,1.189081910,-0.142954360,0.247396660
1640841953.203950,-0.045895140,-0.088188750,9.402908330,1.291335230,-0.109842480,0.233470040
1640841953.204959,0.151020210,0.126607090,9.341036800,1.286870720,-0.076752930,0.219428640
1640841953.208459,0.239841640,-0.029761550,9.520371440,1.245281820,-0.098508630,0.246916850
1640841953.210300,0.217637240,0.058404680,9.598767280,1.177082060,-0.111000310,0.246042150
1640841953.213500,0.337307240,-0.042204890,9.599517820,1.153461930,-0.084632670,0.255265890
1640841953.214049,0.110775250,0.031111930,9.595011710,1.234056470,-0.080324740,0.253899540
1640841953.218420,0.013287880,0.243449630,9.499458310,1.212741970,-0.134375720,0.228110060
1640841953.218840,-0.011979070,0.269422920,9.221806530,1.164986730,-0.100497930,0.256250860
1640841953.223529,0.144755530,0.048602760,8.904143330,1.112722160,-0.027662520,0.239142840
1640841953.224210,0.038435830,-0.196046130,9.816822050,1.178402070,-0.033135720,0.248828620
1640841953.229590,-0.084398090,-0.124922620,9.663989070,1.241302970,-0.066447300,0.255185430
1640841953.230049,0.157707910,-0.168637050,9.196873660,1.151109220,-0.128178340,0.241652270
1640841953.233660,0.021537720,-0.220981490,9.372983930,1.104464050,-0.049100830,0.271064100
1640841953.234290,0.109226700,-0.447855090,9.358575820,1.111705780,-0.007054210,0.219820510
1640841953.238520,0.203828630,-0.453954670,9.560456280,1.223858240,-0.046563160,0.213384700
1640841953.239130,0.084255080,-0.136391880,9.494459150,1.241835240,-0.050732520,0.226706390
1640841953.243790,0.215544210,-0.276043210,9.552262310,1.126246210,-0.031504050,0.238077370
1640841953.244940,-0.037876720,-0.294479580,9.722023960,1.125696660,-0.036619620,0.278335900
1640841953.248910,-0.018833390,-0.545475130,9.661761280,1.179746390,-0.079892610,0.244711460
1640841953.249680,0.025922740,-0.467802230,9.603079800,1.272063610,-0.013077270,0.224830330
1640841953.253399,0.007703390,-0.148067490,9.434784890,1.224406480,0.017532710,0.223085370
1640841953.253880,-0.032667410,-0.285507890,10.172780040,1.142671820,-0.041988500,0.244969200
1640841953.258469,-0.054132570,-0.195465060,9.658152580,1.186593290,-0.036340970,0.251683650
1640841953.259179,0.075559590,-0.201977250,9.261483190,1.220226880,-0.079064100,0.224241700
1640841953.263520,-0.278356610,0.191281020,9.873052600,1.243903280,-0.018581760,0.251643450
1640841953.266320,-0.222115990,0.451970460,9.414265630,1.141441230,-0.008229910,0.242653550
1640841953.269250,-0.065710380,0.091001310,9.992009160,1.112682220,-0.073552160,0.258861630
1640841953.269640,-0.016433310,0.178819510,9.814741130,1.200536610,0.006036460,0.244079650
1640841953.273540,0.345139740,0.021131170,9.543931960,1.211357710,-0.023546820,0.206542120
1640841953.274279,0.266795280,0.163573320,9.731117250,1.182370420,-0.003473460,0.249773370
1640841953.279000,0.402192770,-0.095835300,9.332726480,1.078802590,0.009483100,0.244890240
1640841953.280089,0.309207680,-0.591648640,10.183399200,1.116781350,-0.014211240,0.252904060
1640841953.283470,0.058786140,-0.532322410,9.526123050,1.231627820,-0.005640090,0.221669780
1640841953.284080,0.063578340,-0.589806620,9.372612950,1.214191790,-0.075374580,0.183956380
1640841953.288440,-0.218839110,-0.230659920,9.720052720,1.155940180,0.079330830,0.221178040
1640841953.288800,-0.105797850,-0.314108220,9.580146790,1.084922670,0.071534540,0.207774400
1640841953.294880,-0.438309940,-0.339365090,10.925148010,1.187984940,-0.061988850,0.236253530
1640841953.297330,-0.220702890,0.083640810,9.223935130,1.257228020,-0.021134330,0.222052750
1640841953.299960,0.102425140,-0.022300620,9.082976340,1.198290710,-0.028368840,0.198528270
1640841953.300609,-0.230978270,0.420333590,10.270771030,1.140870690,0.119318100,0.231094750
1640841953.304000,0.250652310,0.235565100,9.860016820,1.084441180,0.032813860,0.205861060
1640841953.304970,0.362890870,0.104742150,10.440951350,1.168731450,-0.039212420,0.219948720
1640841953.308410,0.459331750,0.479026940,9.433870320,1.177222130,0.075641300,0.176315080
1640841953.308740,0.347364430,0.243188100,10.008822440,1.105647090,0.029547520,0.188319460
1640841953.313609,-0.155099450,0.204505610,10.377572060,1.079845670,0.045688460,0.231568570
1640841953.314250,0.076232220,-0.333323480,9.343482970,1.081003790,-0.012387340,0.206062290
1640841953.318430,-0.269881900,-0.585405650,10.216551780,1.191752310,0.029876840,0.228840220
1640841953.318970,-0.190049070,-0.221218200,9.393649100,1.178209900,0.130783050,0.199519160
1640841953.323419,-0.144893650,-0.277492730,10.114710810,1.076120500,0.008118150,0.218518150
1640841953.323880,-0.232076810,-0.049378610,10.444572450,1.031860830,0.078451650,0.240638930
1640841953.328810,0.241802930,-0.089255630,9.441013340,1.069783090,0.054380310,0.184102430
1640841953.329670,0.030407440,0.088956850,10.210697170,1.203902600,0.001059470,0.196270700
1640841953.334070,0.303486530,0.488024800,9.250359540,1.150021430,0.116525640,0.174363030
1640841953.334820,0.523278770,0.399745910,9.571666720,1.031737330,0.104092090,0.200106280
1640841953.338630,0.164489480,0.356568570,10.500808720,1.000838400,0.123788450,0.228954900
1640841953.340479,0.258259560,0.135257970,9.791390420,1.036480190,0.038409240,0.204302420
1640841953.343760,-0.040533380,-0.023286980,9.828478810,1.114759210,0.015041240,0.217048880
1640841953.344420,-0.229308710,-0.206637170,9.519199370,1.069772600,0.135077580,0.177259800
1640841953.348500,-0.408360030,-0.450683240,10.120965000,1.053904410,0.099396720,0.177373040
1640841953.349210,-0.531841040,-0.618207510,10.446396830,1.072563650,0.076104720,0.183574930
1640841953.353610,-0.067965640,-0.501806500,9.648036000,1.082618950,0.071002580,0.182619750
1640841953.354410,-0.210698780,-0.040777850,10.155843730,1.080568670,0.077244660,0.190644030
1640841953.358739,-0.060085340,0.334358990,10.115332600,0.986008700,0.103722530,0.188371610
1640841953.359799,0.264466940,0.468252330,9.835112570,1.007548090,0.061579070,0.205171180
1640841953.363500,0.169520690,0.549976830,10.208179470,1.061562060,0.085544610,0.191764590
1640841953.364050,0.274293040,0.724378940,10.175899510,1.065583710,0.107780130,0.197172240
1640841953.368590,0.125644920,0.766287510,10.013368610,1.015049580,0.068017860,0.222775380
1640841953.369300,0.077247840,0.409168990,10.014367100,0.892795860,0.059971220,0.215330750
1640841953.373459,-0.044709890,0.263751570,10.108046530,0.928157690,0.117325810,0.220973820
1640841953.374090,-0.387393330,0.046349990,10.319964410,0.962698880,0.083717730,0.179934560
1640841953.378480,-0.145875290,0.024820560,10.006156920,0.987848940,0.036422920,0.201608320
1640841953.379170,-0.119805880,0.081756150,9.760718350,0.942810180,0.104239620,0.192193760
1640841953.383440,0.109716860,-0.253772200,10.034106250,0.873650850,0.167065890,0.184382540
1640841953.384090,0.219331280,0.100307830,10.302115440,0.928846180,0.103266560,0.213222240
1640841953.388460,0.118253870,0.157311720,10.083734510,0.905840460,0.068140040,0.194515360
1640841953.388890,0.401712030,0.176549210,9.690282820,0.899836540,0.090113300,0.220833760
1640841953.393819,-0.063214940,0.152476530,10.348071100,0.899967730,0.134192440,0.198729380
1640841953.395020,0.012032330,-0.161777210,9.950890540,0.933803800,0.100527720,0.188997430
1640841953.398440,-0.058470850,0.068809730,10.114819530,0.972444060,0.069642090,0.197272060
1640841953.398949,-0.242819430,-0.015929380,10.054096220,0.871901330,0.182125000,0.204990830
1640841953.403499,-0.095155330,-0.050409390,10.097963330,0.851768430,0.092425960,0.232145230
1640841953.405210,-0.631162700,-0.020425780,11.072947500,0.890214980,0.056754060,0.214320450
1640841953.408480,-0.083050970,-0.012187610,9.299900050,0.925402700,0.103263590,0.191706460
1640841953.409479,-0.251977860,0.177288900,10.295858380,0.934992910,0.074556490,0.174580560
1640841953.413910,-0.513093830,0.301918660,11.003165250,0.855185210,0.177104800,0.185141010
1640841953.414640,0.073455340,0.445703800,9.862478260,0.850926580,0.019910940,0.208872590
1640841953.418460,-0.173898250,0.358350460,10.675474170,0.854172050,0.002700090,0.197972400
1640841953.419040,0.281611380,0.664099450,9.550906180,0.824052210,0.195673150,0.209333080
1640841953.423489,0.061034130,0.697461610,10.711458210,0.799955670,0.072538870,0.214357720
1640841953.424360,-0.181397080,0.227113930,11.280729290,0.785006640,0.074186920,0.238883540
1640841953.428750,0.476642310,0.206031720,9.404095650,0.846100030,0.051166120,0.244836550
1640841953.429430,-0.249306690,-0.197951730,10.900831220,0.840841290,0.084337610,0.229081560
1640841953.433699,-0.019535220,0.080681950,9.973768230,0.779608130,0.171610790,0.249974520
1640841953.434739,-0.176834690,0.066105990,10.194987300,0.715678930,0.009951000,0.235061390
1640841953.438720,-0.482025800,-0.182066380,10.911418910,0.729437230,0.096428420,0.238263640
1640841953.440140,-0.030299410,0.202859330,9.808020590,0.834621670,0.069652520,0.212197050
1640841953.443509,-0.481431930,0.130957190,10.670804980,0.844255270,0.027795140,0.189915340
1640841953.443980,0.143158060,0.633841750,9.551373480,0.754438400,0.122721510,0.223627730
1640841953.448429,0.160220760,0.635635140,10.483588220,0.644231020,0.102710740,0.236578330
1640841953.448789,0.163347290,0.224638610,10.728252410,0.671830950,0.155420630,0.259675150
1640841953.453539,0.366482910,0.169741560,10.303070070,0.810834880,-0.028963390,0.261245730
1640841953.454180,-0.181024120,-0.354124070,10.710438730,0.849127890,0.049068040,0.230790720
1640841953.458619,0.163878070,-0.364933010,9.144741060,0.777951000,0.132411760,0.235794510
1640841953.459400,-0.533748810,-0.760699150,11.392023090,0.708378970,0.047504900,0.229509200
1640841953.463440,-0.478210630,-0.670112010,10.602139470,0.755006190,0.142700990,0.248479870
1640841953.464079,-0.073759320,-0.149251300,9.763136860,0.811715540,-0.049577660,0.221331450
1640841953.468500,-0.656318550,0.259123650,11.047018050,0.776410280,0.094972570,0.240795360
1640841953.469110,-0.145608200,1.007579330,9.480788230,0.704862360,0.117634270,0.240562900
1640841953.473520,-0.635900970,0.728576480,11.522495270,0.713926550,-0.070758170,0.240810220
1640841953.474099,-0.237751830,0.942371610,10.195246700,0.782975670,0.084063430,0.243896320
1640841953.479060,0.113823870,0.983934640,9.884422300,0.766851070,-0.012496120,0.224268470
1640841953.480219,-0.459019270,0.828190330,11.559452060,0.677102860,0.064988430,0.266478960
1640841953.483430,0.244026450,0.857970240,9.795796390,0.573690240,0.046660010,0.270542530
1640841953.483860,-0.078621760,0.197149890,11.008344650,0.589871530,-0.048045820,0.260056640
1640841953.489420,-0.087518920,0.319941700,10.541028980,0.680005610,0.058400640,0.268140470
1640841953.490100,-0.036261300,0.214693810,10.295188900,0.675261140,-0.029957300,0.243084180
1640841953.493460,-0.366942380,0.152997820,10.582346920,0.621585670,0.008107720,0.284633130
1640841953.494480,-0.060238370,0.156492320,9.962998390,0.527727600,0.035247210,0.269922640
1640841953.498400,-0.543105070,0.018123610,11.434081080,0.564119220,0.004172330,0.268821420
1640841953.498860,-0.565575840,0.384161920,10.419012070,0.637956080,-0.020325180,0.268362460
1640841953.503660,-0.520529750,0.288767370,10.372776990,0.604446290,-0.148202520,0.261689780
1640841953.505849,-0.579158660,0.468176660,10.317349430,0.579182920,0.020848220,0.282284620
1640841953.508509,0.061995360,0.367767840,9.651843070,0.534997940,0.032749780,0.255212190
1640841953.509130,0.072557840,0.360667440,11.249435420,0.574037430,-0.003652270,0.283643630
1640841953.513630,0.282371970,0.664344670,10.671572690,0.545908630,0.010074680,0.287555190
1640841953.514060,0.371526900,0.145414810,10.552833560,0.500164930,-0.104123360,0.291739400
1640841953.518479,-0.163190160,0.001456470,10.846323970,0.559599760,-0.069902840,0.299000740
1640841953.519610,-0.230487970,-0.362844820,9.990532880,0.586861430,-0.053705280,0.254432920
1640841953.523559,-0.553084370,-0.323406460,10.554303170,0.631305690,-0.078816730,0.266075190
1640841953.524789,-0.823008360,0.049622080,11.019524570,0.542952180,-0.028643020,0.268468290
1640841953.529070,-0.488605110,0.267439010,10.457643510,0.456400310,-0.059656810,0.291833310
1640841953.530959,-0.542331870,0.821751530,10.904359820,0.478582140,-0.129938140,0.293973180
1640841953.533800,-0.335468050,1.022122380,10.725196840,0.487393230,-0.057151920,0.269292320
1640841953.534420,-0.000440500,1.285687690,10.390851020,0.521132470,-0.070060800,0.275401860
1640841953.538460,-0.251080990,1.067073230,11.079408650,0.489817620,-0.123810810,0.290592070
1640841953.538839,0.131170420,0.579340040,10.591035840,0.450226720,-0.106880090,0.311626580
1640841953.543460,0.086836210,0.312299100,10.580942150,0.460866150,-0.095847270,0.313931760
1640841953.544030,-0.221682040,-0.056790190,10.868826870,0.410981570,-0.083346670,0.306569040
1640841953.548460,-0.086611780,0.112249740,10.656558990,0.390015540,-0.146834540,0.326298180
1640841953.548900,-0.488487450,-0.135776760,11.104262350,0.364130820,-0.125047590,0.304175970
1640841953.553439,-0.149818180,-0.081198680,10.177716260,0.427156750,-0.092156250,0.294825490
1640841953.554050,-0.429017840,0.285111250,11.066012380,0.474987980,-0.167493520,0.276868080
1640841953.558660,-0.509173100,0.504302020,10.748572350,0.385385840,-0.088937600,0.296045930
1640841953.559440,-0.002616950,0.698541940,10.031147960,0.339691430,-0.152556630,0.326466620
1640841953.564119,-0.531329870,0.323625150,11.740485190,0.336895940,-0.141760750,0.318616690
1640841953.564810,-0.087736550,0.313586350,10.132276540,0.427670840,-0.114604850,0.334234630
1640841953.568519,-0.198393990,0.243670280,10.628234860,0.459303020,-0.266929060,0.302042130
1640841953.569640,-0.350301440,0.046509380,10.731431010,0.363879000,-0.073198970,0.326645430
1640841953.573429,0.139057650,0.084141220,9.936956410,0.308299120,-0.121083880,0.336354970
1640841953.573959,-0.510711670,-0.296272220,12.052967070,0.344999190,-0.198945430,0.323572780
1640841953.578450,-0.131287620,-0.087643850,10.639489170,0.432808790,-0.165931880,0.328603420
1640841953.579079,-0.342573140,0.171295320,10.715224270,0.429183300,-0.269533720,0.294141500
1640841953.584220,-0.931120100,0.274399310,11.305272100,0.347283510,-0.174737010,0.313681390
1640841953.586390,-0.511207460,0.556417580,10.362330440,0.319132210,-0.251746180,0.325812430
1640841953.588389,-0.731238310,0.391751770,11.396954540,0.366885960,-0.230945690,0.312344730
1640841953.588699,-0.145300720,0.937458750,10.174514770,0.397102620,-0.139720770,0.335764940
1640841953.593459,-0.219446550,1.228102450,11.459733010,0.292475580,-0.280742380,0.314681290
1640841953.594010,-0.167168540,1.229974750,11.276600840,0.193558680,-0.188469930,0.363956450
1640841953.598650,0.301731650,1.004623530,10.149346350,0.201438370,-0.286316900,0.333742800
1640841953.599560,-0.354682030,0.546501580,12.006916050,0.285549520,-0.287866680,0.323261350
1640841953.603590,-0.086368820,0.480364770,10.272265430,0.310592440,-0.194074210,0.338013500
1640841953.604480,-0.179694770,0.006123100,10.818762780,0.222049700,-0.318181600,0.319962260
1640841953.608470,-0.536200640,-0.193417820,11.666611670,0.174675900,-0.174546210,0.372393400
1640841953.608850,-0.192540560,-0.189505700,10.568404200,0.172732790,-0.270499290,0.322897730
1640841953.613580,-0.447574440,-0.019023550,11.361376760,0.241017370,-0.370940660,0.331054630
1640841953.614320,-0.031631140,0.551860570,10.116041180,0.224871930,-0.196310880,0.326666270
1640841953.618539,0.224769400,0.773278120,10.643172260,0.138141230,-0.195936860,0.313213500
1640841953.619320,-0.016891210,0.981339280,11.769385340,0.144529360,-0.211453470,0.343999330
1640841953.623550,0.161870180,0.966580750,10.971721650,0.153006610,-0.297682020,0.314867500
1640841953.624150,-0.098667490,0.662913380,10.980508800,0.162626830,-0.325098690,0.332258730
1640841953.628769,-0.454800640,0.347484710,10.582066540,0.155542790,-0.249294950,0.322063210
1640841953.629830,-0.466846290,-0.155969040,10.876711850,0.123959780,-0.286144050,0.289955770
1640841953.633630,-0.541033210,-0.217610020,11.101490970,0.164626540,-0.233244910,0.317880510
1640841953.635959,-0.157632110,-0.208699090,10.519342420,0.125615310,-0.232259940,0.295025110
1640841953.638450,-0.197183580,0.039117520,11.756593700,0.091123590,-0.282759960,0.301890110
1640841953.639000,-0.237700020,0.500009480,11.473277090,0.078803300,-0.269460710,0.300402970
1640841953.643509,0.023041070,0.414667010,10.577476500,0.086921460,-0.345289710,0.263829500
1640841953.644090,-0.241180020,0.725618120,11.328810690,0.163754820,-0.308747650,0.275725160
1640841953.648630,-0.339705440,0.890681150,11.145399090,0.134031470,-0.226800160,0.256611410
1640841953.649350,-0.104697500,0.900317610,10.868320470,0.047189000,-0.317114590,0.286489730
1640841953.653499,-0.226954500,0.998603340,11.386898990,-0.003045800,-0.313952590,0.312592030
1640841953.654130,0.100478840,0.800705430,10.706641200,-0.042089820,-0.214554370,0.291755830
1640841953.658399,0.012138260,0.750492040,11.238574980,0.021134320,-0.297527050,0.292308570
1640841953.658769,-0.349075910,0.453341930,11.639766690,0.034759940,-0.314623120,0.272676350
1640841953.663590,0.023503280,-0.029232900,10.446448330,-0.003947320,-0.316432060,0.267191260
1640841953.664850,-0.319854020,-0.369844530,11.091779710,0.021746750,-0.305616860,0.266495380
1640841953.668609,-0.416500540,-0.564363120,11.254789350,0.016650560,-0.247065750,0.238440980
1640841953.669600,-0.266789700,-0.257358700,10.969029430,0.017207860,-0.318184520,0.256842400
1640841953.673420,-0.486630800,0.092830350,11.338036540,-0.028169160,-0.344654890,0.253707170
1640841953.674549,-0.108303760,0.232504010,10.869192120,-0.050088760,-0.296069680,0.234267160
1640841953.678890,-0.080729160,0.586960080,11.188270570,0.048257420,-0.309009940,0.226937260
1640841953.680019,-0.044937570,0.806380990,11.000276570,0.045563290,-0.279092820,0.198341950
1640841953.683490,0.224715260,0.957733510,10.899175640,-0.022117790,-0.321727960,0.236874820
1640841953.684140,-0.202932130,0.734524370,11.860500340,-0.075870760,-0.302358000,0.254526670
1640841953.688459,-0.164740880,0.282989680,10.877947810,-0.075437130,-0.322760670,0.239041450
1640841953.688939,-0.322496290,0.033332390,11.245118140,0.027905410,-0.415952590,0.236935960
1640841953.693420,-0.669503270,-0.052041430,11.572774890,0.019788740,-0.283300880,0.187043860
1640841953.693910,-0.315989380,0.012016570,10.626666070,-0.062383720,-0.280624660,0.187145170
1640841953.698449,-0.507447000,0.130264760,11.903555870,-0.095979870,-0.390678730,0.199678570
1640841953.699090,-0.173889550,0.352784370,11.345671650,-0.105872740,-0.298802580,0.176788880
1640841953.703580,0.258054410,0.746544000,10.638898850,-0.065276030,-0.343096260,0.173331810
