timestamp,accel_x,accel_y,accel_z,gyro_x,gyro_y,gyro_z
1640834506754439936,0.017382060,0.127439810,9.393442150,-0.019621850,-0.011275710,-0.022409860
1640834506756559872,-0.278306100,0.144170240,10.536150930,-0.046584010,0.052221120,-0.020496550
1640834506764089856,0.151442590,0.344843980,9.463294980,-0.032621620,0.044664730,-0.026719270
1640834506764709888,-0.107999190,-0.002742500,10.624331470,0.067526110,0.004994870,-0.000506640
1640834506765319936,-0.136709620,-0.054494080,9.933568000,0.117068000,0.112956760,-0.023747980
1640834506765709824,-0.153197850,-0.028251780,9.393690110,0.078253460,-0.028489530,-0.033864380
1640834506766080000,-0.586824300,-0.072057710,9.791665080,0.021366780,-0.004710260,0.003941360
1640834506766389760,-0.198498500,0.195554570,8.547460560,-0.025415420,0.026303530,-0.039324160
1640834506768569856,-0.381888810,0.472816080,10.124451640,0.001010300,0.003997980,-0.036993620
1640834506769110016,-0.207748770,0.813198920,10.374420170,0.027863680,0.131727760,-0.012525920
1640834506773939968,0.101689550,0.759479880,10.406526570,0.040638450,0.011758510,-0.028268990
1640834506777129984,-0.243624630,0.615234670,11.099660870,0.056616970,-0.026509170,-0.003266330
1640834506780169984,0.089242730,0.675298810,8.956526760,0.005048510,-0.017115480,-0.010067220
1640834506780570112,-0.219843420,0.384404240,9.294716840,-0.037050250,-0.072218480,-0.013278420
1640834506783599872,-0.211727290,0.588783090,9.152911190,-0.063088540,0.076550250,-0.004339220
1640834506787779840,0.193841080,0.585872290,9.116393090,-0.078912080,0.055822740,-0.022001570
1640834506789219840,-0.173726190,0.315872970,11.320437430,-0.029648840,0.051479040,-0.007440150
1640834506790129920,0.118979190,0.451622750,10.302377700,-0.008155410,0.051374730,-0.019052620
1640834506796869888,-0.154328120,0.280731920,10.361666680,-0.030213590,-0.122934570,-0.010517240
1640834506798179840,-0.365304470,0.265425620,9.675913810,-0.084720550,0.003831090,0.005589430
1640834506798939904,0.139025030,0.314917150,8.215771680,-0.119933490,0.053046650,-0.027702750
1640834506799959808,-0.275430530,0.152030930,10.049144740,-0.069162260,0.058957930,-0.016762320
1640834506803920128,0.077794530,0.333127980,9.509637830,-0.034546850,0.109204660,-0.011920930
1640834506804719872,0.128970380,0.196639050,10.135554310,-0.025257460,-0.059059250,-0.017328560
1640834506808790016,-0.276311400,0.074650650,10.707597730,-0.052335870,-0.000829990,0.028860570
1640834506810739968,0.126978220,-0.045233040,9.187367440,-0.065465270,0.015151500,0.010830160
1640834506814099968,-0.223356070,-0.431807070,10.248212810,-0.013659900,0.019030270,-0.015845900
1640834506815719936,-0.067063540,-0.173533130,9.380376820,0.021786990,0.121334210,-0.027196110
1640834506818639872,-0.061571290,-0.052153360,9.349993710,0.015363100,-0.013794010,-0.043626130
1640834506821389824,-0.510391120,-0.065694290,10.029983520,-0.018738210,-0.021237140,-0.008603930
1640834506823920128,-0.107522580,0.176678820,8.859627720,-0.018668180,-0.009442870,-0.018651790
1640834506826139904,-0.460802670,0.003543040,10.349509240,0.029742720,-0.012937190,-0.008723140
1640834506828539904,-0.220646170,0.120134130,10.178569790,0.065551700,0.096505890,0.014244020
1640834506829030144,0.053936730,0.166519910,10.036670680,0.075739630,0.010971720,-0.024913250
1640834506834080000,-0.263743610,0.176469210,10.402220730,0.020974880,0.003494320,-0.008051100
1640834506837839872,0.085930900,0.312344880,8.889933590,0.006231670,-0.024174160,0.012782220
1640834506838969856,-0.337164250,0.065451560,9.530110360,0.052757560,-0.082254390,-0.020684300
1640834506839419904,-0.325020340,0.296799090,9.391078000,0.071991990,0.018407400,-0.006946920
1640834506843819776,-0.101495590,0.384248790,9.767183300,0.066280360,0.020521880,-0.006610160
1640834506846009856,-0.350265470,0.243765730,11.188365940,0.028821830,0.039272010,-0.014688080
1640834506849819904,0.013336870,0.656023620,10.215455060,0.010856990,-0.003968180,0.002010170
1640834506853459712,-0.137723270,0.651138480,10.065384860,0.011800230,-0.095799550,0.001575050
1640834506854980096,-0.122418850,0.654677270,9.205735210,-0.019362570,-0.016008320,-0.011956690
1640834506855510016,0.126499470,0.910015580,8.645872120,0.000156460,-0.006429850,-0.013689690
1640834506859599872,-0.162775070,0.613099160,9.943943020,-0.021542610,0.041338810,-0.002765660
1640834506861159936,0.120748620,0.547989370,9.963568690,-0.031334160,0.042077900,0.013493000
1640834506864559872,-0.106487940,0.396422480,10.746894840,-0.031234330,-0.056709350,0.010004640
1640834506867399936,-0.192758740,0.107738770,10.216158870,-0.072126110,-0.034664570,0.020067400
1640834506868519936,0.113024380,0.033311140,9.145779610,-0.033020970,-0.027228900,-0.007437170
1640834506869099776,-0.140552300,-0.101363350,9.700412750,-0.021675230,0.049096350,-0.047056370
1640834506873719808,0.206530120,0.130299910,9.059196470,-0.033934410,0.070258970,-0.018836550
1640834506877709824,-0.041898250,0.093195590,9.928025250,-0.017397110,-0.032536690,0.003902610
1640834506878959872,-0.224150550,0.069647480,9.895224570,-0.046689810,-0.017890330,0.017921630
1640834506879439872,-0.113403340,0.159896540,9.474997520,-0.013054910,-0.058925150,0.043231250
1640834506883829760,-0.447758560,-0.097817010,10.365894320,0.005619230,0.024807450,0.013844670
1640834506885329920,0.031514350,0.051992640,9.574567790,0.008875130,0.080512480,-0.020280490
1640834506888839936,-0.028361670,0.136694390,10.095537190,0.036577870,-0.000116230,-0.031325210
1640834506890919936,-0.010840360,0.213143570,9.679854390,-0.015349690,0.032310190,-0.028283890
1640834506893559808,0.149976860,0.273270880,8.980259900,-0.009065870,-0.054335600,-0.006273390
1640834506894249984,-0.380850170,0.038150520,9.842761990,0.018277770,-0.041382020,0.007116790
1640834506899549952,-0.143853100,-0.005065470,9.261139870,0.039829320,0.026652210,0.007352230
1640834506900889856,-0.265441570,-0.155839990,10.355232240,0.096550590,0.015948710,-0.008629260
1640834506903579904,-0.319432970,0.020372310,10.648970600,0.041775420,0.058627140,-0.012606380
1640834506904209920,0.050087720,0.305232290,9.702200890,-0.006529690,-0.029644370,-0.002427400
1640834506909189888,-0.185772900,0.294517790,9.983613970,0.001743440,-0.035715100,0.007505720
1640834506910859776,-0.024184510,0.544598460,9.029171940,0.013887880,0.014120340,-0.013192000
1640834506913669888,-0.151341810,0.672158360,9.440281870,0.064761960,-0.043927140,0.000442560
1640834506923889920,-0.304705560,0.654979350,10.086949350,0.021415950,0.030355160,-0.002466140
1640834506926679808,0.002786850,0.663200860,9.847158430,-0.024785100,0.017602740,0.000931320
1640834506927320064,-0.237770720,0.552846790,10.853932380,-0.028002260,-0.022307040,0.017818810
1640834506927789824,0.066512730,0.438674030,9.814165120,-0.042355060,0.035813450,0.013053420
1640834506928140032,0.157287600,0.332713280,9.507875440,0.004369020,-0.040060290,-0.009144840
1640834506928560128,-0.130971730,0.403362510,9.759031300,-0.019691890,0.009331110,-0.007165970
1640834506928949760,0.080918980,0.333045720,8.877487180,-0.067648300,0.020498040,0.009122490
1640834506933619968,-0.354953440,0.072942410,10.194401740,-0.034761430,-0.044485920,0.015696880
1640834506934309888,-0.324244290,0.218392240,9.975579260,-0.041574240,0.024753810,0.015312430
1640834506938729984,-0.018886590,0.201776220,9.679871560,-0.032681230,-0.030808150,0.015018880
1640834506941019904,-0.128830810,0.087956950,10.543727870,-0.021964310,0.052037840,-0.002567470
1640834506943609856,0.318474710,0.309817430,9.461163520,-0.039178130,0.089882320,-0.023995340
1640834506944349952,0.153172190,0.229031940,9.792261120,-0.018587700,-0.045607980,0.007388000
1640834506949009920,-0.015165830,0.117963780,9.403307910,-0.028675800,0.022684040,0.021401050
1640834506949939968,-0.028672360,0.009769710,8.934184070,-0.015795230,-0.026281180,0.022506710
1640834506956409856,-0.582100570,-0.245590460,10.134430890,0.017926100,-0.022937360,0.026863810
1640834506958999808,-0.221961740,-0.183861570,9.512112620,0.001150370,0.058451300,-0.015558310
1640834506959439872,-0.195798720,-0.095182970,10.207185750,0.011143090,0.022518630,-0.045822560
1640834506959719936,-0.161584090,0.128788610,10.386313440,-0.004625320,0.060358650,-0.025342410
1640834506963840000,0.078542700,0.171966340,9.375158310,0.013098120,-0.014680620,-0.020113590
1640834506964259840,-0.303485510,0.031927110,9.610795970,0.068254770,-0.078968700,0.018341840
1640834506968600064,-0.188663530,0.065036650,8.771713260,0.068372500,-0.001060960,0.022611020
1640834506969349888,-0.303977550,-0.141857240,9.402359010,0.065065930,-0.016693770,0.013391670
1640834506974169856,-0.291290190,-0.067372830,10.298356060,0.050452350,0.041309000,-0.001727040
1640834506974909952,0.162878710,0.216728990,10.132658000,0.032165650,0.043842200,-0.034810600
1640834506978969856,0.016080880,0.319508940,10.607969280,0.051838160,-0.001385810,-0.009283420
1640834506980669952,0.073066620,0.509082080,9.694257740,0.059899700,-0.022922460,-0.007785860
1640834506984099840,-0.223803310,0.540292140,9.078807830,0.069947550,-0.085440280,-0.014646350
1640834506986089984,-0.555954580,0.562100050,9.239300730,0.058498990,-0.043924150,0.017312170
1640834506988499968,-0.451218250,0.561161160,9.297468190,0.020870570,0.003305080,0.004367530
1640834506989049856,-0.413714620,0.446595430,10.305891040,0.017890330,0.000442560,0.011296570
1640834506993579776,-0.044950370,0.562892850,10.533579830,0.007565320,0.047436360,0.017620620
1640834506994889984,0.220456720,0.463106810,10.477789880,0.012388830,-0.011509660,-0.010688600
1640834506998929920,0.217134370,0.536952910,10.052400590,0.002707540,-0.049664090,-0.014652310
1640834507000569856,0.301845430,0.635434810,8.860670090,-0.032512850,-0.046737490,-0.016635660
1640834507003589888,0.011745210,0.346998480,9.117785450,-0.031997260,-0.035589930,-0.010891260
1640834507004459776,-0.019419610,0.465027390,9.285709380,-0.028875480,0.026164950,0.014524160
1640834507009009920,-0.031684830,0.357493820,9.977575300,-0.037692490,0.024294850,0.018906600
1640834507010759936,-0.001871970,0.212757900,10.540807720,-0.056809190,0.053240360,0.025892260
1640834507014969856,0.092415240,0.280880300,10.303383830,-0.034318870,0.023062530,-0.005328660
1640834507016909824,-0.161905560,0.141233590,10.135174750,-0.031584500,-0.033013530,-0.009842220
1640834507018659840,-0.084465380,0.136015070,8.959897990,-0.020712610,-0.005440410,0.010778010
1640834507019049984,-0.265635310,-0.031761470,9.018766400,-0.009664890,-0.018444660,-0.001177190
1640834507024070144,-0.265583340,-0.047501910,9.190332410,-0.038483740,0.064638260,0.016610320
1640834507025339904,0.021901280,0.108211590,9.566389080,-0.029879810,0.044518710,0.023120640
1640834507028549888,-0.053514730,0.003115180,10.682731630,-0.029760600,0.044699020,-0.000572200
1640834507029129984,0.295095380,0.355390040,9.977654460,-0.024124980,0.032639510,-0.004144010
1640834507033749760,0.167127980,0.231865840,9.997324940,0.009034580,-0.001925230,0.003577770
1640834507034220032,0.009340030,-0.142088500,9.519688610,0.025679170,0.053757430,0.006005170
1640834507039409920,-0.108672100,-0.050759360,8.927364350,0.071439150,-0.015512110,0.010846550
1640834507040249856,-0.603811320,-0.267690510,9.298578260,0.025157630,-0.014783440,0.003425780
1640834507045850112,-0.379102080,-0.173140570,8.922503470,-0.008277600,0.036692620,-0.007498260
1640834507046540032,-0.555188000,0.033830250,10.236921310,0.021246070,0.022971630,-0.032006200
1640834507048509952,-0.331538260,0.199922350,10.514168740,0.019900500,0.053349140,-0.031344600
1640834507049649920,0.029633990,0.340228260,10.126538280,0.082087520,-0.003236530,-0.013974310
1640834507053540096,-0.170705880,0.227660070,10.233100890,0.094069560,-0.004957620,-0.010232630
1640834507054149888,0.015978740,0.253942730,8.980716710,0.070801380,-0.028376280,0.027322770
1640834507058679808,-0.263945340,0.283704220,8.983392720,0.068816540,-0.084605810,0.021339950
1640834507059289856,-0.297677840,0.317322460,9.124530790,-0.001998250,0.015297530,-0.003829600
1640834507063489792,-0.026033840,0.683047530,9.552868840,0.000856820,0.019152460,-0.007031860
1640834507064000000,-0.211736280,0.686881360,11.039726260,0.006145240,0.039592390,-0.021256510
1640834507068549888,0.157830360,0.697284940,10.542893410,0.024542210,0.016960500,-0.022102890
1640834507069429760,-0.042695930,0.796518390,10.250936510,0.062069300,-0.084798040,-0.014333430
1640834507073519872,-0.326665400,0.607264880,9.477169990,-0.025086100,-0.049789250,-0.001074370
1640834507074019840,-0.074893030,0.518195150,8.263290410,-0.062884390,-0.043115020,0.021153690
1640834507078569984,-0.425110670,0.283536550,9.480820660,-0.053863230,-0.013192000,-0.001533330
1640834507079010048,0.056241480,0.280110480,9.464901920,-0.051391120,0.091794140,0.009904800
1640834507083609856,0.209928540,0.209330020,10.421308520,0.012224910,0.015905500,0.007830560
1640834507084300032,-0.072305530,0.174057360,11.221941950,-0.033974640,-0.000298020,-0.003519650
1640834507088579840,0.321143180,0.337597370,9.443060870,-0.068213050,-0.066268430,0.002899770
1640834507089299968,-0.071752380,0.165288850,9.480445860,-0.066925590,-0.070409480,-0.000351670
1640834507094039808,0.002587470,0.154788930,8.746118550,-0.060173880,0.072284040,-0.011181830
1640834507095789824,0.058458560,0.248614940,8.871711730,0.004388390,0.028987230,-0.013597310
1640834507098820096,-0.371967410,0.142885980,10.336990360,-0.018638370,0.024317200,-0.005783140
1640834507101899776,0.069439730,0.167686160,9.539871220,-0.054432450,0.002563000,0.004389880
1640834507103549952,-0.273639650,-0.053726350,10.393243790,-0.039675830,-0.043337040,0.001497570
1640834507104120064,-0.219283250,-0.141188310,10.075987820,-0.034029790,0.051440300,0.003819170
1640834507110710016,0.037442810,-0.286744390,9.322424890,0.061412160,-0.002740320,-0.009498000
1640834507111379968,-0.255914780,-0.291898370,9.693389890,0.056454540,0.018629430,-0.027436020
1640834507113829888,0.008387120,-0.082539000,8.837493900,0.012204050,0.030496720,-0.004827980
1640834507115429888,-0.293915030,-0.158992380,9.621371270,0.015203660,-0.051240620,-0.006876890
1640834507118549760,-0.327925380,0.165280190,9.848459240,0.008465350,-0.013445320,-0.018560890
1640834507122929920,-0.119384330,0.393584100,9.686355590,0.052815670,-0.008384880,-0.002636010
1640834507123709952,-0.233364480,0.247906400,10.478994370,0.087700780,0.032605220,-0.017033520
1640834507124069888,0.058412920,0.513183060,10.033434870,0.061853240,0.052361200,-0.021331020
1640834507128859904,-0.160797030,0.485659210,9.903092380,0.048632920,-0.045609480,0.001427530
1640834507129720064,-0.251038100,0.408926460,9.393930440,0.005297360,-0.065751380,-0.013272470
1640834507134320128,-0.207992880,0.625991050,8.624111180,0.011901560,-0.065827360,-0.024841730
1640834507135010048,-0.327444910,0.672668760,9.346145630,-0.013023620,-0.001701710,-0.013506410
1640834507139729920,-0.095549320,0.615419330,10.183714870,-0.040560960,0.091575090,-0.013035540
1640834507141369856,-0.069855430,0.581801300,10.963518140,0.020062930,-0.003030900,-0.007109340
1640834507143620096,-0.082801570,0.514752630,10.715009690,0.006471570,-0.078031410,0.002381210
1640834507144480000,0.126246690,0.439444120,9.195746420,-0.035820900,-0.064030290,-0.012381380
1640834507148919808,-0.082833330,0.432513800,8.966339110,-0.065037590,-0.038869680,-0.018192830
1640834507149689856,-0.024179270,0.480110140,8.936965940,-0.102914880,0.048959260,-0.010351840
1640834507153799936,0.032196550,0.344332460,9.580987930,-0.045464930,0.035889440,-0.007542970
1640834507155759872,-0.143317770,0.408808410,10.606125830,-0.027377900,-0.015239420,-0.008881090
1640834507158599936,-0.016770060,0.437462330,10.245691300,-0.051902250,-0.041970610,0.005929170
1640834507159089920,-0.121747690,0.162827860,10.027648930,-0.084099170,-0.035470720,0.013627110
1640834507163599872,0.037273690,0.051436630,9.461513520,-0.089828680,0.031335650,-0.007224080
1640834507164339968,0.128761980,-0.020769020,9.285099980,-0.026287140,0.045569240,-0.016789140
1640834507168629760,-0.029802380,0.070600460,9.382298470,-0.022917990,0.014983120,-0.001591440
1640834507169119744,-0.044939550,0.080784020,9.325180050,-0.061060490,-0.031231350,0.007015470
1640834507173600000,-0.295583720,-0.055398300,9.814216610,-0.071600090,-0.038516520,0.011606520
1640834507174739712,-0.271076440,-0.085994370,9.889361380,-0.047960870,0.006568430,-0.004599990
1640834507178639872,-0.142801760,-0.226389050,10.156363490,0.029623510,0.030355160,-0.033088030
1640834507179569920,-0.009513550,0.006351970,9.965311050,0.035126510,0.069385770,-0.037585200
1640834507183519744,0.053950970,0.138256430,9.637507440,-0.003400450,0.015015900,-0.014357270
1640834507185070080,-0.156677770,0.001627690,9.462158200,-0.018084050,-0.040522220,0.012922290
1640834507188609792,-0.311827270,0.081887110,8.864410400,0.006903710,-0.094573210,0.013020640
1640834507191049728,-0.444611820,-0.075332780,9.251022340,0.053618840,-0.033389020,0.001108650
1640834507193679872,-0.278206680,0.004372720,9.891018870,0.073139370,0.072151430,-0.006923080
1640834507194049792,-0.144927770,0.241844590,10.736779210,0.051213790,0.052574270,-0.030484790
1640834507198969856,-0.052000950,0.321952640,10.680840490,0.002665820,-0.005424020,-0.011934340
1640834507201059840,0.116406450,0.489047260,9.493113520,-0.001806020,-0.065170210,0.006215270
1640834507204310016,-0.218413030,0.316009550,9.129806520,0.048141180,-0.083942720,-0.008106230
1640834507204979968,-0.232622800,0.341467020,8.687539100,0.062933570,-0.022321940,-0.006754700
1640834507209359872,-0.295356600,0.428941250,9.514147760,0.064098830,-0.013129420,-0.011165440
1640834507211619840,-0.296900000,0.372352150,10.614993100,0.006183980,0.030049680,-0.017736850
1640834507213499904,0.070391450,0.696596500,10.553092000,-0.056812180,0.009390710,0.001001360
1640834507214949888,-0.036757600,0.654920700,10.711071970,-0.047123440,-0.053256750,0.010329480
1640834507224999936,0.076837360,0.543547390,9.672045710,-0.005936620,-0.042054060,-0.006288290
1640834507225789952,0.035085110,0.751098160,8.774153710,0.029642880,-0.065234310,-0.018315020
1640834507226429952,-0.340682510,0.533257600,9.315146450,-0.029218200,-0.025612120,-0.000488760
1640834507226759936,-0.126315090,0.474042710,9.266686440,-0.088945040,0.014780460,0.016517940
1640834507228930048,-0.229892050,0.421436610,10.271653180,-0.092761220,-0.034746530,0.010222200
1640834507229459968,-0.074476570,0.307255450,10.630711560,-0.095246720,0.028614700,0.019267200
1640834507233979904,0.352680090,0.344909880,9.977404590,-0.050540270,0.023022300,-0.005237760
1640834507234759680,0.043526860,0.222057770,10.335511210,-0.048771500,-0.028225790,-0.029601160
1640834507238829824,0.198671220,0.246901770,9.146085740,-0.078353280,-0.008736550,-0.009782610
1640834507240699904,0.000382590,0.021858370,8.893648150,-0.064814100,-0.061708700,-0.000177320
1640834507243599872,-0.332250390,-0.114098340,9.480692860,-0.069503470,-0.011886660,0.013291830
1640834507244129792,0.027787320,0.107955490,9.079367640,-0.057981910,0.037315490,0.022870300
1640834507249049856,-0.179960800,-0.050883380,10.519811630,-0.071525570,0.053593530,-0.002890830
1640834507251059968,0.115796880,0.237903700,10.612988470,-0.064252320,0.070588300,-0.012917820
1640834507253700096,0.141660840,0.353892390,9.995001790,-0.030833480,-0.042848290,-0.026138130
1640834507254619904,-0.064407490,0.088560660,9.522040370,-0.039215390,-0.030227010,-0.013516840
1640834507262719744,-0.012423850,0.105690710,8.571581840,0.001387300,0.022007530,-0.005760790
1640834507263589888,-0.489890010,-0.220836130,9.287057880,0.003176930,0.007200240,-0.012330710
1640834507263889920,-0.413964780,-0.164800930,9.588304520,-0.019124150,0.030186770,0.005203490
1640834507264629760,-0.267343880,-0.074832690,9.854485510,-0.019630790,0.011141600,-0.006285310
1640834507268960000,-0.247112420,-0.102768320,10.623208050,-0.041928890,0.035762790,-0.017789010
1640834507269760000,0.138610650,0.087930920,10.153332710,0.012445450,0.035637620,-0.006189940
1640834507273559808,0.065735560,-0.264386240,9.817758560,0.075237460,0.002318620,-0.019255280
1640834507274080000,0.152583390,-0.422675760,9.306224820,0.112707920,0.008228420,-0.013282900
1640834507278429952,0.028423510,-0.511555370,8.932553290,0.142595190,0.003872810,-0.000849370
1640834507278959872,-0.058521530,-0.805404600,9.313050270,0.105164960,0.001937150,-0.009705130
1640834507283619840,0.024399240,-0.512100160,9.948415760,0.119568410,0.058190520,0.007787350
1640834507285019904,-0.103342860,-0.297923000,10.377939220,0.138896700,0.067867340,0.005120040
1640834507289949952,-0.044357500,-0.036496530,10.771888730,0.158859790,0.022977600,0.008656080
1640834507290710016,-0.212101010,0.579525650,10.135087010,0.196351130,0.021471080,0.006696580
1640834507294409984,-0.335448240,0.827016470,9.301832200,0.138111410,-0.046335160,0.003859400
1640834507295569920,-0.369012210,1.061763880,9.083538060,0.125172700,-0.009962910,0.029364230
1640834507299379712,-0.152793290,1.124499800,8.690674780,0.111678260,0.092910240,0.011065600
1640834507302379776,0.085627060,0.945604860,10.081914900,0.081081670,0.080771740,0.018668170
1640834507303750144,0.321428330,0.673121510,10.585333820,0.125911830,0.125610840,0.044110420
1640834507304359936,0.567524970,0.107943640,10.380501750,0.117616360,0.026904050,0.000645220
1640834507309020160,0.181299980,-0.083066970,10.532197000,0.115174060,0.005973880,0.014589730
1640834507309619968,0.075238380,-0.208847340,8.797812460,0.089254960,0.003181400,0.004014370
1640834507313989888,-0.096875920,-0.481010320,8.808900830,0.060051690,-0.005641580,-0.025112930
1640834507315670016,-0.344845060,-0.033040620,9.136242870,0.105114290,0.161433230,-0.014595690
1640834507318619904,-0.324237910,0.127660240,9.749193190,0.102984910,0.096404550,-0.016815960
1640834507319689984,-0.542142930,0.395773920,11.026288030,0.112457600,0.010113420,0.007714330
1640834507323889920,-0.242177890,0.827153800,9.844300270,0.088171670,0.019672510,0.013042990
1640834507324819968,-0.038437710,0.472989350,9.711335180,0.069251660,0.039610270,0.023053590
1640834507328620032,0.054054010,0.391299870,9.596276280,0.142201830,0.144886970,0.005690750
1640834507329009920,0.354764580,0.325797140,9.074444770,0.154760490,0.103266540,-0.024496020
1640834507334259968,0.162760940,0.130629760,9.818415640,0.112617040,0.060957680,-0.003901120
1640834507335899904,0.065540600,0.175177440,9.336140630,0.064264240,0.041998920,-0.008876620
1640834507339099904,-0.184368880,-0.043299820,9.739824300,0.033217670,-0.010651350,-0.028486550
1640834507342329856,-0.512983860,-0.069628060,10.149888990,0.118283940,0.092716540,-0.010274350
1640834507343439872,-0.439549240,0.022803870,10.021473880,0.177495170,0.087262680,-0.039237730
1640834507343940096,-0.555564340,0.366112230,10.565732960,0.136774780,0.042910870,-0.020135940
1640834507349200128,-0.322652760,0.741977870,9.459264760,0.065149370,0.048257420,0.020310290
1640834507351579904,-0.085167390,0.647091870,9.318544390,0.012975930,0.009685750,0.007887180
1640834507353529856,-0.098131820,0.881760360,9.503410340,0.058324630,0.067932890,0.008110700
1640834507356740096,0.195382070,0.872047900,9.414242740,0.099734960,0.067779420,0.017292800
1640834507358479872,0.254954900,0.567120430,10.395572660,0.085818770,0.083719190,0.001579520
1640834507358949888,0.176725510,0.595496060,10.426692960,0.057901450,0.083063540,0.007535520
1640834507364569856,0.213152870,0.292429830,10.060108180,-0.017824770,0.010079150,0.013421480
1640834507365349888,-0.019590720,0.017937060,9.511868480,0.003114340,0.039026140,-0.010684130
1640834507369050112,-0.130282430,0.211082470,8.851422310,0.050236280,0.061394270,-0.032103050
1640834507370569984,-0.390441360,0.193249610,9.350578310,0.035850710,0.081679220,-0.010409950
1640834507373949952,-0.572426920,0.209352540,9.698807720,0.035132470,0.075440110,0.006693600
1640834507375910144,-0.517950000,0.313383850,10.234792710,0.003784900,0.000910460,0.017642970
1640834507379319808,-0.397916230,0.240436150,10.171263690,0.007215140,0.050421060,0.028270480
1640834507381059840,0.014464290,0.200354550,9.732714650,0.034272670,0.074262930,-0.001654030
1640834507383999744,0.361495940,0.328752990,9.918682100,0.039547680,0.114740450,-0.026841460
1640834507386540032,0.587295110,0.266646060,9.282735820,0.043098620,0.128272150,-0.016145410
1640834507388509952,0.519989910,0.087262090,9.449889180,0.029900670,0.038577620,-0.007496770
1640834507388989952,0.145918030,-0.108041660,9.491316800,0.049914420,0.039239230,0.017759200
1640834507393730048,-0.088149260,-0.318195790,9.116321560,0.077126920,0.032806400,0.019064550
1640834507395020032,-0.450838090,-0.397415940,10.118059160,0.082889210,0.081069770,-0.005778670
1640834507399030016,-0.574815210,-0.219966920,9.936201100,0.086231530,0.136671980,-0.027915840
1640834507400679936,-0.504095670,0.005664080,10.067757610,0.071184340,0.049763920,-0.039386750
1640834507403640064,-0.664156850,0.266366180,9.999354360,0.087432550,0.068686910,-0.017489490
1640834507404369920,-0.471723680,0.391559990,8.937008860,0.100952390,-0.004273650,-0.012926760
1640834507408999936,-0.414966320,0.500183170,9.431084630,0.115567450,-0.025185940,-0.002010170
1640834507409709824,-0.063214360,0.520613790,9.096164700,0.101785360,0.125327720,0.007089970
1640834507413639936,0.359217410,0.367941650,10.137866970,0.094832480,0.096461180,-0.007475910
1640834507414589952,0.410094680,0.517062960,11.018565180,0.090138630,0.117115680,-0.001214440
1640834507418680064,0.583365740,0.461029740,9.852560040,0.062945490,0.034751000,0.000728670
1640834507419270144,0.237921040,0.303726700,9.906496050,0.079119210,-0.037887700,0.008662050
1640834507424179968,-0.287098710,0.348773810,8.873360630,0.081524250,0.035437950,-0.015631320
1640834507426829824,-0.541840310,0.402590810,8.880130770,0.059227650,-0.007663670,-0.013475120
1640834507428579840,-0.953503430,0.517594750,10.132382390,0.039741390,0.084541730,-0.004750490
1640834507429219840,-0.701935770,0.775356830,9.926956180,0.001373890,0.077106070,-0.025296220
1640834507433809920,-0.522057240,1.030387520,10.860642430,-0.027571620,0.011089440,0.004281100
1640834507434319872,-0.250647960,0.978665230,10.164423940,-0.029625000,0.065718600,-0.008709730
1640834507438720000,0.284081370,0.867981260,9.193527220,-0.020314750,-0.013352930,-0.037194780
1640834507439289856,0.291464660,0.801273050,9.500281330,0.005811450,0.063718860,-0.001329180
1640834507443949824,0.398740680,0.317308840,9.057578090,-0.031918280,0.085110950,0.006873910
1640834507444979968,0.357387040,0.090953080,9.947320940,-0.058545180,-0.019049650,0.028982760
1640834507448999936,0.122428640,-0.022151340,10.005172730,-0.075341750,0.062553570,0.042736530
1640834507451609856,0.268606900,-0.257189810,9.600645070,-0.082923470,0.070749230,0.003281240
1640834507453629952,-0.160144270,0.014640630,10.505960460,-0.030405830,0.077292320,-0.025859480
1640834507454569728,-0.410419020,0.196533990,9.805588720,-0.028151270,0.078870350,-0.042420620
1640834507459360000,-0.436749310,0.281077680,9.310634610,-0.033971670,-0.039631130,-0.018148130
1640834507460919808,-0.848896800,0.401520640,9.288901330,-0.034394870,0.021626060,-0.000055130
1640834507463559936,-0.613986310,0.288746120,8.822909360,-0.061985860,0.031399730,0.011427700
1640834507464029952,-0.493470190,0.297872390,9.951361660,-0.019842390,0.033321980,0.012169780
1640834507468869888,-0.073417830,0.218185440,10.070828440,-0.015367570,0.121577080,-0.021053850
1640834507469430016,0.582893190,0.334683210,10.078323360,-0.038178270,0.047706070,-0.007812680
1640834507473559808,0.361380340,0.110524560,10.435767170,-0.030088420,0.064463910,0.015515090
1640834507474680064,0.387669620,-0.321429970,9.238559720,-0.003166500,0.003583730,-0.007833540
1640834507478459904,-0.141683470,-0.309997200,9.286825180,0.063060220,-0.075346230,0.007885690
1640834507478929920,-0.540740130,-0.427616950,8.856897350,0.037853410,0.022177400,-0.012530390
1640834507483670016,-0.430571940,-0.173542480,9.312021260,-0.005859140,0.025063760,-0.026121740
1640834507484439808,-0.792210340,0.405885550,10.801239010,-0.021736320,0.094394390,-0.024783610
1640834507488910080,-0.424135740,0.642506720,10.409763340,-0.048987580,0.043068830,-0.018975140
1640834507490520064,-0.414561660,0.919858810,10.547299390,0.029154120,-0.072039670,-0.001537800
1640834507494200064,-0.380349430,0.950994910,9.369405750,0.051672760,-0.024287400,-0.016282500
1640834507497099776,-0.074763490,0.714988530,8.665670390,0.017860530,-0.048530090,0.007928910
1640834507498779904,-0.296819660,0.611736240,9.499363900,-0.007721780,-0.013732910,0.008599460
1640834507499279872,0.206254380,0.300549830,9.335995670,-0.076259680,0.039969380,-0.005912780
1640834507503849984,0.336183940,0.352236240,10.484039310,-0.073029100,0.023035710,0.024312730
1640834507504410112,0.105289860,0.230682690,10.869735720,-0.057248780,0.032243130,-0.003017490
1640834507509110016,0.253349040,0.162936550,9.999563220,-0.047068300,-0.074690590,-0.034238400
1640834507511369984,-0.315106870,0.404271630,9.710979460,-0.020894410,-0.070677700,-0.017887350
1640834507513459968,-0.521365760,0.173450010,8.876668930,-0.060771410,-0.038473310,-0.025853510
1640834507514040064,-0.435556950,0.413818840,9.004040720,-0.070744750,-0.027853250,-0.002974270
1640834507522859776,-0.543752010,0.620165050,9.609238620,-0.102078910,0.052566830,0.016914310
1640834507523529984,-0.010567760,0.472441730,10.076968190,-0.121736550,0.032198440,0.025717920
1640834507523799808,0.039646460,0.613553640,10.720415120,-0.058467700,0.004845860,-0.006358330
1640834507524059904,0.145152700,0.551970360,9.950921060,-0.077639510,-0.059323010,-0.021629040
1640834507528600064,0.334790920,0.208400100,9.386803630,-0.069895370,-0.055857000,0.007700920
1640834507530299904,0.089310960,-0.063460370,8.954424860,-0.045958170,0.038771340,-0.019226970
1640834507533639936,0.015033890,-0.267955060,9.191344260,-0.074034940,-0.002077220,-0.002323090
1640834507534639872,-0.220559950,-0.240760710,9.756151200,-0.064997380,0.010658800,0.021888310
1640834507538990080,-0.338247060,-0.393072610,9.749184610,-0.078992550,-0.019896030,-0.025552520
1640834507540199936,-0.409046470,-0.127054240,10.449430470,-0.045602020,-0.064042220,-0.013388700
1640834507543479808,-0.474339160,-0.001134630,9.962977410,0.005179640,0.029411910,-0.010080640
1640834507543979776,-0.247381020,-0.079862460,9.903253560,0.012564660,-0.026746100,-0.037407880
1640834507548430080,-0.346470800,0.476382490,10.022451400,0.027143950,0.002527240,-0.002659860
1640834507548989952,-0.191298440,0.565415920,8.925299640,-0.052967680,-0.039914250,-0.008301440
1640834507553839872,-0.200681480,0.575083970,9.570128440,-0.072973970,-0.102943190,0.000071530
1640834507554870016,-0.083492410,0.857288780,9.260578160,-0.043039030,0.004601480,-0.018982590
1640834507558490112,0.049603240,0.603965640,9.977966310,-0.040607160,-0.015760960,-0.027285520
1640834507558929920,-0.076488470,0.518834410,11.128047940,0.002956390,0.022035830,0.005584950
1640834507563660032,0.069177540,0.358407650,10.077630040,-0.025270880,-0.039133430,-0.022245950
1640834507564149760,-0.144784510,0.224076000,10.129838940,-0.082124790,-0.137968380,0.010557470
1640834507568640000,-0.244123070,0.202972160,8.842153550,-0.093436250,-0.020881000,0.005893410
1640834507572209920,-0.205365870,-0.023039090,8.728281970,-0.084751840,-0.063343350,-0.046858200
1640834507573730048,-0.438437040,0.315172050,10.146611210,-0.031989820,-0.008867680,-0.009594860
1640834507574390016,-0.056524910,0.395109240,9.489388470,-0.047053400,0.021487470,-0.016765300
1640834507578459904,-0.092462600,0.325018970,10.894591330,-0.081779060,-0.073307740,-0.004595520
1640834507578929920,-0.047396160,0.706493140,10.414075850,-0.080987800,-0.003653760,0.031286480
1640834507583569920,0.258208930,0.386228110,9.162975310,-0.107343520,-0.103449840,0.010447210
1640834507584319744,0.135460050,0.320496380,9.643308640,-0.069794040,-0.047130880,0.005890430
1640834507588509952,0.406543640,0.311233040,8.390548710,-0.045532000,0.090977570,-0.008606910
1640834507589069824,0.117145620,-0.192097870,10.004697800,-0.045493250,-0.033220650,-0.004616380
1640834507593509888,-0.314821570,-0.127360540,10.461582180,-0.040738280,-0.018823150,0.016665460
1640834507594039808,-0.188407600,-0.337491510,9.251988410,-0.070959340,-0.117734080,-0.004062060
1640834507598469888,-0.630389690,-0.448957350,10.395009990,-0.042831890,-0.057964020,0.008328260
1640834507599040000,-0.303911890,-0.066444630,9.226708410,-0.015546380,0.076980910,-0.034575180
1640834507603809792,-0.050545160,0.001921100,9.785474780,-0.000742080,-0.014607610,-0.030429660
1640834507606169856,-0.210924040,0.320082370,10.370305060,0.016696750,0.049002470,0.014595690
1640834507608519936,0.164224920,0.396200950,9.076828000,-0.007063150,-0.062328580,-0.005556640
1640834507608950016,-0.291941970,0.330443140,10.126574520,-0.007821620,-0.149640430,0.019343200
1640834507613539840,-0.188210350,0.506531830,8.979493140,0.000497700,0.011499230,0.013427440
1640834507614039808,-0.057997480,0.336605910,9.757153510,-0.006681680,-0.035156310,-0.022922460
1640834507619119872,-0.258838300,0.553908530,10.909817700,-0.007434190,0.055685640,0.004100800
1640834507620209920,0.288199780,0.607207120,9.637944220,-0.051461160,0.021043420,-0.004051630
1640834507623960064,-0.080815380,0.205096860,10.658357620,-0.037033860,-0.100031500,0.002841650
1640834507624489984,-0.239263850,0.368644450,9.314228060,-0.006143750,-0.031562150,-0.007240470
1640834507628460032,-0.272206280,0.241042910,8.870299340,-0.021786990,-0.124365110,-0.023099780
1640834507628969984,-0.760042190,0.175859700,10.073601720,-0.031945110,-0.036337980,0.007313490
1640834507633519872,-0.234035640,0.507362720,9.207163810,-0.064501160,0.020098680,0.004482270
1640834507635079936,-0.160601320,0.446284290,10.766832350,-0.084228820,-0.028289850,0.036320080
1640834507638629888,0.043567400,0.591452120,10.452435490,-0.063891710,0.043529280,0.037160520
1640834507639369984,0.401041840,0.603916290,9.739295010,-0.053584580,-0.083854800,-0.019276140
1640834507643520000,-0.020690080,0.465137510,10.075567250,-0.044688580,-0.093036880,-0.002010170
1640834507644049920,0.186186460,0.374430510,8.564593320,-0.056196750,-0.019960110,-0.011418760
1640834507648460032,-0.018907680,0.115204670,9.625201230,-0.070035470,-0.047700110,-0.015445060
1640834507649070080,-0.236394260,0.194898130,9.747727390,-0.089231140,0.051392610,0.033366680
1640834507653939968,0.105125000,0.066519940,9.572918890,-0.086356700,-0.026738650,0.024323170
1640834507655099904,-0.292306780,-0.172774420,10.819975850,-0.051108000,-0.012639160,0.017975270
1640834507658579712,-0.048177880,0.000102180,9.449143410,-0.017687680,-0.012890990,0.011996920
1640834507658949888,-0.153247710,-0.339584740,9.937058450,0.006322560,-0.088730450,-0.003373620
1640834507663470080,-0.294700320,-0.277419600,9.414476390,0.005505980,0.037838520,-0.016404690
1640834507663990016,0.005975650,0.065552500,8.868620870,-0.024777650,-0.020740930,-0.021876400
1640834507668999936,-0.484693800,0.042685850,10.418136600,-0.033898650,-0.027647620,0.003059210
1640834507670029824,-0.031780300,0.412743540,9.154430390,-0.024002790,-0.016850230,0.002601740
1640834507673479936,0.022971650,0.462015150,10.171628000,0.011326370,-0.075694920,0.005505980
1640834507673969920,-0.131948950,0.292789670,10.396411900,0.027014320,0.077727440,0.021013620
1640834507678459904,0.223184290,0.194680450,9.639757160,0.053612890,-0.029994550,-0.002045930
1640834507679020032,-0.342926030,0.113234030,10.614529610,0.040909650,-0.073696670,0.009623170
1640834507683729920,-0.220076740,0.298767810,8.652528760,-0.031736500,-0.038239370,0.011762980
1640834507684949760,-0.318919720,0.364469680,9.279762270,-0.054325160,-0.131303060,-0.012487170
1640834507688809984,-0.577453260,0.531577410,10.023570060,-0.047394630,0.043237210,-0.003547970
1640834507689639680,-0.089609850,0.656651620,9.674451830,0.004741550,0.000813600,-0.009937590
1640834507693449984,-0.425267580,0.488931690,11.655505180,0.039559610,-0.057736050,-0.001525880
1640834507694020096,-0.003441410,0.643422480,9.795470240,-0.004297500,-0.023828450,0.017517810
1640834507698710016,0.162378270,0.508848010,9.501435280,-0.052519150,-0.144964460,0.032033030
1640834507699790080,-0.154999320,0.337718490,9.701781270,-0.091505070,0.003440680,0.017105040
1640834507703559936,0.437685490,0.511037950,8.279343610,-0.083185730,-0.014224650,-0.004452470
1640834507704160000,-0.027804940,0.384221050,10.512122150,-0.043182080,-0.046570610,-0.001420080
1640834507708489984,-0.025593090,0.384588390,9.933022500,-0.056859860,0.056789820,0.011071560
1640834507708940032,-0.020763690,0.282306790,10.211812020,-0.046673410,-0.155681340,0.013709070
1640834507713649920,-0.538287760,0.070879970,10.664065360,-0.063557920,-0.049939760,0.030827530
1640834507714619904,0.179381160,0.064133080,8.369782450,-0.082655260,0.016872590,0.014486910
1640834507719929856,-0.109788260,0.042857060,10.191923140,-0.037440660,-0.027105210,-0.015749040
1640834507720460032,0.010074440,0.291712850,9.488875390,-0.062245120,0.094778840,-0.004713240
1640834507723660032,0.336518880,0.210688380,9.157958030,-0.047378250,-0.096754740,0.009673830
1640834507724000000,-0.459034260,0.019265730,10.722202300,-0.033949320,-0.066629050,0.020377340
1640834507728529920,0.053318750,0.048612630,8.780476570,-0.045254830,-0.021165610,0.022006030
1640834507729059840,-0.256002780,-0.306347160,10.312960620,0.023828450,-0.071327400,0.013013190
1640834507733479936,-0.216250300,-0.193503990,10.152584080,0.011144580,0.119231650,-0.011578200
1640834507735419904,0.396626260,0.142558950,9.239869120,-0.011281670,-0.017517810,-0.000876190
1640834507739049984,-0.261460720,0.026854080,10.694853780,-0.018264360,-0.022700430,0.030007960
1640834507739389952,0.036546030,0.140540540,8.838017460,-0.007276240,-0.012810530,0.015574690
1640834507743490048,-0.450949010,0.111529360,9.620113370,0.079953660,-0.173631300,0.015339250
1640834507744079872,-0.704867240,0.167852700,9.749518390,0.060956180,0.020234290,0.009287890
1640834507748479744,-0.020256000,0.466661720,9.260590550,0.013111530,0.023087860,-0.008763370
1640834507749009920,-0.408983500,0.556287710,11.454661370,-0.018391010,0.023174290,0.005574520
1640834507753609984,0.193040010,0.748295960,10.028058050,-0.050224360,0.039297350,0.006449220
1640834507754119936,0.321148160,0.718763530,9.685504910,0.014410910,-0.136534870,0.000198190
1640834507758449920,-0.117700340,0.694770750,9.569993970,0.017741320,-0.034725670,-0.000773370
1640834507758970112,0.150124220,0.601607920,8.383989330,-0.015644730,-0.016774240,0.014568870
1640834507763500032,-0.406234860,0.201790480,10.317793850,-0.022207200,-0.039319700,0.034733120
1640834507764009984,-0.175233070,0.262245480,10.157916070,-0.061060500,0.058725480,0.035995260
1640834507768640000,0.082308110,0.199682190,10.219483380,-0.044228130,-0.031217930,0.038082890
1640834507769179904,-0.277298330,0.092262790,10.803928380,-0.041921430,-0.006332990,0.009407100
1640834507773530112,0.146267640,0.400614080,9.131364820,-0.054210430,-0.024494530,-0.024802980
1640834507774070016,-0.153963850,0.326922600,9.471480370,-0.019177790,-0.078232590,-0.004649160
1640834507778699776,-0.210141440,0.315135480,9.142319680,-0.034689910,0.031778220,-0.000150500
1640834507779209728,-0.019521370,0.471724840,9.215969090,-0.034622840,-0.021179020,0.015108290
1640834507783599872,-0.212495210,0.436749640,10.296728130,-0.073291360,0.024549660,0.055809320
1640834507784289792,0.276405390,0.348130610,9.839604380,-0.092378250,0.054475670,0.026962160
1640834507788539904,0.258587720,0.323893460,10.428425790,-0.040437280,-0.000120700,0.016805530
1640834507789809920,0.181473720,0.214289670,9.899566650,-0.030317900,0.038839880,0.016741450
1640834507793619968,0.172018330,-0.164603890,9.278931620,-0.001378360,-0.036354360,-0.005744400
1640834507794790144,-0.383367390,-0.321704830,9.509632110,0.006634000,-0.015830990,-0.003582240
1640834507798439936,-0.418582920,-0.297772880,8.893013000,-0.028049950,-0.003263350,-0.002141300
1640834507798949888,-0.558689530,-0.313926880,9.820129390,-0.017584860,-0.014711920,0.001041590
1640834507803579904,-0.410718860,0.101279380,10.105331420,-0.023648140,0.068588550,-0.011093910
1640834507804239872,-0.030177230,0.342055860,10.292880060,-0.006620590,0.025543570,0.002628570
1640834507808519936,-0.074432570,0.310407190,10.608320240,0.033912070,0.027875610,0.025527180
1640834507809059840,0.026679500,0.415902020,9.551854130,0.060114280,-0.033484400,0.005319720
1640834507813560064,-0.185175850,0.400474430,9.372709270,0.052532550,-0.087359560,0.025123360
1640834507814070016,-0.278654960,0.508370460,8.847327230,-0.021240110,-0.014977160,0.027556710
1640834507819089920,-0.214672420,0.597403410,9.310637470,-0.069849180,-0.012749430,0.004614890
1640834507819820032,-0.242882010,0.650770310,10.515122410,-0.049285580,0.056654220,0.014747680
1640834507823479808,0.056614850,0.653965350,10.558561330,-0.023272630,0.047379720,-0.010125340
1640834507824049920,-0.077341880,0.342645260,11.020099640,0.025427340,-0.048254430,-0.005954500
1640834507828470016,-0.157858250,0.336826980,9.915232660,0.015978520,-0.047422960,0.011059640
1640834507829059840,-0.183081340,0.194319430,8.872577670,-0.043477120,-0.094529970,0.015418230
1640834507833509888,-0.394329910,0.073659010,9.174513820,-0.076860200,-0.015681980,0.034406780
1640834507834699776,-0.014777570,0.303672790,8.904292110,-0.089783970,0.058552630,0.026702880
1640834507838840064,0.015083250,0.150005590,10.455415730,-0.041289630,0.030352180,0.026194750
1640834507839299840,0.076751770,0.363134800,10.938586240,0.002935530,0.051614640,0.017182530
1640834507843670016,0.198439600,0.584247170,10.260570530,-0.030854350,-0.079974540,-0.014421350
1640834507844209920,-0.079784920,0.433148620,10.028285980,-0.080895420,-0.078541040,0.016222900
1640834507848489984,0.231955160,0.363908650,8.529527660,-0.091966990,0.053763390,0.012783710
1640834507848989952,-0.001515380,0.119930400,9.235787390,-0.020140410,0.047869980,0.003932420
1640834507853570048,-0.158756290,0.045201560,9.928359030,0.011329360,0.068095330,0.036007180
1640834507854279936,0.011814060,-0.024350260,9.641395570,-0.019580130,-0.011451540,0.023554270
1640834507859180032,-0.349336060,-0.299732710,10.582629200,-0.054125500,-0.057239840,0.023417180
1640834507860280064,-0.085832550,-0.249829400,9.766742710,-0.046430540,0.047606240,0.021947930
1640834507863529984,-0.123416300,-0.376454440,9.924232480,0.040453660,0.031419090,-0.018729270
1640834507864019968,-0.177311930,-0.093756560,10.066181180,0.069366400,0.064155460,-0.021748240
1640834507868519936,0.137335480,0.398887130,9.056014060,0.026854870,0.024081760,-0.002731380
1640834507869060096,-0.233293410,0.261858250,9.726970670,-0.027695300,-0.039255620,0.015477840
1640834507873519872,-0.108117280,0.539594290,9.410474780,-0.014922030,-0.005824860,0.017391150
1640834507874129920,-0.140745360,0.581038710,9.684169770,0.036868460,0.018139190,0.006271900
1640834507878680064,-0.216056360,0.341419490,10.701055530,0.060762470,0.077925610,0.010603670
1640834507879360000,0.000984120,0.533114250,10.410481450,0.058566030,0.066272910,0.002184510
1640834507883529984,-0.283536080,0.401311280,10.379236220,-0.014165040,-0.045567750,0.012831390
1640834507886819840,-0.129900140,0.379816000,9.308268550,-0.052975130,-0.031086810,0.025111440
1640834507888480000,-0.215782140,0.460747450,8.756220820,-0.021383170,-0.021955370,-0.009647010
1640834507889720064,-0.351559460,0.365688230,9.462566380,-0.011603530,0.038103760,-0.004348160
1640834507893559808,-0.054777470,0.506463940,9.920857430,0.013470650,0.099742420,0.023090840
1640834507894139904,-0.171917210,0.396763800,10.985753060,-0.010919570,0.003354250,0.003218650
1640834507898459904,0.029885170,0.471891130,10.604236600,-0.060097870,-0.029394030,0.041176380
1640834507899030016,0.217185090,0.444841470,9.470294000,-0.058713560,-0.013087690,0.019420690
1640834507903569920,0.027190460,0.235317300,9.402084350,-0.068072980,0.022320450,-0.011877720
1640834507904329984,0.237300660,0.450952710,8.956724170,-0.026102360,0.070472060,0.006255510
1640834507908669952,-0.003253170,0.174412370,9.545740130,-0.021345920,0.040517750,0.005912780
1640834507910619904,-0.229658980,-0.069085550,10.228343010,-0.034116200,0.008127090,0.017970800
1640834507913509888,-0.245660500,0.067891110,9.999948500,-0.024402140,-0.021526220,0.025087590
1640834507914080000,-0.424608770,-0.264796260,10.026214600,-0.048762560,0.004461410,-0.002101060
1640834507918809856,-0.194627420,-0.071096960,9.707678790,-0.017994640,0.063453610,-0.010116400
1640834507919399936,-0.143767600,0.151499440,9.642510410,0.007644300,0.061957540,-0.025516750
1640834507924880128,-0.010912820,0.059343520,9.650106430,-0.005637110,0.023449960,0.001908840
1640834507925309952,-0.071473960,0.241528960,9.596436500,0.030936300,0.000344220,0.010305640
1640834507928439808,-0.284457770,0.114912950,9.643016820,0.002099570,-0.040702520,0.005863610
1640834507929039872,-0.116013710,0.161001250,9.606168750,0.001969930,0.000171360,0.012144450
1640834507933769984,-0.092431290,0.198679420,9.975931170,0.036942960,0.089353320,-0.018323960
1640834507934749952,0.094718650,0.240969200,10.275342940,0.006280840,0.077892840,-0.021249060
1640834507938479872,0.119257550,0.483044000,10.274518010,0.030323870,0.026977060,0.006693600
1640834507939069952,-0.142766580,0.326922480,9.689065930,0.009432440,-0.028394160,0.002558530
1640834507943519744,-0.331940590,0.362424080,9.250429150,0.006143750,-0.081346930,0.013116000
1640834507944099840,-0.569221200,0.425473120,9.176163670,0.023412710,-0.008630750,0.018557900
1640834507948499968,-0.412839650,0.248284180,9.717814450,-0.008705260,0.070999560,0.003783410
1640834507948989952,-0.211526690,0.624954460,10.798154830,0.003480910,0.071720780,0.013510880
1640834507953600000,-0.031413110,0.735707700,10.820108410,-0.043796000,0.034567710,0.002047420
1640834507954759936,0.337560830,0.598231550,9.969820020,-0.067274270,-0.047333540,-0.006450710
1640834507958609920,0.290272060,0.755600930,9.311786650,-0.025239590,-0.013102590,-0.011351700
1640834507959049984,0.123837340,0.452648760,8.905551910,-0.047107040,0.032718480,0.003512200
1640834507963470080,-0.028456360,0.225609260,9.419022560,-0.017574430,-0.001969930,0.032013650
1640834507964009984,-0.224030300,0.074914620,10.058479310,-0.021788480,0.029997530,0.016079850
1640834507968600064,-0.091314640,-0.078867470,10.117494580,-0.081332040,0.038853290,0.036086150
1640834507969219840,-0.171609070,-0.061237290,10.448587420,-0.048363200,0.024154780,0.014446680
1640834507973549824,-0.122593390,-0.010417960,9.961536410,-0.047649450,0.043535230,-0.034290560
1640834507974079744,0.032277410,0.193202240,9.233072280,-0.003112850,0.013601780,-0.000928340
1640834507978540032,-0.262255040,0.067611280,9.413923260,0.032112010,0.015757980,0.004516540
1640834507979009792,-0.194386770,0.023670840,9.223750110,-0.004684930,0.007170440,0.005301830
1640834507986219776,-0.331289410,0.103592670,9.636193280,0.010560450,-0.010274350,0.030812620
1640834507987160064,-0.200315850,-0.015079520,10.052546500,-0.009150800,0.054654480,-0.004075470
1640834507988569856,0.104952770,0.276021210,10.191691400,-0.010554490,0.065214940,-0.017882880
1640834507989039872,0.118668380,0.384336170,10.353781700,0.016842780,0.061136490,0.004628300
1640834507993509888,0.216576040,0.081852540,9.808327670,0.020928680,0.033731760,0.005717580
1640834507994179840,-0.146266190,0.055502170,9.479014400,0.088022660,-0.043343010,0.012336670
1640834507998489856,-0.472548040,-0.066922660,9.083712580,0.061084320,-0.052218140,0.012661510
1640834507998979840,-0.548945720,-0.103956420,9.210865020,0.011162460,0.003062190,-0.000508130
1640834508003559936,-0.615471900,0.202176750,10.064575200,0.006715950,0.042599440,-0.014433270
1640834508004299776,-0.217073980,0.386667100,10.604928020,-0.014829640,0.074924540,-0.022801760
1640834508008519936,0.006817460,0.548209070,10.770511630,0.040331480,0.050850210,-0.006549060
1640834508008999936,-0.062506620,0.691270050,10.275790210,0.071452560,-0.045964130,-0.003370640
1640834508013489920,-0.073255990,0.639329200,9.237559320,0.031803550,-0.094188750,0.013980270
1640834508014149888,-0.187791170,0.599373940,8.538837430,-0.002118950,-0.046019260,0.036017600
1640834508018630144,-0.180852980,0.341817470,9.362745290,-0.036583840,0.041791800,0.028018650
1640834508019779840,-0.056740280,0.351036490,10.319524770,-0.013923640,0.088958430,0.017671290
1640834508023949824,0.043206190,0.417102960,10.843989370,0.004501640,0.009724500,0.011572240
1640834508024920064,0.170952800,0.323775260,10.660411830,-0.030709800,-0.013110040,-0.011019410
1640834508028479744,0.040884540,0.397027110,9.660638810,-0.022017960,-0.025254490,-0.018258390
1640834508029079808,-0.250791760,0.207784190,9.334774020,-0.016760830,-0.064900520,0.000257790
1640834508033829888,-0.276375650,-0.021894780,8.869518280,0.009031600,0.015336280,0.009210410
1640834508034759936,-0.288641870,0.004734550,9.025910380,0.020974870,0.029084090,0.015875700
1640834508038699776,-0.264651390,-0.003243870,10.297030450,-0.022065640,0.054204460,0.027711690
1640834508040060160,-0.016254950,0.073124060,10.393924710,-0.014869870,0.040408970,0.001181660
1640834508043529984,0.000131260,0.275649190,10.521427150,-0.013536210,-0.051335990,-0.013168160
1640834508044069888,0.042172740,0.245637630,9.918339730,0.007954240,0.002698600,-0.003521140
1640834508048499712,0.065790680,0.112894450,8.968969350,0.066787000,0.018246470,-0.010956820
1640834508049089792,-0.205735250,0.127390590,9.549236300,0.061073900,-0.002741810,-0.011840460
1640834508053589760,-0.286944810,0.130776960,9.285831450,0.025443730,0.021335480,0.013591350
1640834508054199808,-0.300179270,0.161988150,9.597173690,-0.001755360,-0.050857670,-0.006571410
1640834508058699776,-0.343483870,0.410228220,10.316692350,-0.027950110,0.014515220,-0.001251700
1640834508060240128,-0.101204960,0.415436770,9.989153860,0.006404520,0.048440690,-0.002416970
1640834508063520000,-0.145884160,0.296326550,10.711823460,0.061915820,-0.008544330,-0.013619660
1640834508064179968,-0.223341840,0.347333670,10.085730550,0.085248050,-0.000365080,-0.007477400
1640834508068759808,-0.274180770,0.274492980,9.166197780,0.033938880,-0.091896960,0.006943940
1640834508070009856,-0.482418300,0.332911280,9.458918570,-0.033977630,-0.066427890,0.014999510
1640834508073489920,-0.195756270,0.493928940,8.856714250,-0.061585020,0.021864470,0.003698470
1640834508074060032,0.043867970,0.526734530,10.111711500,-0.032886860,0.027491150,0.006410480
1640834508078429952,0.184028340,0.576231720,11.055951120,0.033070150,0.098831970,-0.003577770
1640834508079079936,0.267026010,0.576784490,10.666262630,0.044634940,-0.039199000,-0.024148820
1640834508083520000,-0.082772580,0.657308580,10.238226890,-0.013963880,-0.136592980,0.001826880
1640834508084069888,-0.236683950,0.464238050,8.591704370,-0.090764450,-0.063946830,0.013209880
1640834508088519936,-0.238579600,0.285043810,8.482347490,-0.092078750,-0.027483710,0.010058280
1640834508089089792,-0.329273020,0.269292860,9.724523540,-0.017803910,0.092440840,0.010611120
1640834508093499904,-0.029875300,0.220997910,10.219972610,0.003574790,0.067436700,-0.001847740
1640834508094089984,0.068010220,0.349567170,11.107465740,-0.031821430,-0.045001510,0.003877280
1640834508098469888,-0.008860540,0.301703960,10.443421360,-0.088235730,-0.036482510,0.005075340
1640834508099799808,0.202620570,0.036288780,9.216592790,-0.080196560,-0.052241990,0.008688870
1640834508103559936,-0.028817170,-0.082293560,9.252081870,0.021231170,0.004793700,0.003357230
1640834508104270080,0.070537990,-0.106731590,8.732528690,0.043788550,0.073915730,-0.000910460
1640834508108749824,0.075561180,-0.015275060,9.565818790,-0.000001490,0.027613340,0.022718310
1640834508110009856,-0.277430800,0.033384250,10.480007170,-0.060687950,0.021897250,0.006106500
1640834508113499904,-0.101013270,0.137368350,10.028876300,-0.086174890,-0.051514800,0.001619760
1640834508114240000,-0.344247430,0.081718020,10.271103860,0.014111400,-0.019454950,0.001493100
1640834508118579968,-0.324100400,-0.048853760,9.611985210,0.095778700,0.069133940,-0.032755730
1640834508122799872,-0.294852080,0.140177670,9.562167170,0.098565220,-0.010146200,-0.011341270
1640834508123489792,-0.523413180,0.119982740,9.468192100,0.025498870,-0.015062090,0.020502510
1640834508124100096,-0.185182780,-0.048766440,8.924884800,-0.046782200,-0.041301560,0.006072220
1640834508128439808,-0.346935930,0.256263380,10.002314570,-0.000590090,-0.033028420,0.002294780
1640834508129060096,-0.091614280,0.203937620,10.094568250,0.040487950,0.052551930,-0.009635090
1640834508133469696,0.250020560,0.237425550,10.530035020,0.092434890,0.007581710,-0.020471220
1640834508134320128,-0.059400430,0.569709840,10.787579540,0.081071250,0.007095930,-0.015224510
1640834508138680064,0.123356000,0.432256850,9.420376780,-0.019399820,-0.067143150,0.013263520
1640834508139289856,-0.244447290,0.558867040,9.236716270,-0.014568870,-0.113116200,0.026935340
1640834508143479808,-0.388179990,0.603645560,8.753140450,-0.021100040,-0.018140680,0.002376740
1640834508144069888,-0.202185290,0.572378040,9.383032800,-0.010907650,0.022605060,0.012066960
1640834508148489984,-0.446488710,0.583624060,11.004088400,0.032885370,0.054287900,-0.015567240
1640834508149080064,-0.227097120,0.503852250,11.049091340,-0.015413760,-0.029231610,-0.033302610
1640834508153539840,-0.145629570,0.654475930,10.386445050,-0.044459110,-0.112038850,0.008481740
1640834508154249984,-0.190368550,0.423636050,9.284914970,-0.088743850,-0.069288890,-0.013354420
1640834508158560000,0.199269580,0.469725310,8.627641680,-0.092378260,-0.002078710,-0.013355910
1640834508159109888,0.120665620,0.482889030,9.223782540,-0.028605760,0.060902530,0.019462400
1640834508163539968,0.147660750,0.035095130,10.101519580,-0.034461920,0.003691020,0.000049170
1640834508164599808,0.190353230,0.236736030,10.446577070,-0.025193400,-0.046981870,0.011233980
1640834508168560128,-0.069363530,0.138350730,10.291090970,-0.077351930,-0.065836320,0.009535250
1640834508169119744,-0.066551950,-0.071659100,9.944406510,-0.112926970,-0.029256940,-0.013716520
1640834508173449984,-0.077396270,0.262939160,9.381636620,-0.042518970,0.035105640,-0.025345380
1640834508174059776,-0.127546860,0.075257290,9.346422200,-0.025379660,0.022694470,-0.026781860
1640834508179049984,-0.093551330,0.152914360,9.656294820,0.000526010,0.015150010,0.016389790
1640834508179689984,-0.277221440,0.163505840,9.546844480,-0.024436410,-0.042961540,0.013518330
1640834508183579904,-0.286818440,-0.159540370,9.906003950,-0.068475310,-0.076800570,0.033742190
1640834508184269824,-0.146693530,-0.146172970,9.806355480,-0.002519790,0.039260090,0.009918210
1640834508188629760,0.022416910,-0.215862230,9.882237430,0.019030280,0.042787190,-0.047242650
1640834508190049792,0.204698090,-0.014240860,10.260211940,0.030548870,0.043559080,-0.015275180
1640834508193600000,0.167063970,0.091704030,9.515521050,0.029665240,0.038416680,0.000193720
1640834508194999808,-0.058739510,-0.206592540,9.623048780,0.022378570,-0.106002400,0.008079410
1640834508198439936,-0.335324650,-0.020151740,9.245147710,0.070704520,-0.047460200,0.020790100
1640834508199049984,-0.275035890,-0.066750180,8.817749020,0.068922330,-0.007963180,-0.006294250
1640834508203519744,-0.299088450,-0.067707040,10.429534910,0.073973840,0.060158970,-0.015607480
1640834508204900096,-0.144523720,0.343226400,10.361686710,0.075651710,0.121583040,-0.032433870
1640834508208629760,-0.133948640,0.389236990,10.682774540,0.041632360,-0.068339710,-0.024907290
1640834508209209856,-0.303390150,0.477639650,9.980389600,0.076551740,-0.070744750,0.017161670
1640834508213499904,-0.208560560,0.506517050,8.255327220,0.076782710,-0.087130070,-0.015828020
1640834508214079744,-0.535863100,0.462831080,9.478993420,0.047136840,-0.045888130,0.003378090
1640834508218669824,-0.262131690,0.515769240,9.454200740,0.054277480,0.086079540,0.004382430
1640834508219339776,0.018867570,0.407076150,10.604032520,0.031663480,-0.003890690,-0.028444830
1640834508223500032,-0.012788480,0.681091430,11.302657130,0.023651120,0.015725200,0.010497870
1640834508224099840,0.287086900,0.671450500,9.601775170,0.003743170,-0.061571610,-0.013433400
1640834508228449792,-0.051060150,0.526739540,9.774440770,-0.019049640,-0.132755950,-0.030452010
1640834508229080064,-0.130992380,0.783382710,8.606084820,-0.007317960,0.017246610,-0.014065210
1640834508233729792,-0.175644760,0.414415210,9.054553030,-0.016471750,-0.027725100,-0.014919040
1640834508234560000,-0.467415990,0.412158910,10.610281940,-0.016805530,-0.004687910,-0.007255380
1640834508238459904,-0.068060870,0.667822960,9.857227330,-0.050047050,-0.005598370,0.000476840
1640834508239049984,-0.070584830,0.296233920,10.659978870,-0.091303890,-0.043322150,0.001066920
1640834508243539712,-0.044411630,0.501104180,10.091100690,-0.066442790,0.009416040,-0.024606290
1640834508244230144,0.201214480,0.488026590,9.029515270,-0.057265160,-0.042474260,-0.037413840
1640834508248459776,-0.112296220,0.147173670,9.607531550,-0.031507020,-0.028124450,-0.008264180
1640834508249100032,-0.042275700,0.167470380,8.982136730,-0.020973390,-0.006310640,-0.006558000
1640834508254720000,-0.035420690,-0.038930820,9.615048410,-0.076535350,-0.046257670,0.009816890
1640834508255290112,-0.091485250,-0.044984830,10.102252960,-0.081846130,0.043752800,0.015644730
1640834508258859776,0.191393720,0.070508990,10.023300170,-0.064460940,0.033670660,-0.030381980
1640834508259419904,0.044359650,0.175694090,10.508413310,-0.042414670,0.001725550,-0.028136370
1640834508263490048,0.040567130,0.175274820,9.454865460,-0.001996760,-0.000679490,-0.008967520
1640834508264049920,-0.051379670,-0.019179820,9.151893620,-0.004236400,-0.048379590,-0.026498740
1640834508268559872,-0.459784180,-0.060042440,9.283220290,0.004784760,-0.004334750,-0.005604330
1640834508269389824,-0.321550760,-0.095657770,8.999257090,-0.005710130,-0.006647410,-0.015990440
1640834508273489920,-0.333696720,-0.065932790,10.238542560,-0.021947920,0.015109780,-0.031700730
1640834508275009792,-0.118157950,0.263278600,10.140912060,-0.017645960,0.066791480,-0.022849440
1640834508278560000,0.139250470,0.211219910,10.427177430,-0.003816190,-0.003001090,-0.008715690
1640834508279079936,-0.161861570,0.067486760,10.335893630,0.051438810,0.003141170,-0.008799140
1640834508285479936,-0.036188340,0.137855290,8.887110710,0.077928600,-0.083526960,-0.012983380
1640834508286199808,-0.370829110,0.002265370,9.216091160,0.052884230,-0.074040910,-0.008706750
1640834508288780032,-0.387672810,0.157661130,8.947208400,0.008220970,0.036291780,-0.022797290
1640834508289839872,-0.140032380,0.418578650,9.979587550,-0.028808410,-0.000996890,-0.026789310
1640834508293509888,-0.226202190,0.577183490,11.000421520,-0.005827840,0.062818830,-0.018942360
1640834508294080000,0.052052430,0.688863340,10.366070750,0.029262900,-0.019866230,-0.039570040
1640834508298489856,-0.169904920,0.701277200,10.482860570,0.050446380,-0.113002950,-0.027814510
1640834508299069952,-0.323678550,0.574313400,8.923032760,0.020238760,-0.067980590,-0.006943940
1640834508303949824,-0.208453220,0.327195910,8.718164440,-0.014828150,-0.082042800,-0.004711750
1640834508304590080,-0.354093970,0.459109810,9.680557250,-0.035068390,0.046154860,0.001546740
1640834508308480000,-0.016009350,0.452073480,9.818741800,-0.082476440,0.037586690,-0.000691410
1640834508309059840,0.022403700,0.461963470,11.250316620,-0.057318810,-0.029532610,-0.008440020
1640834508313419776,0.001768530,0.588875110,10.458116530,-0.027167800,-0.028948490,-0.037515160
1640834508314080000,0.120615480,0.501511390,9.674580570,-0.033754110,-0.130806880,-0.032611190
1640834508319109888,-0.066049550,0.446539850,9.407260890,-0.039890420,0.000214580,-0.023618350
1640834508319949824,0.069719310,0.402290880,8.696329120,-0.078046340,0.023567680,-0.030028830
1640834508325419776,-0.049485020,0.487163480,9.997637750,-0.106048580,-0.025810300,0.007621940
1640834508326030080,-0.053672720,0.412313820,9.835540770,-0.114488610,0.050516430,0.003498790
1640834508328450048,0.024121780,0.189235790,10.229471210,-0.088222330,-0.064122680,-0.001972910
1640834508329059840,-0.346372690,0.210373430,10.843631740,-0.024577980,-0.022548440,-0.002850590
1640834508333669888,-0.005216480,-0.104059670,9.123536110,-0.037701420,-0.009150800,-0.018455080
1640834508334820096,0.019645170,-0.150487180,9.751250270,-0.040513280,-0.016345090,-0.016881530
1640834508338510080,-0.017260330,0.032554760,9.337496760,-0.075374540,0.127862380,-0.002740320
1640834508339320064,0.184774160,-0.114121000,9.230190280,-0.094754990,-0.032354900,0.006303190
1640834508343469824,-0.279783130,-0.001158070,10.491124150,-0.022402410,-0.047083200,0.002427400
1640834508344079872,-0.035808300,-0.103567050,9.046925540,0.005461280,0.003628430,-0.026084480
1640834508348460032,-0.200137590,-0.197607350,10.290679930,0.046488640,-0.044213240,-0.019818540
1640834508349110016,-0.314420700,-0.017723660,10.283228870,0.035561620,0.111146270,-0.045084950
1640834508353560064,0.213615730,0.075925420,9.211097720,-0.026258830,-0.001218910,-0.029246510
1640834508354390016,-0.307288530,0.221560430,10.447202680,-0.005388260,-0.002093610,0.025463100
1640834508358680064,-0.112494500,0.047759720,8.768577580,0.003977120,0.035753850,0.002621110
1640834508359079936,-0.319583860,-0.089528370,9.592436790,0.092142810,-0.137938540,0.006754700
1640834508363469824,-0.642649530,-0.130732580,9.865659710,0.125488640,0.036737330,-0.005768240
1640834508364100096,-0.001596200,-0.215210230,9.174867630,0.070355840,0.017425420,-0.047010180
1640834508368579840,-0.317526040,0.230125780,11.309605600,0.036886340,0.026853380,-0.017115480
1640834508369230080,0.091479100,0.370484710,9.869679450,-0.003053250,0.079648200,-0.016976890
1640834508374719744,0.082351230,0.346721980,9.844511030,0.062856080,-0.145363820,0.007046760
1640834508375389696,-0.376328710,0.563783230,9.549712180,0.112664710,-0.040380660,-0.000940260
1640834508378479872,-0.017188440,0.283027350,8.231591220,0.087539850,-0.020979350,-0.018380580
1640834508379069952,-0.546523630,0.237697930,10.534724240,0.101596120,-0.020121040,-0.003589690
1640834508383529984,-0.238066000,0.512393590,10.158827780,0.032107540,0.065581500,-0.034502150
1640834508384079872,0.181772990,0.609282140,10.358427050,-0.037787860,-0.052613020,0.003378090
1640834508388779776,-0.169903840,0.722456220,10.884820940,-0.017005210,0.032645470,0.009581440
1640834508389439744,0.140252680,0.545716880,9.278261180,0.022858380,-0.048533090,-0.036615140
1640834508393509888,-0.310261340,0.460880580,9.757159230,0.095677380,-0.140787660,-0.012370940
1640834508394080000,-0.355660970,0.421905040,8.914327620,0.058425970,-0.001919270,-0.023686890
1640834508398439936,-0.024574320,0.313212630,9.309042930,-0.046226380,-0.016906860,-0.014434750
1640834508399059968,-0.239010390,0.566742780,10.860976220,-0.091275570,0.071729700,0.014548000
1640834508403599872,0.284363270,0.507341980,10.392616270,-0.097338860,0.040768090,-0.009648500
1640834508404269824,0.240201960,0.533531670,10.832348820,-0.006429850,-0.059561440,-0.019671020
1640834508408489984,-0.025008670,0.725001870,9.661804200,0.011719760,-0.029285260,-0.034324820
1640834508409070080,0.012270340,0.363668290,8.877834320,-0.039672850,-0.093501790,-0.029757620
1640834508413449984,-0.290962640,0.281062220,9.290485380,-0.053186720,0.020290920,0.005432960
1640834508414099968,-0.057788060,0.215884010,9.201426510,-0.094227490,0.059381130,-0.000609460
1640834508418589952,-0.018177520,0.061819070,10.735802650,-0.079658630,0.037629900,0.028936570
1640834508419759872,0.030549370,0.190640300,10.479208950,-0.044354800,0.070787970,-0.006644430
1640834508423559936,0.018869140,0.061934760,10.504006390,-0.052273270,-0.075021380,-0.030632310
1640834508425099776,-0.201791020,-0.047277180,9.981308940,0.003726780,-0.020357970,0.007122760
1640834508428429824,0.043992210,-0.188463180,8.337490080,0.011038780,-0.000119210,-0.028458240
1640834508429049856,-0.144460660,-0.120315830,9.629194260,-0.008212030,0.029227140,0.008641180
1640834508433430016,0.059285360,0.110829030,9.282999990,-0.032861530,0.146248940,0.039961940
1640834508434159872,0.092052900,0.000912280,10.401656150,-0.048832600,-0.020609790,-0.002615150
1640834508438579968,-0.148591820,0.244875620,10.900110240,0.001938640,0.012536350,0.007227060
1640834508439270144,0.150301810,0.218220710,9.165687560,0.034388900,0.007246430,-0.018365680
1640834508443449856,-0.262475820,-0.261084140,10.272629740,0.080229340,-0.022406880,-0.030215080
1640834508444109824,-0.206911430,0.057640800,8.940612790,0.074675670,0.129291400,-0.005911290
1640834508448429824,-0.119293440,-0.114228040,9.193764690,0.025889280,-0.011339780,0.017611690
1640834508449070080,-0.492635940,-0.235918750,10.341986660,0.022539500,0.032942000,0.027279560
1640834508453559808,0.033643510,0.141994160,8.945473670,0.029475990,0.021387640,-0.005194550
1640834508454210048,-0.265568290,-0.147322850,10.754385950,0.095808510,-0.023183230,-0.007498260
1640834508458449920,-0.098876400,-0.062335640,10.130155560,0.155301410,0.123420360,-0.025630000
1640834508459069952,0.139464050,0.189694600,9.612186430,0.150021910,-0.013083220,-0.045146050
1640834508463429888,-0.471058820,0.164222580,10.456059460,0.085759170,0.007499760,0.019608440
1640834508464059904,0.010648550,0.560362990,8.342525480,0.023536390,0.005315240,0.009062890
1640834508468420096,-0.365920040,0.543604140,9.662750240,0.030162940,-0.073704120,-0.003989040
1640834508469070080,-0.287522050,0.606781660,9.779681210,0.075666590,0.118893390,0.005865100
1640834508473449984,0.042617150,0.527868630,9.986026760,0.137034060,0.044742240,-0.039081280
1640834508474079744,-0.511397420,0.381337700,11.588500020,0.127886250,-0.011059640,-0.031463800
1640834508478979840,-0.012908700,0.645168480,9.302902220,0.036975740,-0.001122060,0.007030370
1640834508479699968,-0.210714950,0.376572190,9.370030400,-0.013931100,-0.111898790,0.000843410
1640834508484619776,-0.173632310,0.477728520,9.118917470,-0.018666680,0.059942900,0.012956560
1640834508486119936,0.597601590,0.548271060,8.553680420,0.034324820,0.086048250,-0.005945560
1640834508489830144,0.358145390,0.130570520,11.073530200,0.091183190,0.114008790,-0.030468400
1640834508490360064,0.847662810,0.470099030,10.420969010,0.071643310,0.131225600,-0.026375060
1640834508493509888,0.635807160,0.402308520,10.452197070,0.012984870,-0.037650760,-0.019693380
1640834508494119936,0.125514090,0.375047240,9.917029380,-0.065924230,0.036101050,-0.013135370
1640834508498439936,0.209234280,0.829194130,8.175142290,-0.068399310,0.050024690,-0.013737380
1640834508499099904,-0.537054600,0.553919610,9.491734500,-0.036771600,0.092315680,0.003013020
1640834508504009984,-0.457130460,0.505225660,9.474496840,0.015015900,0.182114530,-0.009703630
1640834508505189888,-0.535337270,0.505321800,10.620485310,0.028824800,0.054675340,-0.028903780
1640834508508539904,-0.600683210,0.217816160,10.928373340,-0.055453180,0.068379950,-0.005295870
1640834508509090048,0.162293020,0.108351490,9.324437140,-0.075419250,0.083830950,-0.019410250
1640834508513479936,0.233377840,-0.087419620,9.807762150,-0.044570860,0.143930330,-0.038215520
1640834508514129920,0.560930490,-0.015463730,9.025380130,-0.003631410,0.197489570,-0.018472970
1640834508518560000,0.530514720,-0.066274810,9.388025280,0.039558110,0.055059790,-0.014215710
1640834508519419904,0.051784000,-0.196779770,9.738445280,-0.008979440,0.078342860,-0.023202600
1640834508523579904,0.084683460,-0.104574800,9.170632360,-0.013186040,0.061529890,-0.027333200
1640834508524229888,-0.558817510,-0.241093380,10.540306090,0.013743340,0.113391880,-0.062087180
1640834508529029888,-0.435429250,0.133035960,9.883599280,0.019645690,0.175635490,-0.086449090
1640834508530309888,-0.460998150,0.393277170,9.991879460,0.042627760,0.090597570,-0.060565770
1640834508533489920,-0.660804090,0.208042280,9.855431560,0.016233330,0.124000040,-0.033961240
1640834508536320000,-0.379111890,0.133975310,8.961046220,0.058333590,0.030514600,-0.030979520
1640834508538889984,-0.561911340,-0.265484750,9.581691740,0.119921590,0.025720890,-0.029304630
1640834508539439872,-0.038434240,-0.368416340,9.042034150,0.115729850,0.138252940,-0.058841700
1640834508543619840,0.263730910,-0.180713210,10.016732220,0.111165650,0.138452650,-0.083671520
1640834508544309760,0.284060570,0.050166090,10.800170900,0.034797180,0.189851220,-0.073583420
1640834508550809856,0.485595700,0.310694160,10.010248180,0.028803940,0.057175760,-0.072990370
1640834508551589888,-0.099791850,0.399725380,9.849537850,0.109748540,-0.042107710,-0.085315120
1640834508553769728,-0.339473190,0.579373240,8.416469570,0.119368750,0.025449690,-0.096122930
1640834508555449856,-0.619019990,0.542672100,8.907261850,0.121638190,0.056521600,-0.093182910
1640834508558650112,-0.811087130,0.558310450,10.191830640,0.067776440,0.161004080,-0.096598280
1640834508559259904,-0.304025650,0.763208510,10.306297300,0.005593900,0.128895040,-0.087043640
1640834508564270080,-0.295813800,0.688055040,11.249378200,0.018119810,0.058126450,-0.073002280
1640834508566259968,-0.050305170,0.675505520,9.949210170,0.019145010,0.053009400,-0.090384490
1640834508568879872,0.076694520,0.524128260,9.081710820,0.055605180,-0.042288010,-0.104185950
1640834508569720064,-0.160383660,0.300120290,9.278779030,0.064077980,0.076472760,-0.097909570
1640834508573489920,0.246158850,0.223744030,8.824868200,0.014954810,0.114779180,-0.112494830
1640834508574279936,0.042825140,0.331729560,10.687462810,-0.026722260,0.068405270,-0.096902260
1640834508578729984,0.113366850,0.571933930,10.427003860,-0.077249110,0.137907250,-0.091865660
1640834508579549952,0.239922230,0.630475640,10.130794530,-0.073654960,-0.000494720,-0.131519140
1640834508583799808,-0.373851950,0.930596710,10.471818920,-0.027962030,0.039212400,-0.140151400
1640834508585209856,-0.186168750,0.795077090,8.515633580,-0.031273070,0.077515840,-0.135095430
1640834508588599808,-0.625592350,0.360235510,9.804212570,-0.013287370,0.000673530,-0.113841900
1640834508589120000,-0.586353300,0.373623790,9.498410220,-0.047440820,0.132833440,-0.099170220
1640834508594640128,-0.014686100,0.042638100,9.309587480,-0.112435240,0.049020360,-0.081810360
1640834508595199744,-0.247801470,-0.106224110,11.085077290,-0.088647020,0.102072960,-0.099609790
1640834508598719744,0.294770870,0.071537190,9.551294330,-0.079393390,0.112518670,-0.161069650
1640834508599149824,0.079940410,-0.140351300,10.309214590,-0.019592050,-0.041519100,-0.140322760
1640834508603479808,-0.063603550,-0.113080800,9.521475790,0.023031240,0.085578880,-0.144317780
1640834508604130048,0.173093940,-0.099974210,8.401406290,-0.003901120,0.022110340,-0.149303700
1640834508608429824,-0.534820260,0.015726080,10.133537290,-0.037008530,0.065229830,-0.104044390
1640834508609069824,-0.175774710,0.142500370,9.098421100,-0.070893760,0.112941870,-0.134740780
1640834508613489920,-0.362372430,0.229618880,10.514414790,-0.034204130,-0.020219390,-0.167647020
1640834508614099968,-0.497886390,0.504612150,10.451507570,0.001135470,0.089608140,-0.168547030
1640834508618439936,-0.130074550,0.162026660,9.360621450,0.024282930,0.010818240,-0.197753310
1640834508622560000,-0.615632360,-0.038640010,10.432361600,0.064229970,0.003434720,-0.184997920
1640834508623429888,-0.276161160,0.038577600,8.614298820,0.035983320,0.058276960,-0.162366030
1640834508624069888,-0.309162560,-0.345415530,9.442301750,-0.001189110,-0.059689590,-0.156949480
1640834508629499904,-0.246424650,-0.048560540,9.740060810,-0.006450710,0.074245040,-0.152984260
1640834508630009856,0.235034660,0.061061940,9.504012110,-0.004227460,0.047971310,-0.175531210
1640834508633969920,-0.171272830,-0.064024040,11.514696120,0.067470980,0.018401440,-0.185573120
1640834508634660096,0.004732010,0.346585300,9.857333180,0.108821690,0.019192700,-0.212338580
1640834508638559744,-0.200408280,0.475066300,9.706515310,0.064355140,-0.127868350,-0.213690120
1640834508639139840,-0.605882350,0.770851430,9.353184700,-0.009711080,0.004082920,-0.183007110
1640834508643460096,-0.316938880,1.074214700,8.417968750,-0.074210770,-0.026012960,-0.200410200
1640834508644099840,-0.627116620,1.006902810,10.517804150,-0.065305810,-0.011888150,-0.184869750
1640834508648730112,-0.235181270,0.944406510,10.058174130,-0.003188850,0.086161490,-0.197856170
1640834508649390080,-0.127810140,0.657029450,10.866302490,0.024220350,-0.070208320,-0.224962850
1640834508653469952,-0.209088410,0.567924020,10.791078570,-0.022056700,-0.049871210,-0.196926330
1640834508654139904,0.349299580,0.267258350,8.678050040,-0.095379340,-0.050432970,-0.202876340
1640834508658459904,0.170649260,0.097970700,9.468083380,-0.125651060,-0.031825900,-0.220413510
1640834508659069952,0.266500770,0.304569510,9.079024310,-0.102058050,0.075168920,-0.213275860
1640834508663499776,0.260547070,0.169313790,9.661882400,-0.071321440,-0.018505750,-0.230477770
1640834508664179968,-0.232369660,0.310771050,10.882526400,-0.046424560,-0.031134480,-0.239375200
1640834508668619776,-0.268758060,0.470569460,9.932874680,-0.091619770,-0.077731910,-0.237350170
1640834508669220096,-0.374823960,0.363940630,9.852099420,-0.125695770,-0.056266800,-0.231735450
1640834508673600000,-0.296709390,0.482026730,9.578541760,-0.111614180,0.072276590,-0.257444410
1640834508675559936,-0.096563530,0.552211110,9.435610770,-0.092846160,0.038282580,-0.246316190
1640834508678589696,-0.092801470,0.408236030,9.743579860,-0.081355880,-0.015063590,-0.227582500
1640834508679929856,-0.044544160,0.027474760,9.530156140,-0.083602970,-0.052149590,-0.227987770
1640834508683480064,0.005206980,-0.290617080,9.558334350,-0.070063790,-0.052550440,-0.229609060
1640834508684160000,-0.021311050,-0.548015650,9.924683570,-0.040471550,0.010716910,-0.257839290
1640834508688469760,0.070631930,-0.604490940,10.219997410,-0.028540200,0.047807400,-0.288088650
1640834508689070080,0.169410740,-0.213986350,9.883010860,-0.034323330,0.017113980,-0.271737520
1640834508693459968,-0.076305500,-0.098876000,9.781083110,-0.058828310,-0.033748150,-0.257763300
1640834508694170112,-0.250602840,0.062178350,9.148743630,-0.031375890,-0.045931340,-0.245019790
1640834508698720000,-0.566330790,0.206925090,9.140717510,0.032582880,-0.087028750,-0.267514590
1640834508699129856,-0.749389470,0.095469880,9.699264530,0.039866560,-0.016894930,-0.286251250
1640834508703480064,-0.339542660,0.354548690,9.747125630,0.051167610,0.028416520,-0.293803220
1640834508704140032,-0.247509000,0.471905200,10.852294920,-0.005421040,0.026211140,-0.297063530
1640834508708489984,0.094854760,0.576234400,10.298673630,-0.054164230,0.019238890,-0.251719390
1640834508709199872,0.216328100,0.469483290,9.646142960,-0.001862650,-0.110854210,-0.252276660
1640834508713639936,-0.107783210,0.167836100,9.382883070,0.036218760,-0.071141130,-0.270465020
1640834508714429952,-0.023447410,0.113284510,8.483714100,0.072421140,-0.048317020,-0.270153580
1640834508718530048,-0.480205740,-0.100286600,10.195845600,0.046664480,-0.056193770,-0.296740230
1640834508722599936,-0.271417590,0.150662960,10.130056380,-0.038442020,0.043904780,-0.295948980
1640834508723439872,-0.072807810,0.543978930,10.475103380,-0.065478670,-0.056715310,-0.285765470
1640834508724089856,-0.333765240,0.685946110,11.059855460,-0.060930860,-0.025488440,-0.297655190
1640834508728600064,0.110283680,1.053146000,8.974281310,-0.026427210,-0.066708040,-0.304557380
1640834508729139968,-0.260871500,0.938205120,9.737409590,0.012102720,-0.120376070,-0.288718940
1640834508733499904,-0.295960040,0.784074430,9.096583370,-0.035995240,0.025977200,-0.272722540
1640834508734099968,0.053304600,0.640477840,9.238553050,-0.078342850,-0.093281280,-0.269241660
1640834508738390016,-0.170552610,0.361980230,10.836411480,-0.117336210,0.009131430,-0.258839130
1640834508739089920,0.457871470,0.250347500,9.637706760,-0.138470550,0.059153140,-0.291509930
1640834508743680000,0.127947090,0.179622620,11.069059370,-0.082814700,-0.095729530,-0.322969290
1640834508744509952,-0.094498930,0.228742090,9.888177870,-0.072234850,-0.008669490,-0.324355040
1640834508748679936,0.041700170,-0.126599570,8.502341270,-0.065141920,-0.143884140,-0.322179500
1640834508751269888,-0.578428690,-0.163239460,9.773269650,-0.042758880,-0.052776930,-0.299552080
1640834508753540096,-0.156460810,-0.111015050,8.525479320,-0.088083750,0.072816010,-0.294855270
1640834508754659840,-0.270865140,-0.067374300,10.599735260,-0.068832940,-0.048005580,-0.285466020
1640834508758699776,-0.244610190,0.352197080,10.905019760,-0.085727860,0.047524280,-0.313056950
1640834508759239936,0.327897340,0.491339650,9.460239410,-0.105182830,-0.099815430,-0.324399770
1640834508763719936,-0.105622840,0.317843200,10.396421430,-0.029820200,-0.053104760,-0.308176820
1640834508764379904,0.088513850,0.119056310,8.652160640,0.007419290,0.050963470,-0.358699350
1640834508768450048,-0.179244580,-0.006639820,9.435770990,0.012852250,-0.106331710,-0.328114660
1640834508769090048,-0.509546760,-0.032750070,9.745401380,-0.034834450,-0.003929440,-0.309543310
1640834508773429760,-0.085278600,-0.142057540,9.067925450,-0.107516370,-0.051625080,-0.343316820
1640834508774119936,-0.472963540,0.098420830,10.997371670,-0.063607100,-0.041575730,-0.308802660
1640834508778429952,-0.190705880,0.002645480,10.102777480,-0.000941750,0.038878620,-0.340573520
1640834508779179776,-0.166293220,-0.142105520,10.428873060,0.064162910,-0.111217790,-0.369515990
1640834508783579904,-0.430115970,0.291169640,10.030649190,0.079312940,-0.058706110,-0.340536270
1640834508784149760,-0.159685270,0.145892350,8.556954380,-0.012551250,-0.101815160,-0.345364180
1640834508788699904,-0.350590170,0.512522700,9.587343220,-0.073188540,-0.106634210,-0.329947470
1640834508789350144,0.039398440,0.933719810,9.244998930,-0.086744140,0.034099820,-0.328567650
1640834508793769728,0.261045520,0.711334050,10.428145410,-0.054918230,-0.005941090,-0.330920550
1640834508795719936,0.045797720,0.874775290,11.414566990,0.033287700,-0.001861160,-0.339044660
1640834508798599936,0.139511780,0.691622380,10.124300960,0.016844270,-0.121851290,-0.352606240
1640834508799109888,-0.199823690,0.350371810,9.755065920,-0.059624030,-0.164453690,-0.323988560
1640834508803449856,-0.254847710,0.332905410,8.588607790,-0.106689360,-0.039425490,-0.330854980
1640834508804119808,-0.119910480,0.147116680,8.750770570,-0.144158350,-0.014220180,-0.333900810
1640834508808519936,-0.106078640,0.183099180,10.108568190,-0.074856010,0.053572660,-0.309562770
1640834508809100032,0.043203370,0.155758470,10.593457220,-0.019682940,0.008030240,-0.351472170
1640834508813740032,-0.052617740,0.243151960,10.963935850,-0.055611140,-0.115883370,-0.358620380
1640834508814789888,0.020270930,0.301012640,9.855839730,-0.082291670,-0.094509130,-0.337761640
1640834508818459904,0.168256510,0.035220180,8.969732280,-0.102423150,-0.016538800,-0.358866210
1640834508819089920,0.147226540,0.270775170,9.192390440,-0.068692870,0.051978240,-0.360728800
1640834508823559936,0.144509670,0.281288560,9.451962470,-0.037211180,0.031937660,-0.327447090
1640834508824829696,0.175629110,0.153148530,9.847765920,-0.061364480,-0.024981800,-0.333386720
1640834508828610048,-0.022745470,0.172935010,10.170978550,-0.066608190,-0.036737330,-0.326205790
1640834508829139968,-0.182267280,-0.179264710,10.197120670,-0.054560590,-0.004650650,-0.330349770
1640834508833560064,-0.259133580,-0.392235730,9.995896340,0.001889470,0.008378920,-0.350986420
1640834508834619904,-0.346942390,-0.205770000,9.763754840,0.039349490,0.020600860,-0.348058280
1640834508838589952,-0.289952670,-0.064322290,9.373200420,-0.013917690,0.012858210,-0.318960880
1640834508839209984,-0.408271790,-0.017558890,9.474304200,-0.036729880,-0.041277710,-0.326251980
1640834508843489792,-0.318575800,0.159323250,9.466062550,-0.017659360,-0.043143320,-0.320436030
1640834508844110080,-0.109745130,0.256979610,9.759890560,0.030957160,0.013364850,-0.320193200
1640834508848489984,-0.093402970,0.259099750,10.694761280,0.078183410,0.054666400,-0.334413290
1640834508849099776,0.136683570,0.645880520,10.576307300,0.041608510,0.007575750,-0.316636290
1640834508853489920,0.104360040,0.693462490,10.047763820,-0.025129320,-0.050023210,-0.289039370
1640834508854149888,0.125661570,0.485390900,9.239129070,-0.049667060,-0.030164420,-0.276617740
1640834508858479872,0.102327380,0.647416470,8.784766200,-0.016954540,-0.006532670,-0.277543100
1640834508859079936,-0.232715530,0.307429550,9.577736850,0.016060480,0.023220480,-0.270833080
1640834508864079872,-0.205495830,0.156217920,10.133981700,0.027120110,0.037650760,-0.282135640
1640834508865229824,-0.381298330,0.267226490,10.648555760,-0.000900030,-0.031983850,-0.286202070
1640834508868460032,-0.400962170,0.100935090,10.441652300,-0.063866380,-0.035491590,-0.274390010
1640834508869120000,-0.169677440,0.307003530,9.552406310,-0.062705580,-0.012314320,-0.282642280
1640834508874379776,-0.158168970,0.408241750,9.308424950,-0.032016640,-0.001336630,-0.277519260
1640834508876899840,0.148730460,0.372983460,9.167539600,0.000752510,0.064210600,-0.244660680
1640834508878439936,0.099342560,0.274038790,9.729786870,0.033164030,0.030477340,-0.232684630
1640834508879089920,0.048573380,0.049005490,10.185670850,0.001744930,-0.042752930,-0.213579850
1640834508883539968,0.218382240,0.026776380,9.935132030,-0.023241340,-0.027799610,-0.209736840
1640834508884699904,0.063961850,-0.091525160,9.700994490,-0.039058930,0.052402920,-0.241924820
1640834508888499968,0.082132480,0.014910120,9.934269910,-0.008136030,0.055423380,-0.241926330
1640834508889089792,-0.150591730,0.112245160,9.772216800,0.038792190,0.048886240,-0.228683670
1640834508893440000,-0.222428010,-0.034023590,9.181838040,0.039571530,-0.037023430,-0.220459710
1640834508894599936,-0.572396280,0.018989670,9.756995200,0.060458490,-0.053088370,-0.185062020
1640834508898479872,-0.620665550,-0.097449080,9.198584560,0.032018130,0.026243930,-0.191286220
1640834508899079936,-0.366453020,-0.158167790,10.058404920,0.046320260,-0.009754300,-0.198797900
1640834508903460096,-0.329922880,0.225604730,10.705361370,0.069865590,0.114107150,-0.207048700
1640834508904470016,0.305211340,0.345321540,9.611970900,0.038510560,0.045546890,-0.203332300
1640834508908539904,0.017030050,0.413820420,10.753354070,0.074797870,-0.051037970,-0.173430140
1640834508909319936,0.007389820,0.521331490,8.974526410,0.060662640,-0.000245870,-0.183719400
1640834508913509888,0.060091670,0.459931850,8.735570910,0.042331220,-0.124284640,-0.148752350
1640834508914119936,-0.487117710,0.419915650,10.112119670,0.053569670,0.074885770,-0.137497470
1640834508918619904,0.030340410,0.440170620,9.394269940,0.021654370,0.094401860,-0.155855750
1640834508919259904,-0.358083250,0.501811030,11.532451630,0.045417250,-0.039158760,-0.118048490
1640834508923460096,-0.322249920,0.472983360,10.382354740,0.008322300,0.045456000,-0.139267740
1640834508924150016,0.046739460,0.440315750,8.830471040,0.013265020,-0.115783530,-0.136801620
1640834508928570112,-0.719673400,0.434273300,9.864830970,0.030890110,-0.024853650,-0.098830470
1640834508929100032,-0.178127810,0.217041980,8.335343360,0.018337370,0.063765050,-0.087481720
1640834508933459968,-0.281878020,0.138906290,9.885919570,0.052121280,-0.058335070,-0.071792290
1640834508934099968,-0.250409690,0.246054650,10.610272410,0.002190470,0.052635380,-0.063322490
1640834508938449920,0.544400100,0.236180830,9.563297270,-0.025063750,0.024282930,-0.074839580
1640834508939089920,0.158516990,0.269833590,10.764951710,-0.008945170,-0.011713800,-0.089685610
1640834508943399936,0.260456590,0.434966150,9.666816710,0.019259750,0.028553610,-0.065027180
1640834508944089856,0.155468870,0.230126320,8.869865420,0.067545460,-0.062771130,-0.053858750
1640834508948590080,-0.369181130,0.129956770,9.368515010,0.030948230,-0.030095880,-0.028921670
1640834508950179840,-0.292168290,0.115006280,9.096015930,0.010772050,0.043304260,-0.010184940
1640834508953769984,-0.502002890,-0.126807560,9.887387280,0.007282200,0.019381940,-0.042653090
1640834508954609920,-0.416112960,0.144680830,10.568807600,0.019358100,0.006894770,-0.059597200
1640834508958629888,-0.131175500,0.345830470,9.803483960,0.034804650,0.038985910,-0.043447320
1640834508959089920,-0.096084870,0.144464510,9.978619580,0.030662120,-0.010380150,-0.029984120
1640834508963500032,-0.311739060,0.229684220,9.886219980,0.093553980,-0.004492700,0.012888020
1640834508964099840,-0.124494860,0.217213410,8.656076430,0.067657230,-0.071533020,-0.005294380
1640834508968639744,-0.254286140,0.193974480,9.481265070,0.030192740,-0.043948000,0.013574960
1640834508969229824,-0.071105090,0.680435000,9.413499830,-0.006780030,0.093862410,-0.006505850
1640834508973440000,0.109493690,0.677342360,10.428662300,-0.042262680,0.024636090,-0.000864270
1640834508974099968,-0.071296230,0.734463210,10.948583600,0.018849970,0.022423270,0.030682980
1640834508978419968,-0.037788170,0.714208130,9.779010770,0.048109890,-0.071382530,-0.005306300
1640834508979099904,-0.515183930,0.548476040,9.769448280,0.042901930,-0.121702260,0.042562190
1640834508983500032,-0.594827060,0.520954970,8.541668890,-0.029282270,-0.031262640,0.066703560
1640834508984679936,-0.547777650,0.132407430,9.314826010,-0.080637640,-0.021614130,0.066666310
1640834508988580096,-0.402920040,0.241195340,10.249440190,-0.038129090,0.065512960,0.087611380
1640834508989319936,0.097416540,0.313810940,10.235063550,-0.014442210,-0.003376600,0.055320560
1640834508993579776,0.102653640,0.328573580,10.784884450,0.007359680,-0.061601410,0.041873760
1640834508994119936,0.282937880,0.718415500,9.382896420,-0.057175760,-0.045643750,0.057914850
1640834508998529792,0.055205910,0.485375050,9.203190800,-0.090487320,-0.088994220,0.100433850
1640834508999719936,-0.131329300,0.422505200,9.086517330,-0.059714910,-0.023736060,0.130344940
1640834509003480064,0.013210120,0.395630660,9.076065060,-0.043454770,0.001649560,0.135841970
1640834509004089856,-0.100631360,0.170393690,10.051274300,-0.023698810,0.034572190,0.148174170
1640834509008479744,-0.066907090,0.252359510,10.564910890,-0.073137890,-0.001926720,0.106512020
1640834509009090048,-0.125372390,0.193126920,10.171483040,-0.098532450,-0.036384170,0.107675790
1640834509013479936,-0.044521650,0.009720430,9.251017570,-0.065098700,-0.055138770,0.127235040
1640834509014109952,-0.347336290,-0.143809960,9.688597680,-0.012308360,-0.004811590,0.114677860
1640834509018899968,-0.232827590,0.105016680,8.572456360,0.012853740,0.017689170,0.150276720
1640834509019369728,-0.339264720,-0.022884170,9.726638790,-0.042961530,-0.090286130,0.160697120
1640834509023449856,-0.217261170,0.125416820,9.627434730,-0.079992410,0.072765360,0.159364940
1640834509024539904,0.284529210,0.383283050,9.458693500,-0.072672960,-0.025491420,0.154860330
1640834509028430080,-0.208421960,0.214680330,11.383101460,-0.000046190,0.015603000,0.178655950
1640834509029209856,0.304215250,0.503394480,9.031924250,0.035674870,0.025540590,0.168782440
1640834509033489920,-0.246743490,0.274606110,10.016010280,0.002314150,-0.154449030,0.177772340
1640834509034359808,-0.525918780,0.377704470,9.216394420,-0.053556260,0.027459860,0.205589820
1640834509038429952,-0.204587550,0.323210870,8.486512180,-0.085356830,-0.069627170,0.169685480
1640834509039079936,-0.735853550,0.259519160,10.671000480,-0.042814020,-0.036679210,0.193344070
1640834509043429888,0.034571090,0.633084830,9.657179830,-0.048199300,0.080525880,0.185254230
1640834509044109824,-0.039627880,0.359071730,10.770230290,-0.037424260,-0.019448990,0.196847300
1640834509048470016,-0.165351720,0.516290010,10.648402210,-0.032651430,-0.036272410,0.228796940
1640834509049110016,-0.011999430,0.500096740,9.150445940,-0.068505120,-0.109004970,0.221215190
1640834509053509888,-0.306400690,0.420038820,8.686797140,-0.093983110,-0.093865380,0.257712570
1640834509054230016,-0.136949520,0.536725040,9.012939450,-0.111639510,-0.021342940,0.252623860
1640834509058519808,-0.159057680,0.404447080,9.876384740,-0.104846060,0.097835070,0.245796140
1640834509059089920,0.155568210,0.438653860,10.353845600,-0.077305730,-0.002656880,0.235751290
1640834509063799808,-0.176775380,0.503559710,11.482934950,-0.076547270,-0.076557700,0.213985160
1640834509064549888,0.189162390,0.697346150,8.970281600,-0.148920730,-0.026799740,0.233119730
1640834509068579840,0.029585200,0.301712480,9.360495570,-0.156341490,-0.120137640,0.274157520
1640834509069149952,-0.272927370,0.077322100,9.288452150,-0.099915270,0.091467800,0.295977230
1640834509073649920,0.334475280,0.041361830,8.394203190,-0.064498190,0.003790860,0.281915070
1640834509075330048,-0.307990010,-0.246599930,11.031946180,-0.061029200,-0.008602440,0.300219680
1640834509078480128,0.278049020,0.100437470,9.403533940,-0.133705140,0.065374380,0.273998080
1640834509079289856,0.148136480,0.060827990,10.340223310,-0.156441330,-0.084671390,0.263851910
1640834509083619840,-0.201945630,0.134433840,10.216293330,-0.111503900,0.065831850,0.285086040
1640834509084189952,0.200734360,0.233593260,8.818078990,-0.040216760,0.004270670,0.259038810
1640834509088489984,-0.508587900,0.119797740,9.938406940,-0.016592440,-0.015535950,0.285305080
1640834509089099776,-0.221560850,0.361285000,8.821586610,-0.070205340,0.021907690,0.305069980
1640834509093509888,-0.324652170,0.154755090,9.664224620,-0.124244400,-0.021728870,0.295053390
1640834509094189824,-0.151665850,0.287612080,9.996045110,-0.138232130,0.070667270,0.329461690
1640834509098809856,0.067350730,0.179035630,10.385511400,-0.056663160,0.059950360,0.314536690
1640834509100920064,-0.005890520,-0.033597540,10.609882350,0.000591580,0.050823390,0.290547310
1640834509103469824,0.108781390,0.228984790,9.710102080,0.006307660,-0.030943750,0.317241280
1640834509104120064,-0.312386180,0.172588120,9.320971490,-0.082364690,-0.033582750,0.316205620
1640834509108499968,-0.157825310,0.338779660,8.595226290,-0.149846080,-0.017185510,0.331714750
1640834509109210112,-0.256796120,0.509794350,9.535212520,-0.117781760,0.045923900,0.347215030
1640834509114719744,-0.070454220,0.485940930,10.139992710,-0.076925760,0.143584610,0.330098000
1640834509115259904,0.047288630,0.678904950,11.084758760,-0.030151010,0.033023950,0.323766410
1640834509118719744,-0.331509290,0.729749140,10.744632720,-0.082136690,-0.016434490,0.335745510
1640834509119239680,-0.060033220,0.473068830,9.124120710,-0.141726430,-0.088372820,0.356146720
1640834509123889920,-0.330929010,0.205571830,9.021130560,-0.119619080,0.007581710,0.380645720
1640834509124300032,0.004195850,0.059328690,8.465346340,-0.096440320,0.112344350,0.388722120
1640834509128460032,0.219522600,-0.101876760,9.952906610,-0.053472820,0.107270460,0.387029380
1640834509129099776,0.235896140,0.010863580,10.526731490,-0.086417800,0.132049620,0.359593330
1640834509133410048,0.351644900,0.213749470,10.399825100,-0.140456870,-0.050388280,0.347337160
1640834509134099968,-0.158739600,0.184043940,10.287437440,-0.150719290,-0.016674400,0.371491940
1640834509138439936,-0.046954990,0.065418800,8.559057240,-0.091204060,0.050574550,0.352659880
1640834509139109888,-0.501668390,0.093217370,9.523796080,0.010703510,0.040800880,0.359246220
1640834509144019968,-0.533933400,0.289656280,9.348647120,-0.047294800,0.124801700,0.388154420
1640834509144739840,-0.196146460,0.259179500,9.424002650,-0.117951630,0.019197170,0.393264030
1640834509148519936,-0.401790710,0.316066150,10.486945150,-0.153985630,0.028894840,0.388385390
1640834509149119744,0.112563600,0.333308880,9.616970060,-0.127270830,0.084324170,0.392770770
1640834509153549824,0.060103260,-0.079715390,10.034551620,0.004461410,0.047396120,0.384725570
1640834509154860032,-0.072699360,-0.090721020,10.201129910,0.040736800,0.059518230,0.372715290
1640834509159010048,-0.063699910,0.032887160,9.167431830,-0.014346840,0.022274260,0.402563840
1640834509159869952,-0.299500820,-0.096122560,9.232206340,-0.125062480,-0.033597650,0.402224060
1640834509163499776,-0.350488660,0.203046770,9.637962340,-0.146406860,0.060072540,0.391468410
1640834509164199936,-0.170512650,0.559196590,9.304700850,-0.066989660,0.096823260,0.394272770
1640834509168759808,-0.298163500,0.572453020,10.960250850,-0.019352140,0.036802890,0.373284580
1640834509170019840,-0.138862210,0.940088930,10.288084980,-0.020842260,0.102128100,0.391711290
1640834509173459968,-0.063441820,0.772959530,9.652464870,-0.108410420,-0.059866900,0.406043230
1640834509174259968,-0.384009360,0.474378650,10.035288810,-0.123231140,-0.002790990,0.441859720
1640834509178449920,0.076511960,0.467566010,8.008564950,-0.113037240,0.065845250,0.425981070
1640834509179109888,-0.013860930,0.048340760,9.824519160,-0.094714780,0.015679000,0.439830210
1640834509183549952,0.144447650,0.003677560,10.073616980,-0.055959830,0.204142970,0.447073640
1640834509184259840,0.413428720,-0.040075380,9.984408380,-0.094999380,0.036758190,0.384205580
1640834509188609792,-0.277802290,0.069287920,11.290925030,-0.117391350,-0.039468710,0.424093010
1640834509189219840,0.109848340,0.139358570,8.553084370,-0.133152320,0.037515160,0.407631700
1640834509194959872,-0.134172600,-0.109515210,8.995660780,-0.085623580,-0.000731650,0.399228990
1640834509196499712,-0.466326860,0.295361100,9.520042420,-0.044417390,0.176958750,0.435012580
1640834509199780096,0.022214380,0.176788880,9.090746880,-0.057861210,0.103716560,0.422112640
1640834509200359936,-0.386148070,0.207750680,10.885652540,-0.076143470,0.006559490,0.434912800
1640834509204140032,0.010723630,0.597886800,9.662834170,-0.139440610,0.082279740,0.443746180
1640834509204679936,0.101352260,-0.055202180,9.596287730,-0.105477880,0.049926350,0.440570800
1640834509208539904,-0.169068980,-0.216610490,9.949976920,0.013615190,0.114196540,0.412169130
1640834509209149952,0.066970960,-0.008055960,9.080267910,0.033546980,0.073973820,0.398358640
1640834509213569792,-0.240505070,-0.238196950,9.392007830,-0.034636260,0.029654800,0.433297490
1640834509214329856,-0.160604750,0.141499620,9.212799070,-0.123961290,0.063826150,0.427770670
1640834509218880000,-0.314292310,0.164132610,9.803706170,-0.121550280,0.072087360,0.431189030
1640834509219489792,-0.318165540,0.173552300,10.240515710,-0.026609010,0.102047620,0.425300000
1640834509223699712,-0.362790760,0.460768640,10.491271020,0.051461160,0.063240530,0.399601430
1640834509224549888,-0.433035550,0.541993260,9.915513040,0.011436640,0.035396220,0.417621460
1640834509230659840,-0.244721590,0.708186390,9.139486310,-0.086014000,-0.008484720,0.453971420
1640834509231319808,-0.362604590,0.699707150,9.195765500,-0.148311290,0.053772340,0.443498880
1640834509233449984,0.148097920,0.663986920,8.826622010,-0.136923800,0.101593150,0.457839760
1640834509234129920,0.215732720,0.488683910,10.299284930,-0.038853300,0.101722790,0.435476090
1640834509239549952,0.233642460,0.372159750,10.520812990,-0.013357400,0.137831260,0.415539680
1640834509240130048,0.233155830,0.359553460,10.282150270,-0.081424420,-0.017821790,0.417724250
1640834509243439872,-0.344764500,0.152137830,9.949018480,-0.144547250,-0.013223290,0.433111250
1640834509244109824,-0.046359350,0.091678460,8.100047110,-0.158356170,0.034494710,0.418873190
1640834509248440064,-0.290863810,0.201964210,9.045996670,-0.104033960,0.103516900,0.433532890
1640834509249090048,-0.272872030,0.163169500,9.564929960,-0.069789590,0.201848160,0.443145660
1640834509253749760,-0.039266460,0.250214400,10.481044770,-0.061602880,0.047314170,0.419621170
1640834509254880000,-0.351695750,0.366108270,10.746437070,-0.108258440,0.016723570,0.438897400
1640834509258489856,0.161821630,0.155111160,9.171106340,-0.151827960,0.036272420,0.435850080
1640834509259119872,-0.045483660,0.004422090,9.620758060,-0.083430120,0.096602720,0.406919420
1640834509263429888,0.110999820,0.154308100,8.812694550,-0.049528490,0.181758450,0.408093690
1640834509264119808,0.197770820,-0.010228680,9.453699110,-0.046968460,0.068806110,0.430409700
1640834509268479744,-0.181446450,-0.008169350,9.735726360,-0.078566380,0.090941790,0.426155360
1640834509269209856,0.057140100,0.029816210,9.292524340,-0.125323250,0.012588500,0.425249400
1640834509273700096,-0.391711150,-0.210089640,10.335985180,-0.076313320,0.102832930,0.437678490
1640834509275049984,-0.303022680,-0.253730000,9.600116730,-0.019553300,0.155854200,0.387336280
1640834509278489856,-0.378862650,-0.048198230,10.336431500,0.034496190,0.045312940,0.397875910
1640834509279119872,-0.529980540,0.214220420,9.425157550,-0.023742020,0.104291720,0.415134370
1640834509283500032,-0.130192920,0.332537170,8.670427320,-0.098766390,-0.011086460,0.414127050
1640834509284679936,-0.464755120,0.599525570,9.687019350,-0.089477010,0.089336940,0.432902570
1640834509288470016,0.033313210,0.686028480,9.008481030,-0.072126090,0.121742480,0.416612630
1640834509289339904,-0.007336000,0.521737750,10.840284350,-0.002655390,0.072649120,0.413717330
1640834509293390080,-0.063219980,0.740776420,10.400238990,-0.030863290,0.150471940,0.398346780
1640834509294159872,0.072497280,0.588927920,9.721144680,-0.103914750,-0.038346650,0.418786700
1640834509298390016,-0.395147680,0.459066540,9.760348320,-0.122866040,0.018323960,0.425830510
1640834509299089920,-0.047202630,0.431413020,7.838724610,-0.150501710,0.079306950,0.404587330
1640834509303549952,-0.239099470,0.259074000,9.592998500,-0.076271610,0.072450960,0.442963900
1640834509304420096,-0.254612740,0.177022780,9.996093750,-0.062666830,0.213566450,0.409033980
1640834509308610048,-0.015176530,0.221918810,10.292510030,-0.104635960,0.006982680,0.394529130
1640834509309259776,-0.503232120,0.273005600,11.060807230,-0.136201100,0.004792210,0.424470010
1640834509313760000,-0.024205370,0.112037650,8.550729750,-0.165636840,0.042206050,0.385114550
1640834509314339840,-0.155178130,0.226921100,9.207458500,-0.102575120,0.006741290,0.402173430
1640834509319039744,-0.017728060,0.369949280,8.887797360,-0.085985680,0.216883450,0.419259160
1640834509319909888,0.498294230,0.168666620,9.049798970,-0.092436360,0.094556800,0.418180200
1640834509323439872,-0.018847560,0.305026860,11.011439320,-0.106361510,0.068466370,0.428773460
1640834509324149760,0.291537490,0.177494540,9.287901880,-0.165067660,0.081537690,0.418448510
1640834509328419840,-0.135908620,-0.198029800,10.054562570,-0.106237840,-0.025075680,0.405138820
1640834509329089792,-0.419492330,-0.137007310,9.358128550,-0.053173310,0.168143210,0.369502600
1640834509333469952,-0.218435140,-0.181701650,8.603639600,-0.043216350,0.073279450,0.366829340
1640834509338650112,-0.730601250,-0.143543480,10.086426730,-0.049647700,0.076469790,0.400118590
1640834509339020032,-0.253584300,0.026009070,8.824872970,-0.101394960,0.088518860,0.376609000
1640834509339299840,-0.359648590,0.055820640,9.862248420,-0.084632640,-0.011849410,0.418995380
1640834509343489792,-0.339311000,0.036435760,9.888565060,-0.044870370,0.154562310,0.395765840
1640834509344149760,0.089641070,-0.016289660,9.589472770,0.003975630,0.072403260,0.367198880
1640834509348460032,-0.349712550,0.169013600,10.505787850,0.040565430,0.050272060,0.389429930
1640834509349099776,0.053279450,0.279429290,8.723939900,-0.043760240,0.046493110,0.374150280
1640834509353869824,-0.178567160,0.411616680,9.176034930,-0.097908080,-0.028875470,0.394441190
1640834509355480064,-0.180144760,0.668334420,9.150252340,-0.113654160,0.138273880,0.414490760
1640834509358419968,0.019928120,0.298098800,9.692521100,-0.049650670,0.098899010,0.394625960
1640834509359089920,-0.471426370,0.279877390,11.082880020,0.053207590,0.060628360,0.381366910
1640834509363399936,-0.353412930,0.463281390,9.786596300,-0.001206990,0.004349650,0.355184110
1640834509364140032,-0.651236710,0.354217260,9.655094150,-0.103665870,-0.079184760,0.382272870
1640834509368999936,-0.610325570,0.490668240,8.769145010,-0.165992980,0.049678990,0.383017960
1640834509369979904,-0.123823760,0.421851780,8.642729760,-0.126801450,0.063331430,0.379738210
1640834509373459712,-0.094689590,0.387970060,10.110446930,-0.019100310,0.113897050,0.397509340
1640834509374409984,0.245490430,0.552996220,10.063554760,-0.021936000,0.072212520,0.358741020
1640834509378379776,0.022801320,0.462633700,10.655919080,-0.113770390,-0.061421100,0.379657780
1640834509379119872,-0.068865170,0.341024880,9.397276880,-0.177620350,-0.028702620,0.397586850
1640834509383620096,0.108029090,-0.005440000,8.623792650,-0.145708020,-0.011020900,0.367698070
1640834509386040064,-0.105467240,0.061981560,9.234652520,-0.048729770,0.125473720,0.401581760
1640834509390769920,0.144703340,0.162939890,9.201869010,-0.043028590,0.124584150,0.394175950
1640834509391399936,-0.108833160,0.025136770,10.434646610,-0.094065090,-0.003823640,0.370805030
1640834509393459968,-0.074138130,0.328569590,9.536787990,-0.157563390,0.011543930,0.388653580
1640834509394189824,-0.183664020,-0.098306540,9.489871980,-0.125491630,-0.020414590,0.368258360
1640834509398469888,-0.561106030,-0.198573990,9.750654220,-0.019146500,0.080738970,0.345321060
1640834509399279872,-0.248707000,0.243423220,8.733381270,0.005976860,0.040723380,0.324024290
1640834509403450112,-0.431200770,0.058086050,9.805315970,-0.069707630,0.019744040,0.353522660
1640834509404229888,-0.054942720,0.319417660,9.137588500,-0.135439630,0.094240900,0.373850790
1640834509408470016,-0.041806720,0.284249040,9.805802350,-0.110764820,-0.033147640,0.372880760
1640834509409159936,-0.148100270,-0.046972660,9.979692460,-0.030921400,0.060507660,0.400152830
1640834509413459968,0.146692770,-0.120743890,9.212199210,0.051251060,0.047495960,0.364010070
1640834509414189824,-0.503142000,-0.334439520,10.482721330,0.047054890,-0.005704160,0.357660680
1640834509418700032,-0.382037190,-0.185949940,9.038318630,-0.038571670,-0.001443920,0.368271860
1640834509419819776,-0.427868810,0.010251020,9.076807980,-0.082828110,-0.089834630,0.328910350
1640834509423439872,-0.476944710,0.325754550,9.514617920,-0.096870970,0.080306850,0.346173410
1640834509424209920,-0.008470320,0.585257470,9.408779140,-0.010208790,0.071713350,0.358095820
1640834509428519936,-0.445726750,0.475543890,11.220123290,0.049926340,-0.003269310,0.331862270
1640834509429219840,-0.142200710,0.802034500,9.584375380,0.012588500,-0.030654670,0.358156920
1640834509433750016,-0.316727490,0.622203170,9.341923710,-0.060944260,-0.139307980,0.367903740
1640834509435510016,-0.541895030,0.365991770,9.251350400,-0.131301570,0.005745890,0.372672020
1640834509438449920,0.130731110,0.471250860,8.386508940,-0.083847340,0.017024580,0.388397280
1640834509439169792,-0.078522480,0.110444900,10.479404450,-0.019489230,0.044879320,0.374330580
1640834509443509760,0.394934090,0.129577280,9.892936710,-0.023026760,0.098268700,0.361111760
1640834509444179968,0.223778100,0.155152600,10.243890760,-0.039339070,-0.104160610,0.339713690
1640834509448449792,-0.240891190,-0.065194410,9.995378490,-0.108590720,-0.041222580,0.359983800
1640834509449149952,-0.019056910,-0.035765310,8.244672780,-0.058510910,-0.050033640,0.355069400
1640834509453629952,-0.625785170,-0.073088740,9.625781060,-0.012904410,-0.033171480,0.334478910
1640834509454219776,-0.176893400,0.210819440,8.893504140,-0.022867330,0.104793930,0.351598920
1640834509458380032,-0.045669020,0.364597410,9.836723330,-0.030107800,-0.004898010,0.338420270
1640834509459139840,-0.241126400,0.498564300,10.650095940,-0.100460660,0.031061470,0.336065890
1640834509463539712,0.315210580,0.585526940,9.048934940,-0.091476750,-0.024186070,0.368833570
1640834509464560128,-0.255601470,0.013326490,9.906374930,-0.019574170,-0.055868930,0.364148680
1640834509468529920,-0.094410870,-0.088661630,8.808589940,0.023126600,0.044830140,0.345452100
1640834509469689856,-0.143031570,-0.238069060,9.083275790,0.038491190,-0.033135720,0.349326400
1640834509473529856,-0.399955210,-0.423582230,9.987996100,-0.041615960,0.040106480,0.328636170
1640834509475279872,0.087067400,-0.104080260,9.276658060,-0.056789820,0.010928510,0.322654840
1640834509478439680,-0.297270920,-0.057255120,10.326343540,-0.023993850,-0.021812320,0.345428290
1640834509479300096,-0.098834720,0.099275760,9.677092550,0.020799040,0.031800570,0.345888730
1640834509483559936,-0.207188770,0.322336410,9.528867720,0.094228990,-0.076322260,0.337459180
1640834509484160000,-0.564287720,0.503824470,9.629932400,0.010398030,-0.029534110,0.340704620
1640834509488499968,-0.265354190,0.674259600,8.805925370,-0.048604600,-0.021032990,0.354310900
1640834509489139968,-0.519297180,0.624439420,9.878501890,-0.060071050,-0.027678900,0.346027260
1640834509493469952,-0.124290840,0.813232840,9.785331730,-0.056920950,0.040827680,0.354531380
1640834509494220032,0.117271540,0.540721540,9.897930150,0.013798480,-0.010859970,0.352004170
1640834509498390016,0.003892550,0.325129240,10.257807730,-0.004853310,-0.020414590,0.324274600
1640834509499130112,0.233624040,0.233614860,9.256109240,-0.038762400,-0.024732950,0.352113010
1640834509503449856,-0.196455670,-0.255358820,9.485318180,-0.039285430,-0.058637570,0.365436170
1640834509504209920,-0.277457920,-0.251545280,9.209357260,-0.053088370,-0.035737460,0.358520450
1640834509508719872,-0.187453430,-0.152911420,9.157631870,-0.012902920,-0.019414720,0.359347520
1640834509509229824,-0.301645340,-0.118620450,10.024744990,-0.019280620,0.029163070,0.323410390
1640834509513509888,-0.106893870,0.303843680,10.085179330,-0.022421780,0.009645520,0.297819110
1640834509514419968,-0.170274840,0.517021660,9.940940860,-0.035049020,-0.053036210,0.320199160
1640834509518949888,-0.144897700,0.449765980,9.438289640,-0.045147530,-0.032950930,0.342936780
1640834509519439872,-0.250366060,0.340843410,9.159311290,0.011338290,-0.046773260,0.355991720
1640834509523459840,-0.289123950,0.213786910,9.104681970,0.005055970,-0.046142940,0.355398740
1640834509524199936,-0.077428430,-0.014699130,9.304092410,-0.013306740,0.007250900,0.333671210
1640834509528460032,0.088409220,-0.118515040,9.852928160,-0.015665590,0.053416190,0.315314560
1640834509529209856,0.160763060,-0.143370550,10.241874690,-0.021031500,0.015029310,0.314529210
1640834509533389824,0.041719130,-0.318741650,10.022801400,0.028243660,-0.034576660,0.329114500
1640834509534220032,-0.140090210,-0.336918090,9.370458600,0.068023810,-0.073972350,0.324456330
1640834509538429952,-0.532083210,-0.193221730,9.191083910,0.068126630,-0.078479960,0.322762160
1640834509539180032,-0.601202550,-0.023308150,8.939227100,0.040084120,-0.031808020,0.329956440
1640834509543469824,-0.494450510,0.250849220,9.607951160,0.011220580,0.004117190,0.300373170
1640834509544199936,-0.386580770,0.676066880,10.475252150,0.024029610,0.039158770,0.312496720
1640834509549350144,0.032951850,0.981630090,10.281855580,0.015677510,-0.014081600,0.324732100
1640834509550329856,0.115002470,0.948021830,10.028854370,0.022687020,-0.068052120,0.309307900
1640834509558769920,0.214826930,0.878627900,9.121216770,0.020644070,-0.035089260,0.330388550
1640834509560139776,0.164813410,0.565454660,8.912652020,0.006119910,-0.038328770,0.353428750
1640834509560750080,-0.126995150,0.054507970,9.569635390,0.001102690,-0.011418760,0.346782800
1640834509561179904,0.050080410,-0.076231030,9.512717250,-0.020584460,-0.001803040,0.348179070
1640834509563419904,-0.178932500,-0.386493090,10.183978080,-0.003841520,-0.011540950,0.328099730
1640834509564169984,-0.181338700,-0.320097830,10.106025700,-0.001040100,0.000447030,0.288146730
1640834509568429824,-0.103548930,0.023822780,9.556891440,0.007535520,-0.030061600,0.288935010
1640834509569690112,-0.413094820,0.064246420,9.533162120,0.012260680,-0.026978550,0.309883060
1640834509573419776,-0.306037340,0.246086150,9.097847940,0.021252040,-0.030012430,0.329189030
1640834509574179840,-0.346279710,0.357660650,9.191837310,0.031356510,-0.041973590,0.340984790
1640834509578439936,-0.129422830,0.351795290,9.467217450,0.005704170,0.010311600,0.328122110
1640834509579139840,0.214276000,0.518390060,9.929576870,0.003971160,0.039364400,0.301198720
1640834509583500032,0.243200290,0.461376190,10.096744540,-0.011040270,0.014643370,0.295716460
1640834509584179968,0.428667310,0.254927960,9.749336240,-0.003968180,-0.005850200,0.322474570
1640834509589419776,0.022340380,-0.114535500,9.529474260,0.060568750,-0.029917060,0.320289970
1640834509590149888,-0.290001030,-0.375572200,9.100256920,0.066891320,-0.084163250,0.312502680
1640834509593590016,-0.466201220,-0.343608440,9.025708200,0.048406430,-0.038048620,0.315927000
1640834509594220032,-0.587808370,-0.340523300,9.324746130,0.003206730,0.034520030,0.292837620
1640834509598520064,-0.318415820,0.043612710,10.325280190,-0.003868340,0.041474410,0.290626320
1640834509599190016,-0.320752230,0.407052640,10.537003520,0.045865770,0.038136550,0.300656290
1640834509603680000,-0.128863750,0.531941120,10.010513310,0.064928830,-0.075675550,0.298576060
1640834509604219904,-0.195277540,0.870155100,9.544272420,0.083160400,-0.092427430,0.326073200
1640834509608519936,-0.247841150,0.720767680,8.512865070,0.016658010,-0.036941470,0.338377030
1640834509609139968,-0.103661950,0.386042360,9.331880570,-0.002418460,-0.031040610,0.357693490
1640834509613440000,-0.024718290,0.384436760,9.864555360,0.025965270,0.086580220,0.336331130
1640834509614179840,0.289862540,0.202427430,10.211645130,0.005966420,0.004735590,0.319701460
1640834509618510080,0.156683340,0.207606700,10.803843500,0.017268950,-0.002379710,0.314015120
1640834509619170048,0.040363130,0.212863250,9.425666810,-0.025017560,-0.040820240,0.273235170
1640834509623699968,-0.316672210,0.054400120,9.361166000,-0.014306600,-0.125780720,0.322210790
1640834509624300032,-0.583107470,0.024652770,8.833228110,0.049863760,-0.009067350,0.320120190
1640834509628779776,-0.349152060,-0.018143530,8.851678850,0.027304890,-0.013355910,0.332050000
1640834509629319936,-0.435635360,0.239568620,10.451909070,0.019644200,0.052516160,0.366221370
1640834509633519872,0.036191360,0.241966310,10.023025510,-0.038996330,0.055913620,0.314271450
1640834509634179840,0.274128410,0.499522600,10.353525160,-0.039140880,-0.076696270,0.314874950
1640834509638520064,0.179996160,0.565230970,9.579569820,0.005479160,0.008264180,0.331343740
1640834509639279872,0.383019690,0.015459430,8.611571310,0.046141450,-0.030197210,0.311499860
1640834509643479808,-0.163562770,0.056517550,9.575351720,0.095266130,-0.014390050,0.341628520
1640834509644199936,-0.143499960,-0.229567590,8.862801550,0.021679700,0.027601420,0.339083460
1640834509648409856,-0.225585280,-0.513123450,9.844708440,-0.011858340,-0.029091540,0.339463290
1640834509649129984,-0.422276620,-0.107422430,10.086660390,0.009958450,0.065028670,0.313296940
1640834509653729792,-0.139496880,-0.145698930,9.824471470,0.027766830,-0.004497170,0.313696320
1640834509654409984,-0.587169290,-0.050269150,10.341511730,0.123912110,-0.009107590,0.327879280
1640834509658469888,-0.414755790,0.119803020,8.993280410,0.132144960,-0.060892100,0.299270390
1640834509659129856,-0.531410520,0.133382130,9.312026980,0.095944110,-0.103503490,0.340509440
1640834509663450112,-0.373987940,0.435265210,8.882329940,0.044055290,0.033386060,0.327003060
1640834509664179968,0.127954480,0.534518900,9.643922810,-0.008904930,0.017586350,0.309199090
1640834509669159936,0.141910970,0.736045360,10.704903600,0.041729200,0.077874950,0.341521140
1640834509669609984,0.474922930,0.663669290,10.009786610,0.087179230,-0.010235610,0.305326250
1640834509676270080,0.113063100,0.433453500,10.425056460,0.102460390,-0.105960670,0.311788950
1640834509676809984,-0.070207420,0.518582460,8.607832910,0.053338710,-0.042437020,0.340315730
1640834509678419712,-0.312279280,0.013965490,8.961892130,-0.005708640,-0.076152380,0.338658720
1640834509679159808,-0.570456680,0.138022940,9.573043820,0.000835960,0.069561620,0.355950090
1640834509683470080,-0.212590610,0.282172620,9.514778140,0.005358460,0.023986400,0.329199430
1640834509684249856,-0.414574150,0.078402150,11.223075870,0.027601430,0.001798570,0.320734140
1640834509688930048,-0.024255760,0.535074950,9.585902210,0.037008530,0.015431640,0.283645120
1640834509689959936,-0.166260320,0.497234050,9.933923720,0.005136430,-0.129874080,0.292643960
1640834509693449984,-0.151988280,0.545668300,9.046454430,-0.005106630,0.013838710,0.349998500
1640834509694200064,0.342597400,0.535386500,8.137414930,-0.019703810,-0.011527540,0.346970590
1640834509698400000,0.007727750,0.222134630,10.374717710,-0.007966160,0.053077940,0.380493790
1640834509699179776,0.542711910,0.214265820,9.300956730,0.011186300,0.120653230,0.362874660
1640834509703449856,0.233468090,-0.023595990,10.762424470,0.014573340,-0.089378650,0.303174560
1640834509704699904,-0.146762040,0.036606190,9.999464040,-0.011084970,0.018976630,0.325265530
1640834509708489984,0.073571360,-0.139807910,8.281691550,-0.019736590,-0.045774890,0.303673800
1640834509709849856,-0.801842750,-0.449671510,10.140362740,0.039738420,0.011177360,0.314192500
1640834509713639936,-0.434410840,-0.101137010,8.490343090,0.074702490,0.087936220,0.324527860
1640834509714319872,-0.552989900,-0.210288570,9.944693570,0.064525010,-0.070367750,0.302618770
1640834509718469888,-0.506421860,0.125097110,10.048605920,0.006470080,0.071932380,0.318530140
1640834509719439872,0.273049950,0.356745780,9.053977010,-0.006926060,0.001181660,0.311714410
1640834509723470080,-0.270922010,-0.056353510,11.012788770,0.074179460,0.028605760,0.333216760
1640834509724199936,0.227936120,0.238906380,9.109592440,0.142888770,0.043188050,0.324934780
1640834509728469760,-0.011399550,0.131498810,9.587574960,0.136293500,-0.122799000,0.324186680
1640834509729179904,-0.256903410,0.156729740,9.295555110,0.025244060,0.045573720,0.357641310
1640834509733430016,0.164697710,0.355248750,8.684622760,-0.015971070,0.005738440,0.332622200
1640834509734249728,-0.502217830,0.131653350,10.823080060,0.023950640,0.028300290,0.332722130
1640834509738790144,0.021466660,0.440152500,9.624503140,0.090754040,0.071688000,0.325264070
1640834509739249920,-0.228409440,0.366271670,10.360737800,0.130616130,-0.056794290,0.297279690
1640834509743419904,-0.637161730,0.466920380,10.103152280,0.046473750,0.000265240,0.322863520
1640834509744189952,-0.282794180,0.572803680,8.565672870,-0.006401540,-0.074948380,0.340268020
1640834509749359872,-0.598679720,0.197201100,9.573390010,-0.017745790,-0.023791200,0.346711310
1640834509750269952,-0.067285430,0.452182260,9.129541400,0.034366550,0.096794960,0.359021160
1640834509754870016,0.054087420,0.325223800,10.295256610,0.069943080,0.005041060,0.331741600
1640834509756999936,0.187199340,0.319644030,10.410558700,0.013783570,0.038114190,0.315360750
1640834509759130112,0.581408440,0.540513870,9.392327310,-0.024271020,-0.021925570,0.325086740
1640834509759650048,0.098789890,0.131463970,9.730796810,-0.042596460,-0.004963580,0.341978670
1640834509763500032,0.215866240,0.104616480,8.816255570,0.019605460,0.021770600,0.361555900
1640834509764199936,-0.104430920,-0.039340850,9.306937220,0.070531670,0.006066260,0.351256160
1640834509768519936,-0.250169310,-0.201639090,9.574975970,0.025160610,0.072868180,0.339891080
1640834509769179904,-0.294021460,0.017018870,9.882762910,0.016301870,0.018304590,0.322321120
1640834509773550080,-0.529285250,0.028414660,10.172606470,-0.033953790,0.018519160,0.306706130
1640834509774249984,-0.278783050,0.185796740,9.411522870,0.001938640,0.018052760,0.324016810
1640834509778409984,-0.506419600,0.159663230,9.733321190,0.078250470,0.006018580,0.322954360
1640834509779170048,-0.337607090,0.183502120,9.348958020,0.070492920,0.013032550,0.339947580
1640834509783609856,-0.153810980,0.259506730,9.287024500,0.059509280,-0.007656220,0.359100160
1640834509785149696,0.013943050,0.158100920,9.680978780,-0.009855630,0.052949790,0.335398350
1640834509790360064,0.410764010,0.288198320,9.785836220,-0.011311470,0.079239910,0.347060020
1640834509791379968,0.226643400,0.126589730,10.356803890,0.040720410,0.060006970,0.342413720
1640834509794019840,0.219866130,0.061204570,10.063599590,0.064992900,-0.002241130,0.313578550
1640834509795569920,-0.132220750,0.255687030,9.398560520,0.091433530,-0.046972930,0.335986940
1640834509798470144,-0.495357720,0.183076620,9.224025730,0.008893010,-0.006729370,0.335639770
1640834509799459840,-0.616890970,0.233366040,9.488375660,-0.017556550,0.043791530,0.348813770
1640834509803490048,-0.577614250,0.389168620,9.706324580,0.020536790,0.022962690,0.342889220
1640834509804239872,-0.265829770,0.370164780,10.233892440,0.021077690,0.046877560,0.331267680
1640834509808430080,-0.056558470,0.622813940,9.965816500,0.047890840,0.072790690,0.326967240
1640834509809179904,0.032665870,0.608146190,9.993376730,-0.011885170,-0.028960410,0.309769750
1640834509813419776,0.063966520,0.524370550,9.525559430,-0.030173370,0.003203750,0.361661610
1640834509814249984,0.220244630,0.257725950,8.610141750,-0.006046890,0.001890960,0.367443350
1640834509818429952,0.095194120,-0.049389470,9.868440630,0.008331240,0.039742890,0.365267720
1640834509819150080,0.281727190,-0.071588150,9.363929750,0.039957460,0.129278020,0.373950630
1640834509823489792,0.311996760,-0.316705970,10.084501270,-0.001069900,0.014923510,0.320075450
1640834509824280064,-0.061834130,-0.138123930,10.432596210,-0.020408630,0.091171260,0.313006280
1640834509828819968,-0.119355250,0.032020810,8.956937790,-0.014355780,-0.009362400,0.321942540
1640834509829479936,-0.775127710,-0.231698230,10.006954190,0.040216750,-0.059804320,0.337100030
1640834509834579968,-0.631456970,0.153834980,8.392733570,0.084798040,0.088946540,0.346796270
1640834509835289856,-0.561550800,0.150059070,9.393044470,0.046925250,-0.002397600,0.334787370
1640834509839249920,-0.556125040,0.204308750,10.516462330,0.008633730,0.131158550,0.353600140
1640834509839789824,0.357809720,0.485331830,9.178211210,-0.014880300,0.067961220,0.329619680
1640834509843439872,0.077025420,0.178486180,10.964575770,0.024221840,0.015124680,0.351618260
1640834509844179968,0.394401700,0.231763540,9.095015530,0.079627350,0.096690650,0.345440300
1640834509848539904,0.274256470,0.061752340,9.234528540,0.091749430,-0.087556250,0.332002340
1640834509849319936,-0.360403330,-0.020353060,9.591310500,0.039386750,0.055544080,0.363688170
1640834509853410048,0.102584270,0.050529870,8.367249490,-0.013136870,0.051088640,0.332783220
1640834509854269952,-0.574169700,-0.041055820,10.916375160,0.012539330,0.038020310,0.322370260
1640834509858409984,-0.293814570,0.360665320,9.766506200,0.044639420,0.140391310,0.332410630
1640834509859149824,-0.218468190,0.363197240,10.208595280,0.064142050,-0.043964390,0.301851360
1640834509863489792,-0.654876350,0.621642890,10.212493900,0.032266970,0.040751700,0.328399240
1640834509864440064,0.030025050,0.754970250,8.135130880,-0.026863810,-0.008910890,0.350286100
1640834509869199872,-0.398197710,0.369640470,9.857703210,-0.017000730,0.020276020,0.363332090
1640834509870029824,0.016249120,0.564513920,9.153311730,-0.007687510,0.139109790,0.376734080
1640834509873750016,0.257149700,0.266414550,10.012413980,0.017659370,-0.004504620,0.363898340
1640834509874439936,0.045879850,0.010508870,10.401885030,0.000195210,0.097905120,0.341641900
