timestamp,accel_x,accel_y,accel_z,gyro_x,gyro_y,gyro_z
1640791542186359808,0.082729610,0.497101810,8.822731020,-0.161868330,-0.001293420,0.004488230
1640791542187919872,0.204795090,0.189325530,9.246810910,-0.151678920,0.041058660,0.002036990
1640791542191269888,-0.161047410,0.091875040,10.930559160,-0.056213140,0.112020970,-0.018082560
1640791542192729856,0.080504600,0.190248190,9.978337290,-0.013905770,-0.024308270,-0.016357010
1640791542197739776,-0.251228210,0.182649360,10.211383820,-0.066444290,-0.150094930,0.000558790
1640791542198329856,-0.161084610,0.104028130,9.058283810,-0.161862390,0.001713630,-0.000114740
1640791542201349888,0.070251960,-0.041990710,8.677412030,-0.124308470,0.048081580,-0.018753110
1640791542203029760,-0.039300600,0.166857120,10.192205430,-0.027774270,0.090368080,-0.017553570
1640791542206359808,0.149477940,0.252467990,10.120566370,-0.032071770,0.059524170,-0.019711250
1640791542207739904,-0.011524690,-0.024445920,10.395269390,-0.057624280,-0.068414210,-0.018602610
1640791542211899904,-0.231769100,-0.114484460,9.620218280,-0.051639980,-0.073766730,-0.019852820
1640791542212839936,-0.233261940,-0.190228270,8.802374840,-0.039386750,-0.015498700,-0.036698580
1640791542216329728,-0.318448840,0.014369270,9.576233860,-0.040686130,0.066642460,-0.028651950
1640791542217909760,-0.401683630,0.138839780,10.139187810,-0.048656770,0.044377150,-0.027516480
1640791542221839872,-0.281013820,-0.111046110,10.297081950,-0.018668170,-0.039036570,-0.023885070
1640791542222990080,-0.251887080,-0.084320890,9.833841320,0.056266800,-0.062495480,-0.016756360
1640791542226490112,-0.415169630,0.018144430,9.706434250,0.041036310,-0.045035780,-0.034044680
1640791542230520064,-0.322130950,0.228700790,9.668972970,-0.033211710,0.005421040,-0.027287010
1640791542231449856,-0.202786680,0.370371910,9.643808360,-0.042738030,-0.045473880,-0.012187660
1640791542233280000,0.058136850,0.312577190,9.801576610,0.007617470,-0.013406580,-0.018095970
1640791542236460032,0.186447870,0.474450680,9.938226700,0.057432060,0.027135020,-0.040911140
1640791542237710080,-0.271252810,0.636225100,10.631211280,0.031486150,-0.067867350,-0.031101710
1640791542241240064,-0.264738140,0.657490730,9.937917710,-0.054579970,-0.119090090,-0.007580220
1640791542244499968,-0.193020300,0.467269450,9.197624210,-0.068596010,-0.110922770,-0.006870930
1640791542246279936,-0.149396780,0.471501050,9.481999400,-0.031884010,0.043798980,-0.007216630
1640791542247830016,0.001263650,0.648421170,9.967412950,-0.019614400,0.054550180,-0.021837650
1640791542251919872,-0.211977300,0.462492140,10.899787900,-0.027112660,-0.074528170,-0.008274610
1640791542253520128,0.049011140,0.383029070,9.813019750,-0.054244700,-0.109505650,0.006175040
1640791542256409856,-0.007279680,0.214579820,9.484892850,-0.061689320,-0.094115740,-0.019310410
1640791542258540032,-0.005401110,0.358937530,9.524377820,-0.056891140,0.011444090,-0.002916160
1640791542261299968,0.291977350,0.414811730,9.319661140,-0.089070190,0.035376850,-0.000257790
1640791542262840064,0.182099610,0.141712840,10.565171240,-0.073187050,0.028690700,-0.010299680
1640791542266649856,0.101847130,0.109146910,10.194272990,-0.004237890,-0.023864210,0.001597400
1640791542267699968,-0.139924850,0.169984120,9.753205300,0.001758340,-0.162610410,-0.009839240
1640791542271309824,-0.337609560,0.293676610,9.273046490,-0.100603710,-0.059773040,0.000306960
1640791542273069824,-0.183616060,0.239439770,8.831349370,-0.160926600,0.060448060,-0.007478890
1640791542276399872,-0.334253850,0.031761680,10.523691180,-0.064298500,0.047159190,-0.024747850
1640791542277730048,-0.227329790,0.110439340,10.318395610,0.058135390,-0.012202560,-0.030954180
1640791542281339904,-0.074885430,0.125316080,9.669076920,0.039538740,-0.126890840,-0.024749340
1640791542282840064,-0.310081510,0.122609730,9.787247660,-0.078111890,-0.054246190,-0.014141200
1640791542286239744,-0.160729720,-0.091130610,9.031181340,-0.121876600,-0.005592400,-0.022463500
1640791542287699968,-0.014349200,-0.105799530,9.457498550,-0.006324050,-0.032687190,-0.021237130
1640791542291349760,-0.065794010,0.187187870,10.041692730,0.072686360,0.030842420,-0.044798840
1640791542292800000,0.006818000,0.272868130,10.156062130,0.013053420,-0.022290650,-0.026948750
1640791542296300032,-0.269454120,0.382354970,10.333395000,-0.043733420,-0.122749810,0.000569220
1640791542297979904,-0.480653520,0.096101050,9.744622230,-0.054225340,-0.100992630,-0.026173890
1640791542301359872,-0.295662520,0.200352530,9.052124980,0.008672480,-0.058820850,-0.026966640
1640791542303129856,-0.504233780,0.532500090,9.889610290,0.051020090,-0.026248400,-0.028067830
1640791542306629888,-0.360343010,0.464797590,10.130230900,-0.020268560,-0.004792210,-0.025027990
1640791542307790080,0.036034540,0.613847370,9.664494510,-0.059828170,-0.091974440,-0.000900030
1640791542312009728,-0.189246680,0.502808390,10.537062640,-0.058460240,-0.096456710,-0.017152730
1640791542312809984,0.039855090,0.452288810,9.710004810,-0.041469930,-0.025208290,-0.021538140
1640791542316269824,0.000547320,0.643314900,9.843296050,-0.011543930,-0.139366110,-0.016890470
1640791542317699840,0.033191970,0.514563800,9.996231080,-0.060015910,-0.052571300,-0.007995960
1640791542321270016,0.494194600,0.555289980,8.956542970,-0.107637060,0.006100540,-0.017070770
1640791542323020032,0.089531150,0.617983640,10.573946000,-0.104102480,-0.032877910,-0.003771480
1640791542326380032,-0.016746280,0.519854900,10.215515140,-0.099386280,-0.038240850,0.002706050
1640791542328159744,-0.040890430,0.233051270,9.499052050,-0.059571850,-0.159749370,-0.007618960
1640791542331409920,-0.259027390,0.218391720,9.720361710,-0.042286520,-0.083856280,-0.005070860
1640791542333029888,-0.143299830,0.208387270,9.143606190,-0.105434650,0.046454370,-0.017817310
1640791542336269824,-0.040189330,0.130324240,10.083339690,-0.144015250,0.003591180,-0.008364020
1640791542337709824,0.035089020,0.166213270,10.384483340,-0.100833180,-0.004512070,-0.009860100
1640791542341379840,0.105133880,0.035637630,9.788041110,-0.045375530,-0.070147220,-0.029435760
1640791542342850048,0.109544500,0.193152530,9.501077650,-0.018160050,-0.094726690,0.000321870
1640791542346469888,-0.009165660,0.201573180,9.243504520,-0.078830120,-0.017634030,-0.001297890
1640791542348120064,0.142144980,-0.116553820,9.488908770,-0.118809940,0.044804820,-0.006090110
1640791542351269888,0.025804380,-0.079262490,10.067081450,-0.038400280,0.031037630,-0.009395180
1640791542352730112,-0.172353040,-0.037827030,10.248009680,0.017805400,-0.048984580,-0.025568900
1640791542356699904,-0.053437250,0.089768600,9.640976910,-0.023451450,-0.067399430,-0.021912160
1640791542357889792,-0.399452120,-0.006715970,9.502607350,-0.066000230,-0.048927960,-0.016073880
1640791542363079936,-0.352240590,-0.113702280,9.497901920,-0.043426460,-0.004148480,-0.027602910
1640791542364679936,-0.165963280,0.022825040,9.367768290,0.027246770,0.015981500,-0.023724140
1640791542366839808,-0.297923740,0.159483480,10.254645350,0.043207420,-0.006912650,-0.015616420
1640791542367719936,-0.115302990,0.330838260,10.146967890,-0.018623470,-0.026364630,-0.006039440
1640791542371419904,-0.229196120,0.063134850,9.945796010,-0.017553570,-0.094787760,-0.005228820
1640791542372789760,-0.189131530,0.072060730,9.591247560,0.031483170,-0.040693580,-0.023494660
1640791542376359936,-0.064432690,0.340754720,9.518926620,0.048175460,0.012704730,-0.044068700
1640791542377910016,-0.269341800,0.526031320,10.361617090,0.008614360,-0.016537310,-0.026842950
1640791542381529856,0.036021370,0.738420900,9.655046460,-0.045089430,-0.065101680,-0.004044180
1640791542382779904,-0.011286580,0.473263770,9.791190150,-0.033470990,-0.072032220,-0.012028220
1640791542386240000,-0.200085480,0.397045820,10.093066220,0.027975440,0.009064380,-0.014404950
1640791542387709952,-0.321166100,0.532455440,10.032587050,0.047935550,-0.078374150,-0.011311470
1640791542391670016,-0.455338420,0.393575340,10.137465480,-0.017109520,-0.112947840,0.003859400
1640791542392789760,0.100724550,0.521992920,8.941257480,-0.089721400,0.005495550,0.015434630
1640791542396450048,0.057295360,0.555097100,9.937667850,-0.088353460,0.014238060,-0.004662570
1640791542399229952,-0.083078940,0.484745680,10.671880720,-0.044238570,0.016187130,-0.004307930
1640791542401259776,0.101434440,0.453221290,9.789243700,0.008443000,-0.110337150,-0.006076690
1640791542402809856,-0.049705350,0.224466760,9.892498020,-0.001090760,-0.135612490,-0.009137390
1640791542406240000,0.141462090,0.271467720,8.993366240,-0.061182680,0.040723390,-0.008648630
1640791542408009984,0.213160320,0.370748280,9.604475980,-0.126022100,0.035876030,0.012165310
1640791542411409920,0.138312130,0.269097480,10.565743450,-0.113382940,0.051216780,0.007900600
1640791542412760064,0.278191090,0.076693460,9.854427340,-0.021146240,-0.027608880,-0.012263660
1640791542416229888,-0.045038340,0.018705680,9.942107200,0.064821540,-0.109310470,-0.000789760
1640791542417690112,-0.341401250,0.121906200,9.338093760,-0.004062060,-0.034201150,-0.011315940
1640791542421259776,-0.151968610,-0.042712650,9.025711060,-0.117132090,0.014860930,-0.008963050
1640791542422780160,-0.223530650,0.046064050,10.009845730,-0.089539600,0.057224940,0.002056360
1640791542426409984,-0.127883290,0.039488900,10.273146630,0.000689920,0.054232780,-0.034411260
1640791542427749888,0.027012750,0.139466090,9.999323840,0.074237590,-0.055289280,-0.015454000
1640791542431289856,-0.321649730,0.154900000,9.917144780,0.052824630,-0.089547040,-0.020818410
1640791542432770048,-0.152095880,-0.121457560,9.028275490,-0.049828000,-0.010918080,-0.023722640
1640791542436260096,0.008731410,0.039494980,9.049008370,-0.035002830,0.023205580,-0.002263490
1640791542437749760,-0.244319780,0.035260230,10.467540740,0.019662080,0.057552750,-0.025841590
1640791542441589760,0.076595030,0.160043610,10.017318730,0.061394280,0.009188060,-0.028187040
1640791542443130112,-0.172809390,0.358055980,10.232408520,0.065483160,-0.112278770,-0.016579030
1640791542447150080,-0.318714830,0.177724330,9.859956740,0.015886130,-0.040361290,-0.018696490
1640791542447739904,-0.105696290,0.226742360,8.931422230,0.003713370,-0.006657840,-0.019304450
1640791542451299840,-0.469830900,0.439716400,10.284070970,0.030365590,-0.016450880,-0.024428960
1640791542452780032,-0.205937950,0.664812270,9.735306740,-0.002403560,0.015623870,-0.013843180
1640791542456440064,0.034838210,0.580797430,9.662962910,-0.008988380,-0.077216330,-0.004397330
1640791542458220032,-0.191626300,0.425681110,10.427969930,0.009346010,0.004656610,-0.017882880
1640791542461319936,-0.163589940,0.457374570,9.808474540,0.014512240,-0.026908520,-0.028873990
1640791542462909952,-0.304126230,0.341406640,10.140864370,0.012055040,-0.127878790,-0.005798040
1640791542466329856,-0.065086900,0.479733590,9.211033820,-0.034961110,-0.038355590,0.000239910
1640791542468039936,0.183315710,0.427683830,9.223853110,-0.073604290,0.033423310,-0.002348420
1640791542471330048,0.056561870,0.506433130,10.569532390,-0.052014000,0.053399810,0.001116100
1640791542473009920,-0.062277660,0.570841310,10.471114160,-0.024020670,-0.064329810,-0.008296960
1640791542476759808,-0.014969310,0.406884580,9.860775950,-0.017894810,-0.133498010,-0.009192530
1640791542477839872,-0.036909830,0.649734740,9.212827680,-0.049553810,-0.027330220,-0.007510190
1640791542483670016,-0.146745530,0.752331970,9.478709220,-0.128939750,0.031884020,-0.000183280
1640791542484179968,0.212197290,0.570990800,9.872972490,-0.148877500,0.071054700,0.012642150
1640791542486240000,0.168770950,0.343946460,10.243519780,-0.057375430,0.029474500,-0.002047420
1640791542487820032,0.030482430,0.128454210,10.367612840,0.013323130,-0.050257150,-0.008171800
1640791542491289856,0.002084250,0.151930630,9.324225430,-0.021803380,-0.081731380,0.000603500
1640791542492940032,-0.029547250,0.036722380,8.938952450,-0.148072840,-0.018827620,0.012595950
1640791542496359936,0.193085660,-0.052698120,9.331261630,-0.178900380,0.144763290,0.001186130
1640791542498679808,0.070041780,-0.105084280,10.281684880,-0.049537420,0.091257700,-0.013808910
1640791542501230080,-0.009743300,0.059343120,10.480587010,0.051225720,-0.020174680,-0.013808910
1640791542502779904,-0.074114820,0.235625490,9.669375420,0.005844230,-0.048959260,-0.009769200
1640791542506299904,-0.334698620,0.000642200,9.376791000,-0.094547870,-0.024633120,0.011326370
1640791542507759872,-0.183184190,0.115815630,8.889568330,-0.100176040,0.060331820,0.015077000
1640791542511339776,-0.174929740,0.009518770,9.627248760,-0.014150140,0.093187400,-0.012026730
1640791542513799936,-0.022715790,0.068025950,10.138851170,0.039254130,0.105315470,-0.007733700
1640791542516209920,-0.047160600,0.113273930,10.240941050,0.032708050,-0.020587450,-0.014051800
1640791542517679872,-0.346204310,-0.233484240,10.026356700,0.011809170,-0.070543590,-0.019378960
1640791542521689856,-0.049363040,-0.157407600,8.486432080,0.003540520,0.007143620,-0.010353330
1640791542522779904,-0.379398970,-0.119344080,9.707238200,0.017768140,0.061517950,-0.037507710
1640791542526229760,-0.326698240,0.090916950,10.062008860,0.033706420,0.098757450,-0.028699630
1640791542527819776,-0.014147410,0.250542820,9.704030040,0.068095330,-0.038155910,-0.008045140
1640791542532559872,-0.321330070,0.160664510,10.424963000,0.075513120,-0.026032330,-0.015935300
1640791542533229824,-0.205074210,0.266669480,9.469050410,0.054268550,0.035595890,-0.021195410
1640791542536279808,-0.346190540,0.370570180,9.896915440,0.045231000,-0.067797300,-0.016500060
1640791542537949952,-0.328581840,0.506212770,9.711618420,0.027100750,0.007455050,-0.007130210
1640791542541270016,0.216005090,0.547531960,8.912892340,0.032290820,0.040270390,-0.020976360
1640791542542799872,-0.119574510,0.656825010,10.641750340,0.040459640,0.045421720,-0.012838840
1640791542546309888,-0.255499960,0.651851120,10.453969000,0.021955370,0.008714200,-0.016734000
1640791542547789824,-0.115973590,0.431187120,9.656178470,0.017893320,-0.148843230,-0.005379320
1640791542551259904,-0.216122670,0.522801940,9.460081100,0.027738510,-0.036875900,0.005987290
1640791542552919808,-0.109511470,0.558797720,9.318846700,-0.020374360,0.098146510,-0.014342370
1640791542556320000,0.026830290,0.712082920,10.215886120,-0.056272750,0.035353000,0.016245250
1640791542557740032,-0.076442340,0.637587610,10.594155310,-0.044021020,-0.017012660,0.001898410
1640791542561289984,0.139875040,0.350888700,9.795769690,-0.010634960,-0.036212800,-0.017979740
1640791542563569920,0.011084430,0.575716910,9.582096100,0.019723170,-0.050428510,-0.000062580
1640791542567669760,-0.250807050,0.542070930,9.770054820,-0.058045980,0.009521840,0.002527240
1640791542568509696,0.239343110,0.370847640,9.144007680,-0.147624310,0.059410940,0.018990040
1640791542571329792,0.182782310,0.290399730,10.011717800,-0.084701200,0.065331160,0.017364330
1640791542572719872,-0.021622340,0.090909210,10.570038800,0.000481310,0.076280540,-0.011648240
1640791542576199936,0.081771280,0.233297930,9.645010950,0.016063450,-0.063204760,0.002601740
1640791542577789952,-0.298445310,0.073032540,9.789863590,-0.059562930,-0.070098040,0.011163950
1640791542581289984,0.039295740,-0.083085540,8.784866330,-0.132033240,0.107032080,-0.003102420
1640791542582909696,0.069508210,-0.015506520,9.562030790,-0.054515900,0.101847950,-0.002653900
1640791542586329856,-0.083218570,0.114400910,10.698698040,0.020098690,0.118978320,0.002890830
1640791542587719936,0.162640820,0.252112060,9.905639650,-0.000940260,0.009134410,-0.004260240
1640791542591239936,-0.150386110,-0.019921960,9.963358880,-0.019057090,-0.068813550,0.020296870
1640791542592749824,-0.030841670,-0.097541780,8.833935740,-0.017775600,0.059147180,0.005394220
1640791542599739904,0.002439430,-0.066963940,9.151960370,0.007110830,0.105005510,-0.012215970
1640791542600580096,-0.164765050,-0.008543170,10.391725540,0.019469850,0.156471120,-0.002454220
1640791542601440000,-0.035511560,0.031381230,10.085786820,0.017759210,0.029937920,-0.015632810
1640791542603360000,-0.264438630,-0.203785170,10.115396500,0.067156560,-0.046129530,-0.021567940
1640791542606230016,-0.280706910,-0.112294230,9.168334010,0.071378060,0.044921040,-0.019820040
1640791542607759872,-0.397870780,-0.041381610,9.421525960,0.061251220,0.037741660,-0.028362870
1640791542611259904,-0.439316960,0.010421280,10.044093130,0.051936510,0.089752680,-0.013048950
1640791542612989952,0.048569800,0.202663240,9.223692890,0.071989010,0.046889490,0.012555720
1640791542617889792,-0.079794910,0.133714150,10.430847170,0.103583950,0.037011510,0.010071690
1640791542619109888,-0.117550890,0.114165480,10.037507060,0.109343240,0.070127840,-0.011174380
1640791542621219840,-0.112206950,0.167002500,9.489338870,0.113292050,-0.081804390,-0.011494750
1640791542622789888,-0.233565200,0.358351650,9.551737790,0.084781650,0.015938280,-0.012585520
1640791542626259968,0.074279110,0.568966510,8.955380440,0.034333770,0.121165830,-0.024798520
1640791542627800064,-0.230919170,0.717582290,10.705152510,0.035321710,0.059656800,-0.013104080
1640791542631409920,-0.390593350,0.728919270,10.647230150,0.063231570,0.006312130,-0.024558600
1640791542635660032,-0.210028920,0.467107450,9.402666090,0.094985970,-0.094611940,-0.010950860
1640791542636499968,-0.320717510,0.548024360,9.475865360,0.092209890,0.003783410,-0.001882020
1640791542637799936,-0.354537250,0.566591200,9.582118030,0.001375380,0.108832120,-0.008735060
1640791542641219840,-0.001114320,0.619600530,9.868338580,-0.063371670,0.021378700,0.032806400
1640791542642749952,0.216670840,0.594910860,10.110086440,-0.028243660,0.011019410,0.008268650
1640791542646309888,0.208623540,0.347286110,10.096859930,0.035409630,0.058680780,-0.022482870
1640791542647779840,0.054683150,0.652137640,10.092719080,0.064557790,-0.009067360,-0.011253360
1640791542651510016,-0.353078450,0.684326170,10.192275050,-0.039866570,-0.071026390,-0.004759430
1640791542652940032,0.120553600,0.493673980,8.801626210,-0.141307710,0.032185020,0.011344250
1640791542656270080,0.177326080,0.482127550,9.426350590,-0.099702180,0.120951240,0.002877410
1640791542657750016,-0.216211330,0.379376830,10.931581500,-0.011639300,0.130236160,-0.019522010
1640791542661329920,0.022222400,0.423367050,9.975048070,0.007934870,-0.022280220,0.000473860
1640791542663599872,-0.142480340,0.270279770,9.867925640,-0.040443240,-0.098389390,0.013557080
1640791542667859968,-0.109308830,0.107210700,9.219917300,-0.118625160,0.084997720,0.015659630
1640791542669910016,0.133204100,0.116518580,9.149207120,-0.111329560,0.104786460,0.021329520
1640791542671219712,0.026216640,0.156792180,10.533742900,-0.054207450,0.121171790,0.011815130
1640791542672760064,0.302341250,0.137180100,9.925722120,-0.033298130,0.103110070,-0.004956130
1640791542676199936,0.172681900,-0.070787620,10.072082520,0.000588600,-0.014695520,-0.004448000
1640791542677749760,-0.158651520,-0.017257160,9.575518610,-0.005598370,0.008288020,0.003208220
1640791542681419776,-0.076301550,-0.002695420,8.736706730,-0.072300430,0.059022010,-0.008706750
1640791542682899968,-0.099674940,-0.013846140,9.698028560,-0.074684610,0.145712490,-0.005003810
1640791542686269952,-0.105115630,0.119737290,10.020722390,-0.020611290,0.152169170,-0.018088520
1640791542687739904,-0.060754090,0.057767140,10.355231290,0.046762820,0.057439500,-0.015436110
1640791542691299840,-0.263136030,0.123905640,10.085567470,0.053001940,0.016838310,0.006419420
1640791542692750080,-0.313392940,-0.036927570,9.306806560,-0.005316730,0.015319890,-0.012663010
1640791542698099968,-0.303026880,-0.190559640,9.250499730,-0.010721390,0.078120830,-0.007937850
1640791542699919872,-0.155429410,-0.005930960,9.162517550,0.044906140,0.118853160,-0.009706620
1640791542701280000,-0.034001770,0.072459590,10.091467860,0.063055750,0.112016500,-0.014045830
1640791542704140032,-0.057538320,0.174819830,10.465766910,0.050853200,0.085270410,-0.013951960
1640791542706220032,-0.237166000,0.152910320,10.028357510,0.058475130,-0.038833920,-0.018699460
1640791542707789824,-0.261979040,0.165076850,9.459259990,0.061291450,-0.023949140,-0.026136630
1640791542711289856,-0.276776400,0.321259500,9.020217900,0.057625780,0.091764340,-0.031238790
1640791542714489856,-0.357452780,0.470259130,9.938977240,0.042577090,0.117596990,-0.027389820
1640791542716310016,-0.337496670,0.586616750,10.406659130,0.044105950,0.039140880,-0.010986630
1640791542718739968,-0.271718260,0.380934300,9.900769230,0.054222350,-0.027991830,-0.000007450
1640791542721259776,-0.177807380,0.398695050,9.686943050,0.057925280,0.025884810,-0.005726520
1640791542722779904,-0.545305970,0.489160750,10.225856780,0.042983890,0.027267640,-0.025391580
1640791542726179840,-0.256340860,0.528071280,9.691876410,0.001654030,-0.021234150,-0.009833280
1640791542732649984,0.148888110,0.642601310,9.273391720,-0.006642940,0.018194320,-0.007241960
1640791542733440000,0.070212000,0.540700140,10.257026670,0.003114340,0.109608480,-0.034549830
1640791542733880064,0.111533310,0.656747640,10.432971950,0.023378430,0.059393050,-0.014226140
1640791542736480000,-0.240738930,0.612719240,10.462254520,0.024148820,-0.142322500,-0.007133180
1640791542737710080,-0.145881980,0.443235700,9.387053490,-0.038918850,-0.047120460,-0.002466140
1640791542741240064,0.120730240,0.649798390,8.760166170,-0.066983700,0.092218820,-0.003635880
1640791542742799872,-0.307716850,0.720727920,10.711145400,-0.082649280,0.085891770,-0.004763900
1640791542747840000,0.115529310,0.659138680,10.147037510,-0.083781790,0.064261260,-0.014111400
1640791542748430080,0.149532270,0.541881620,9.898162840,-0.035591420,-0.046364970,-0.022576750
1640791542751819776,-0.206216600,0.455131110,10.271878240,-0.026309490,-0.001513960,-0.015330320
1640791542752770048,0.036038500,0.407707780,8.998388290,-0.090862820,0.034780800,0.003065170
1640791542756239872,-0.004475430,0.269245620,9.860374450,-0.127936880,0.018426770,0.020740920
1640791542757779712,0.178696140,0.140477760,9.944405560,-0.119955860,0.174799590,0.005386770
1640791542765329920,0.381741080,0.060388240,10.059106830,-0.051297240,0.085093070,-0.018015500
1640791542766109952,-0.065280940,0.277249870,10.735370640,-0.001570580,-0.002262000,-0.004377960
1640791542767040000,-0.036114710,0.275561750,9.215915680,-0.085376210,-0.014223160,-0.026045740
1640791542767849984,0.079423520,0.096371720,8.810342790,-0.133036080,0.028364360,-0.003124770
1640791542771229952,-0.092697360,0.290416240,9.548208240,-0.093676140,0.179728870,-0.002108510
1640791542772759808,0.026553930,0.114819140,10.163920400,-0.042611350,0.169487270,-0.009438390
1640791542776219904,-0.049381110,0.142199990,10.821419720,0.005936620,0.034043200,0.012418630
1640791542778199808,-0.357096580,-0.079212000,10.230502130,-0.016140940,-0.019358100,-0.002053380
1640791542781519872,-0.045176690,-0.326010020,8.735659600,-0.045701870,0.015027820,0.002409520
1640791542782879744,-0.105083800,-0.116290410,8.917828560,-0.025279820,0.142456590,0.006036460
1640791542786229760,-0.038863420,-0.070955880,9.869264600,-0.023716690,0.213235620,-0.016286970
1640791542787789824,0.166980130,0.058340460,10.287351610,0.013287370,0.091356040,-0.008118150
1640791542791259904,-0.086585200,0.093107730,10.264746670,0.063133240,-0.007975100,0.002034010
1640791542793289984,-0.092187900,0.069306810,9.462472920,0.044874850,0.031822920,-0.009082260
1640791542796829952,-0.371642770,0.175574140,9.426203730,0.017635520,0.072397280,-0.014618040
1640791542802949888,-0.565625070,0.176786090,9.777172090,0.009220840,0.092722480,-0.025454160
1640791542803319808,-0.223535540,0.277439090,9.416114810,0.042493640,0.075316440,-0.013642010
1640791542803639808,-0.216876690,0.209244060,9.851197240,0.084277990,0.087371470,-0.009898840
1640791542806229760,-0.169702950,0.162754180,10.155040740,0.071860860,0.086629410,-0.006546080
1640791542807780096,-0.300103250,0.165505050,10.105385780,0.059533120,-0.011120730,-0.001525880
1640791542811259904,-0.239963220,0.052646320,9.584416390,0.043365360,-0.012885040,0.002560020
1640791542813419776,0.078894640,0.360697300,9.113806720,0.032968820,0.091286030,0.001816450
1640791542816329984,-0.211179600,0.447383280,10.450366020,0.041830540,0.119330000,-0.021407010
1640791542817849856,-0.120237120,0.467455210,10.422166820,0.062783070,0.044730310,-0.009736420
1640791542821270016,-0.115996990,0.622422280,9.665017130,0.083358590,-0.072795150,-0.015982990
1640791542822860032,-0.263648840,0.548677980,9.735175130,0.043365360,0.023846330,-0.019851330
1640791542826239744,-0.078154100,0.815577270,9.290160180,-0.011298060,0.111414500,0.005999210
1640791542827800064,-0.319588540,0.930963990,10.482997890,-0.042769310,0.010825690,0.014176970
1640791542832499968,0.021440990,0.634580970,10.099865910,-0.044347350,0.052274770,0.013686720
1640791542833299968,0.206896620,0.502598640,9.502945900,0.027416650,0.041405860,0.002510850
1640791542836249856,-0.330114190,0.393608390,10.887450220,0.042319300,0.028711560,-0.005228820
1640791542837769984,-0.118418830,0.385192720,9.464903830,-0.030459470,0.011874740,0.010868910
1640791542841679872,-0.001049400,0.283351600,9.317689900,-0.100693110,-0.051121420,0.034785270
1640791542842809856,0.139476790,0.300265760,9.706417080,-0.098986940,0.156055420,0.013034050
1640791542846299904,0.341789360,0.394551720,9.690531730,-0.045645240,0.139999400,0.004640220
1640791542847780096,0.047404290,0.458628860,11.013059620,0.009208920,0.020462270,0.018922980
1640791542851249920,-0.033323720,0.397951420,10.071487430,-0.031715640,0.008180740,0.010563430
1640791542852880128,-0.022684020,0.270514790,9.115412710,-0.078816700,-0.042399760,0.018867850
1640791542856310016,-0.207314980,0.450129450,9.387335780,-0.095653540,0.076606870,0.020830340
1640791542857829888,-0.057903100,0.246585000,9.354047780,-0.106552250,0.172856450,0.006261470
1640791542861639936,0.108943180,0.096423890,10.286295890,-0.029012560,0.106592460,0.012621280
1640791542863279872,-0.102142360,0.136244060,10.603967670,0.037312510,0.033198300,0.000169870
1640791542867099904,-0.110125420,-0.115425020,9.548526760,-0.010649860,-0.008887050,0.011856850
1640791542868109824,-0.185208070,-0.009355510,9.203136440,-0.074408940,-0.003461540,0.033840540
1640791542871229952,-0.375295040,-0.152261420,9.485244750,-0.095993300,0.113160930,-0.002083180
1640791542873240064,-0.079745920,-0.172729880,9.510573390,-0.005786120,0.127737220,-0.005568560
1640791542876229888,-0.164523830,0.113199370,10.203703880,0.097587700,0.059711940,0.000718240
1640791542878170112,-0.265942360,0.084120020,10.311495780,0.052003570,0.030000510,0.000752510
1640791542882360064,-0.111017350,0.224454980,9.521605490,-0.029487910,0.008706750,0.022846460
1640791542882860032,-0.353207830,0.162638430,9.647963520,-0.032691660,0.016209490,0.016842780
1640791542886240000,-0.159434970,0.141607490,9.398770330,0.016880040,0.090046230,0.003817680
1640791542887739904,-0.036629570,0.423461140,9.658525470,0.089634950,0.078499320,-0.007984040
1640791542891279872,-0.343677820,0.514432910,10.652026180,0.056454550,0.036594270,0.008954110
1640791542892779776,-0.226221280,0.444143350,9.864510540,-0.005282460,-0.003127750,0.018401450
1640791542896289792,-0.353022190,0.246458260,9.701257710,0.005784630,-0.057952120,0.008730590
1640791542899639808,-0.480425920,0.343848470,9.794075970,0.027142470,0.044135750,0.008440020
1640791542901219840,-0.265966090,0.526945290,9.647227290,0.015211110,0.059095040,0.001865630
1640791542902789888,-0.226623650,0.464268770,10.372422220,-0.002995130,0.007598100,0.025251510
1640791542906259968,0.116570710,0.569179590,9.824410440,-0.010851030,0.039678820,0.016012790
1640791542907800064,0.115560530,0.535872400,10.050352100,-0.017938020,0.005652010,-0.001494590
1640791542911639808,-0.139424370,0.595057730,10.252458570,-0.008289520,-0.000910460,0.030273200
1640791542912819968,-0.078135740,0.570506810,9.518279080,-0.031933200,-0.048427290,0.019483270
1640791542916260096,0.029621200,0.416040240,9.557865140,-0.043843690,0.004759430,0.021138790
1640791542917819904,0.083346440,0.591682200,9.676761630,-0.050035120,0.111256550,0.031280520
1640791542921530112,0.017038660,0.501086890,10.370161060,-0.065848230,0.058831290,0.021386150
1640791542922819840,-0.049405840,0.387182060,10.335239410,-0.057029740,-0.008870660,0.028404600
1640791542926249984,-0.132657450,0.385138840,9.459382060,-0.043334070,-0.053539880,0.026896600
1640791542927980032,-0.218982010,0.224904300,9.460664750,-0.045897070,-0.008828940,0.030513110
1640791542931479808,-0.109790990,0.276096790,9.259457590,-0.079132620,0.103816400,0.037164990
1640791542932899840,0.034735060,0.126966010,9.958827970,-0.090321900,0.093294670,0.023660070
1640791542936509952,0.141620730,0.094874340,10.414519310,-0.047817830,0.073613230,0.014229120
1640791542937939968,0.134632480,0.180391670,9.870666500,-0.012142960,-0.000531970,0.018213690
1640791542941249792,0.014056350,0.175195620,9.678620340,-0.043813890,-0.027303400,0.032910710
1640791542942769920,-0.134207610,0.088254000,9.321786880,-0.074833650,0.045800220,0.020565100
1640791542946310144,-0.048635710,-0.060179770,9.287531850,-0.040480500,0.088426470,0.010123850
1640791542947830016,-0.081476490,0.120649650,9.896463390,0.026521090,0.079581150,0.016750400
1640791542951299840,-0.261522890,0.114899290,10.259930610,0.008808070,0.062903750,0.009149310
1640791542953029888,-0.130700110,0.046370890,9.895088200,-0.032876430,0.008738040,0.021769110
1640791542956229888,-0.514375690,-0.056814720,9.932679180,-0.008447470,-0.042375920,0.019750000
1640791542957769984,-0.372902270,-0.287794110,9.247744560,0.033354760,0.037784880,-0.007779900
1640791542961769728,-0.107510920,0.002793390,9.126080510,0.064417720,0.082643340,0.001722570
1640791542963209984,-0.484178040,0.128668530,10.577584270,0.056742140,0.063318010,0.006195900
1640791542967759872,-0.085395660,0.158116520,9.854756360,-0.001402200,0.006207820,0.009705130
1640791542969009920,-0.079947930,0.307556810,9.691936490,0.033877790,-0.071364640,0.022196770
1640791542971309824,-0.312484200,0.241448770,10.051218030,0.066702080,0.044716890,-0.006276370
1640791542972809984,-0.049561050,0.471404550,9.256932260,0.069434950,0.039576000,-0.001545250
1640791542976199936,-0.362833320,0.698915420,10.229939460,0.053016850,-0.048875810,0.013521310
1640791542978129920,-0.043850540,0.617029250,9.554536820,-0.004509090,0.052015490,0.021444260
1640791542981339904,0.026648180,0.558157560,9.587566380,0.001601870,0.008518990,0.013157730
1640791542982959872,-0.557904240,0.566720370,10.955860140,0.040923060,-0.012907390,0.012178720
1640791542986479872,-0.298321100,0.544738590,9.500940320,0.022186340,-0.050690770,0.004479290
1640791542987749888,-0.171390520,0.443303640,9.422049520,0.007721780,-0.084161760,0.020684300
1640791542991259904,-0.127729300,0.608317020,9.836681370,-0.030057130,0.103177140,0.012803080
1640791542992809984,0.046470600,0.619941120,9.940692900,-0.070720920,0.050914290,0.014422830
1640791542996359936,-0.003377710,0.540944810,10.649392130,-0.032371290,-0.062029070,0.040741280
1640791542998289920,0.065105430,0.559615790,9.711575510,-0.008508560,-0.039629630,0.014713410
1640791543001410048,0.057161520,0.519424560,9.424119000,-0.026457010,-0.042499610,0.018902120
1640791543003039744,-0.032397270,0.707117020,9.779453280,-0.082144140,0.031502540,0.036552550
1640791543006199808,0.067567890,0.590517100,9.671295170,-0.140522420,0.046998270,0.022765990
1640791543007779840,0.245392890,0.364896920,10.029849050,-0.105446580,0.041884180,0.008416180
1640791543011699968,0.030922460,0.413435220,10.161939620,-0.017388160,0.036776070,-0.001868610
1640791543013069824,-0.213722380,0.307027610,10.039892200,-0.033991040,-0.054419040,0.009132920
1640791543016419840,-0.028635250,0.242804120,9.211637500,-0.108614560,-0.033953780,0.035333630
1640791543018619904,0.066597100,0.037741810,8.992968560,-0.149832680,0.085721910,0.028881430
1640791543021250048,0.138800190,0.008241710,9.856238370,-0.097204760,0.152948510,0.024171170
1640791543022799872,0.091375820,0.070304570,10.494169240,-0.008419160,0.081627070,0.020511450
1640791543026180096,-0.101051690,0.009218050,10.355273250,-0.011640790,-0.055542590,0.025588280
1640791543028079872,-0.112456920,0.004003500,9.174982070,-0.051324070,-0.052972140,0.003889200
1640791543031360000,-0.234679830,-0.105768130,8.872360230,-0.067773460,0.072722140,0.002661350
1640791543032969984,-0.226588990,0.143715770,9.535747530,-0.046587000,0.155141990,0.019457940
1640791543036399872,-0.294030700,0.185037110,10.515564920,-0.024178630,0.080855190,0.005823370
1640791543037760000,-0.266382010,-0.067620210,10.355730060,0.005358460,-0.017037990,0.017306210
1640791543041230080,-0.213177590,0.026759970,9.314975740,0.046736010,-0.056979070,0.010946390
1640791543042820096,-0.403556470,-0.118898850,9.461800580,0.024107090,0.032180540,-0.003474950
1640791543046309888,-0.232993020,0.041800960,9.356917380,-0.015462940,0.124566260,0.007434190
1640791543047809792,-0.194822820,0.279216710,10.084350590,-0.010529160,0.010947880,0.003945830
1640791543051419904,-0.100347420,0.130895080,10.057035450,0.022751090,0.005514920,0.013840200
1640791543052809984,0.103237060,0.273080440,9.304584500,0.068856780,0.024044520,0.009998680
1640791543056199936,-0.470606330,0.216880780,10.542922020,0.077542670,-0.013911720,-0.001722570
1640791543057789952,-0.554796870,0.226886810,9.826183320,0.032885380,-0.030526520,0.007538500
1640791543061649920,-0.155600880,0.357240170,8.913876530,0.007909540,-0.068031260,0.021059810
1640791543062959872,-0.256045850,0.411371650,10.036106110,0.016063450,0.093056280,0.019459430
1640791543066669824,-0.181419800,0.597943480,10.127045630,0.006775560,0.107699650,-0.006888810
1640791543068249856,-0.284775140,0.598307550,10.716295240,0.042945150,-0.115886350,0.011081990
1640791543071259904,-0.300344380,0.607551930,9.833189960,0.044980650,-0.102311370,0.014162060
1640791543072829952,0.098679520,0.571094930,8.607896800,-0.000269710,-0.015084450,0.005064900
1640791543076259840,-0.083264590,0.783391480,9.968174930,-0.047317150,0.063902150,0.032515820
1640791543078039808,-0.084606160,0.813193320,10.340811730,-0.083139540,0.063714390,0.022798780
1640791543081649920,0.221273680,0.474290970,10.120914460,-0.050759310,-0.060983000,0.018519160
1640791543083859968,-0.023207770,0.478503350,10.133022310,0.043122460,-0.064523520,0.025692580
1640791543086269952,-0.277586760,0.447043090,9.612207410,-0.001521410,-0.037562850,-0.004088880
1640791543087780096,-0.000383940,0.548622190,8.976668360,-0.118315210,-0.009277460,0.041857350
1640791543091219968,-0.102112380,0.384395660,9.815047260,-0.158372510,0.064063060,0.043889880
1640791543092809984,0.078763080,0.146846260,10.367523190,-0.084479160,0.110296930,-0.002060830
1640791543096400128,0.021087810,0.337681000,10.347324370,0.033088020,-0.039806960,0.015455480
1640791543098709760,-0.344264510,0.396134200,10.167683600,-0.004495680,-0.114734480,0.010195370
1640791543101329920,0.172869770,0.296875060,8.417143820,-0.142949820,0.009812420,0.026986010
1640791543104179968,0.108940090,0.107876230,9.168803220,-0.138066710,0.099927190,0.030580160
1640791543106220032,-0.050042120,0.091711600,10.485051160,-0.046053540,0.140532870,0.009150800
1640791543107810048,0.203191350,0.240310100,10.017052650,0.016206500,-0.007846950,0.008773800
1640791543111749888,-0.177799460,0.163653850,10.269554140,-0.023992360,-0.086450570,0.012031200
1640791543114089984,-0.155316380,0.091038350,9.143318180,-0.096181040,0.021928550,0.008520480
1640791543118299904,-0.311558930,-0.006319970,9.191081050,-0.073905280,0.017359850,-0.003126260
1640791543118809856,-0.396890580,0.069807130,9.911548610,-0.019524990,0.093415360,0.005188580
1640791543121219840,-0.149828020,0.217048450,9.823074340,-0.000809130,0.058978810,0.000333790
1640791543122819840,-0.400700150,-0.058663780,10.558622360,0.018665190,-0.026127700,0.001136960
1640791543126240000,-0.282444890,-0.076109040,9.525633810,0.017796460,-0.038509070,0.007735190
1640791543132619776,-0.255758140,-0.026600260,9.274530410,0.012445450,-0.026164950,-0.011135640
1640791543133469696,-0.319918100,0.062393350,9.947499280,-0.005763770,0.080610820,-0.000628830
1640791543133959936,-0.037728410,0.315887210,9.651303290,0.003924970,0.028988720,0.011852380
1640791543136240128,-0.127428340,0.306867540,10.346444130,0.047293310,-0.041167450,0.011050700
1640791543137779968,-0.125805260,0.360822080,9.862448690,0.049704310,0.021867460,0.005537270
1640791543141249792,-0.411463770,0.429395650,9.838728900,0.041200220,-0.070796910,0.009346010
1640791543143149824,-0.586306100,0.458886980,10.135373120,0.003030900,-0.072672960,0.006365780
1640791543146489856,-0.144426110,0.495046110,8.868161200,-0.009770690,0.009438400,0.021311640
1640791543147830016,-0.110887320,0.613338890,10.103096960,-0.001169740,0.040972230,0.003178420
1640791543151239936,-0.133037730,0.751776810,10.678405760,-0.016658010,0.071913010,-0.002984700
1640791543152829952,-0.085095060,0.545758310,10.172581670,-0.014570360,-0.100547080,0.006186960
1640791543156229888,-0.082199940,0.436566030,9.808122630,0.014996530,-0.137150290,0.026917460
1640791543157789952,0.011166700,0.439637330,8.934355740,-0.016841290,0.012601910,-0.001709160
1640791543161890048,0.104382720,0.498813720,9.509016990,-0.071927910,0.070600210,0.024302310
1640791543164109824,0.045271070,0.524923090,10.543140410,-0.083479290,0.049978500,0.019192700
1640791543166299904,-0.012746080,0.194512440,10.472629550,-0.046041610,-0.015117230,0.001947580
1640791543168179968,0.084456850,0.315659430,9.723345760,0.017987200,-0.080338140,0.014109910
1640791543171229952,-0.239769370,0.441066770,9.459985730,-0.007309020,-0.048947330,0.017106530
1640791543172819968,-0.048125100,0.364579800,9.057213780,-0.121898940,0.062470130,0.021246080
1640791543176499968,0.203056560,0.319720720,9.573678970,-0.117704270,0.106112670,0.024752320
1640791543178220032,-0.146171660,0.022382380,10.955409050,-0.013701620,0.059531630,0.001637640
1640791543181289984,-0.013140020,0.063247260,10.042529110,0.061771280,-0.042910870,-0.010526180
1640791543183800064,-0.132224220,0.086156540,9.358094220,0.016133490,-0.112669170,0.006148220
1640791543186249984,-0.255898710,-0.084515840,9.284121510,-0.096768140,0.071273750,0.003887710
1640791543187789824,0.014421280,0.016435400,8.988928790,-0.079472370,0.119747220,-0.004895030
1640791543191219712,-0.132254790,0.186145680,10.415879250,0.020582970,0.034305460,0.002557040
1640791543192819712,0.035562330,0.392756700,10.013969420,0.022749600,0.062051410,-0.006106500
1640791543196549888,-0.066303300,0.193609670,9.794798850,0.010374190,-0.049424180,-0.011031330
1640791543197880064,-0.371290390,-0.057375470,9.800927160,0.024794040,-0.039812920,-0.005966430
1640791543201469952,-0.217551870,-0.058366910,8.801303860,0.026316940,0.054328140,-0.016409160
1640791543202819840,-0.360929490,-0.094072800,9.916509630,0.037695470,0.060606000,-0.003868340
1640791543206240000,-0.355813920,-0.007168010,10.273917200,0.030872220,0.065600860,-0.004217030
1640791543207799808,-0.280707720,-0.185739010,9.888105390,0.067996990,-0.063297150,-0.032557550
1640791543211739904,-0.299283920,-0.104978470,9.577274320,0.114539270,-0.064119700,-0.020422040
1640791543212930048,-0.272156360,0.124245490,9.188482280,0.096571450,0.047945980,-0.028511880
1640791543216310016,-0.381862520,0.299271880,10.171663280,0.051049890,0.003406410,-0.026901070
1640791543217779968,-0.176877950,0.507169490,9.959324840,0.045374040,-0.016927720,0.005155800
1640791543221189888,0.023337690,0.447025240,9.704397200,0.086297090,-0.019341710,-0.012362000
1640791543222800128,-0.231664340,0.549628140,10.368402480,0.124712300,0.009889900,-0.021004680
1640791543226279936,-0.409068170,0.653654220,10.003926280,0.093628470,-0.040118400,-0.016736980
1640791543227799808,-0.338391690,0.638612810,9.601883890,0.035132470,-0.142639880,0.006850060
1640791543231709952,-0.027296080,0.545945470,9.086850170,0.019539890,0.006635490,-0.001011790
1640791543232919808,0.133622850,0.461058470,9.656604770,0.038383900,0.108711430,-0.023227930
1640791543236269824,-0.104918820,0.660180030,11.054658890,0.062459710,0.016283990,-0.017912680
1640791543237829888,-0.230978710,0.492735120,10.576216700,0.049288570,-0.133940590,-0.014328960
1640791543241390080,-0.021050920,0.262324660,9.172536850,0.035555660,-0.143307450,-0.000894070
1640791543243019776,-0.144576240,0.489574520,9.004863740,0.018481910,-0.004224480,-0.013767190
1640791543246259968,-0.107164040,0.492869730,9.673023220,-0.029918560,0.111547120,-0.017315150
1640791543248709888,0.185262870,0.567216340,10.157593730,-0.028344990,0.034852330,0.014445190
1640791543251329792,0.054137920,0.272530620,10.752982140,0.043433900,-0.048701470,-0.007136170
1640791543252839936,0.048667840,0.081109140,9.786997800,0.086851420,-0.065448880,-0.016573070
1640791543256199936,0.058748260,0.381616120,8.818178180,0.052630900,-0.078314550,0.004178280
1640791543258299904,-0.189691890,0.162480320,9.613815310,-0.062479080,0.071625410,-0.017543140
1640791543261250048,0.227409200,0.085174110,9.365016940,-0.062181060,0.125835840,-0.021770600
1640791543262929920,-0.045650420,0.039031670,10.624397280,0.086840990,-0.022572280,-0.028716030
1640791543266350080,-0.233314560,0.054689650,10.301532750,0.142827630,-0.027576090,-0.038014350
1640791543267930112,-0.184932560,0.180256810,8.988811490,0.056886680,-0.075542930,-0.017894800
1640791543271289856,-0.562186900,0.027671910,9.854965210,-0.019520520,-0.022931400,-0.007364150
1640791543273019904,-0.303117600,0.012598440,9.138062480,0.004325810,0.090163950,-0.022985040
1640791543276199936,0.028022930,0.172018900,9.643638610,0.102531930,0.023238360,-0.021462140
1640791543277819904,-0.053169250,0.435678090,10.693840980,0.122492040,0.079172850,-0.034074490
1640791543281359872,-0.079813320,0.456185130,10.147141460,0.047340980,-0.026796760,-0.039263070
1640791543282860032,-0.195824100,0.176560600,9.842734340,0.046576560,-0.138638930,-0.016027690
1640791543286209792,-0.318172430,0.241544350,9.062051770,0.082817680,-0.017516310,-0.040170550
1640791543287859968,-0.161899150,0.418018820,9.190247540,0.079545380,0.075803700,-0.039856140
1640791543291219968,-0.195465490,0.717288970,10.420389180,0.040034960,0.070816280,-0.010497870
1640791543292809984,-0.223751460,0.689557790,10.525112150,0.005842750,-0.027522440,-0.023394820
1640791543296349952,-0.039340370,0.384241730,10.025390620,0.047941520,-0.074386610,-0.031141940
1640791543299520000,-0.381519650,0.530708370,9.769073490,0.110580030,-0.051715970,-0.037331880
1640791543301280000,-0.556251590,0.618702590,9.705910680,0.045023860,-0.052879760,-0.022368130
1640791543302959872,-0.077750880,0.551062110,9.123418810,-0.050154340,-0.002363320,-0.006380680
1640791543306629888,-0.012800220,0.414982350,9.924941060,-0.023406740,0.042730570,-0.015158950
1640791543307799808,0.099325720,0.339388850,10.656729700,0.044871870,0.068029760,-0.034002960
1640791543311219968,-0.014196390,0.411896230,10.434161190,0.080189110,-0.083225970,-0.034770360
1640791543313069824,-0.181730060,0.309918370,9.883515360,0.030036270,-0.152900820,-0.023801630
1640791543316269824,0.143855480,0.288949460,8.616696360,-0.051285330,0.008848310,-0.033561890
1640791543318320128,-0.018864620,0.309356780,9.407058720,-0.049749020,0.081010170,-0.033265360
1640791543321260032,-0.053884780,0.371505680,10.439815520,-0.007592140,0.085000710,-0.020314750
1640791543323079936,-0.005065280,0.195940630,10.340046880,0.037001080,-0.033485890,-0.037071110
1640791543326200064,-0.348489340,-0.103826910,10.297414780,0.079303990,-0.111077740,-0.032606720
1640791543327839744,-0.286134810,0.043117990,8.972102170,0.047726940,-0.056585680,-0.021658840
1640791543331439872,-0.258829360,0.108443760,9.025166510,-0.028601290,0.023438040,-0.035852190
1640791543332899840,-0.123834480,0.170868340,9.828441620,-0.051166120,0.129880010,-0.021849570
1640791543336269824,0.118061510,0.177712170,10.179035190,0.050491100,0.031664970,-0.031985340
1640791543337819904,-0.120503950,0.088888500,10.636004450,0.152936620,-0.081458700,-0.043968860
1640791543341239808,-0.108965530,0.279319790,9.323581700,0.112614040,-0.058789560,-0.028198960
1640791543342829824,-0.326919970,0.201433150,9.363390920,-0.007250910,-0.056473920,-0.033819680
1640791543346550016,-0.519608560,0.066044410,9.861835480,-0.023303930,0.047189000,-0.023859740
1640791543347849728,-0.101513640,0.094701890,9.338391300,0.093297660,0.030165910,-0.025694070
1640791543351349760,-0.323561520,0.205954490,10.642724990,0.183448210,-0.013481080,-0.032831730
1640791543353039872,-0.256447670,0.530813160,10.019694330,0.094443570,0.001929700,-0.030022870
1640791543356209920,-0.182405320,0.465381950,9.644000050,0.002156200,-0.119400030,-0.007700920
1640791543357789952,-0.386382160,0.410540220,9.877648350,0.007650260,-0.041143600,-0.015231970
1640791543361250048,0.034143990,0.518763780,9.122779850,0.073562560,0.029835110,-0.043404110
1640791543363149824,-0.096757900,0.753049670,10.376792910,0.107799470,-0.000174340,-0.035023690
1640791543366309888,-0.241714850,0.871739920,10.596832280,0.042958560,-0.000819560,-0.031915310
1640791543367929856,-0.018734560,0.523252550,9.731367110,-0.020979340,-0.104169530,-0.019669530
1640791543371500032,-0.245646430,0.468597740,9.888402940,0.021065770,-0.086011000,-0.006924570
1640791543372849920,-0.378131930,0.498963710,9.683887480,0.020833310,-0.000274180,-0.034086410
1640791543376219904,-0.077609600,0.613689120,9.539329530,-0.010006130,-0.015109780,-0.000721220
1640791543377840128,-0.099351490,0.557426450,10.222911830,-0.034739080,-0.019563730,-0.009836260
1640791543381499904,0.079539510,0.319479580,10.118244170,-0.029616060,0.024884940,-0.043790050
1640791543382870016,0.035679770,0.520487730,10.058983800,0.008735060,-0.047974290,-0.033600630
1640791543386519808,-0.477349280,0.596455340,10.466004370,-0.011925400,-0.121100250,-0.030100350
1640791543387779840,-0.032457930,0.374873880,8.984618190,-0.083144020,-0.050315260,-0.019954140
1640791543391330048,0.116216210,0.421939700,9.166898730,-0.057491650,0.023750960,-0.015999370
1640791543392829952,-0.100379560,0.433859910,10.569927220,-0.026328860,0.098128600,-0.015708810
1640791543396309760,0.296238630,0.417777630,9.867928500,-0.038279590,0.007623440,0.000864270
1640791543399329792,0.012747500,0.195031270,10.369305610,-0.026021900,-0.103577980,0.002379720
1640791543401499904,-0.087194350,-0.027515250,9.571012500,-0.032347440,-0.020445880,-0.011941790
1640791543404199936,-0.005378730,-0.090962220,8.892442700,-0.017125900,-0.025402010,-0.022485850
1640791543406269952,-0.303127350,-0.047060040,10.004331590,-0.016187130,0.051240630,-0.035013260
1640791543407840000,-0.050412570,0.033137160,9.689621930,-0.036336480,0.086675570,-0.040169060
1640791543411239936,-0.159876230,-0.058379990,10.321838380,0.011882190,-0.027370460,-0.029435760
1640791543412849920,-0.312389760,0.085702690,10.099651340,0.045031310,-0.043980770,-0.016997750
1640791543420009728,-0.194348390,0.170358490,9.071138380,0.023797150,-0.038272150,-0.026090450
1640791543420699904,-0.284206360,0.092017440,9.630739210,-0.002035500,0.024925180,-0.032012170
1640791543421219840,-0.089120830,0.277081970,9.446295740,0.019612910,0.060988970,-0.028865040
1640791543422809856,0.010499780,0.225577640,9.995452880,0.054977850,-0.002609190,-0.035703180
1640791543426230016,-0.105207020,0.184406070,10.334831240,0.068435070,0.016675890,-0.032788520
1640791543427879936,-0.292620030,0.188948390,9.908710480,0.051051380,-0.063763560,-0.031603870
1640791543432000000,-0.450476770,0.024010030,9.889403340,0.040371720,-0.086043780,-0.038243830
1640791543434829824,-0.251573920,0.128886610,8.857771870,0.047323110,0.019232930,-0.030656160
1640791543436930048,-0.213737550,0.414370810,9.685749050,0.046168260,0.045308470,-0.041164450
1640791543439489792,-0.226384890,0.617896740,10.587683680,0.019848340,0.066679700,-0.034645190
1640791543441200128,-0.221513790,0.604500410,10.127243040,0.026413800,-0.086614510,-0.030593580
1640791543442880000,-0.270990220,0.521175860,10.018390660,0.061631210,-0.128346700,-0.036339460
1640791543446629888,-0.277015660,0.598284240,9.360053060,0.053407250,0.012241300,-0.053700810
1640791543448150016,-0.295952560,0.793142440,9.766745570,-0.006824730,0.002373750,-0.038704280
1640791543452369920,-0.168946430,0.874518630,10.331571580,-0.065501040,-0.015015900,-0.017921630
1640791543453840128,0.168661370,0.531745080,9.729240420,-0.048974170,-0.002586840,-0.026308000
1640791543456229888,0.214814310,0.502496600,10.059562680,0.029948360,-0.013719500,-0.028617690
1640791543457849856,-0.147468810,0.606030520,10.272042270,0.022751090,-0.022730230,-0.031836320
1640791543461249792,-0.074564200,0.427937090,9.609986310,-0.069588420,-0.082258870,-0.018665200
1640791543463419904,0.178426330,0.420545460,9.156916620,-0.114549700,-0.019212070,-0.010274350
1640791543467849984,0.000520530,0.256548260,9.931432720,-0.083152960,0.088047980,-0.045387440
1640791543468559872,0.043384380,0.276750240,10.317787170,-0.019118190,0.069977350,-0.038532920
1640791543471399936,-0.204854740,0.392684070,10.557709690,0.017443300,-0.075969100,-0.032363840
1640791543472839936,-0.355401750,0.232869790,9.941223140,-0.048582250,-0.079783780,-0.022441150
1640791543476179712,0.109432180,0.296161000,8.582001690,-0.102877640,0.004069510,0.002564490
1640791543477819904,-0.014130690,0.340800260,9.627564430,-0.088711070,0.102543840,0.002399090
1640791543481390080,0.247382120,0.219626550,10.135475160,-0.050432990,0.162926320,-0.005905330
1640791543483129856,0.380135480,0.206066160,10.367819790,0.017766650,0.013172630,-0.018213690
1640791543486539776,-0.096761110,0.002749550,10.511502270,0.033456090,-0.092360360,-0.029292700
1640791543487820032,-0.007298090,-0.012164100,8.631776810,-0.039128960,-0.028277940,-0.041893130
1640791543491209984,-0.255188350,-0.101518260,9.140337940,-0.070795420,0.052766510,-0.042407220
1640791543492839936,-0.482582900,-0.054739300,10.189152720,-0.037811690,0.153034900,-0.045329330
1640791543496499968,-0.093997850,0.131567450,9.867252350,0.036092110,0.046004350,-0.051409010
1640791543499529728,-0.218332840,0.226234940,10.396824840,0.066749770,-0.021100050,-0.012554230
1640791543502419968,-0.201873350,0.314156560,9.667316440,0.002135340,0.050377850,-0.011014940
1640791543502909952,-0.281038820,0.058188230,9.606920240,-0.015224520,-0.012156370,-0.019419190
1640791543506249984,-0.377269920,0.141783180,9.638235090,0.045026830,-0.001704690,-0.004769860
1640791543507840000,-0.021958620,0.230404700,9.175218580,0.063088540,0.076366960,-0.032772120
1640791543511309824,-0.130272150,0.188926160,10.461897850,0.054943570,0.084726510,-0.028543180
1640791543513339904,-0.348069910,0.343850260,10.757624630,0.039608770,0.009587410,-0.022064150
1640791543516320000,-0.280427010,0.241408080,9.915802960,0.025188930,-0.095121580,-0.044046350
1640791543517910016,-0.248055790,0.479608600,9.326152800,0.028887390,-0.024285910,-0.029109420
1640791543521220096,-0.161013230,0.765401960,9.266575810,0.014740230,0.097072130,-0.031939150
1640791543523079936,-0.174292680,0.741679910,10.350654600,0.003482400,0.072191650,-0.025863950
1640791543526199808,-0.096225210,0.710257230,10.385115620,0.020371380,-0.008870660,-0.008560720
1640791543532419840,-0.066173950,0.441712200,10.038228030,0.028908250,-0.054274500,-0.025174020
1640791543533809920,-0.326255650,0.439972610,10.070000650,0.012330710,-0.007416310,-0.021326540
1640791543534629888,-0.461971760,0.575366910,9.694286350,-0.045990950,-0.027494130,-0.007461010
1640791543536320000,-0.107443670,0.441463650,9.515267370,-0.078931450,-0.007195770,-0.014950340
1640791543537890048,0.239836380,0.458819690,9.547384260,-0.043068830,0.111667830,-0.036135320
1640791543541240064,0.199541780,0.553609130,10.440709110,0.010132790,0.106330240,-0.033624470
1640791543542899968,-0.011307420,0.667609930,10.750234600,-0.010102990,-0.040200360,-0.019039210
1640791543546499840,-0.136082690,0.493222210,9.649506570,-0.080241270,-0.121843830,-0.004935270
1640791543548029952,0.043941800,0.211607160,8.722927090,-0.101959730,0.009201470,0.009822850
1640791543551309824,-0.106034120,0.222095220,9.481067660,-0.046007330,0.157971680,-0.014771520
1640791543553280000,-0.242101860,0.118397510,10.453788760,-0.007458030,0.121611360,-0.014778970
1640791543556269824,0.017309010,0.106293220,10.315993310,-0.013408060,-0.000536440,-0.007860360
1640791543557859840,-0.339676980,-0.033194710,10.152450560,-0.031732030,-0.056448580,-0.021195410
1640791543563789824,-0.116997380,-0.104632850,8.990510940,-0.038757930,-0.003160540,-0.027030710
1640791543565069824,-0.090168450,0.162754970,9.073450090,-0.025293230,0.084072350,-0.026391450
1640791543567059968,-0.254260720,0.146920160,10.310201640,-0.026781860,0.148247200,-0.028981270
1640791543567909888,0.156662940,0.185669260,10.085464480,0.010453160,0.073814400,-0.013826790
1640791543571219968,-0.222713320,0.169770930,10.377173420,0.067001580,-0.069674860,-0.019094350
1640791543572849920,-0.337132480,0.050184420,9.573656080,0.028179590,-0.004005430,-0.025495890
1640791543576470016,-0.272061080,0.122282800,8.901087760,-0.013840200,0.026804210,-0.023496150
1640791543578259968,-0.712774810,0.160213600,10.313516620,-0.005105140,0.064921390,-0.028571490
1640791543581609984,-0.099146100,0.317208740,9.509245870,0.013504920,0.082863870,-0.025992100
1640791543585600000,0.029563810,0.483643830,9.979354860,0.064176330,-0.003020470,-0.027938190
1640791543586259968,-0.276114700,0.619641900,10.791596410,0.024935600,0.077959890,-0.036497410
1640791543587859968,-0.211296740,0.564535740,9.762955670,-0.015380980,-0.038416690,-0.029635430
1640791543591249920,-0.521322550,0.360330790,9.952095030,0.015999380,-0.128281130,-0.005920230
1640791543592979968,-0.260627630,0.527597250,9.036111830,0.015072530,0.079947710,-0.018312040
1640791543596949760,-0.066419340,0.733878430,9.543790820,-0.011327860,0.078457600,-0.010569390
1640791543598219776,-0.338396070,0.774744450,11.163482670,-0.052601110,0.059308120,0.013089180
1640791543601309952,-0.031117450,0.637638270,10.151718140,-0.069019210,-0.017318130,-0.012619790
1640791543603569920,-0.057644670,0.522746620,9.869654660,-0.003767010,-0.095549230,-0.003229080
1640791543606230016,-0.266592800,0.814186990,9.628555300,-0.014616550,0.021673740,-0.018499790
1640791543607980032,-0.043425150,0.858433430,9.064256670,-0.124281650,0.040610130,-0.014258920
1640791543611229952,-0.039697360,0.589358570,10.073568340,-0.150331830,0.047861040,0.008495150
1640791543612910080,-0.064250810,0.361606120,10.346362110,-0.072377920,0.094652180,-0.018072130
1640791543616269824,-0.280411540,0.178793710,10.454149250,0.002275410,-0.046128030,-0.020092720
1640791543618259968,-0.493657350,0.285449830,9.932226180,-0.042168800,-0.105325880,0.010603670
1640791543621280000,-0.221248670,0.039624230,8.712303160,-0.155706700,0.005841260,-0.001861160
1640791543622919936,-0.026202600,-0.115335110,9.375154500,-0.136315820,0.125642120,0.000260770
1640791543626259968,0.029781940,0.174229260,10.235208510,-0.032015140,0.134861450,-0.020001820
1640791543627849728,0.054336170,0.326253740,10.462962150,-0.015065070,-0.010380150,-0.017938020
1640791543631820032,-0.119736790,0.301853840,10.120443340,-0.063973670,-0.087855760,0.004494190
1640791543632910080,-0.247952210,0.071609550,9.078064920,-0.079821040,-0.038295980,-0.009450320
1640791543636229888,-0.348302040,0.015162320,9.256866460,-0.040233140,0.026334830,-0.020383300
1640791543637830144,-0.404586820,0.153896420,9.745749470,-0.012360510,0.123953810,-0.011442600
1640791543641319936,-0.310002090,0.133729610,10.378789900,-0.031800570,0.028964880,-0.011251870
1640791543642860032,-0.353279440,0.115790050,10.447322850,-0.022809210,-0.053195660,-0.011464950
1640791543646289920,-0.236376750,-0.064118150,9.192029000,-0.005427000,-0.048746170,-0.023305420
1640791543648140032,-0.208073440,0.119548630,9.291486740,0.014011560,0.006151200,-0.019191210
1640791543651350016,-0.418284950,0.355315800,10.035218240,-0.015214080,0.085866440,-0.027817490
1640791543652829952,-0.189136790,0.355891470,10.007832530,-0.040842590,-0.008046630,-0.011138620
1640791543656349952,-0.102404250,0.431587790,10.098370550,0.011566280,-0.057280060,0.009976330
1640791543657920000,-0.283207680,0.295279740,10.027532580,0.032788510,0.026163460,-0.026865300
1640791543661299968,-0.266474930,0.526108380,9.902575490,0.017923120,-0.013503430,-0.009794540
1640791543662909952,-0.511044380,0.730407060,10.156785960,-0.027318300,-0.067819650,-0.003048780
1640791543666439936,-0.071775940,0.429405360,9.238821980,-0.065436960,-0.012391810,-0.005669890
1640791543667889920,0.285437940,0.638273890,9.317491530,-0.017902260,0.058136880,-0.004705790
1640791543671259904,-0.208379190,0.730348590,10.866989140,-0.010004640,0.067639350,-0.025877360
1640791543673309952,-0.083136510,0.589537680,10.231328010,-0.058640540,-0.042529410,-0.010089580
1640791543676199936,-0.117482350,0.467958570,9.694028850,-0.056763000,-0.143589080,0.004594030
1640791543677819904,-0.316850570,0.174061180,9.515330310,-0.047595800,0.007998940,-0.010715430
1640791543681799936,0.004398690,0.339297800,8.925739290,-0.046554200,0.082761040,-0.008332730
1640791543682929920,-0.231578500,0.424091700,10.450480460,-0.060071050,0.030441580,0.011262300
1640791543686230016,-0.015841340,0.225478380,10.298371320,-0.087524960,0.044342870,0.008425120
1640791543687939840,0.174842240,0.200142640,9.608266830,-0.036264960,-0.059328980,0.006669760
1640791543691259904,-0.208892300,0.265557740,10.070447920,-0.008685890,-0.043997170,-0.001345570
1640791543692889856,0.095885700,0.346997500,8.838923450,-0.073473160,0.063225630,0.002384190
1640791543696329728,0.058056190,0.150876390,9.649066930,-0.088019670,0.049807140,-0.003355740
1640791543698139904,-0.088008960,0.069978800,10.457227710,-0.028559570,0.110407170,-0.006644430
1640791543701309952,-0.064531240,0.103446010,9.805681230,0.022213160,-0.011537970,0.000046190
1640791543703079936,-0.359793660,0.134831680,9.942359920,0.006949900,-0.076559190,0.006742780
1640791543706249984,-0.314185440,0.133354870,8.966879840,-0.080934160,0.043447310,-0.002864000
1640791543707830016,-0.349001530,-0.071507160,9.361221310,-0.044567890,0.071039820,-0.006300210
1640791543711209984,-0.333473320,0.030088850,10.177657130,0.052990020,0.077427930,-0.000964110
1640791543712920064,-0.164943190,0.271537070,9.834435460,0.059568880,0.024800000,-0.005094710
1640791543719489792,-0.311762030,0.099122480,10.317325590,0.005267560,-0.032182040,-0.006121400
1640791543720120064,-0.370073140,-0.014131280,9.643368720,-0.011475380,-0.030651690,-0.009143350
1640791543721179904,-0.351446600,-0.055103080,9.214854240,0.053086880,-0.025205310,-0.026726720
1640791543723419904,-0.309811740,0.022664450,9.676662450,0.099477170,0.064232950,-0.009904800
1640791543726189824,-0.219523030,0.345298080,9.819494250,0.065188110,0.062575940,-0.000846390
1640791543727840000,-0.278570350,0.327493910,10.474118230,0.024241210,-0.057999790,-0.001111630
1640791543731849984,-0.175807180,0.240814030,9.613978390,0.034198160,-0.031857200,-0.000102820
1640791543733179904,-0.216779320,0.360440160,9.360541340,0.081261990,-0.026778880,-0.024381280
1640791543736489984,-0.508321340,0.445378570,10.331617360,0.094197680,0.012457370,-0.033226600
1640791543737989888,-0.378151300,0.603411610,9.569762230,0.056275730,-0.030709810,-0.013951960
1640791543741250048,-0.337275710,0.605092700,9.908710480,0.014473500,-0.087131570,-0.010228160
1640791543742929920,-0.336010190,0.511700270,10.054859160,0.010234120,0.051808360,-0.007756060
1640791543746429952,-0.293125780,0.520696700,10.035175320,0.049565740,-0.022949280,-0.018043820
1640791543748129792,-0.265122350,0.651289400,10.377283100,0.077275940,-0.101673600,-0.009870530
1640791543752219904,0.065723640,0.715445040,9.084168430,0.021606690,-0.032623110,-0.015684960
1640791543752899840,0.214121160,0.786460940,9.459148410,-0.047774610,0.011236970,-0.008638200
1640791543756259840,0.016138150,0.877051060,10.595893860,-0.069375340,0.053694840,-0.007705390
1640791543757839872,-0.178158730,0.610540750,10.354519840,-0.021691620,-0.074262900,-0.014048810
1640791543761220096,-0.152115020,0.599333880,9.849314690,0.038109720,-0.147634740,0.001740460
1640791543762919936,-0.419939700,0.665701210,9.554822920,-0.013400620,-0.014179950,-0.017961860
1640791543766289920,-0.284330130,0.679267700,9.473484990,-0.129985820,0.033319000,0.005967920
1640791543768000000,-0.169723700,0.683632140,10.187379840,-0.147215990,0.020340080,0.020854170
1640791543772019968,-0.115691560,0.398955490,10.275527950,-0.079248840,-0.005115570,-0.017122920
1640791543772849920,0.156968850,0.405252720,9.762372020,0.009870530,-0.030237440,-0.010657310
1640791543776249856,-0.144309910,0.576753500,9.907859800,-0.020568080,-0.065021220,-0.005745890
1640791543777890048,-0.031329370,0.335953620,9.472847940,-0.163212420,-0.011904540,0.010615590
1640791543781570048,0.413283200,0.076676990,9.205213550,-0.172083090,0.075115260,0.013440850
1640791543782919936,0.000000670,-0.020231000,10.619847300,-0.043150790,0.079479820,-0.016701220
1640791543787799808,-0.017912010,0.084743460,10.341194150,0.015619400,0.006549060,-0.020627680
1640791543788280064,-0.120315420,0.237519410,9.570565220,-0.036033990,-0.113555790,-0.004117190
1640791543791209984,-0.356225310,0.058281210,9.328209880,-0.135254860,-0.002884860,0.001019240
1640791543792859904,-0.025691630,0.141502600,8.852750780,-0.126230730,0.116559870,-0.009036060
1640791543796619776,-0.179807130,0.245022370,10.241809840,-0.026357180,0.093695520,-0.011096900
1640791543798039808,-0.105256980,0.246517390,10.590344430,0.009259580,0.071883200,-0.008626280
1640791543801559808,-0.063874550,0.052377890,10.053872110,-0.002640490,-0.031037630,-0.011564790
1640791543802959872,-0.340664860,-0.271911680,9.720670700,-0.008516010,-0.063115370,0.003539030
1640791543806350080,-0.185198560,-0.210520210,8.616568570,-0.016404680,0.043292340,-0.014723840
1640791543807839744,-0.153143270,-0.166397530,9.297383310,-0.012402240,0.107148300,-0.023746490
1640791543811219968,-0.182479170,-0.019290750,10.313628200,0.010953840,0.121366990,-0.011007490
1640791543812909824,-0.133311260,-0.007317380,10.295359610,0.060427190,-0.011111790,-0.028368830
1640791543816320000,-0.289914940,-0.072138590,9.889843940,0.105699900,-0.068826960,-0.027063490
1640791543818419968,-0.374538870,0.289926140,9.231225010,0.055044890,0.030843920,-0.022853910
1640791543821449984,-0.662713410,0.266031210,9.828088760,0.010211770,0.029224160,-0.030462440
1640791543822889984,-0.537085710,0.286898020,9.770424840,0.044001630,0.015015900,-0.012512500
1640791543826229760,-0.207283020,0.382317750,9.455394740,0.113983460,0.008295470,-0.008891520
1640791543827839744,-0.340504530,0.192182850,10.395786290,0.128215550,0.035060950,-0.028936570
1640791543831749888,-0.295005140,0.280768810,10.026136400,0.090987980,0.006259980,-0.019776820
1640791543837839872,-0.289915740,0.359448050,9.793416020,0.055354830,-0.114880500,-0.024485590
1640791543838579968,-0.108767650,0.358245670,9.369873050,0.039350990,0.004552310,-0.021946430
1640791543838949888,0.062268420,0.620792030,9.314105990,0.055778030,0.081922140,-0.027111180
1640791543841189888,-0.380415080,0.718560700,10.994573590,0.074946880,0.000754000,-0.038494180
1640791543842929920,-0.342582760,0.708797870,10.201935770,0.060085950,-0.073039530,-0.031611330
1640791543846200064,-0.242314890,0.710553710,9.377026560,0.050131980,-0.119787440,-0.029630960
1640791543848199936,-0.550090610,0.741904800,9.962937360,0.013948980,0.009267030,-0.023071470
1640791543851330048,-0.248363120,0.991330680,9.405795100,-0.050652030,0.053834920,-0.014504790
1640791543854569984,-0.052816280,0.870722000,10.258525850,-0.047183040,-0.037936860,-0.003646310
1640791543856189952,0.113807020,0.637087290,10.195719720,-0.009712580,0.026784840,-0.021730360
1640791543857879808,0.149446590,0.495474100,9.885430340,0.029233100,-0.014819200,-0.040781500
1640791543861219840,-0.290557270,0.627760470,10.469495770,-0.006885830,-0.092223290,-0.016681850
1640791543862949888,-0.216844110,0.537436070,9.344437600,-0.130434330,-0.057400760,-0.010553000
1640791543866669824,0.074066660,0.250506970,9.181950570,-0.139831010,0.033393510,-0.019583110
1640791543868529920,-0.217913840,0.308888290,10.448633190,-0.035342570,0.116297600,-0.024771690
1640791543871719936,-0.289151070,0.334164080,10.517390250,0.026890640,0.008274610,-0.042857230
1640791543873339904,-0.123632590,0.542681990,9.981657980,-0.033080580,-0.132876630,-0.010585790
1640791543876260096,-0.167516380,0.578620140,9.176950450,-0.153677170,-0.037367650,-0.001716610
1640791543877879808,0.161353980,0.269441930,8.993325230,-0.162290040,0.093738740,-0.014992060
1640791543881659904,0.069921220,0.378607030,10.122623440,-0.040650370,0.105398900,-0.010496380
1640791543882899968,-0.122888920,0.229882110,10.760580060,0.022386020,0.021502380,-0.023822490
1640791543886380032,0.018968240,-0.115726200,10.071184160,-0.007511680,-0.055806340,-0.012540820
1640791543888679936,-0.318373230,-0.197075590,9.416624070,-0.041016930,-0.064650170,-0.005948540
1640791543891249920,-0.262973610,-0.239860480,8.902791020,-0.082747650,0.048042830,-0.017420950
1640791543892900096,-0.001983710,-0.106064790,9.340209010,-0.059914600,0.137481120,-0.017663840
1640791543896279808,-0.256137310,-0.040843120,10.556629180,0.011250380,0.091065490,-0.029480460
1640791543898219776,-0.103750780,-0.008459660,10.374753000,0.075703860,-0.035470730,-0.039340560
1640791543901509888,-0.225556020,0.102065180,9.443598750,0.081314150,-0.069047510,-0.035639110
1640791543903120128,-0.340646240,0.180145950,9.233586310,-0.012934210,0.029212240,-0.024046000
1640791543906459904,-0.330125060,0.173125640,9.816692350,-0.033165520,0.093328950,-0.034642220
1640791543907949824,-0.368102460,0.079454730,9.822170260,0.056728720,0.022237000,-0.022137170
1640791543911199744,0.000371560,0.123542930,9.678481100,0.139689450,0.007042290,-0.021040440
1640791543913250048,-0.145833020,0.178753960,9.970824240,0.113160920,0.060471900,-0.037954750
1640791543916199936,-0.363744230,0.182308780,10.003844260,0.038070980,-0.009424980,-0.022304060
1640791543918180096,-0.318926190,0.294059750,9.695694920,0.004340710,-0.068967050,-0.019449000
1640791543921319936,-0.198695390,0.306652250,9.188702580,0.032989680,0.040543090,-0.041230030
1640791543923229952,-0.126803220,0.496169030,9.904635430,0.089681160,0.114426040,-0.041858860
1640791543926179840,-0.537968640,0.709329430,10.968652730,0.101864350,0.009654460,-0.039517880
1640791543927869952,-0.562346280,0.493520320,10.055802350,0.048156090,-0.109815600,-0.030149520
1640791543931399936,-0.311148910,0.525695860,9.005667690,0.020980830,-0.074693550,-0.023870170
1640791543932940032,-0.560499610,0.601215300,9.645817760,0.024341040,0.051759190,-0.031076370
1640791543936349952,-0.200089860,0.756266470,9.859700200,0.002487000,0.072208030,-0.021733340
1640791543937880064,0.128690600,0.931459490,10.076543810,-0.014795360,-0.025162100,-0.009323660
1640791543941210112,0.152935910,0.604554470,10.330809590,-0.013655430,0.028015680,-0.024516880
1640791543942880000,0.167159810,0.547834400,9.999917030,0.017023090,0.009739400,-0.027807060
1640791543946329856,-0.408973810,0.592762350,10.215961460,0.019606950,-0.119362790,-0.011557340
1640791543947879936,-0.410113960,0.319141150,9.320839880,-0.055420410,-0.063835090,-0.001965460
1640791543952049920,-0.032074910,0.360857130,8.701328280,-0.080049050,0.046992300,-0.005100670
1640791543952899840,-0.425063430,0.303436280,10.593147280,-0.045594570,0.113832950,-0.023938720
1640791543956209920,-0.291857090,0.424692840,10.745092390,-0.019867720,0.033931440,-0.031261150
1640791543957870080,-0.197041690,0.707931520,10.074539180,-0.022223590,-0.165084020,-0.022509700
1640791543961519872,-0.163225670,0.682572900,9.382305150,-0.106094780,-0.049908460,-0.010901690
1640791543963980032,0.185739000,0.652692680,8.681874280,-0.144810990,0.129957510,-0.025302180
1640791543966219776,-0.054872080,0.467988190,10.410812380,-0.061041130,0.063088540,-0.002676250
1640791543968179968,0.015794740,0.219328280,10.549318310,-0.008551780,0.033201280,-0.001919270
1640791543972209920,0.155779110,-0.062134860,9.684318540,-0.023841860,-0.053733590,-0.005286930
1640791543972930048,-0.315917400,-0.346969660,9.937982560,-0.038905440,-0.034403810,0.017522280
1640791543976270080,-0.243237540,-0.268341660,8.980751990,-0.090801720,0.045566260,0.007575750
1640791543978040064,-0.122248660,-0.268389200,9.428100590,-0.073194510,0.058530260,0.004160400
1640791543981269760,-0.146713410,-0.017239860,10.107018470,-0.019288060,0.136227890,-0.009910760
1640791543982899968,-0.117304550,0.192572890,10.146561620,0.031784180,0.017464160,-0.038610400
1640791543986349824,-0.294816910,0.250361080,10.067966460,0.042815510,-0.071974110,-0.009554620
1640791543989549824,-0.322705980,0.320755600,9.206024170,-0.022351740,0.002914670,-0.020974870
1640791543991200000,-0.347740050,0.126828120,9.414823530,-0.028809910,0.056977580,-0.020654500
1640791543993169920,-0.237934220,0.153926630,9.605579380,0.037162010,0.098118190,0.008836390
1640791543997040128,-0.035686130,0.182537970,9.862957000,0.074186920,0.060090430,-0.007282200
1640791543997890048,-0.163788880,-0.063515860,10.464126590,0.069841750,0.026771430,-0.010609630
1640791544001669888,-0.166059580,-0.106924910,9.536229130,0.054819890,-0.019159920,-0.004124640
1640791544003049728,-0.247229520,-0.131407720,9.346770290,0.064362590,-0.032320620,-0.037321450
1640791544006269952,-0.210628520,-0.001433030,9.327405930,0.060698380,0.112888210,-0.032895800
1640791544008019968,-0.203752680,0.261834890,9.872208600,0.076672420,0.090888140,-0.033713870
1640791544011209984,-0.564448300,0.246213260,10.961955070,0.101473930,-0.017428400,-0.037272280
1640791544012950016,-0.351746020,0.404794870,9.483964920,0.104132320,-0.047579410,-0.026360160
1640791544016229888,-0.406217310,0.469280600,9.393707280,0.101187830,-0.039342050,-0.020258130
1640791544018189824,-0.611020330,0.579936270,9.961231230,0.059743240,0.093823670,-0.017327070
1640791544021250048,-0.232233150,0.843587340,9.543334960,0.029367210,0.027799610,-0.011259320
1640791544023099904,-0.148299740,0.736065750,10.287733080,0.049427160,-0.041286660,0.000917910
1640791544026309888,0.061395920,0.533334850,9.760310170,0.065214940,0.072041150,-0.029340390
1640791544027889920,-0.114530310,0.470987140,10.176606180,0.078092520,0.011622910,-0.037461520
1640791544031229952,-0.637706700,0.419735100,10.690738680,0.063787410,-0.073355420,-0.019161400
1640791544032879872,-0.277470050,0.397572190,8.950752260,-0.010958310,-0.079107290,-0.028379270
1640791544036489984,-0.201516900,0.457673850,9.409622190,-0.015033780,0.015953180,-0.020638110
1640791544037939968,-0.351945580,0.652190390,10.356666560,-0.012284520,0.142446160,-0.028872490
1640791544041329920,-0.122534480,0.699122730,10.354514120,0.013776120,-0.007072090,-0.029294200
1640791544042939904,-0.150903180,0.852558970,10.408115390,0.020068880,-0.095540290,-0.015193220
1640791544046190080,-0.072411950,0.944760320,9.286377910,-0.060528520,-0.022917990,-0.025150180
1640791544047879936,0.036446350,0.835849820,9.337293620,-0.095199040,0.024186070,-0.010247530
1640791544051630080,-0.132451910,0.688000980,10.102042200,-0.077989690,0.072929260,-0.002545120
1640791544052960000,-0.062510300,0.292247150,10.134080890,-0.035549700,0.027276580,-0.037044290
1640791544056339968,-0.027539480,0.180539470,10.213150020,-0.001226370,-0.011965640,-0.021311640
1640791544057979904,-0.346950500,0.249169590,9.892380710,-0.054577000,-0.023235380,-0.019463900
1640791544061260032,-0.072550990,0.105488290,9.279760360,-0.145420430,-0.004097820,0.000299510
1640791544063139840,0.085097110,0.034266360,9.454692840,-0.117589550,0.101868820,-0.006949900
1640791544066219776,0.014127270,0.019657620,10.079972270,-0.012823940,0.123836110,-0.033310060
1640791544067929856,0.115586790,0.172453820,10.446918490,0.045138590,0.026708840,-0.023919340
1640791544072419840,-0.184228780,0.359236030,9.832037930,-0.021471080,-0.025898220,-0.008355080
1640791544073619968,-0.280460860,0.219294550,9.430233960,-0.129382310,-0.034394860,-0.006151200
1640791544079670016,-0.267139050,0.031857230,9.244009970,-0.082556900,0.086750090,-0.010323520
1640791544080119808,-0.311982130,0.044387940,9.433945660,0.033833090,0.114363450,-0.021590290
1640791544081179904,-0.146659960,0.130153060,10.309717180,0.071598590,0.089053800,-0.025320050
1640791544082949888,-0.121218960,0.108206380,10.126807210,-0.005427000,0.059641890,-0.018449120
1640791544086520064,-0.102735910,-0.072902480,9.692327500,-0.042545800,-0.024043030,-0.001071390
1640791544088019968,-0.229872630,-0.222709330,9.508249280,-0.002992150,0.043299800,-0.015585130
1640791544091709952,-0.241038670,-0.215714890,9.107884410,0.056789820,0.094266240,-0.038792190
1640791544092969984,-0.347802820,-0.050472080,10.139824870,0.101563340,0.060004000,-0.025799870
1640791544096299776,-0.525370180,-0.033687050,10.160143850,0.074885780,0.035405150,-0.026676060
1640791544097900032,-0.330900010,-0.037792220,9.299909590,0.058901320,-0.021290780,-0.008903440
1640791544101280000,-0.518601120,0.163834750,9.984859470,0.063696500,0.038428610,-0.013111530
1640791544103159808,-0.478102680,0.272941860,9.712904930,0.062544650,0.084798050,-0.033761560
1640791544106299904,-0.167272270,0.539465370,9.764025690,0.101771950,-0.009295350,-0.007505710
1640791544109169920,-0.131911740,0.686824200,9.846580510,0.099909330,0.041113790,-0.011539460
1640791544111229952,0.020327430,0.480284810,9.644537930,0.057418660,0.060825050,-0.017759210
1640791544112859904,-0.207074450,0.505519870,10.525873180,0.067462030,0.002865490,-0.007936360
1640791544116179968,-0.627350930,0.336300370,10.273241040,0.075517600,-0.047209860,-0.017309190
1640791544118319872,-0.248501850,0.305401240,9.068938260,0.079254810,-0.080733010,-0.006146730
1640791544121459968,-0.332713070,0.617437780,9.564002990,0.055335460,0.067324940,-0.015155970
1640791544122919936,-0.321502800,0.766316290,10.105763440,-0.018568340,0.119671230,-0.027914350
1640791544126179840,-0.104096930,0.892723980,10.519650460,-0.018696490,-0.013986230,-0.006081160
1640791544127899904,-0.269070390,0.894060850,10.220338820,0.022135680,-0.067321960,-0.029644380
1640791544131310080,-0.070677800,0.937421260,9.342068670,0.020164250,-0.029335920,-0.027261680
1640791544132939776,-0.249605250,1.070165630,9.719955440,-0.029127300,0.010478500,-0.002437830
1640791544136379904,-0.382285620,0.670478820,10.072345730,-0.093851980,0.019164390,0.007362660
1640791544141929984,-0.010715180,0.249663490,9.980299950,-0.062209370,0.019456440,-0.002510850
1640791544142540032,-0.177390200,0.264019370,10.331173900,0.007879730,0.023670490,-0.014154610
1640791544142959872,-0.279220820,0.439608250,10.143779750,-0.039367380,-0.022295120,-0.012661520
1640791544146179840,0.006366940,0.698092880,9.433344840,-0.153015550,-0.047646470,0.009125470
1640791544147849984,0.008730490,0.463506430,9.379582410,-0.183406500,0.034528980,-0.002196430
1640791544151209728,0.123809740,0.329652910,9.858628270,-0.080214440,0.101764510,-0.024306770
1640791544153229824,-0.121130540,0.460099520,10.496124270,0.029982630,0.035229330,-0.021973260
1640791544156260096,-0.347004030,0.491073370,10.258650780,-0.038681920,-0.069154810,-0.000844900
1640791544159260160,-0.247712090,0.396844830,9.472549440,-0.186452270,-0.047244140,0.012542310
1640791544161270016,-0.286720160,0.004605970,9.347262380,-0.176906590,0.057816510,0.002689660
1640791544162950144,-0.023397060,-0.001210310,9.568029400,-0.041118270,0.101511200,-0.004731120
1640791544166289920,0.105239810,0.153916030,10.184623720,0.019446020,0.103843210,-0.017024580
1640791544167939840,0.154113640,0.116926740,10.178764340,-0.049370530,0.043368340,0.002633040
1640791544172009984,0.123049180,0.019911410,9.822836880,-0.106953080,-0.040800870,0.015029310
1640791544172879872,-0.175498860,-0.212046370,9.410377500,-0.080819430,0.007195770,-0.006550550
1640791544176270080,-0.091106010,-0.170187850,9.034859660,-0.004899500,0.075328360,-0.005681810
1640791544177860096,-0.397127120,-0.112301680,10.164913180,0.048173960,0.117884580,-0.015005470
1640791544181229824,-0.534329650,-0.194028090,10.334115030,0.041240450,0.060112790,-0.023528930
1640791544182960128,-0.329637380,0.031018800,9.612652780,0.023570660,-0.041899090,0.007641320
1640791544186479872,-0.542293670,0.071686260,9.687537190,-0.016893450,0.024446850,-0.014947360
1640791544187959808,-0.117853330,0.153370190,9.042866710,-0.012844800,0.107875470,-0.021040440
1640791544192239872,-0.157721420,0.473262610,9.752625470,0.072689350,0.055025520,-0.016030670
1640791544192879872,-0.084484670,0.295660080,9.887187000,0.092960900,0.070837150,-0.027649100
1640791544196270080,0.116982710,0.180281580,9.679577830,0.073510410,0.027312340,0.004349650
1640791544197880064,-0.526598630,-0.110019160,10.487837790,0.078766030,-0.006246570,0.001651050
1640791544201669888,-0.516271530,-0.369208960,9.523008350,0.078947840,-0.034885110,-0.010715430
1640791544204059904,-0.371892060,-0.072987530,8.909344670,0.103461740,-0.024054940,0.000673530
1640791544206259968,-0.529678700,0.055440240,9.692953110,0.081661340,0.127601640,-0.025592750
1640791544207980032,-0.245597450,0.344207640,10.130717280,0.065384810,0.089450180,-0.023087860
1640791544211239936,-0.413062040,0.543341760,10.528239250,0.114196550,-0.066906210,-0.021035970
1640791544212920064,-0.323181810,0.553474660,9.653076170,0.127570330,-0.075915460,-0.035780670
1640791544216199936,-0.272489760,0.786778150,9.218217850,0.100266920,-0.002628560,-0.019301470
1640791544217979904,-0.632814290,0.799453440,10.019172670,0.053283580,0.033791370,-0.010797380
1640791544221449728,-0.350956560,0.653906460,9.897683140,0.029595200,-0.017966330,0.009749830
1640791544222999808,-0.128311710,0.507035020,9.819602010,0.074373190,-0.030520560,0.000776350
1640791544226209792,-0.230953170,0.451464060,10.114219670,0.096565490,0.030539930,-0.026278200
1640791544227899904,-0.300168480,0.640388430,10.108120920,0.050991770,-0.047437850,-0.022463500
1640791544231200000,-0.307084680,0.652873520,9.713419910,-0.008532400,-0.100998590,-0.017273430
1640791544233110016,0.000814290,0.769301240,9.119539260,-0.055077680,-0.001546740,-0.007125740
1640791544236599808,-0.066696120,0.856902240,9.957130430,-0.033262370,0.065104670,-0.027406220
1640791544237910016,-0.333776120,0.724164370,10.824224470,0.016526880,0.011003020,-0.024333600
1640791544241220096,-0.315200900,0.774693070,10.189532280,0.020770730,-0.126940030,-0.013722480
1640791544242899968,-0.442696600,0.605622230,9.577144620,-0.038540360,-0.111040470,-0.008724630
1640791544246179840,-0.265639450,0.563509350,9.104717250,-0.109687450,0.027272110,0.009468200
1640791544247979776,-0.134371880,0.671070100,9.643026350,-0.128263240,0.046764320,0.011616950
1640791544251269888,0.084299850,0.361438450,10.337411880,-0.077234220,0.038063530,-0.005237760
1640791544252940032,0.412499900,0.352685180,10.022113800,-0.021179020,0.019823010,-0.004507600
1640791544256269824,-0.051930650,0.372303780,10.450982090,-0.027033690,-0.072667010,-0.013113020
1640791544258869760,-0.071809180,0.219990280,9.464266780,-0.119598210,-0.074417900,0.000116230
1640791544261199872,0.035381300,0.239191820,8.684009550,-0.161457060,-0.010907650,0.012555720
1640791544262990080,-0.294432760,-0.074419010,9.939998630,-0.097244990,0.112223630,-0.008215010
1640791544266259968,-0.052396720,0.062573080,9.932481770,0.003413860,0.099967420,-0.009441380
1640791544267899904,-0.399906100,0.308458630,10.477388380,0.012922290,-0.081846120,-0.006067750
1640791544271360000,-0.340453480,0.231498140,9.724905010,-0.112412880,-0.044392050,0.003235040
1640791544272979968,0.056336230,0.226357610,8.590394970,-0.149711980,0.039584940,0.002929570
1640791544276189952,-0.375339390,0.188183170,10.058283810,-0.050386790,0.083014370,-0.016134980
1640791544277869824,0.033827680,0.158491370,9.822193150,0.024303790,0.095206480,-0.021563470
1640791544281750016,-0.095115940,0.074144360,10.111271860,0.052024440,-0.036643450,-0.006869440
1640791544282939904,-0.410466640,-0.221184780,10.143834110,-0.008866190,-0.033523130,-0.005377830
1640791544286609920,-0.110924210,-0.398273940,8.798501970,-0.035753850,-0.013215840,-0.007413330
1640791544288079872,-0.521640000,-0.207174660,9.688070300,0.012306870,0.011450050,-0.009819860
1640791544291369984,-0.336188440,0.099357840,9.845813750,0.014257430,0.100676700,-0.031301380
1640791544292919808,-0.252492550,0.273833570,10.049676900,0.042667980,0.000871720,-0.039666890
1640791544296269824,-0.450133920,0.371850040,10.186109540,0.067755580,-0.053481760,-0.028510400
1640791544299500032,-0.254337820,0.399008070,9.296629910,0.053016850,-0.023169820,-0.030823060
1640791544301189888,-0.624993150,0.377393540,9.817109110,0.043457750,-0.024297840,-0.022150580
1640791544302949888,-0.530245600,0.497164010,9.801724430,0.025714940,-0.026212630,-0.015464430
1640791544306259968,-0.269454480,0.369713190,9.508693700,0.037774440,-0.024199480,-0.009530780
1640791544307909888,-0.202350930,0.250748280,9.947544100,0.069132450,0.020264090,-0.021971760
1640791544311229952,-0.134937230,0.421481580,10.349570270,0.051775580,0.021389130,-0.033216180
1640791544313220096,-0.393816080,0.432229640,10.237738610,0.022228060,-0.107459720,-0.032190980
1640791544316169984,-0.188648660,0.481563300,9.242229460,0.004863740,-0.113600490,-0.011703370
1640791544317890048,-0.151158990,0.640263860,9.091827390,-0.000160930,-0.007855890,-0.030638280
1640791544322069760,-0.427518430,0.731402040,10.203772540,-0.004903970,0.030727680,-0.039714570
1640791544323040000,-0.226586570,0.806777360,10.471071240,-0.009524820,-0.021401050,-0.014507770
1640791544326279936,-0.416896100,0.696950260,10.525999070,0.000298020,-0.117529940,-0.025418400
1640791544327940096,-0.298516450,0.604408800,9.728561400,-0.007948280,-0.092756760,-0.020647050
1640791544331369984,-0.097223900,0.882917110,9.086808200,-0.057625770,-0.030638270,-0.011424720
1640791544332929792,-0.132067710,0.795246660,9.651784900,-0.121460850,-0.005906820,-0.018548960
1640791544336209920,0.469341280,0.532084230,9.467217450,-0.111396610,0.054401160,-0.011481340
1640791544338219776,0.282550960,0.419385370,10.374395370,-0.018103420,0.003656750,-0.033520160
1640791544341840128,-0.181701600,0.238429140,10.732958790,0.004987420,-0.085081170,-0.034877660
1640791544342919936,-0.062638690,0.355826850,9.273506160,-0.084884470,-0.132383450,0.000381470
1640791544346309888,-0.395467820,0.057507560,9.338151930,-0.162448020,-0.047814860,0.008587540
1640791544347919872,-0.162583440,-0.183485600,9.307165150,-0.115254520,0.129860650,-0.012643640
1640791544351219968,-0.017582530,0.111194990,10.091506000,0.016197560,0.065907830,-0.019167360
1640791544352969984,-0.269666050,0.229675250,10.763990400,0.031200060,-0.026144090,-0.015425680
1640791544356369920,0.205489900,0.323215720,9.340643880,-0.087593520,-0.077779590,-0.009019670
1640791544357929984,0.020124820,0.242137400,9.158409120,-0.121885550,-0.019735100,-0.013931100
1640791544363729920,-0.009216760,0.165181730,9.389896390,-0.068828470,0.095917280,-0.007969140
1640791544364409856,0.132675320,0.108212150,9.806283950,0.026920440,0.086736690,-0.022554400
1640791544366220032,-0.261700570,-0.035277980,10.584603310,0.055207320,0.000971560,-0.015999380
1640791544367939840,-0.250510390,-0.218562600,9.858554840,0.014658270,-0.044026970,-0.003103910
1640791544371759872,-0.364736410,-0.382590200,9.145612720,-0.004240870,-0.046047580,-0.004692380
1640791544373029888,-0.430598680,-0.196892600,9.135200500,-0.016283990,0.057078900,-0.015001000
1640791544376679936,-0.177464810,-0.026787650,9.656454090,0.011952220,0.120995930,-0.035654000
1640791544379829760,-0.268450740,0.018735510,10.262474060,0.088419040,0.041420770,-0.038199130
1640791544381179904,-0.137958380,0.250592230,10.019818310,0.127233580,-0.050152840,-0.022529070
1640791544382939904,-0.358819480,0.149834480,9.794445990,0.086267300,-0.024899840,-0.035454330
1640791544386159872,-0.543493150,0.109396090,9.450474740,0.046153370,-0.019943710,-0.023332240
1640791544388329984,-0.591781380,0.289588660,9.639552120,0.057074430,-0.030283630,-0.015482310
1640791544391389952,-0.275103990,0.182299810,9.240274430,0.103327650,0.037167970,-0.022844970
1640791544394219776,0.057906870,0.470452160,9.728016850,0.122646990,0.065204510,-0.014173980
1640791544396339968,-0.216991110,0.628871920,10.810874940,0.075382000,0.047297780,-0.028838220
1640791544397929984,-0.201200560,0.449853810,10.019282340,0.037631390,-0.093752150,-0.025694070
1640791544401229824,-0.219275470,0.595172700,9.302658080,0.061957550,-0.126080230,-0.025154650
1640791544402969856,-0.489532020,0.584456260,9.253424640,0.054474190,0.032974780,-0.048428770
1640791544406279936,-0.367291840,0.688101410,9.642492290,0.037796790,0.053830440,-0.029920040
1640791544407960064,-0.572582780,0.665760870,10.723187450,0.040626530,-0.019349160,-0.023238360
1640791544412169984,-0.370015050,0.326741610,10.036367420,0.035662950,-0.056575230,-0.032022600
1640791544412940032,-0.042304420,0.551469030,9.522231100,0.051161650,-0.061076890,-0.010563430
1640791544416179968,-0.329814670,0.753176510,9.976048470,-0.010021030,0.006648900,-0.021840630
1640791544417909760,0.211117550,0.751603130,9.280509950,-0.077487540,-0.013139850,-0.007924440
1640791544421259776,0.340073560,0.692468520,9.815521240,-0.044606620,0.007992980,-0.011068580
1640791544423130112,0.055823070,0.442093130,10.347475050,0.017438830,0.060556840,-0.051918630
1640791544426519808,-0.044968400,0.460405380,10.167947770,0.044719870,-0.060436130,-0.026911500
1640791544429109760,-0.592314420,0.395042930,10.071098330,-0.022898610,-0.125513940,-0.012362000
1640791544431289856,-0.364410520,0.099049630,8.847014430,-0.113919380,-0.026491280,-0.029489400
1640791544432940032,-0.112387820,0.193088740,9.086198810,-0.071488330,0.090904530,-0.013653930
1640791544436139776,-0.258279860,0.199693680,10.396859170,-0.000572200,0.132833440,-0.022913520
1640791544437959936,0.154054050,0.233564150,10.307419780,0.014124810,0.009424980,-0.023233890
1640791544441429760,-0.007937890,0.283905090,10.033390050,0.005802510,-0.081239650,-0.013759730
1640791544443029760,-0.004229580,0.055477970,9.063058850,-0.044538080,-0.036530200,-0.019967550
1640791544446339840,0.087406950,0.040218070,9.012428280,-0.054287910,0.069636110,-0.018510220
1640791544447919872,-0.215908890,-0.089038940,10.045690540,0.006066260,0.112892700,-0.031296910
1640791544451259904,-0.100022250,-0.128232330,10.248849870,0.071583700,0.031621750,-0.036622590
1640791544452969984,-0.303733410,-0.047299100,9.998782160,0.081320110,-0.027801100,-0.019691890
1640791544456440064,-0.319552900,-0.026933620,9.128276820,0.013101100,-0.003834070,-0.021421910
1640791544458259712,-0.378668580,0.102259030,9.413491250,-0.025145710,0.045797230,-0.028367340
1640791544461499904,-0.420425830,0.175111340,9.507322310,0.015772880,0.078584260,-0.045984980
1640791544463749888,-0.108539800,0.277401690,9.590050700,0.098986920,0.020425020,-0.041449070
1640791544466219776,-0.269554320,0.255436270,10.236596110,0.125992310,0.049173830,-0.043071800
1640791544467939840,-0.285388470,0.052866820,9.954301830,0.081191960,0.030238920,-0.045233960
1640791544471959808,-0.473985820,-0.012756520,10.077747340,0.075927380,-0.075516100,-0.030748550
1640791544472979968,-0.559461590,-0.058371630,9.200343130,0.065162780,-0.007748600,-0.040867930
1640791544478629888,-0.034215900,0.056296660,8.746462820,0.099642570,0.047595790,-0.037503250
1640791544479109888,-0.289439950,0.454509260,10.320917130,0.108172010,0.105269250,-0.043502440
1640791544481179904,-0.143372610,0.500043150,10.274469380,0.064384940,0.040820240,-0.052626440
1640791544483009792,-0.069272820,0.578453420,10.102780340,0.087887060,-0.092130910,-0.034891060
1640791544486400000,-0.553077100,0.631107870,9.869117740,0.082817680,-0.035364930,-0.058035560
1640791544488739840,-0.335527240,0.568726120,9.081171040,0.055453180,0.006979700,-0.048439210
1640791544491829760,-0.672553840,0.591555240,10.015991210,0.074833620,-0.007434190,-0.024379790
1640791544492989952,-0.496088860,0.296620910,9.860960960,0.055135780,0.030691920,-0.039961930
1640791544498339840,-0.075984950,0.271395530,9.796410560,0.087514520,0.003813210,-0.030782820
1640791544498889984,-0.510749340,0.456362460,10.635834690,0.070565940,-0.015807150,-0.036787980
1640791544501189888,-0.112690120,0.513501290,9.601948740,0.000527500,-0.059933970,-0.040109460
1640791544502959872,0.185012100,0.656536160,9.245388030,-0.003910060,-0.042484700,-0.021304190
1640791544506619904,0.017121270,0.698453610,9.706565860,0.007766490,0.087101760,-0.057752440
1640791544507969792,0.143947330,0.677106320,10.100825310,0.034368040,0.050683320,-0.049045690
1640791544512229888,-0.379630680,0.561281090,10.680270200,0.058694180,-0.067032880,-0.028675790
1640791544512929792,-0.442283510,0.333496120,9.664213180,0.012214480,-0.112925480,-0.032998620
1640791544516229888,-0.234514980,0.163096380,8.955490110,-0.011277200,-0.022637850,-0.016313790
1640791544517929984,-0.357202590,0.197238060,9.399681090,-0.011487310,0.100378700,-0.011046230
1640791544521359872,0.009580760,0.113860880,10.099784850,-0.003871320,0.097197290,-0.018259880
1640791544523939840,0.192234340,0.103329510,10.350150110,0.038853290,0.033466520,-0.026561320
1640791544529049856,0.090510810,0.171242680,9.929403310,0.054566570,-0.039628150,-0.039774180
1640791544530400000,0.013041610,0.227680150,9.532258990,0.022055200,-0.046981870,-0.040043890
1640791544531339776,-0.111600640,0.246585410,8.932892800,-0.030106310,0.027748940,-0.043565040
1640791544532989952,-0.233065290,0.100895930,9.623561860,0.003235040,0.072672970,-0.036250050
1640791544536160000,-0.293499710,-0.025702180,10.181517600,0.093023490,0.094717730,-0.035594410
1640791544538409984,-0.288576780,0.068583060,9.823212620,0.121583060,-0.001622740,-0.029842560
1640791544541240064,-0.396571820,0.029337950,10.168197630,0.061491130,-0.025227670,-0.024983290
1640791544543010048,-0.254536900,-0.054508550,9.079091070,0.000514090,0.058048970,-0.037322940
1640791544546200064,-0.104595510,0.078251260,9.161181450,0.046184660,0.028279430,-0.047534700
1640791544547930112,-0.165843470,0.138300030,10.015435220,0.117740040,0.098753000,-0.053659090
1640791544551239936,-0.010206300,0.132435710,9.696690560,0.124959670,0.058189030,-0.048664220
1640791544553089792,-0.343319450,0.005385240,10.596240040,0.129024700,-0.045363610,-0.041186810
1640791544556869888,-0.535294770,-0.079168480,9.607585910,0.101514160,-0.008867680,-0.050494070
1640791544558099968,-0.272860650,0.045825240,8.725092890,0.100517280,-0.030152500,-0.040575860
1640791544562319872,-0.511227430,0.327798780,9.997781750,0.111800420,0.107343480,-0.048193330
1640791544564639744,-0.202773270,0.577052120,9.594052310,0.070945920,0.093124810,-0.049550840
1640791544566190080,-0.120471940,0.576682750,10.303862570,0.131925930,-0.062666820,-0.035971410
1640791544567940096,-0.238948970,0.577584450,10.055987360,0.131000580,0.014902650,-0.079208630
1640791544571290112,-0.195096870,0.647842470,9.387743950,0.088050960,-0.023357570,-0.058212880
1640791544573269760,-0.640649140,0.531198320,10.446846960,0.072403260,-0.034263730,-0.037047270
1640791544576289792,-0.390656200,0.317823530,9.348562240,0.039155790,0.019446020,-0.052453580
1640791544578249984,-0.194235280,0.107982640,9.557862280,0.113266730,-0.019243360,-0.031718610
1640791544581219840,-0.333965600,0.209789050,10.446011540,0.130242110,0.082583720,-0.049234920
1640791544583020032,-0.136217390,0.443042070,9.837609290,0.062030550,-0.008651610,-0.049501660
1640791544586269952,-0.098598070,0.679939810,10.054437640,0.020833310,-0.119732340,-0.020855670
1640791544588140032,0.176313680,0.802689970,9.097954750,-0.021605190,0.044997040,-0.046810510
1640791544591219968,0.137645750,0.779483200,9.639342310,0.025448210,0.059789430,-0.046345600
1640791544592989952,-0.341600920,0.761081460,11.005644800,0.090597560,0.044602150,-0.041528040
1640791544597049856,-0.427653640,0.525928080,10.115280150,0.060695410,-0.064805160,-0.046855210
1640791544597920000,-0.516930760,0.308309700,9.664504050,0.020395220,-0.136744990,-0.022444130
1640791544601449984,-0.438982520,0.344165860,9.050285340,-0.046789640,0.052616000,-0.016015770
1640791544602979840,-0.032473700,0.290846620,9.167094230,-0.063945350,0.097449120,-0.012238320
1640791544606190080,0.138370900,0.164215070,10.498424530,0.008641180,0.100703540,-0.011375550
1640791544607960064,0.409209160,0.191495250,10.196043970,0.071649250,0.046946110,-0.041660660
1640791544611739904,0.206678540,0.165301700,10.065628050,0.078159560,-0.075450520,-0.023715200
1640791544612969984,-0.040306530,0.226015840,9.307855610,-0.017076730,-0.024244190,-0.010161100
1640791544616480000,-0.131862580,0.097276540,8.986957550,-0.078028450,0.034935760,-0.028738380
1640791544619799808,-0.474980290,-0.053350800,9.967297550,0.023320310,0.098860260,-0.036600240
1640791544621299968,-0.430976840,0.227596150,9.967887880,0.119179500,0.069062420,-0.044170020
1640791544622989824,-0.535230700,0.211823850,10.241790770,0.106413680,-0.013342500,-0.035502020
1640791544626309888,-0.395637750,0.194719780,9.697068210,0.013267990,0.010900200,-0.020535290
1640791544628649984,-0.193962630,0.229269890,9.106167790,-0.017760700,0.027254220,-0.025329000
1640791544631239936,-0.194729190,0.039916340,9.497664450,0.032271440,0.082735720,-0.033296640
1640791544633060096,0.230341230,0.070236160,9.583950040,0.104229170,0.105813170,-0.027744480
1640791544636199936,-0.163871450,-0.116793190,10.656554220,0.153382140,0.034098330,-0.046926740
1640791544637920000,-0.371744630,-0.270545630,10.121228220,0.120335820,-0.049240890,-0.031204520
1640791544641239808,-0.357968780,-0.161193390,8.994158740,0.074124340,-0.056535010,-0.022524600
1640791544642979840,-0.764927690,-0.116561730,9.457671170,0.058446820,0.053358080,-0.042621800
1640791544646179840,-0.438475940,0.332053720,9.534314160,0.082807240,0.097070630,-0.042369960
1640791544647939840,-0.438738050,0.772367000,10.163362500,0.133556130,0.007884210,-0.041551890
1640791544651219968,-0.271446650,0.782078860,10.016229630,0.102326270,0.014363230,-0.042295460
1640791544652940032,-0.110063330,0.862016140,9.880478860,0.087390850,0.005845730,-0.039695200
1640791544656359936,-0.672558310,0.664928440,10.385931970,0.084021690,-0.040817260,-0.040851540
1640791544657920000,-0.419433410,0.459309010,9.368638990,0.062675780,-0.072099250,-0.034108750
1640791544661700096,-0.251360090,0.426729290,9.140424730,0.078289210,-0.016665460,-0.017432870
1640791544662999808,-0.338233110,0.208673750,9.949348450,0.045973060,0.098942220,-0.036795430
1640791544666230016,-0.166060600,0.287049530,10.451168060,0.043115020,0.025491420,-0.029970710
1640791544667929856,-0.419875800,0.337209970,10.575212480,0.062364330,-0.108541560,-0.034882130
1640791544671180032,-0.139622900,0.514436190,9.332780840,0.031237310,-0.093223160,-0.054520370
1640791544672940032,-0.133343440,0.952819710,9.233585360,-0.010664760,0.012293460,-0.036790970
1640791544676239872,-0.372987120,0.937008020,10.081388470,-0.053653130,0.056298080,-0.040169070
1640791544678390016,-0.129736040,0.840985060,10.211260800,-0.011695920,-0.019642710,-0.037486850
1640791544681459968,-0.294728310,0.754697380,10.282824520,0.042529410,-0.074911140,-0.042016810
1640791544682929920,-0.369561970,0.592723250,9.825072290,0.001581010,-0.058597340,-0.038972500
1640791544686159872,-0.282896880,0.560894070,9.545671460,-0.075249370,-0.062528260,-0.010907650
1640791544687939840,-0.168940340,0.259795100,9.492671970,-0.109012440,0.013455750,-0.008310380
1640791544691190016,0.285251590,0.093068240,9.613127710,-0.068053590,0.079743560,-0.030438600
1640791544693009920,0.099719360,0.069761870,10.395073890,0.025884810,0.042891510,-0.029569860
1640791544696239872,-0.086980610,0.072107400,10.252149580,0.016708670,-0.073739890,-0.033494830
1640791544698479872,-0.175699140,0.047879240,9.567446710,-0.058648000,-0.122874980,-0.024878980
1640791544701289984,-0.292460860,-0.039634860,9.065352440,-0.088761750,-0.001488630,-0.033661730
1640791544702949888,-0.240783020,0.118186550,9.499472620,-0.040939450,0.079053630,-0.054393700
1640791544706519808,-0.315329370,0.338397350,10.329132080,0.017113980,0.066843630,-0.041581690
1640791544707929856,-0.100294340,0.384305800,10.041009900,0.008593500,-0.011795760,-0.032760200
1640791544711719936,-0.152600180,0.263360800,10.099497800,-0.006282330,-0.059488410,-0.027677410
1640791544713440000,-0.181284680,0.110778040,9.114165310,-0.003537540,-0.014309590,-0.026378040
1640791544716179968,-0.032047080,0.034154300,9.042189600,0.003023450,0.010351840,-0.024333600
1640791544717949952,-0.207448180,-0.087624380,10.056826590,0.013160700,0.103718050,-0.039844210
1640791544721349888,-0.157776460,-0.228288610,10.003237720,0.054278980,0.023762890,-0.033356250
1640791544723269888,-0.397185000,-0.303587680,10.280357360,0.108037900,-0.102104250,-0.032347440
1640791544726269952,-0.619854990,-0.329730930,9.448181150,0.068148970,-0.023809070,-0.045104320
1640791544728129792,-0.510383960,-0.091256410,9.386997220,0.050181150,-0.022308530,-0.050696740
1640791544731500032,-0.678815780,0.268485400,10.080710410,0.050258640,0.016985840,-0.049628320
1640791544733319936,0.001563870,0.660929800,9.147045140,0.041595110,0.021199890,-0.051590810
1640791544736189952,0.097234510,0.850857790,10.305123330,0.084446360,0.021232660,-0.030811130
1640791544738030080,-0.130139630,0.751807390,10.653185840,0.072270640,0.040932000,-0.047348450
1640791544741220096,-0.195160140,0.588167250,9.986155510,0.085644420,-0.146198240,-0.043840710
1640791544743820032,-0.533216240,0.430845230,9.600701330,0.080116090,-0.142888720,-0.034596030
1640791544746990080,-0.236265120,0.309095140,8.492689130,0.008513030,0.031012300,-0.048144170
1640791544747920128,-0.338240650,0.490732910,10.167818070,0.000007450,0.071872770,-0.033293660
1640791544751209984,-0.391986970,0.520801420,10.908982280,-0.005950030,0.047376740,-0.035321720
1640791544752940032,-0.096955220,0.458957910,10.034235950,0.039282440,-0.126339480,-0.047387180
1640791544756519936,-0.263982800,0.700912650,9.908637050,0.059010090,-0.107841200,-0.041402870
1640791544757920000,-0.205563350,0.830730080,9.088455200,-0.047989180,0.023846330,-0.042761870
1640791544763099904,-0.280048580,0.732284610,9.987042430,-0.086358170,-0.027702750,-0.011037290
1640791544763889920,-0.164774640,0.489546270,10.207611080,-0.046648090,0.007355210,-0.029703980
1640791544766309888,0.110330660,0.325517120,9.684215550,0.019894540,-0.010085110,-0.062662360
1640791544767930112,-0.308127020,0.441580410,10.572216990,0.025767090,-0.042872130,-0.033742190
1640791544771209984,-0.314231630,0.501801010,9.756287570,-0.097659240,-0.053532420,-0.016035140
1640791544773239808,-0.049959820,0.328971030,9.107368470,-0.137645020,-0.093542060,-0.001358990
1640791544776349952,0.115467920,0.367800650,9.219767570,-0.088053950,0.076547270,-0.004440550
1640791544778759936,0.347106900,0.396317240,9.638887410,-0.033739200,0.141049940,-0.023329260
1640791544781309952,-0.093458340,0.259821800,11.133067130,0.021269920,-0.000332300,-0.011551380
1640791544782939904,-0.161670330,0.077480200,10.298519130,-0.029972200,-0.102543840,-0.022141640
1640791544786149888,-0.379588010,-0.202376430,9.107150080,-0.054112080,-0.118681800,-0.027789180
1640791544788189952,-0.496832370,-0.134921090,8.781274800,-0.055284800,0.031028690,-0.011435150
1640791544791190016,-0.200881390,0.015266950,9.245056150,-0.050811480,0.158110260,-0.031134490
1640791544793169920,-0.293933780,0.091766530,10.654819490,0.000549850,0.096841160,-0.029233100
1640791544798699776,0.089151400,0.403219940,10.327680590,0.028765210,-0.052461040,-0.012575090
1640791544799310080,0.091112430,0.342982350,9.553202630,0.005644560,-0.047457230,-0.007142130
1640791544801219840,-0.092117240,0.228298990,9.238314630,-0.034250320,0.034458940,-0.001935660
1640791544803049984,-0.161215920,0.213483420,9.608258250,-0.010563430,0.040547550,-0.012691320
1640791544806579712,-0.428907720,-0.130471350,9.805104260,0.047025080,0.016766790,-0.021423400
1640791544808059904,-0.190614730,-0.084809960,9.377330780,0.089958310,0.002314150,-0.007119780
1640791544811389952,-0.575029310,-0.095421920,10.239698410,0.055019560,0.033137210,-0.010132790
1640791544813349888,-0.694914040,-0.148722530,9.824290280,0.008296970,-0.030413270,-0.022926930
1640791544816209920,-0.365320680,0.250405970,9.319069860,0.029070680,-0.087940700,-0.022636350
1640791544817939968,-0.209951280,0.532054480,9.102861400,0.026433170,0.091254710,-0.033971670
1640791544821199872,0.091812240,0.766285240,9.808319090,0.024329130,0.098501160,-0.031863160
1640791544823219968,-0.299008100,0.825651530,11.040587430,0.050540270,-0.005164740,-0.029326980
1640791544826510080,-0.445770410,0.395531890,9.862503050,0.053885580,-0.137338040,-0.030118230
1640791544828039936,-0.346462820,0.288392480,8.977253910,0.074736770,-0.132875160,-0.001159310
1640791544831249920,-0.808304550,0.244196590,9.449081420,0.012347100,0.064773860,-0.022277240
1640791544832979968,-0.573573830,0.227220270,9.812286380,-0.028224290,0.021931530,0.005774200
1640791544836199936,-0.308230520,0.409546140,10.482841490,0.010560450,-0.044164070,0.007686020
1640791544837989888,0.034723820,0.389277250,9.778182030,0.009623170,0.017227230,-0.028525290
1640791544841289984,0.191813500,0.726285520,9.996123310,0.035354500,-0.025933980,-0.015664100
1640791544843829760,-0.381094220,0.900952820,10.520832060,-0.016239290,-0.047448280,-0.022152070
1640791544846829824,-0.193965730,0.712928000,9.139748570,-0.074973700,-0.146606580,-0.013569000
1640791544847940096,-0.205280390,0.593070030,9.228697780,-0.033253430,-0.070919100,-0.007419290
1640791544851219968,-0.465702530,0.388154300,9.750868800,-0.022529070,0.119224210,-0.032711030
1640791544852949760,-0.496320250,0.355346260,10.609027860,-0.011928380,-0.032474100,-0.008217990
1640791544856639744,-0.551761630,0.345306550,10.648404120,-0.028321140,-0.133092690,0.022898610
1640791544858209792,0.024574810,0.204456030,8.799695970,-0.089949370,-0.072656580,-0.002264980
1640791544861319936,0.262649540,0.407057940,9.095121380,-0.082358730,0.028595330,0.025571880
1640791544864110080,0.217269850,0.414258390,9.852917670,-0.078821180,0.127401950,0.013421480
1640791544866230016,0.336979690,0.142001660,10.257582660,-0.022265320,-0.018523640,0.002005700
1640791544867980032,-0.053056150,0.079195180,10.363641740,0.032147770,-0.107122970,0.000269710
1640791544871229952,-0.306536880,0.045543890,9.221935270,-0.015680490,-0.090745100,-0.018237530
1640791544873379840,-0.509195030,-0.009825220,9.184934620,-0.075280680,-0.035110120,0.002880400
1640791544876320000,-0.524127600,0.094641360,9.475415230,-0.095775750,0.104761140,0.008329750
1640791544878000128,-0.440952990,0.007926770,10.210134510,-0.011053680,0.042630730,-0.020414590
1640791544881239808,-0.286020160,0.148634480,10.042485240,0.081489980,-0.045356160,-0.004313890
1640791544882949888,-0.117801650,0.360707040,9.360164640,0.038141020,-0.055427860,-0.002937020
1640791544886169856,-0.311637250,0.171802520,9.696679120,-0.051799420,-0.015072530,-0.004957620
1640791544888019968,-0.184780240,0.167387170,9.386422160,-0.060755010,0.001518430,0.014139710
1640791544891699968,-0.236488000,0.124976660,9.834350590,0.032229730,-0.029596690,-0.003385540
1640791544893009920,-0.209211900,-0.012292530,9.981721880,0.096069280,0.029848520,-0.006306170
1640791544896299776,-0.287327440,0.218639340,9.993850710,0.074237580,-0.030629330,0.011669100
1640791544897969920,-0.623847960,0.119589100,10.152701380,0.001604860,-0.086347760,-0.000435110
1640791544901219840,-0.188986200,0.201583860,8.796372410,-0.037553900,-0.039738410,0.009000300
1640791544902969856,-0.245057790,0.612820980,9.460440640,0.011503700,0.014747680,-0.013060870
1640791544906240000,-0.350544450,0.713307620,10.312211990,0.016000870,0.069208450,-0.027605890
1640791544908069888,-0.202721640,0.928277610,10.149033550,0.016607340,-0.078330930,-0.006386640
1640791544912240128,-0.628636660,0.661574960,10.419392590,0.006313620,-0.136175750,-0.010293720
1640791544912979968,-0.469300510,0.320427060,9.325222970,-0.008879600,-0.054149330,-0.002698600
1640791544916199936,-0.567165200,0.444245010,9.648303990,0.007160010,-0.058761240,0.025065240
1640791544917939968,-0.522053360,0.386671660,9.910231590,-0.050067910,-0.003699960,0.022178890
1640791544921569792,0.382291620,0.364970710,9.116847040,-0.079567730,-0.006882850,0.036288800
1640791544923790080,0.171739310,0.439451900,10.425146100,-0.041806700,0.019887090,0.005583470
1640791544926210048,0.155875120,0.393728550,10.353907590,-0.027227400,-0.016769770,-0.014072660
1640791544928329984,0.021335230,0.496575560,9.813465120,-0.003488360,-0.166061520,0.009299810
1640791544931219712,-0.390675570,0.398572120,9.443764690,-0.065831840,-0.103628640,-0.011774900
1640791544933029888,0.035260200,0.441083250,8.612048150,-0.109472860,0.040203330,0.004851820
1640791544936290048,-0.435379950,0.513194680,10.187853810,-0.083445010,0.070664290,0.029307600
1640791544938040064,-0.402240220,0.223871560,10.630581860,-0.052613020,0.008064510,0.023762880
1640791544941210112,-0.171777930,0.108543370,9.930357930,0.005964940,-0.124545410,0.037366160
1640791544943069952,-0.398672370,0.037709720,9.349280360,-0.005474690,-0.095245240,0.024503470
1640791544946159872,0.118240320,0.099127900,8.623234750,-0.093631450,0.034502150,0.029124320
1640791544947980032,0.057318070,0.157530200,9.618399620,-0.121912380,0.110632200,0.040391090
1640791544951190016,0.051545880,-0.107347340,10.567782400,-0.048400450,0.043156740,0.016689300
1640791544953449984,0.021522730,-0.232662680,10.465722080,0.090610970,-0.095182660,0.009188060
1640791544956489984,-0.345016480,-0.026469970,9.219132420,0.092613700,-0.130298750,-0.000277160
1640791544957939968,-0.429219280,0.032675130,8.858245850,-0.046983360,-0.029021500,0.008547310
1640791544961439744,-0.575696890,0.099379010,9.518888470,-0.089380170,0.099881010,0.020293900
1640791544963470080,-0.494257630,0.313280580,9.921021460,-0.016649070,0.004318360,0.009852650
1640791544966199808,-0.279393700,0.415746690,10.217599870,0.100097060,-0.052250930,0.014857950
1640791544967969792,-0.148806320,0.595327380,9.497631070,0.076137480,-0.014108420,0.017002220
1640791544971200000,-0.414067690,0.372913270,10.035328870,0.002110000,-0.057911880,0.020582970
1640791544973249792,-0.508934800,0.109034820,9.944284440,-0.022409860,-0.046981870,0.020946560
1640791544976329984,-0.186756400,0.141484050,8.849199300,0.022003060,-0.057765850,0.018052760
1640791544978400000,-0.304381610,0.287090300,10.037370680,0.055663300,0.007161500,0.003273790
1640791544981199872,-0.146884980,0.672789220,9.906704900,-0.010028480,0.057195130,0.015747550
1640791544983009792,-0.219947920,0.684391320,10.179190640,-0.041921440,-0.127689540,0.030280660
1640791544986199808,-0.267313270,0.539105590,10.077038760,-0.012984870,-0.075164420,0.015859300
1640791544987969792,0.000829710,0.788035630,8.921413420,0.007069110,-0.006963310,0.012543800
1640791544991219968,-0.491811990,0.967359010,10.398745540,-0.025691090,-0.046519940,0.028932090
1640791544993049856,-0.242621730,0.699562550,9.780309680,-0.108648860,-0.008219480,0.027596950
1640791544997700096,-0.076659630,0.390823010,9.484312060,-0.057384370,-0.062622140,0.015445050
1640791544998289920,-0.580555080,0.230818080,10.669025420,0.003686550,-0.027330220,0.017832220
1640791545001309952,-0.246279510,0.332939740,9.364825250,-0.028595330,-0.049047170,0.032253570
1640791545003049728,-0.234099060,0.311182980,9.602008820,-0.103037070,-0.126710550,0.048686560
1640791545006510080,0.270592900,0.286063190,9.209197040,-0.166057020,0.087358050,0.036378200
1640791545008009984,0.577502790,0.372261640,9.593266490,-0.093629960,0.092960890,0.025203820
1640791545011839744,-0.037199230,0.323700820,11.180460930,-0.004960600,-0.025130810,0.015872720
1640791545012950016,0.105035820,0.293881330,9.618562700,-0.031441450,-0.109095870,0.023999810
1640791545016310016,-0.265705910,0.069962370,9.118649480,-0.056660180,-0.133355010,0.030714280
1640791545017959936,-0.492348700,-0.061856540,9.061893460,-0.102268160,0.056780880,0.023758410
1640791545021169920,-0.288749900,0.033637170,9.390584950,-0.087650130,0.101463500,0.029930470
1640791545023660032,-0.588063600,0.001897380,10.839954380,-0.016134980,0.030513100,0.031189620
1640791545026219776,-0.211139140,0.046895460,10.062837600,-0.010268390,-0.042948130,0.023549800
1640791545030479872,-0.211732220,0.060028430,9.331828120,0.015896560,-0.084163260,0.032271450
1640791545031180032,-0.315283330,0.135886910,9.198495860,-0.029028950,0.002093610,0.022950760
1640791545033079808,-0.074245440,0.230525400,9.306626320,-0.066339950,0.058540700,0.022619960
1640791545036239872,-0.330392090,0.180407290,10.169726370,-0.022678070,0.020118060,0.029277800
1640791545037949952,-0.145675850,0.038957790,10.040213580,0.041557840,-0.032559030,0.033055250
1640791545041219840,-0.275204210,0.039820010,9.835677150,0.081022070,-0.044824180,0.029763580
1640791545043079936,-0.488658820,0.077896300,9.658065800,0.010544060,-0.033289200,0.024943050
1640791545046180096,-0.332552370,0.138465820,9.526459690,-0.047533210,-0.021135810,0.026047230
1640791545048169728,-0.259245780,0.339878740,9.374629020,-0.024980300,0.016374880,0.022138660
1640791545051219968,0.004995870,0.631912350,9.755262370,0.005702670,0.025148690,0.015348200
1640791545053009920,-0.197543460,0.853356540,10.447322850,0.019067530,0.028346480,0.010950860
1640791545056730112,-0.493489060,0.810094830,10.269909860,-0.011505190,-0.092664360,0.023862720
1640791545057979904,-0.626149420,0.552171770,9.812203410,-0.025589760,-0.162360090,0.031784180
1640791545061869824,-0.538255690,0.421980440,8.940714840,-0.026600060,-0.014115870,0.032407050
1640791545063030016,-0.425886210,0.519237040,9.635321620,-0.048732760,0.061497100,0.030671060
1640791545066540032,-0.306054410,0.619473340,10.678796770,-0.083008400,0.022087990,0.040417910
1640791545067979776,0.126034160,0.469276490,9.984580040,-0.090774890,-0.045149030,0.025090580
1640791545071169792,0.222814080,0.419420900,9.999348640,-0.046421580,-0.063851480,0.012491640
1640791545073279744,-0.092390190,0.503047820,9.876717570,-0.040343410,-0.018478930,0.013945990
1640791545076249856,-0.084811360,0.576212880,9.494678500,-0.103594390,-0.077584390,0.029094520
1640791545078080000,-0.124586250,0.472382870,9.668954850,-0.150726740,-0.015640260,0.037533050
1640791545083729920,-0.129404220,0.261158700,9.641790390,-0.110150870,0.073377790,0.030100340
1640791545084290048,-0.302283820,0.303641890,10.468566890,-0.039114050,-0.015206630,0.026793770
1640791545086159872,-0.572572530,0.333724920,10.222861290,-0.058735910,-0.067888200,0.044056780
1640791545087989760,-0.177747830,0.320140870,8.959965710,-0.129979860,-0.099602340,0.055967270
1640791545091239936,-0.057201200,0.302912150,9.245393750,-0.156264020,0.042846800,0.049903990
1640791545093080064,0.236172440,0.301541540,9.410295490,-0.139260310,0.150938350,0.030744080
1640791545096189952,0.244033750,0.169180710,10.732420920,-0.043280430,0.042711200,0.032755740
1640791545098660096,-0.083750060,-0.044009180,10.673159600,-0.016312300,-0.062398610,0.014385580
1640791545101169920,-0.111756590,-0.167320300,9.104715350,-0.044755630,-0.127044340,0.025780500
1640791545102979840,-0.537036180,-0.213757720,9.180281640,-0.083555290,-0.037990510,0.044925510
1640791545106349824,-0.379029480,-0.257544880,8.862681390,-0.130708530,0.136804580,0.019060080
1640791545107990016,-0.197230100,0.024924680,10.115693090,-0.040800870,0.083422660,0.021608170
1640791545112720128,-0.183882520,0.321598650,10.514125820,0.004071000,0.050051510,0.017508860
1640791545113799936,0.110913350,0.368429570,9.514144900,-0.022007530,-0.039839750,0.020642580
1640791545116169984,-0.357937960,0.397189110,10.111920360,-0.041368610,-0.032237170,0.031469770
1640791545117979904,-0.527530430,0.191178220,9.294390680,-0.074628000,0.004556780,0.010427830
1640791545121229824,-0.436539860,0.001244920,9.236296650,0.000119210,-0.035043060,0.018559400
1640791545123059968,-0.519004460,0.107098460,9.899576190,0.030049680,0.080674890,0.010892750
1640791545126319872,-0.248585690,0.119769660,9.897139550,-0.006750230,0.064738090,0.019578640
1640791545131160064,-0.425177540,0.201827050,10.752021790,-0.018887220,-0.042043630,0.028763710
1640791545131820032,-0.255180720,0.351432140,9.503039360,-0.051499910,-0.054360930,0.007502740
1640791545133039872,-0.032774430,0.407867310,8.995830540,-0.020225350,-0.040616100,0.006510320
1640791545136160000,-0.297244160,0.783771100,9.862949370,-0.002896790,0.078687080,-0.008468330
1640791545138039808,-0.186066030,0.926847100,9.928560260,-0.059662770,0.028257080,-0.005206470
1640791545141239808,-0.376750380,0.638555770,10.557790760,-0.042389330,-0.082290160,0.016328690
1640791545143049984,-0.367982540,0.425072760,9.877613070,-0.033900140,-0.028753280,-0.007571280
1640791545146749952,-0.495187760,0.212077230,9.788205150,-0.013127920,-0.019146500,0.007474420
1640791545148079872,-0.712192300,0.323119820,10.249895100,-0.036036960,-0.027139480,0.031585990
1640791545151160064,-0.154127330,0.448209400,9.189023020,-0.120002040,-0.027793650,0.024397670
1640791545152979968,0.196511510,0.456313880,9.385758400,-0.127963740,0.015823540,0.017945470
1640791545156630016,0.307069060,0.685585020,10.011047360,-0.105638810,0.121727570,0.002656880
1640791545158030080,0.121175560,0.508454800,10.546955110,-0.056220590,-0.007680060,-0.005085770
1640791545166460160,-0.249498430,0.254379990,10.462651250,-0.017960370,-0.141374780,0.006604200
1640791545167089920,-0.258259240,0.298511030,8.956023220,-0.078038870,-0.097249450,-0.000113250
1640791545167559936,-0.431055990,0.077102380,9.031349180,-0.142148150,0.035794070,0.011597570
1640791545167959808,-0.352823940,0.101267560,9.882164960,-0.142602640,0.135394930,0.026842950
1640791545171249920,-0.162260440,0.120141400,10.368365290,-0.068239880,0.035847720,0.002117460
1640791545173339904,-0.106261670,0.085688130,10.037401200,-0.015267730,-0.045359130,0.008036200
1640791545176280064,0.169319730,0.357804000,9.089765550,-0.058771670,-0.030711300,0.033582750
1640791545180579840,-0.039449090,0.113681400,9.456814770,-0.130029020,0.045493250,0.020420550
1640791545181159936,0.053616110,-0.010911670,9.569109920,-0.112484400,0.075910990,0.009156760
1640791545183009792,-0.125567200,0.055910730,10.100171090,-0.010761620,0.014780460,-0.002774600
1640791545186139904,-0.392873020,-0.170507400,10.083886150,0.022251900,0.000797210,-0.003084540
1640791545188059904,-0.410091880,-0.165648580,9.594260220,0.003528600,-0.026498730,0.009174640
1640791545191219712,-0.912126720,-0.251338540,9.937917710,-0.028704110,-0.023821000,-0.002507870
1640791545193219840,-0.531202910,-0.275976120,8.980531690,-0.031986830,-0.003741680,-0.007289650
1640791545198390016,-0.160210100,0.214548130,9.301301960,0.010991100,0.051836670,0.004801150
1640791545199290112,-0.139748230,0.282318260,10.223634720,0.004345180,0.138962280,-0.008286540
1640791545201159936,0.084025580,0.378356520,10.483898160,0.032918160,-0.012937190,0.001674890
1640791545203040000,-0.340252610,0.311522510,10.488304140,0.070323040,-0.131316470,0.003130730
1640791545206689792,-0.283714060,0.025857320,8.879949570,0.046136990,-0.072714700,-0.014232100
1640791545208039936,-0.450432390,0.265882070,9.262174610,0.035718090,0.010640920,-0.006072220
1640791545211299840,-0.775038000,0.385356630,10.113482480,-0.018064680,0.068525970,-0.025407970
1640791545213019904,-0.152683140,0.461184050,9.740114210,-0.021076200,-0.046306850,-0.000813600
1640791545216199936,-0.165651810,0.607601280,10.230238910,0.025686620,-0.011549890,-0.009118020
1640791545217969920,-0.192864570,0.449641110,10.094573970,0.022286180,0.028596820,-0.038349630
1640791545221240064,-0.320546090,0.601858970,10.196039200,0.033283230,-0.095750380,-0.008679920
1640791545223389952,-0.492275890,0.558084190,9.676257130,-0.019143520,-0.105811680,-0.011198220
1640791545226330112,-0.009101650,0.283774790,8.910290720,-0.055775060,-0.014264880,-0.011020900
1640791545228039936,-0.154268950,0.514423310,10.042991640,-0.021429360,0.067964200,-0.012719630
1640791545231340032,-0.211742700,0.397622020,10.557727810,-0.027993320,0.021789970,-0.024177130
1640791545233069824,0.025030000,0.344452260,10.152016640,-0.006009640,-0.103469180,-0.008590520
1640791545236130048,-0.097665650,0.518884180,9.568449970,-0.031854210,-0.063006590,-0.020384790
1640791545238019840,0.146943670,0.594818590,9.068247800,-0.096039480,0.023858250,-0.020799040
1640791545241220096,0.124670340,0.622521640,9.657195090,-0.103203970,0.066569450,0.003254410
1640791545243330048,0.133757580,0.390229200,9.928501130,-0.076596430,0.044564900,-0.009891390
1640791545246359808,0.114435790,0.060819690,10.202447890,0.008107720,0.000524520,-0.024099650
1640791545247979776,-0.309841280,0.083352160,9.844297410,0.027075410,-0.037950280,-0.012467800
1640791545251239936,-0.460793350,-0.025025000,9.448407170,-0.077265500,-0.071038310,-0.017045440
1640791545252999936,-0.376951690,-0.193810330,9.174036980,-0.131712840,0.045634810,-0.007379050
1640791545257920000,-0.124519270,-0.074374000,9.209644320,-0.066195410,0.113692870,-0.042323760
1640791545259820032,-0.069022460,0.083030800,10.444615360,0.039657940,0.099810970,-0.051894790
1640791545261230080,0.046914940,0.379360350,10.012476920,0.036545100,0.033327940,-0.031565130
1640791545264099840,-0.120558980,0.354230580,9.838752750,-0.044804820,-0.078685570,-0.021152200
1640791545266189824,-0.389231800,-0.037676110,9.600140570,-0.060194730,-0.013037030,-0.016060470
1640791545267969792,-0.290764510,-0.058811820,8.645315170,0.008958580,0.041668120,-0.036707510
1640791545271219968,-0.504936810,0.011299310,10.020648000,0.065392260,0.065933180,-0.052654740
1640791545273089792,-0.288067340,0.131378800,10.043814660,0.010490420,0.122766210,-0.045619910
1640791545276359936,-0.249817680,0.256622580,10.152903560,-0.013759730,-0.048354270,-0.031229850
1640791545277989888,-0.444746110,0.090415630,10.167191510,-0.004240870,-0.040413440,-0.035825370
1640791545281169920,-0.088248430,0.261427220,8.722164150,0.016416610,0.022730230,-0.049969560
1640791545283030016,-0.562816500,0.444737080,10.129547120,0.043970350,0.011917950,-0.060643260
1640791545286149888,-0.437454310,0.508001570,9.974370960,-0.001847740,0.053340200,-0.058658430
1640791545288189952,-0.152584140,0.492891160,9.556049350,-0.002425910,-0.055791430,-0.028954440
1640791545291679744,-0.524210270,0.366708960,10.550550460,0.006213780,0.001947580,-0.040701030
1640791545293059840,-0.268002690,0.347363260,9.600700380,-0.002166630,0.017806890,-0.039052960
1640791545297400064,-0.543083070,0.381439890,10.125209810,0.039112570,-0.099988300,-0.017943980
1640791545298009856,-0.339652960,0.447897340,9.566423420,-0.015564260,-0.003759560,-0.034016370
1640791545301230080,0.310273980,0.686251940,8.892072680,-0.065229830,0.042760360,-0.024940070
1640791545302990080,-0.081007590,0.785143490,10.700672150,-0.081704560,0.062178070,-0.032608210
1640791545306239744,0.291149410,0.612857940,10.045708660,-0.068548310,0.021152200,-0.035396210
