# timestamp,accel_x,accel_y,accel_z,gyro_x,gyro_y,gyro_z
1640790538.208850,0.185052630,0.312575700,10.347929000,-0.058145820,-0.004199150,-0.049814590
1640790538.210450,0.205595840,0.445925380,9.240470890,-0.031918280,0.021502370,-0.018188350
1640790538.216300,-0.214135270,0.015750730,9.157232280,-0.017310680,-0.028154250,-0.010885300
1640790538.218000,-0.393087030,-0.249351070,9.247888570,0.003662710,-0.005218390,0.021962830
1640790538.219620,-0.283011620,-0.098725550,9.292487140,-0.008380410,0.034298010,0.019121170
1640790538.220460,-0.328581510,-0.358046980,10.428966520,-0.046892480,0.048455600,0.005821880
1640790538.224870,0.171663280,0.003603660,10.319200520,-0.043320660,0.087711220,-0.028881430
1640790538.226270,0.192967470,0.248594550,10.300274850,-0.019367040,0.041227040,-0.060565770
1640790538.228430,0.191240640,0.224877270,9.697480200,0.001969930,-0.006480510,-0.026550890
1640790538.230750,0.026923910,0.163925310,8.945979120,0.051949920,-0.021891290,-0.015445050
1640790538.233740,-0.561684070,-0.253246870,9.358839990,0.065293920,-0.054058430,-0.017277900
1640790538.236730,-0.472346870,-0.267297210,9.263515470,0.050508980,-0.011552870,0.013715030
1640790538.242820,-0.403735700,-0.293134480,10.030463220,0.036139790,0.053581600,-0.022789830
1640790538.245190,-0.150731620,-0.140448360,10.731644630,0.009311730,0.095015760,-0.035764280
1640790538.246920,0.240084070,0.535010580,10.462718010,0.016799570,0.054466730,-0.011405350
1640790538.247620,0.116300380,0.587812070,10.164767270,0.038453940,-0.032775100,-0.011232500
1640790538.250370,0.246979580,0.602111400,8.876520160,0.047454240,-0.058925160,-0.008279090
1640790538.253570,-0.128340100,0.717619540,8.803049090,0.066074730,-0.027045610,-0.025790940
1640790538.255310,-0.486060620,0.319573370,9.686547280,0.013755260,0.025896730,-0.016534330
1640790538.258150,-0.317924200,0.261650260,10.180985450,0.016942620,0.032454730,-0.020444390
1640790538.261040,-0.441987450,0.413032110,11.079017640,0.000156460,0.012545290,-0.045578190
1640790538.262080,-0.065228310,0.542264640,10.345442770,-0.051626570,0.016084310,-0.003080070
1640790538.264280,0.116178130,0.596165360,9.654241560,-0.040142240,-0.020255150,-0.010252000
1640790538.265510,0.086548460,0.545739470,9.370968820,-0.033697480,-0.000992420,-0.037010010
1640790538.268760,0.246096030,0.552913190,8.789992330,-0.025941440,0.019465390,-0.000756980
1640790538.273280,-0.111512140,0.236209810,9.866185190,-0.000470880,-0.027714670,-0.013324620
1640790538.275310,-0.166933690,0.092743430,10.072485920,-0.043971830,-0.013254580,-0.020922720
1640790538.276210,0.063957680,0.235454560,9.851553920,-0.075295570,0.001034140,0.005967910
1640790538.279340,-0.180920200,-0.021850980,10.801866530,-0.083372000,0.062602760,-0.029882790
1640790538.281070,0.197401730,0.194464560,9.716956140,-0.055569400,0.050376350,-0.038747490
1640790538.283390,0.083353760,0.410667960,9.464077950,-0.002102550,-0.044177480,-0.028581920
1640790538.285520,-0.009209610,0.216312570,9.020241740,-0.039568540,0.024953490,-0.018787380
1640790538.289020,0.109095430,0.242352520,8.690603260,-0.055810810,0.011540950,0.012193620
1640790538.293130,-0.359809910,-0.111957490,10.235915180,-0.045643750,0.015653670,-0.002576410
1640790538.294610,0.019328130,-0.255805610,9.936794280,-0.037752100,0.065965950,-0.034131110
1640790538.295520,0.015238840,-0.082664280,10.414447780,0.009591880,0.007364160,-0.052413340
1640790538.302760,-0.045833060,-0.077672770,10.325433730,-0.013011700,0.067469500,-0.051842640
1640790538.305250,0.163186400,-0.060162340,9.102457050,-0.016389790,0.019444530,-0.014714900
1640790538.308900,-0.321956550,-0.197562810,9.514262200,0.036054850,-0.039193030,-0.003093480
1640790538.309690,-0.174356100,-0.238463420,8.736404420,0.044950840,0.013487040,-0.003214180
1640790538.310010,-0.214327130,-0.108155750,9.255918500,0.049816080,-0.002554060,0.000922380
1640790538.310430,-0.309519470,-0.134541260,10.598377230,0.028164680,0.084841260,-0.042329730
1640790538.314380,0.148845790,0.234798920,10.312968250,0.008013840,0.058130920,-0.064715750
1640790538.318230,-0.105072000,0.344618500,10.907238960,0.046695770,-0.014400480,-0.027960540
1640790538.319090,-0.010751270,0.180587160,9.748389240,0.076933210,0.003591180,-0.014337900
1640790538.321390,-0.222172330,0.134912700,9.061320300,0.127606090,-0.069960960,-0.004090370
1640790538.323510,-0.572057010,0.185937210,9.233121870,0.096952920,-0.038535890,0.006754700
1640790538.325480,-0.190668110,0.172225190,8.877118110,0.018070640,0.042456390,0.003862380
1640790538.328900,-0.227762640,0.287287950,10.483439450,0.010685620,0.036075710,-0.021640960
1640790538.330540,0.097589900,0.632337870,10.949090000,0.017873940,0.078137230,-0.038836900
1640790538.333970,0.435769500,0.730161910,10.502918240,0.035822400,-0.010159610,-0.038442020
1640790538.338740,0.048459860,0.595824240,10.492920880,0.064043700,-0.052227080,-0.042635210
1640790538.341560,0.011079060,0.617304330,8.841281890,0.033785410,-0.039319690,-0.042711200
1640790538.342000,-0.388983910,0.185098720,8.890579220,0.016309320,-0.072686370,0.003646310
1640790538.343480,-0.569059790,-0.094818850,9.498749730,0.028152760,0.043858580,0.016257160
1640790538.345740,-0.300673960,-0.021706030,9.781083110,0.018878280,0.029915570,-0.000917910
1640790538.354440,-0.133931150,0.079635860,10.677809720,0.002054870,-0.003305080,0.008475780
1640790538.356320,0.462827770,0.358240900,10.116762160,-0.033044820,0.076808040,-0.036343930
1640790538.356810,0.585287690,0.570398210,10.008012770,-0.020466750,0.020356470,-0.044141710
1640790538.357740,0.247999610,0.551851930,9.906031610,0.027929250,-0.002749260,-0.012944640
1640790538.367870,0.137326840,0.307047870,8.817559240,0.046989330,-0.053413220,-0.022725760
1640790538.370790,-0.402859120,-0.089442950,9.166089060,0.049918890,-0.056158010,0.012099740
1640790538.371340,-0.511514660,-0.197940200,9.393574710,0.031696250,0.057780740,0.015220040
1640790538.372400,-0.598458410,-0.331602250,10.391078950,0.007775430,0.045031310,-0.025981670
1640790538.376300,-0.262688520,0.009924690,10.537221910,-0.003546480,0.014185910,-0.029414900
1640790538.376850,0.259803470,0.407535640,9.767498970,-0.002309680,0.054328150,-0.032986700
1640790538.377260,0.170949070,0.250006020,9.945975300,0.030842420,0.040018560,-0.005368890
1640790538.377910,0.125278350,0.316300000,9.495658870,0.088766220,-0.020264090,0.003884730
1640790538.378450,-0.187620490,0.088399540,9.252211570,0.087164330,-0.088013700,-0.028701130
1640790538.384480,-0.345436990,-0.206515680,9.278513910,0.064937780,-0.032098590,-0.015853350
1640790538.389550,-0.305985120,-0.030902490,9.806197170,0.047977270,0.045074520,-0.046126550
1640790538.390990,-0.379762110,0.090443780,10.921578410,0.026442110,0.045581160,-0.045149020
1640790538.391670,0.055832330,0.467651610,10.319558140,0.029575830,0.014257430,0.004197660
1640790538.392100,0.111251410,0.586933430,9.968085290,0.040727860,-0.039020180,-0.017273430
1640790538.393400,-0.037892550,0.627289180,9.466526990,0.045278660,-0.033424790,-0.007726250
1640790538.396020,-0.073557840,0.755548120,8.839234350,0.041525070,-0.054010750,-0.000631810
1640790538.398670,-0.408237160,0.328264470,9.781162260,0.023563210,-0.040511790,-0.029340390
1640790538.400770,-0.160804210,0.385506150,9.808206560,-0.005048510,0.026489790,-0.015407800
1640790538.403430,-0.140564890,0.413244870,10.603441240,-0.002540650,0.003314020,-0.012320280
1640790538.410260,-0.058467840,0.144663810,10.875799180,-0.008514520,0.014202300,-0.024540720
1640790538.410870,0.344998870,0.555140610,9.365761760,-0.002975760,-0.032010670,-0.019532440
1640790538.412870,-0.018979790,0.418788760,9.482662200,-0.024852160,-0.057819500,-0.007095930
1640790538.413510,0.076102050,0.078735780,8.854881290,-0.026895110,0.022253400,0.013688210
1640790538.415710,-0.039760550,0.117716280,9.227959630,0.034247340,-0.032401080,-0.002457200
1640790538.418810,-0.370594620,-0.156300590,10.410252570,0.026687980,-0.005024670,-0.009123980
1640790538.423270,0.082228270,-0.001016050,9.797756200,-0.016286970,0.024428970,-0.013484060
1640790538.425320,-0.173954500,0.142359660,10.680953030,-0.033222140,-0.019617380,-0.043505430
1640790538.425880,0.030392280,0.125008600,9.996435170,-0.024142860,0.026054680,-0.014823680
1640790538.429390,0.291924660,0.282681820,8.915946010,0.053074970,-0.009225310,0.002795460
1640790538.431700,-0.143487110,0.032421660,9.634140010,0.078508250,-0.007377560,0.003501770
1640790538.433610,0.086553480,0.113091910,8.856307980,0.043940540,0.027579070,0.015020370
1640790538.435490,-0.271007330,0.138839040,9.766125680,-0.009781120,-0.048302120,-0.022886690
1640790538.438460,-0.223149060,0.113487760,10.182985310,-0.053167350,0.033301120,-0.041016930
1640790538.440690,0.117455750,0.432911040,9.846267700,0.004619360,0.048577790,-0.047248600
1640790538.443970,-0.277991890,0.372769830,10.951253890,0.054140380,0.026683510,-0.036780530
1640790538.448460,-0.084181170,0.224958820,9.910641670,0.067654260,-0.000275670,0.016967950
1640790538.448960,-0.331285570,0.091053100,9.199833870,0.078344370,-0.115323080,0.013408070
1640790538.452890,-0.538497450,-0.099068320,9.087099080,0.012791160,-0.043338540,0.001500550
1640790538.455500,-0.075989290,0.226201000,8.648018840,-0.021243100,0.041008000,0.009042020
1640790538.458560,-0.245395300,0.329720110,10.596643450,-0.024931130,0.036673250,-0.032514330
1640790538.459160,0.280371840,0.747359630,10.763171200,-0.025995080,0.061385340,-0.029620530
1640790538.464600,0.470179320,0.992134030,10.468645100,0.013053420,-0.016522410,-0.010916590
1640790538.465310,0.112783250,0.675600170,10.424554820,0.003875790,-0.040841110,-0.020061430
1640790538.465890,0.085828510,0.702184980,8.908237460,-0.015978520,-0.038784750,0.005842750
1640790538.468420,-0.458169070,0.306582000,8.966552730,-0.029121340,-0.069226330,0.012725590
1640790538.471010,-0.442653060,-0.031585880,9.163597110,-0.059625510,0.030648710,0.005060430
1640790538.483070,-0.233977900,0.178388030,9.625119210,-0.042933240,0.063265860,0.019097330
1640790538.485020,-0.285316530,0.018561750,11.006105420,-0.059860940,0.028839710,-0.004348160
1640790538.486540,0.281390520,0.208174200,10.344455720,-0.058726970,0.020349030,-0.013899800
1640790538.486950,0.254095260,0.364605930,10.000391010,-0.027318300,-0.018699470,-0.021719930
1640790538.487260,0.197062220,0.215595040,9.493754390,-0.040650380,-0.000335280,-0.008632240
1640790538.488140,0.116836820,0.138716910,8.842311860,-0.004419680,-0.010527670,0.015822050
1640790538.490820,-0.173746090,-0.196832880,9.203895570,0.015130640,-0.004874170,0.006957350
1640790538.491630,-0.101897890,-0.217601090,9.423960690,-0.014030930,0.036811830,0.001335140
1640790538.493510,-0.222402530,0.048678190,10.233011250,-0.028665370,0.033663210,-0.022777920
1640790538.495650,-0.019097190,0.125584100,10.344031330,-0.071041290,0.040832160,-0.034341220
1640790538.499000,0.147119210,0.488706590,10.058397290,-0.037448110,0.038173790,-0.021661820
1640790538.500680,-0.069753740,0.380074140,9.887316700,0.017979750,0.022272770,0.010238590
1640790538.503970,-0.099820930,0.015803380,9.314397810,0.053134560,-0.021171570,0.018680100
1640790538.505460,-0.432789090,0.023865060,9.145608900,0.066672270,-0.045327850,0.017289820
1640790538.509120,-0.405103710,-0.270597040,9.067882540,-0.004310910,0.001917780,-0.001490120
1640790538.511660,-0.222326160,-0.146160500,9.901788710,-0.031597920,0.048734260,-0.036887820
1640790538.514890,-0.088409720,0.331230130,10.656003950,-0.011965630,0.080917780,-0.036194920
1640790538.517040,0.353560980,0.503675460,10.391036990,-0.012105700,0.041937830,-0.016719100
1640790538.518650,0.250306370,0.636768040,10.352727890,0.023494660,0.006487970,-0.008961560
1640790538.521130,0.128398970,0.630316320,9.393328670,0.020898880,-0.025816260,-0.003543500
1640790538.525230,-0.145573990,0.412244860,9.056241990,0.002971290,-0.059530140,0.015133620
1640790538.528320,-0.435309950,0.276465710,9.302558900,0.003139680,0.017911200,-0.000008940
1640790538.529390,-0.216201740,0.336438030,9.652021410,-0.045788300,0.054337090,-0.018772480
1640790538.530540,-0.225529570,0.468667180,10.866250040,-0.067883730,0.076361010,0.007341800
1640790538.533460,-0.052550810,0.426396910,10.834747310,-0.056222090,0.051444770,0.001251700
1640790538.535840,0.159861860,0.438819170,10.104235650,-0.035451350,-0.044320530,-0.013357400
1640790538.542560,-0.040336030,0.520337280,9.312824250,-0.013519820,-0.036799910,-0.004607440
1640790538.544780,0.073929350,0.413958370,8.529400830,-0.065213440,0.021460650,0.000356140
1640790538.549640,-0.017063130,0.256513330,9.298040390,-0.090841950,0.052295630,0.011365120
1640790538.552380,-0.050597380,0.198466790,10.221611020,-0.074657800,0.070197880,0.013430420
1640790538.555270,0.193372040,0.160923210,10.485584260,-0.071640310,0.039593880,-0.006233160
1640790538.556390,0.017234760,0.102263030,10.621459960,-0.050999230,0.001561640,-0.012271110
1640790538.557010,0.097159230,0.132828730,9.705998420,-0.055655840,0.027671460,-0.013160710
1640790538.558180,-0.032460760,0.007424640,9.219245910,-0.052364170,0.030268730,0.009770690
1640790538.558750,-0.206950140,-0.147250820,9.042316440,-0.021009150,0.043578450,0.035706160
1640790538.560830,-0.035529580,-0.037889720,9.103314400,-0.030162940,0.053302950,0.022369620
1640790538.563440,-0.200598030,0.003572200,9.916077610,-0.055268410,0.063429770,0.026051700
1640790538.565590,0.033423770,0.099711580,10.126106260,-0.069549690,0.053630770,-0.015200670
1640790538.569640,0.079263060,0.200782670,10.466607090,-0.042575600,0.050731010,-0.049217050
1640790538.570660,-0.071718830,0.154108110,9.974593160,0.009703640,0.046429030,-0.018309060
1640790538.573650,-0.079890390,-0.016661380,9.446772580,0.054150820,-0.003443660,0.003713370
1640790538.575700,-0.522924420,-0.273164720,9.276257510,0.047516830,0.012516980,0.021392110
1640790538.579950,-0.430215900,-0.256075230,8.660640720,0.013251600,-0.010530650,0.041890150
1640790538.580700,-0.403647120,-0.184542190,9.578747750,-0.021754200,0.036101040,-0.003799800
1640790538.583790,-0.165872900,0.074393340,10.016587260,-0.019140540,0.099909330,-0.035513940
1640790538.585550,0.203098190,0.589975120,10.511843680,0.019186730,0.030314920,-0.032837690
1640790538.588860,0.050347030,0.562218840,10.831867220,0.034852330,0.043259560,-0.015418230
1640790538.590590,0.059569340,0.382348090,9.634243970,0.063288220,-0.042971970,0.015187260
1640790538.594700,-0.343608260,0.246788350,9.477936740,0.078958280,-0.097602590,0.029994550
1640790538.595510,-0.537423310,-0.108296600,8.618232730,0.031553210,0.004011390,0.025677680
1640790538.599020,-0.319125410,0.044773650,9.086572650,0.013519820,-0.001209970,0.001832840
1640790538.600700,-0.338629750,0.326008620,10.629075050,-0.018128750,0.089445720,-0.028334560
1640790538.603490,0.197336330,0.709751780,10.270935060,-0.052331380,0.053796180,-0.012435020
1640790538.606010,0.214795860,0.890591740,10.988423350,-0.016890470,-0.042179230,-0.015075510
1640790538.612200,0.110351230,0.739202020,9.893194200,0.002248590,-0.014905630,-0.025768580
1640790538.613860,0.012195910,0.718154010,8.882051470,0.018331410,-0.095069420,0.009834770
1640790538.614410,-0.591689050,0.295708540,9.594908710,-0.003775950,-0.040657820,0.019557770
1640790538.615530,-0.299090090,-0.123255990,8.746971130,-0.038369000,0.021597740,0.014701490
1640790538.624020,-0.106913920,0.079846580,10.056859970,-0.040802360,0.007359680,0.025562940
1640790538.625630,0.041037150,-0.015188810,10.746583940,-0.057934240,0.117154430,0.006970760
1640790538.627600,0.697389540,0.279338390,9.988631250,-0.065320740,0.008855760,-0.020055470
1640790538.628590,0.363952100,0.728614930,10.404193880,-0.051790480,-0.025124850,-0.021617110
1640790538.629070,0.390796120,0.452702080,8.824020390,-0.070704520,0.015553830,-0.009067360
1640790538.630470,0.047261280,0.226698610,8.989343640,-0.006063280,-0.046697270,0.021652880
1640790538.633520,-0.726672890,-0.080074680,9.952910420,0.027439000,0.025370720,0.016914310
1640790538.636270,-0.429522340,-0.403674220,9.188970570,-0.004990400,-0.001230840,0.027401750
1640790538.638470,-0.622290190,-0.199392390,10.626014710,-0.025971230,-0.002269450,0.000998380
1640790538.642120,-0.244130070,-0.037719330,10.012396810,-0.080649550,0.107541690,-0.025185940
1640790538.644950,0.303482320,0.295452950,9.684714320,-0.047768650,0.004504620,0.001421570
1640790538.645470,-0.050651000,0.345325800,10.270824430,0.007888670,0.022128220,0.003442170
1640790538.648900,0.352465090,0.108604090,8.592915530,0.045256320,-0.033217670,0.002488490
1640790538.650480,-0.192857470,0.106060680,9.573175430,0.070920590,-0.079993900,0.015541910
1640790538.655640,-0.483115490,-0.291511480,9.620647430,0.020940600,0.033640860,-0.019820030
1640790538.656340,-0.171155410,-0.320206790,9.739289280,0.006088610,-0.053314870,-0.023055080
1640790538.658410,-0.526368080,0.031006810,10.944354060,0.022684040,0.040253990,-0.009293860
1640790538.660660,0.030681470,0.011560970,9.735219000,0.022952260,0.061848770,0.008395310
1640790538.663730,-0.096131100,0.369444490,10.335274700,0.067953770,-0.070448220,0.022566320
1640790538.666000,-0.303862930,0.610955600,9.551302910,0.039313740,-0.044824190,-0.001212950
1640790538.668450,0.098039700,0.500163670,8.408135410,0.000934300,-0.091426070,0.018620490
1640790538.670500,-0.367319260,0.578964050,10.045375820,0.021027030,0.003780420,-0.016555190
1640790538.673480,-0.068857590,0.537157830,10.044045450,-0.001461800,0.071862340,-0.025057790
1640790538.675580,0.068535590,0.527907550,10.900094030,0.014299160,-0.050067910,0.006602710
1640790538.678410,-0.151606780,0.425209370,10.737462040,0.017382200,-0.019618870,-0.015448030
1640790538.680960,0.294545770,0.345108180,8.881237980,-0.035457320,-0.078471000,-0.005073850
1640790538.684110,-0.121821000,0.340067480,9.318229680,-0.016093260,-0.025315590,0.034244370
1640790538.685510,-0.184489130,0.066467440,8.991212840,-0.020991270,0.018917030,0.007085500
1640790538.688440,0.043456940,0.050953030,9.512054440,-0.005587930,-0.066827240,0.011560320
1640790538.690420,-0.071347530,0.146169300,10.257787700,-0.018352270,0.035873060,0.003449620
1640790538.693330,0.252660240,-0.029034190,10.250422480,-0.038807100,0.037670150,-0.025580830
1640790538.695460,-0.025419630,0.189562480,10.857668880,-0.002963840,-0.025416910,-0.018291170
1640790538.698720,-0.017221950,0.248160260,9.324497220,-0.006532670,-0.040553510,-0.009286400
1640790538.700490,0.069012020,-0.115079620,8.769242290,0.015710300,-0.073376300,0.032891330
1640790538.703400,-0.289119450,-0.081222430,9.116781230,0.057117630,0.040571390,0.030790270
1640790538.706060,-0.118294520,-0.202846070,9.153421400,0.031051040,0.010168550,0.017467140
1640790538.708450,-0.136903760,-0.204449610,10.508214000,0.020845230,-0.016248230,0.002966820
1640790538.711380,0.100520770,0.127421530,9.954307560,-0.002767150,0.056637820,-0.055116420
1640790538.713360,0.204471360,0.240977640,10.240200040,0.006566940,-0.020559130,-0.036636000
1640790538.715920,-0.184176680,0.246285040,10.215259550,0.069515410,0.021851060,-0.000908970
1640790538.718550,-0.191908810,0.065249530,8.954976080,0.108300140,-0.084473180,-0.008869170
1640790538.721350,-0.548372390,-0.072082560,9.480704310,0.121448960,-0.098896040,0.028696660
1640790538.723410,-0.514958860,-0.097632850,8.880443570,0.067353260,0.053742530,0.014151630
1640790538.725540,-0.314753440,-0.052417480,10.097781180,0.022529070,-0.008192660,-0.019776820
1640790538.728360,-0.245445090,0.470445160,11.093719480,0.020265580,0.045922400,-0.026245420
1640790538.730540,0.312523130,0.799696510,9.794881820,0.018678610,-0.009274480,-0.031091270
1640790538.733510,0.186887070,0.758990110,10.537451740,0.058473650,-0.070476540,-0.025296210
1640790538.735720,0.013013120,0.909269570,9.323384280,0.070074210,-0.005960460,-0.015929340
1640790538.739160,-0.108803760,0.593451200,8.725937840,0.035870080,-0.125405190,0.007165970
1640790538.740400,-0.534587740,0.157954100,9.831439970,0.010590260,-0.029541560,0.034010410
1640790538.743340,-0.207775790,0.053893600,9.140547750,0.005152820,0.050605830,0.001041590
1640790538.745490,-0.323317290,-0.036455620,11.035450940,0.013619660,-0.038477780,-0.016769770
1640790538.749080,-0.075401190,0.193907650,10.637439730,0.004899500,0.043433900,-0.017648940
1640790538.750740,0.452501890,0.296003460,9.262734410,-0.012843310,-0.066691640,-0.063531110
1640790538.753440,0.037626960,0.361349850,10.027768140,0.001481180,-0.029210750,-0.013878940
1640790538.755530,0.238707080,0.269887860,8.415281300,0.029061740,0.032472610,0.009021160
1640790538.759290,-0.061332090,-0.179979310,9.576048850,0.074088570,-0.112263870,-0.003628430
1640790538.760480,-0.370309440,-0.127168920,10.266624450,0.067070110,0.012619790,0.005044040
1640790538.763440,0.039156190,-0.226485030,9.463850980,0.030668090,-0.008589030,-0.023378440
1640790538.765520,-0.319095640,-0.299506040,11.110027310,0.033546980,-0.007489320,-0.045594570
1640790538.768430,0.054437730,0.279835550,9.505687710,0.034469370,0.076973440,-0.050982840
1640790538.770480,0.089194540,0.365787360,9.382994650,0.056609520,-0.081080200,-0.030897560
1640790538.773430,-0.255883990,0.373947980,9.641128540,0.075580190,-0.015980010,-0.005300340
1640790538.775590,0.170236620,0.528943420,8.279532430,0.062271950,-0.031138960,0.003738700
1640790538.778420,-0.356804070,-0.079009220,10.529015540,0.066421930,-0.029189890,0.020840760
1640790538.780710,-0.205657930,-0.287238060,10.350619320,0.093543540,0.096522290,-0.019475820
1640790538.783530,-0.192876890,-0.169890000,10.574164390,0.125800070,-0.068187720,-0.058473650
1640790538.785500,-0.636399810,-0.089057860,10.809226040,0.097833570,-0.062352420,-0.029845540
1640790538.788420,-0.108316170,0.427078400,8.389205930,0.042246290,-0.058707590,-0.039173670
1640790538.790480,-0.243313000,0.712009370,9.191462520,0.008338690,-0.078099970,-0.017537180
1640790538.793340,0.013733580,0.845449330,9.284211160,0.017723440,0.102089350,0.024421510
1640790538.795630,0.436258050,0.736816760,9.870879170,0.089956830,0.035072870,0.000500680
1640790538.800200,-0.059213050,0.469138980,11.748643880,0.114037100,-0.027306380,-0.019687410
1640790538.801380,0.117746250,0.457418770,9.921632770,0.056323420,-0.065000360,-0.015394390
1640790538.803370,-0.206478180,0.067237270,9.659678460,0.011143090,-0.155550260,-0.018356740
1640790538.805480,-0.466794340,-0.208936540,9.101814270,0.014522670,0.005926190,-0.006034970
1640790538.808440,-0.034142420,-0.019545960,8.270456310,0.068822500,0.022529070,-0.000379980
1640790538.810560,-0.300421270,-0.151758820,10.270460130,0.080205500,0.031580030,-0.011193750
1640790538.814130,0.222942200,0.272619190,9.744941710,0.048007070,0.036999580,-0.028721990
1640790538.815470,0.212925580,0.543960810,10.458679200,-0.001446900,-0.079745050,-0.043094160
1640790538.818540,-0.090268950,0.200825070,10.557988170,-0.000910460,-0.009903310,-0.029359760
1640790538.820490,-0.053383340,0.103909270,9.183305740,0.116875780,-0.058630120,-0.048111380
1640790538.823340,-0.583053230,-0.035813980,9.775351520,0.180295090,-0.082238000,-0.044119350
1640790538.825490,-0.401858630,-0.023952710,8.571867940,0.107976790,0.026628380,-0.004790720
1640790538.828690,-0.295072440,0.161473750,9.372854230,0.007680060,-0.044076140,-0.003163520
1640790538.830430,-0.212126180,0.180812340,10.343587880,-0.042709700,0.047597290,-0.004838410
1640790538.833770,0.427138000,0.348022400,9.699662210,0.053299970,0.016175210,-0.009074810
1640790538.835590,0.117926170,0.172908340,11.050919530,0.167562040,-0.023820990,-0.051473080
1640790538.838410,0.133974970,0.282067330,9.898718830,0.153930490,-0.006635490,-0.070454180
1640790538.840590,-0.179990460,0.489061710,9.244941710,0.080020730,-0.149732830,-0.043937570
1640790538.843400,-0.709512710,0.162463770,9.515505790,-0.004373490,-0.073212390,-0.039105120
1640790538.845610,-0.352041390,0.413456320,8.427829740,0.004921850,-0.014291700,-0.013065340
1640790538.848400,-0.569651190,0.487582530,10.443541530,0.073322660,-0.006496910,-0.010097030
1640790538.850840,-0.028906120,0.414609970,10.414601330,0.079482790,0.094687950,-0.017438830
1640790538.853380,0.391818580,0.633907560,10.148435590,0.076186660,-0.047346950,-0.034977500
1640790538.855600,0.025770020,0.547079860,10.692434310,0.006094580,-0.064656150,-0.041294100
1640790538.858420,0.437634830,0.416893180,8.431638720,-0.020544230,-0.040009620,-0.020320720
1640790538.860550,-0.097332130,0.210714310,9.118269920,0.041003530,-0.112988050,-0.019814070
1640790538.863420,-0.198283330,-0.049872800,9.307649610,0.048507750,0.042416160,-0.007680060
1640790538.865500,0.007693140,-0.150492800,9.328850750,0.069390240,0.005903840,0.003229080
1640790538.870390,-0.466020410,-0.273948880,11.266999240,0.058284390,-0.025297700,-0.027793640
1640790538.871630,0.075257060,0.006279750,9.719671250,0.007000570,0.006592280,-0.032511360
1640790538.873390,-0.013290170,0.174899590,9.564275740,0.027023260,-0.091420110,-0.019906460
1640790538.875570,-0.150837910,0.122794290,9.518615720,0.043816870,0.032159690,-0.039163230
1640790538.878400,0.170538440,0.468910750,8.556990620,0.079678010,0.004002450,-0.030748550
1640790538.880510,-0.428597810,0.384590420,10.071613310,0.073920200,-0.066828730,-0.031630690
1640790538.883490,-0.139391420,0.238289550,9.583067890,0.023236870,-0.005099180,-0.035022200
1640790538.885470,-0.185180290,0.258562330,9.978166580,0.042881080,-0.054940590,-0.037261840
1640790538.888370,-0.332762990,0.123250860,10.642468450,0.047583880,0.004816060,-0.016757850
1640790538.890470,0.188025460,-0.003500260,9.571293830,0.072743010,0.018073620,0.003454090
1640790538.893360,-0.035917430,-0.025074500,9.955826760,0.111229730,-0.035886470,-0.018043820
1640790538.895490,0.002254120,0.211079420,9.306159970,0.050273540,-0.018687550,-0.019985440
1640790538.898920,-0.036367820,0.420249430,9.016754150,0.017352400,-0.077940520,-0.029920050
1640790538.900560,-0.363721730,0.575217070,9.834711070,-0.010760130,-0.053751470,-0.066708030
1640790538.903470,-0.096483650,0.920806290,9.781562810,-0.004941230,0.022800270,-0.051076710
1640790538.905530,-0.317290220,0.813788000,10.817310330,0.042358050,0.008173290,-0.039225820
1640790538.909450,-0.235376370,0.692026080,10.667376520,0.033287700,-0.026120250,-0.032630560
1640790538.910510,-0.094457360,0.623252750,9.558894160,0.015118720,-0.081479560,-0.003789370
1640790538.913380,-0.281207030,0.244204490,9.222352980,-0.025679170,-0.063212210,0.017279380
1640790538.915930,-0.042392530,0.065220740,8.851131440,-0.038589540,-0.021809340,0.027179720
1640790538.918800,0.045360180,-0.007827670,9.390479090,0.005084280,0.002989170,0.015220050
1640790538.920570,0.304365100,0.042750520,9.983928680,-0.015042720,0.038199120,-0.002643470
1640790538.923770,0.456597810,0.278290930,10.521137240,-0.041316450,0.026300550,-0.030222540
1640790538.925630,0.212256570,0.347257550,10.632522580,-0.053372980,-0.017991660,-0.058181600
1640790538.928340,0.137078300,0.333284320,9.656167980,-0.040611630,-0.063598160,-0.040405990
1640790538.930520,-0.234834670,0.055576530,9.115572930,0.047855080,-0.054785600,-0.007824600
1640790538.933500,-0.267267020,-0.371379820,8.772695540,0.074239080,0.004202130,-0.003175440
1640790538.935490,-0.262775000,-0.561077650,9.415287020,0.067009040,0.043478610,0.019654630
1640790538.938390,-0.094998780,-0.629174530,10.152471540,0.039477660,0.086098910,-0.001822410
1640790538.941070,0.289518920,-0.432478160,10.456986430,-0.001972910,0.027938190,-0.031721600
1640790538.943350,0.283048900,0.070315040,10.369147300,0.027981400,0.016953050,-0.018604100
1640790538.945480,0.292646380,0.135018870,9.706584930,0.067047780,0.028598310,-0.011715290
1640790538.948970,-0.187592390,0.172687370,9.814659120,0.147823990,-0.031234330,-0.004991890
1640790538.950510,-0.469618380,0.243471800,9.122576710,0.172401980,-0.024962420,0.005757810
1640790538.953400,-0.461961980,0.181778640,9.221459390,0.110702220,-0.012293460,0.001147390
1640790538.955600,-0.649844110,0.347724410,10.209031110,0.046615300,0.062261520,-0.007846950
1640790538.958560,-0.138310220,0.694264410,10.118685720,0.008685890,0.063264380,-0.010670720
1640790538.960480,0.047032290,0.736502470,10.775145530,0.039692230,0.037801270,-0.011180340
1640790538.963360,0.186610590,0.828147890,10.141383170,0.097832080,0.037612020,-0.025793910
1640790538.965660,0.269448490,0.857554550,9.503528590,0.091768810,-0.064851350,-0.026556850
1640790538.968480,-0.212249070,0.556309580,9.453127860,0.019487740,-0.037308040,0.011128190
1640790538.970500,-0.150632950,0.234156820,8.977602010,-0.014553960,-0.003382560,0.012673440
1640790538.973460,-0.407866210,-0.019045650,10.407974240,0.011937320,0.010187920,0.014966730
1640790538.975620,-0.362900110,-0.080466210,10.442472460,0.048604600,0.056584180,0.020587440
1640790538.978340,0.079614230,0.146925480,10.285091400,0.043047960,-0.011035800,-0.009053950
1640790538.980520,0.074567310,0.455194230,10.221829410,-0.025764110,0.043478610,-0.011904540
1640790538.983450,0.398347800,0.677853760,8.904175760,-0.065200020,0.025595720,0.014992060
1640790538.985730,0.111317570,0.542837920,9.598263740,-0.017933550,-0.012809040,0.015023350
1640790538.988460,-0.149650750,0.421556560,9.283645630,0.042203070,0.019364060,0.017952920
1640790538.990500,-0.108476070,0.305196940,9.509190560,0.046800090,-0.054217880,0.019481780
1640790538.993370,-0.526085320,-0.134875860,10.719234470,-0.005587930,0.057339670,-0.005853180
1640790538.995490,-0.193638180,-0.130574630,9.755221370,-0.032506880,0.058484080,-0.022001560
1640790538.998780,-0.166900650,0.012525710,10.426638600,-0.015856330,-0.008645650,-0.016997760
1640790539.000610,-0.037607240,0.008922110,9.371346470,-0.005398690,0.073391200,0.006622080
1640790539.003530,0.308151130,0.216968850,8.685502050,0.028583410,-0.031788650,0.037112840
1640790539.007030,-0.137501240,0.033252040,10.059638020,0.018933410,0.024546680,0.050051510
1640790539.009020,0.190971700,-0.158018530,9.130003930,0.015670060,0.055496410,0.026354190
1640790539.010510,-0.068605860,-0.252027900,10.680824280,0.067442640,-0.029551980,-0.013734400
1640790539.013440,-0.281052440,-0.247235770,10.613324170,0.066609690,0.089889760,-0.032393640
1640790539.015980,-0.025347450,0.036785250,9.312762260,0.062616170,-0.024183090,-0.003755090
1640790539.018380,-0.621560690,0.142545600,10.402422900,0.047487020,-0.041478880,0.007635350
1640790539.020570,-0.154804620,0.526648580,8.229248050,0.006705520,0.044250500,0.012803080
1640790539.023720,-0.147749190,0.835785750,9.209535600,0.012508040,-0.050489600,0.036436320
1640790539.025540,-0.335519850,0.641726850,10.497410770,0.029098990,0.119330000,0.005605820
1640790539.028390,0.345836220,0.885499360,9.612258910,0.030900540,0.020536780,-0.017546120
1640790539.030500,-0.172980090,0.865156170,11.570346830,0.015264750,-0.049376490,0.000379980
1640790539.033510,0.032087970,0.492486600,9.754760740,-0.051669790,0.039197500,0.004075470
1640790539.035590,0.122823420,0.377061100,8.972765920,-0.019173320,-0.109171880,0.009414550
1640790539.040890,-0.392610970,0.169289340,9.634160040,-0.015558300,0.031609830,0.035892420
1640790539.041480,0.281363250,-0.106290660,8.165762900,-0.027918820,0.093671680,0.050631170
1640790539.043320,-0.096556470,-0.096597900,10.621356010,-0.002872940,0.000476840,0.033637880
1640790539.045470,-0.020416950,0.051113890,10.536378860,-0.043590370,0.094980000,0.016021730
1640790539.048980,0.465520950,0.277830120,9.721675870,-0.058728460,-0.048024950,-0.003223120
1640790539.050800,-0.173782110,0.426876540,10.726426120,-0.051452230,0.021247570,-0.034606460
1640790539.053440,0.072464920,0.678424300,8.643198010,-0.045216080,0.066907710,-0.020545720
1640790539.055630,-0.331737760,0.450098660,9.375235560,0.003393000,-0.051282360,0.026412310
1640790539.058630,-0.669375540,0.101124890,9.488564490,0.010980670,0.041238960,0.036501890
1640790539.060690,-0.098739870,-0.064890310,8.934697150,-0.002120440,-0.013239680,0.052073590
1640790539.063390,-0.432129770,-0.322010370,10.828537940,-0.020486120,0.060521070,0.047948960
1640790539.065880,0.224152280,-0.427781280,9.928529740,-0.031349060,0.113558780,-0.007903580
1640790539.068600,0.480829180,-0.214986210,10.225232120,0.020062930,0.012367960,-0.030994420
1640790539.070540,0.223090990,0.071070350,9.910411830,0.022605070,0.072342170,-0.028346480
1640790539.074670,0.303430650,0.168153380,8.707697870,0.019331280,-0.043174620,-0.006711480
1640790539.075490,-0.532692550,0.227703560,9.697725300,0.043523320,-0.073067850,0.019147990
1640790539.078340,-0.471510890,0.239620020,8.906345370,0.009645520,0.026962160,0.033056740
1640790539.080570,-0.527417480,0.004817540,10.228508000,0.041563810,0.045701870,0.049483780
1640790539.083450,-0.815238420,0.024803610,11.405840870,0.066173080,0.116305050,0.005225840
1640790539.085520,-0.318985580,0.470961150,10.216483120,0.037112830,-0.042216470,0.001014770
1640790539.088420,-0.378330530,0.691975530,9.963531490,-0.003546480,-0.102397800,0.012911860
1640790539.091140,-0.017688060,0.988685370,8.299846650,-0.075018410,0.016576050,0.002746280
1640790539.093330,0.227500380,1.078698750,8.783246040,-0.065326700,-0.004513560,0.038878620
1640790539.095500,0.139675690,0.619770770,10.237360000,-0.004957620,0.095354030,0.058187550
1640790539.099090,0.522370160,0.200155910,10.202546120,0.039407610,0.034058100,0.022999940
1640790539.100730,0.008525370,-0.031317190,11.426123620,0.042760380,-0.046040120,0.024291880
1640790539.103430,-0.234624250,-0.102559830,10.062430380,-0.064495210,-0.034783780,0.005252660
1640790539.105650,-0.287643220,-0.167862890,8.970071790,-0.102041680,-0.113157950,0.018066170
1640790539.108430,-0.507282910,0.072467220,8.981374740,-0.055408480,0.038161870,0.026862330
1640790539.110610,-0.081840040,0.368519040,8.464285850,-0.030326850,0.118479130,0.026755030
1640790539.113390,-0.113695110,0.452876420,10.511371610,0.002153220,0.020878020,0.053557760
1640790539.116020,0.033893190,0.630355540,10.655014040,-0.039090220,0.034756960,0.013847650
1640790539.120150,0.161107240,0.499936370,10.139333720,-0.089047850,-0.097210710,0.028091670
1640790539.122550,-0.236368750,0.007742960,10.386466980,-0.039519360,-0.038747490,0.032356390
1640790539.123350,-0.014445950,-0.297713010,8.742570880,0.025907160,0.048446660,0.007827580
1640790539.125480,-0.303041040,-0.334862890,9.534735680,0.077533730,-0.026445090,0.025603180
1640790539.128410,-0.300849620,-0.162397550,9.325881960,-0.001813470,0.036266450,0.034166870
1640790539.130500,0.085599710,0.022111020,8.970466610,-0.098450500,-0.040128830,0.027085840
1640790539.133430,-0.184012790,0.272986410,10.550248150,-0.086402900,0.001123550,0.050011290
1640790539.135930,0.136873390,0.207401560,10.056235310,0.003300610,0.080142920,0.029636920
1640790539.138440,-0.180825290,0.117047690,10.820415500,0.118982780,-0.056840470,-0.008517500
1640790539.141860,-0.482469440,0.266249420,10.353280070,0.118413580,-0.045125200,0.010028480
1640790539.143400,-0.397929550,0.178329040,8.724572180,-0.005494060,-0.094869730,0.004503130
1640790539.145500,-0.815566840,0.265551030,9.528873440,-0.079692900,-0.096268950,0.025056310
1640790539.148530,-0.251417960,0.682162460,8.934679990,-0.087711210,0.052465500,0.033772000
1640790539.150520,0.167423350,0.594796360,10.002787590,-0.016009810,0.033625960,0.036281350
1640790539.153460,0.277939110,0.635740640,11.417111400,0.044041880,0.080414140,0.028274960
1640790539.155580,0.638321160,0.667669890,10.337289810,0.027841330,-0.021728880,0.001086300
1640790539.158510,0.033957400,0.326071110,10.299776080,-0.037547950,-0.171247140,0.009585920
1640790539.161750,-0.214599730,0.193214670,8.702942850,-0.075370070,-0.083605940,0.023984910
1640790539.163460,-0.393593640,-0.092017740,8.303808210,-0.059951830,-0.055229670,0.010813770
1640790539.165540,-0.699470940,-0.087066750,9.966691970,-0.005546210,0.034993890,0.040271880
1640790539.168690,-0.154757470,0.096220430,10.066840170,0.001302360,0.086209190,0.024959440
1640790539.170520,-0.097691180,0.142975930,11.134072300,-0.028349460,-0.040145220,-0.005602840
1640790539.173560,0.093922400,0.618931530,10.384099010,-0.080308330,-0.032053890,0.019061570
1640790539.175630,0.356775670,0.427702010,8.944026950,-0.068356100,-0.057719650,0.013880430
1640790539.178440,-0.038657530,0.116950600,9.340959550,-0.005695220,-0.043709570,0.022293630
1640790539.180860,0.196387110,0.289091560,8.673581120,0.049622360,0.006081170,0.036486990
1640790539.183350,0.059081010,-0.267817590,9.745459560,0.016456840,0.001741950,0.024293360
1640790539.185800,-0.078570630,-0.250560520,10.527353290,-0.034119190,0.048944360,0.017648940
1640790539.188380,-0.022616420,0.051922250,10.138748170,-0.062531230,-0.023408240,0.002317130
1640790539.190530,-0.321237980,-0.239509310,10.197746280,-0.031259660,-0.045701860,0.012628730
1640790539.193330,-0.189803140,0.002009740,9.140327450,0.054816910,0.004875660,0.012876090
1640790539.195670,-0.427344620,0.019700470,9.449738500,0.108025980,-0.037963690,0.000163910
1640790539.198370,-0.372554270,-0.018348900,9.461906430,0.065529330,-0.006048380,0.028820330
1640790539.200580,-0.131142320,0.223342150,9.574634550,0.011929870,-0.002937020,0.012552740
1640790539.203420,-0.218967680,0.144040720,10.503939630,-0.018776950,0.006699560,-0.002726910
1640790539.207770,0.082434830,0.440052510,10.052905080,0.001247230,-0.004148480,0.020463770
1640790539.209260,-0.023302350,0.453514010,10.124500270,0.085242080,-0.052936380,0.003781910
1640790539.210940,-0.093085300,0.396929120,9.752109530,0.084489580,-0.039504460,0.001753870
1640790539.213720,0.035579470,0.751498640,9.091321950,0.027564170,-0.040467090,0.037883220
1640790539.215500,-0.222401320,0.374945010,9.917261120,-0.037246950,-0.006504360,0.045695900
1640790539.218680,-0.038275390,0.323079170,9.808940890,-0.033742190,0.021600730,0.031872090
1640790539.220540,-0.135497630,0.564173820,10.363884930,0.022900100,-0.049421190,0.001856680
1640790539.223380,-0.283234830,0.349963960,10.550833700,-0.002299250,-0.023797150,-0.022007530
1640790539.225530,-0.053997580,0.619198920,9.553152080,-0.018011030,-0.054207440,-0.021141770
1640790539.228760,-0.406583070,0.656523410,9.854702950,-0.049525500,-0.065037590,-0.011396410
1640790539.230510,-0.115094050,0.427932290,9.067355160,-0.079275650,0.008577110,0.033588710
1640790539.233600,0.049803560,0.400572270,9.426530840,-0.033666200,-0.009723010,0.048795350
1640790539.235610,-0.080375250,0.190980850,10.608160020,-0.025826690,0.003044310,0.035104160
1640790539.240640,0.357117680,0.040711080,9.743736270,-0.043129920,-0.019977990,0.043763220
1640790539.241320,0.118684050,-0.140942470,10.243661880,-0.029309090,-0.061453880,-0.014217200
1640790539.243420,0.127293510,-0.140826810,9.710673330,-0.055877860,0.035019220,-0.033050780
1640790539.245540,0.097914700,0.006285940,9.211736680,-0.023880600,-0.025196370,0.003090500
1640790539.248340,-0.482905480,-0.095712820,10.035626410,0.006569920,-0.061386830,-0.012819470
1640790539.250890,-0.226437430,0.094051050,9.061233520,-0.013358890,-0.033760070,0.020176170
1640790539.253410,-0.360480430,0.191868920,9.822440150,-0.008502600,-0.034858290,0.034946210
1640790539.255560,-0.284137100,-0.130241930,10.453189850,-0.012406710,0.068446990,0.003564360
1640790539.259750,0.125058100,0.110885310,9.764400480,0.030756000,0.001534820,-0.009670850
1640790539.261550,-0.193757700,0.116161410,10.315437320,0.058780620,-0.061306370,-0.008212030
1640790539.263340,-0.016196510,-0.046889610,9.223209380,0.026439130,-0.027538840,-0.007218120
1640790539.265560,-0.202012200,0.184673730,9.255363460,0.033311550,-0.116245470,0.009304290
1640790539.271280,-0.282305240,-0.002507390,9.750395770,0.002871450,-0.015909970,0.021824240
1640790539.272920,0.124695520,-0.225987450,9.693715100,0.052241980,0.048477950,0.015370550
1640790539.274310,-0.075033000,-0.055190080,11.002276420,0.122660400,0.008830430,-0.012664500
1640790539.275620,0.075246700,0.253431230,10.433272360,0.070157640,0.002832710,-0.021736320
1640790539.278400,-0.031597840,0.534808640,9.537469860,0.015784800,-0.127944350,-0.009164220
1640790539.280500,-0.345436750,0.785839080,9.358118060,-0.019703810,-0.105911500,-0.025413930
1640790539.283700,-0.117430110,1.004626040,8.658801080,-0.033102920,0.003632900,-0.010213250
1640790539.285600,-0.434618770,0.826129850,10.298834800,0.033064190,0.010210280,0.020739440
1640790539.288480,-0.400417570,0.665393170,11.078124050,0.062452260,0.010696050,-0.004370510
1640790539.290480,-0.233447370,0.623059570,10.534703250,0.015637280,-0.089961310,0.009679790
1640790539.293390,-0.461787400,0.458642570,10.286934850,-0.061200560,-0.137537700,0.018119810
1640790539.295500,-0.045612280,0.376541260,8.758591650,-0.113946220,-0.057074440,-0.013497470
1640790539.298380,0.183714420,0.480497240,8.693778990,-0.076626250,-0.019575660,-0.006018580
1640790539.300720,0.314853610,0.530526220,9.732776640,-0.049714750,0.067995500,0.019028780
1640790539.303370,0.565011440,0.378770140,10.232200620,-0.049135100,0.023654110,0.004377960
1640790539.305530,0.025530430,0.243940130,11.112943650,-0.047728420,-0.115343930,0.016236310
1640790539.308600,-0.201625750,0.055307370,10.128338810,-0.086222590,-0.133875030,0.003774460
1640790539.311610,-0.341776430,-0.335460750,9.078623770,-0.057771810,-0.102289020,-0.020819900
1640790539.313350,-0.531719980,-0.274858890,9.184178350,-0.006955860,0.021766120,-0.026352700
1640790539.315590,-0.254259320,-0.034626590,9.141876220,-0.015164910,0.060191760,-0.011554360
1640790539.318500,-0.119943130,0.091098960,9.823954580,-0.043456260,-0.028437380,0.018399950
1640790539.322220,0.142967970,0.466553870,9.996991160,-0.096929070,-0.056834520,0.013946000
1640790539.323350,0.289895270,0.337529150,9.956938740,-0.081853580,-0.045411290,0.026099390
1640790539.325640,0.080906450,-0.082529440,10.305356980,0.027509040,-0.026582180,0.001379850
1640790539.328350,0.078734870,-0.111431130,9.796055790,0.093565870,-0.019069010,-0.046002860
1640790539.330500,-0.228408440,-0.374891790,9.597078320,0.073829290,-0.049887600,-0.016546250
1640790539.333620,-0.329490930,-0.386415300,9.279349330,0.016014280,-0.057733060,0.006793440
1640790539.335570,-0.373968360,-0.172640440,9.257817270,-0.030270220,-0.077071790,-0.017292800
1640790539.338410,-0.222447890,0.125529350,9.414273260,-0.020226830,-0.020562110,0.023511050
1640790539.342430,0.099454180,0.330061200,10.118081090,0.044144680,0.057551270,0.006367270
1640790539.343370,-0.059232670,0.407420040,11.032751080,0.092470660,0.028204920,-0.047402080
1640790539.345480,0.044485680,0.663590730,10.335460660,0.070270880,-0.089068700,-0.023952130
1640790539.348740,-0.193120410,0.607648490,9.601114270,0.029875340,-0.138407950,-0.021989650
1640790539.351730,-0.343132290,0.382463660,8.872801780,-0.007121270,-0.076018280,-0.012102720
1640790539.353570,-0.161695150,0.629976090,8.828114510,-0.005485120,-0.020577010,0.025966770
1640790539.355630,-0.123353700,0.300515350,10.057524680,0.004647670,0.054520360,0.029160080
1640790539.358480,0.289378370,0.157422510,10.566101070,0.023791200,0.050684820,0.019092860
1640790539.360680,0.252230970,0.520333170,10.931390760,0.022308520,-0.059038400,-0.010791420
1640790539.363410,-0.021653830,0.310687040,10.322255130,-0.046241280,-0.098697850,-0.016988810
1640790539.365870,0.160806070,0.491428880,8.573904990,-0.072759400,-0.107391200,-0.026203700
1640790539.368420,-0.189363990,0.537541330,8.848905560,-0.054906310,-0.019392370,-0.022052230
1640790539.370520,-0.076011030,0.201779440,9.257655140,-0.015380980,0.106216950,0.022411340
1640790539.373540,-0.039377040,0.241697280,10.257919310,0.043843690,0.019302960,0.026489800
1640790539.375610,-0.306788950,0.075001530,11.179407120,-0.013031070,-0.067989540,0.017586350
1640790539.378320,0.185528810,0.037843510,9.515614510,-0.081951920,-0.061631200,0.036512320
1640790539.380520,0.010102030,-0.095679950,9.549411770,-0.061531370,-0.007396940,-0.005346540
1640790539.383490,-0.010465640,-0.178670110,9.497674940,-0.003695490,0.076454890,-0.036354370
1640790539.387460,0.268400190,0.218553390,8.982827190,0.042326740,-0.007985530,-0.032879400
1640790539.388820,-0.006030390,0.211727960,9.839166640,0.008270140,-0.027342140,-0.028939540
1640790539.390540,0.236113500,0.226348520,9.499242780,-0.060638780,0.026877220,0.014284250
1640790539.393370,-0.144506900,0.156146680,10.304164890,-0.024107100,-0.022752580,0.037077070
1640790539.395530,-0.275777280,-0.369705260,10.441349030,0.035464760,0.014494360,0.021079180
1640790539.398720,-0.062585820,-0.284642250,9.465497970,0.110855720,0.010547040,-0.005953020
1640790539.400590,-0.582576750,-0.117203970,9.920149800,0.085243590,-0.015762440,-0.025546550
1640790539.403510,-0.279098270,0.050054550,9.108756070,-0.021563480,-0.010886790,-0.024385750
1640790539.408060,-0.106981910,0.648037310,9.111206050,-0.050783160,-0.042501100,-0.029426810
1640790539.409400,-0.043752940,0.769334500,9.951156620,-0.056038800,0.059367710,-0.011567770
1640790539.410520,0.334251610,0.662592830,10.226902010,0.037898120,0.093632940,0.020720070
1640790539.413470,-0.052093620,0.490217390,11.118041040,0.130583320,-0.020426510,-0.005438920
1640790539.415960,-0.103597460,0.325070650,10.167716980,0.061361500,-0.073364380,0.002627070
1640790539.418380,-0.193605170,0.259016360,8.950002670,-0.028020140,-0.088676820,0.023519990
1640790539.421440,-0.447763230,0.141407370,8.933918000,-0.097560890,-0.015173850,-0.001096730
1640790539.423370,0.044777610,0.343242110,9.045517920,-0.079177330,0.087131560,0.006985660
1640790539.425550,0.137031380,0.445491490,10.309398650,0.013136860,0.095304850,-0.004513560
1640790539.428340,0.230655030,0.416089950,11.069316860,0.029526650,0.044354810,-0.043472650
1640790539.430500,0.231582250,0.708068190,10.503750800,-0.029411910,-0.038656590,-0.017657880
1640790539.433500,-0.314079490,0.318327670,9.865908620,-0.073291370,-0.097726290,0.006049870
1640790539.436790,-0.337858560,-0.056306360,8.803165440,-0.048562890,-0.057603430,-0.002329050
1640790539.438520,-0.266261970,0.057740980,8.565968510,0.018927450,0.058346990,0.011894110
1640790539.440720,-0.092653970,-0.062382390,9.590372090,0.003641840,0.118467210,0.008472800
1640790539.443380,0.357847010,0.173613610,10.408239360,-0.048141190,0.095269070,-0.004570190
1640790539.445570,0.402475540,0.415956970,10.662681580,-0.085608670,0.030384960,-0.010983650
1640790539.448810,0.340702330,0.155198920,10.191967960,-0.078170000,-0.025713450,-0.008550290
1640790539.450560,0.002555410,-0.032294090,9.478494640,0.038468840,-0.014968220,-0.015938280
1640790539.453670,-0.418742360,-0.162762690,8.984557150,0.087268660,-0.003285710,-0.033639380
1640790539.455570,-0.514563200,-0.216302860,9.171724320,0.043895840,0.023609400,-0.016024710
1640790539.458480,-0.563857670,-0.175522100,9.643568040,-0.014145670,0.058431920,-0.023308400
1640790539.460510,-0.182751030,0.050900460,10.015205380,-0.052338840,0.047163670,-0.019118190
1640790539.463370,0.017770800,0.328589020,10.486754420,-0.021111970,0.070130830,0.006613140
1640790539.465690,0.116232530,0.327465210,10.189162250,0.052033370,0.056380040,-0.003428760
1640790539.469180,0.122760550,0.386381750,9.971640590,0.085908170,-0.028526780,-0.015528500
1640790539.470490,-0.120838860,0.398478390,9.459259030,0.061722100,-0.008724630,-0.006046890
1640790539.473430,-0.177553500,0.232479260,9.011191370,-0.007176400,-0.018309060,-0.017793480
1640790539.475510,-0.366184120,0.343835200,9.864745140,-0.032077730,0.013402110,-0.028026100
1640790539.478400,-0.305917620,0.444067690,10.044720650,-0.025643410,0.079722700,-0.013883410
1640790539.480570,-0.088927110,0.393851910,10.551534650,0.002023580,0.026428700,-0.015328830
1640790539.483480,-0.185168030,0.441304210,10.736220360,0.041958690,0.017711520,-0.017754740
1640790539.485610,-0.075064030,0.635722990,9.516977310,0.007224080,-0.025860970,-0.007066130
1640790539.488620,-0.176371630,0.510046240,9.388745310,-0.061053040,-0.055083640,0.013235210
1640790539.490490,-0.174042630,0.448654860,9.158325200,-0.080329180,0.043071810,0.004993380
1640790539.493350,0.092512760,0.445366230,9.450216290,-0.055876380,0.045205650,0.012008850
1640790539.495500,0.007652610,0.091957290,10.678656580,-0.000026820,0.051839650,0.002115960
1640790539.498720,0.227910320,0.048094590,10.330259320,0.019699340,0.036570430,-0.026932360
1640790539.503620,0.128833830,0.033208820,10.223182680,-0.028626620,-0.038200610,-0.004906950
1640790539.504180,-0.182299390,-0.209873800,9.651737210,-0.044332450,-0.008632240,0.019454960
1640790539.505590,-0.055064920,-0.154233050,8.677546500,-0.034944720,-0.001409650,0.007607040
1640790539.508630,-0.275408950,0.042969690,9.361235620,-0.003756580,0.019122660,0.007520620
1640790539.510600,-0.116889760,0.192350760,9.560527800,-0.010873380,0.090366600,-0.005981330
1640790539.513370,0.078433710,0.452689890,10.209237100,-0.023284560,0.038205090,-0.044280290
1640790539.516100,-0.176311690,0.499842820,10.725241660,-0.034102800,0.016859180,-0.025509300
1640790539.518600,0.017867710,0.290595890,9.695593830,-0.006397070,-0.006482010,0.011032820
1640790539.520580,-0.431475970,-0.140157090,9.948761940,0.059458610,-0.036856540,0.024464730
1640790539.523360,-0.570896090,-0.386391940,9.249661450,0.094139580,-0.024031100,0.029057270
1640790539.525570,-0.211225660,-0.325527220,8.824207310,0.051154200,-0.014096500,0.014288720
1640790539.528360,-0.213409930,-0.248525550,9.908418660,-0.024227800,0.088202960,-0.022262330
1640790539.530560,0.309977980,0.274193640,10.110179900,-0.045581170,0.104580820,-0.033381580
1640790539.533510,0.209205930,0.674908520,10.985029220,-0.001876060,0.004994870,-0.028465690
1640790539.535650,0.019700920,0.719004990,10.260374070,0.055058300,-0.044180450,-0.009509920
1640790539.539070,0.009448690,0.769080280,9.275570870,0.081032500,-0.086115310,0.000610950
1640790539.540590,-0.706458450,0.505357860,9.607080460,0.030399860,-0.020602340,0.018510220
1640790539.543300,-0.601860760,0.185821460,9.208094600,-0.011742120,0.004310910,0.027810040
1640790539.545590,-0.404621570,0.270599450,9.951186180,-0.015951690,-0.001442430,-0.002168120
1640790539.548750,-0.147822340,0.452752320,10.228291510,-0.055049360,0.080797080,-0.009723010
1640790539.550850,0.439737500,0.698655900,10.194595340,-0.065535310,0.038391360,-0.017490980
1640790539.553420,0.322772620,0.842746380,10.438196180,-0.064079470,-0.006914140,-0.050920260
1640790539.555620,0.406569660,0.772801580,9.223872180,-0.069992250,-0.039677320,-0.019828970
1640790539.558680,0.172680410,0.370098470,9.238976480,-0.028985740,-0.019310420,0.020189580
1640790539.560500,-0.474802320,-0.195027650,9.791091920,-0.005948540,0.009423490,0.011138620
1640790539.563580,-0.330948560,-0.370370600,9.670025830,-0.009977820,-0.047630070,0.033047800
1640790539.565830,-0.388584380,-0.437720780,10.235064510,-0.045651200,0.035625700,0.003847480
1640790539.568430,-0.098925920,-0.250915620,9.887008670,-0.098919870,0.088189550,-0.035302340
1640790539.571590,0.262889120,0.340045300,9.883112910,-0.078819690,0.036622590,-0.025938460
1640790539.573390,0.140800830,0.409067360,9.696830750,-0.034788250,0.053578630,-0.026948750
1640790539.575680,0.252254810,0.412360070,9.058762550,0.019043680,-0.053235880,-0.011201200
1640790539.578400,-0.130212920,0.464675400,9.790160180,0.030326850,-0.039374830,0.001098220
1640790539.580750,-0.293718100,-0.156355800,9.549077030,-0.022259350,0.035251680,0.008137530
1640790539.583480,-0.217948290,-0.402817040,10.185673710,0.008007880,0.008451940,0.003255900
1640790539.585570,-0.445841160,-0.300616000,10.665424350,0.037850440,0.088220840,-0.023150440
1640790539.588370,-0.034166780,-0.218391180,9.566007610,0.008942190,0.005772710,0.011704860
1640790539.590500,-0.141524400,0.164339540,9.913554190,0.016912820,-0.043487560,0.004632770
1640790539.593300,-0.012005560,0.500444230,8.821551320,-0.028193000,0.032417480,-0.015491250
1640790539.595660,0.249536050,0.678669930,9.172604560,-0.028236210,-0.003771480,0.023506580
1640790539.598930,-0.129898980,0.606549080,10.792240140,0.035716590,0.098443040,-0.011105840
1640790539.600550,0.015648910,0.651905540,10.434651370,0.030021380,0.025381150,-0.030978030
1640790539.603680,-0.272359040,0.683505000,10.939661030,0.006352370,-0.098578650,0.008432570
1640790539.605550,-0.370554750,0.260983470,9.649653430,-0.035797060,0.004546340,-0.021608170
1640790539.609420,-0.101547030,0.221885740,8.583951000,-0.041367110,-0.028839710,0.004330280
1640790539.611040,-0.354438100,0.352234330,9.483808520,-0.012697280,0.053907930,0.044596200
1640790539.613520,0.140412690,0.028931900,9.005176540,-0.038595500,0.096614660,0.021138790
1640790539.615980,0.295306680,0.256923410,10.398947720,-0.031271580,-0.004528460,0.032363840
1640790539.621170,-0.043265200,0.211194770,11.104745860,-0.046265130,0.046187640,0.004847350
1640790539.621500,0.181921330,-0.140717100,9.880646710,-0.038392850,-0.054779650,-0.022345780
1640790539.623280,-0.321471630,-0.018679530,10.169126510,0.034807620,-0.074014080,-0.039695200
1640790539.625640,-0.316236200,-0.130295830,8.622859000,0.031057010,0.067973140,-0.040313600
1640790539.628670,-0.230298470,-0.141666840,8.974064830,0.016441940,0.006699560,0.024451320
1640790539.630580,-0.616087560,0.093879020,10.258488660,0.005167720,0.034725670,0.027304890
1640790539.633440,0.016146750,0.151957480,9.368744850,-0.043414540,-0.021977720,0.025235120
1640790539.635740,0.002404040,0.372887850,10.537187580,-0.010582810,-0.020946570,0.030392410
1640790539.638330,0.050590250,0.223373290,10.376125340,0.025027990,0.104893750,-0.041271750
1640790539.640610,0.169884160,0.353592100,10.129024510,0.055056820,-0.019556280,-0.042237340
1640790539.643390,-0.444552120,0.498176100,10.360799790,0.067229580,-0.068283070,-0.005787610
1640790539.645620,-0.273252700,0.324665810,8.519355770,-0.013041500,-0.077740860,-0.021891300
1640790539.648660,-0.390738190,0.576514540,9.011772160,-0.061231860,-0.077354890,0.039778650
1640790539.651700,-0.513383390,0.345223460,9.907141690,-0.047279900,0.098530960,0.048211220
1640790539.653670,0.049845320,0.078512350,10.448239330,0.016444920,0.053204600,-0.005666910
1640790539.655620,-0.056770540,0.534616050,11.630262370,0.053460890,-0.013399120,-0.003924970
1640790539.658740,0.135358870,0.423839630,10.141936300,-0.015005470,-0.038926310,-0.023250280
1640790539.660650,0.206429330,0.399312110,9.236166000,-0.077323610,-0.131143600,-0.023467840
1640790539.663380,-0.104268080,0.604588270,8.739955900,-0.074020030,-0.011521580,0.009788570
1640790539.665880,0.110611280,0.104363860,8.510207180,-0.039029120,0.045600540,0.028742850
1640790539.669610,-0.150505470,-0.029753400,10.465480800,0.055970260,0.038298960,0.040118400
1640790539.670620,-0.255508120,0.093592830,10.762052540,0.036315620,-0.003401940,0.012549760
1640790539.673420,-0.090017210,-0.076894660,10.467926030,-0.063931950,-0.094835460,0.023856760
1640790539.675820,-0.354334210,-0.048298620,10.035192490,-0.074799370,-0.016553700,0.004516540
1640790539.678430,-0.115875590,-0.024248420,8.866508480,-0.025741760,0.008875130,-0.030449040
1640790539.680560,-0.149043440,0.163702200,9.330379490,0.047773130,-0.005614760,-0.004565720
1640790539.683440,-0.146154180,0.327270720,9.251287460,0.051192940,0.023704770,-0.011834500
1640790539.685580,0.002145720,0.251745400,9.847638130,-0.023274120,-0.074690570,-0.004817540
1640790539.688360,-0.286480190,0.165490490,10.629880910,-0.049348170,-0.021950900,0.039215380
1640790539.690530,-0.088697400,-0.296589730,10.008282660,0.021462140,-0.010101500,0.010924040
1640790539.693480,-0.243574100,-0.405462270,10.639295580,0.120370110,-0.028686230,-0.023674970
1640790539.695520,-0.238670650,0.149191280,9.548321720,0.105552390,0.010316070,-0.015784800
1640790539.698690,-0.092050810,0.293519350,9.069653510,-0.022077560,-0.092913210,-0.016328690
1640790539.700650,-0.238247450,0.597912490,9.531582830,-0.088422020,-0.030966110,-0.004315380
1640790539.703390,-0.007872310,0.823141990,9.220094680,-0.049574680,0.012148920,0.006449220
1640790539.705590,-0.128466760,0.413495030,10.988422390,0.067430730,-0.019596520,0.003103910
1640790539.710080,-0.299334140,0.469050740,10.958537100,0.131142140,0.006763640,-0.024765730
1640790539.711800,-0.234093770,0.520857690,10.053073880,0.041331350,-0.144113600,-0.018724800
1640790539.713370,-0.507414340,0.199648170,10.021273610,-0.076456360,-0.091663000,0.008314850
1640790539.716000,-0.118027500,0.349134120,8.285823820,-0.093296160,-0.018018480,0.004433100
1640790539.719150,0.087385440,0.458010460,9.303769110,-0.044569370,-0.028014180,0.018331410
1640790539.720580,0.260632400,0.427296190,10.007533070,0.016343600,0.105614960,0.028921660
1640790539.723400,0.567202390,0.504175070,10.045559880,0.004826490,-0.020317730,-0.013434890
1640790539.725790,0.036234810,0.331996980,11.461947440,-0.053310400,-0.098519030,-0.010281800
1640790539.728350,-0.159974050,0.034612540,9.627236370,-0.064380470,-0.061866650,-0.000196700
1640790539.730550,-0.505779560,-0.250503570,9.297330860,0.002071260,-0.183987660,-0.007563830
1640790539.733520,-0.735855580,-0.223725380,9.140547750,0.032459200,0.014676150,0.008624790
1640790539.735620,-0.078143450,0.068213110,8.248551370,-0.010567900,0.063595180,0.025311110
1640790539.738330,-0.141014250,0.113252160,10.916522030,-0.053165860,0.018361210,0.016799570
1640790539.740790,0.374775080,0.491352110,10.223570820,-0.085645920,0.056484340,0.009833280
1640790539.743380,0.537418190,0.472536950,10.020458220,-0.035829840,-0.119487950,0.008204580
1640790539.745530,-0.102146140,0.024261550,10.680317880,0.049693890,-0.037227580,-0.004591050
1640790539.748760,-0.032827760,-0.105000970,8.540874480,0.105237970,-0.043174620,-0.016845760
1640790539.750640,-0.662191990,-0.278224170,9.719276430,0.077395150,-0.144205990,-0.006382170
1640790539.753970,-0.565079990,-0.272821810,9.128501890,-0.040353840,0.054948040,0.002539160
1640790539.755630,-0.067492960,0.089042170,9.197311400,-0.078576800,-0.025059280,-0.002928080
1640790539.758400,-0.323105690,0.179938970,11.344368930,-0.021424890,0.039738420,0.012522940
1640790539.760680,0.337073620,0.300268860,9.695717810,0.082433230,0.040563940,-0.003719330
1640790539.763370,0.043062600,0.463085140,10.495405200,0.135733200,-0.161053240,-0.016905370
1640790539.765950,-0.223278370,0.419480830,9.696938510,0.041149560,-0.036518280,0.009004770
1640790539.768480,0.108953650,0.321818110,8.360162730,-0.034500660,-0.092308220,-0.002145770
1640790539.770730,-0.456349730,0.314657090,10.431536670,-0.021827220,-0.049176810,-0.014613570
1640790539.773550,0.011302870,0.418424280,9.400229450,0.004053120,0.083197650,0.007601080
1640790539.775700,0.066964570,0.393274520,10.555104260,0.058370820,-0.066485990,-0.003355740
1640790539.778340,-0.226350640,0.424892370,11.094928740,0.026245420,-0.009125470,-0.021363800
1640790539.780930,0.310527620,0.636816140,8.861110690,-0.032836200,-0.078052280,-0.008240340
1640790539.783410,-0.190158870,0.604253110,9.933228490,-0.059086090,-0.104737300,0.012889510
1640790539.785670,-0.063548040,0.583725150,9.124804500,-0.071881710,0.060617920,-0.002433360
1640790539.788890,0.163545370,0.718475580,9.514895440,-0.041145080,-0.040775530,0.008727610
1640790539.790550,-0.306434180,0.353248000,11.121593480,-0.028862060,0.003872810,0.006316600
1640790539.793380,0.130345960,0.215816240,9.650297160,-0.032748280,-0.013817850,-0.027655070
1640790539.795590,-0.194936070,0.157776490,10.336537360,-0.039049980,-0.105483830,-0.002419950
1640790539.798520,-0.293197070,-0.157959420,9.504449840,-0.066277370,0.012597440,0.016416610
1640790539.800640,0.116631690,-0.131640450,8.806665420,-0.045874710,-0.044593210,0.003042820
1640790539.803400,-0.084481780,0.046595490,10.072002410,-0.030323860,0.025561450,0.014992060
1640790539.805710,0.466715400,0.119979560,9.319462780,-0.058270990,0.073271990,0.005090240
1640790539.808450,0.363590360,0.251862560,10.542331700,-0.036180020,-0.026251380,-0.016413630
1640790539.810590,0.085125320,0.226142970,10.204386710,-0.034347170,0.021028510,-0.014090540
1640790539.813330,0.013369280,-0.056603140,9.319327350,0.001427530,-0.072410710,0.001950560
1640790539.815710,-0.682300270,-0.270942180,10.003913880,0.070482480,-0.067467970,-0.008012360
1640790539.818430,-0.450860230,-0.261537490,8.699761390,0.035451350,-0.004158910,-0.000351670
1640790539.820590,-0.396704490,-0.209065500,9.739117620,0.004567210,-0.008730590,0.029872360
1640790539.823510,-0.243611980,-0.265591890,10.204280850,-0.024580960,0.118246680,-0.007081030
1640790539.825580,0.313535390,0.048795730,9.922528270,0.017885870,0.017946960,-0.038969520
1640790539.828320,-0.043976260,0.302834690,10.832917210,0.086212160,-0.037702920,-0.026088950
1640790539.831230,0.174617800,0.368914070,9.085451130,0.068578130,-0.050571570,-0.043448810
1640790539.833430,-0.101545950,0.601254820,9.328650470,0.045028330,-0.125107170,-0.008325280
1640790539.836250,-0.421934840,0.468611210,9.686706540,0.000303980,0.047039990,0.026488310
1640790539.838450,-0.138173760,0.178850560,9.608001710,0.015927850,0.028276440,0.016552210
1640790539.840600,-0.558127340,0.359623640,11.331908230,0.079670560,-0.020124020,0.000694390
1640790539.843320,-0.276305170,0.515797080,9.857847210,0.039030610,-0.015327340,-0.017082690
1640790539.845570,-0.189668270,0.645949070,9.583144190,-0.022569300,-0.135169920,-0.012417140
1640790539.848550,-0.270211520,0.960577730,9.651335720,-0.075542930,-0.000247360,0.000076000
1640790539.850620,0.329388410,0.739786860,8.691211700,-0.085601210,0.027085840,0.009453300
1640790539.853430,0.130868290,0.494006750,10.747647290,0.009554620,0.001287460,0.008982420
1640790539.856000,0.147587730,0.450891350,10.374978070,0.022612510,0.045280160,-0.009785590
1640790539.858380,0.060687100,0.068996730,10.117556570,-0.037516650,-0.143635290,0.002513830
1640790539.860590,-0.497860850,-0.101689530,10.274256710,-0.066508350,-0.071984540,0.009252130
1640790539.863330,-0.089137510,-0.260372700,8.269972800,-0.072985890,-0.006297230,-0.003343820
1640790539.865710,-0.156975480,-0.057848810,9.523725510,-0.020200010,-0.008599460,0.019252300
1640790539.868600,0.067277720,0.320424680,9.786197660,-0.016401710,0.153292750,0.011445580
1640790539.871410,0.500580130,0.476019440,9.803045270,-0.078994030,-0.012889500,-0.002923610
1640790539.873600,-0.003976960,0.724839210,11.124289510,-0.102485720,-0.057013340,0.015634300
1640790539.875620,0.183893650,0.256912650,9.205139160,-0.051607200,-0.006550550,-0.000555810
1640790539.878370,-0.285748780,-0.262237790,9.700916290,0.066503890,-0.102426110,-0.023178750
1640790539.880940,-0.632894460,-0.133998110,9.464056020,0.086548930,0.041025880,-0.013987720
1640790539.883390,-0.171231990,-0.359157230,8.639751430,-0.015391410,0.000734630,-0.011305510
1640790539.885830,-0.374184700,-0.074288520,10.361675260,-0.093401980,-0.002786520,-0.003941360
1640790539.888600,0.226689460,0.401559800,9.474703790,-0.111170120,0.082276760,0.006806850
1640790539.890540,0.278223220,0.128144160,10.260509490,-0.016805530,-0.026445090,0.005593900
1640790539.893350,-0.089049620,0.213095040,10.541235920,0.107105100,0.010035930,-0.030131640
1640790539.895630,0.061876720,0.184559700,9.117493630,0.108744210,-0.072585050,-0.044013560
1640790539.898640,-0.502503750,-0.092838560,9.894813540,0.036138300,-0.089000170,-0.012813510
1640790539.900810,-0.281870780,0.165158630,8.905391690,-0.051118430,0.032202900,-0.025762620
1640790539.904520,-0.116184950,0.250823200,9.647207260,-0.064662100,-0.001940130,-0.004269180
1640790539.905580,-0.172438340,0.446610420,10.672029500,-0.005652010,0.078816710,0.029054290
1640790539.908400,0.241108120,0.639642600,9.950957300,0.050686310,0.001519920,-0.016510490
1640790539.910580,-0.121636170,0.632471140,10.597033500,0.033952300,-0.107344990,-0.016164780
1640790539.913710,-0.083680330,0.786151770,9.177039150,-0.019097330,-0.015299020,-0.003388520
1640790539.915760,-0.154279470,0.549653410,9.288305280,-0.069160760,-0.061704230,-0.031124060
1640790539.918690,-0.303538950,0.602635260,10.063384060,-0.076775240,0.029461090,-0.004063550
1640790539.920710,0.192740930,0.647298690,9.444838520,-0.067023930,0.057990850,-0.002610680
1640790539.923390,-0.018350180,0.290168460,10.930471420,-0.039187070,0.001351540,-0.020121030
1640790539.925620,0.012241460,0.501836480,10.082726480,-0.060026360,0.004036730,-0.005464260
1640790539.928400,0.045969510,0.304312860,9.352348330,-0.082553910,-0.100386150,-0.002935530
1640790539.930980,-0.202094900,-0.038863020,9.563022610,-0.089024010,-0.003810230,0.011141600
1640790539.933500,0.156466020,0.234690400,8.701557160,-0.071619450,0.061237820,0.001433490
1640790539.935650,0.025172800,0.117770050,10.349405290,-0.073128940,0.039578970,0.002042950
1640790539.938600,0.196365590,0.211465330,10.188605310,-0.094529990,0.094372040,-0.011564790
1640790539.941210,0.205968600,0.374177370,9.947628970,-0.092242640,-0.037634370,-0.039565560
1640790539.943380,-0.294423820,0.071353700,10.389683720,-0.083450980,-0.033313040,-0.009521840
1640790539.945590,-0.148253560,-0.038791470,8.643369670,-0.012613830,0.000183280,0.009654460
1640790539.950670,-0.475545880,-0.133708190,9.633652690,0.013890860,-0.029702490,0.006799400
1640790539.951630,-0.234757450,-0.104991060,9.505743030,-0.069060930,0.120024380,0.028267500
1640790539.954440,0.257999690,0.049058180,9.527933120,-0.106528410,0.044734770,-0.002904240
1640790539.955630,0.054812630,0.039405900,10.968512540,-0.085788950,0.066149220,-0.037990510
1640790539.958340,0.336187030,0.095461430,9.640766140,-0.007604060,0.048337880,-0.017824770
1640790539.960580,-0.228466090,-0.221520290,9.988218310,0.094407800,-0.107981270,-0.025452680
1640790539.963510,-0.565561180,-0.384556060,9.464509960,0.071303530,-0.019553310,-0.012037160
1640790539.966520,-0.312889520,-0.192600000,8.534770970,0.014507770,-0.006365780,0.023977460
1640790539.968430,-0.594765600,-0.267332400,10.401011470,-0.045613940,0.071434680,0.004245340
1640790539.970770,0.087398160,0.226815540,9.862585070,-0.049448020,0.124438120,-0.023721160
1640790539.973480,0.122179940,0.671831970,10.517970090,0.034806130,-0.011961160,-0.022643800
1640790539.975650,-0.051655330,0.588304640,10.517021180,0.072503080,-0.005774200,-0.031650060
1640790539.978350,0.217981350,0.831573250,8.748948100,0.058549640,-0.081469130,-0.022226570
1640790539.980920,-0.421440330,0.688255610,9.704145430,-0.013388690,-0.048337880,0.014859440
1640790539.983740,-0.234842300,0.297673700,9.405075070,-0.068689880,0.086441640,0.023812050
1640790539.985630,-0.243755340,0.256711480,10.197411540,-0.012128060,0.005675850,-0.000803170
1640790539.988350,-0.474983810,0.264127700,11.163875580,0.004023310,0.005237760,-0.022895640
1640790539.990560,0.130438670,0.514718890,9.405614850,-0.029404460,-0.016467280,-0.009195510
1640790539.993290,-0.117075550,0.610323550,9.889679910,-0.066135830,-0.086550410,-0.027431550
1640790539.996010,0.152308940,0.747138980,9.107748030,-0.131429730,0.071671610,-0.003218650
1640790539.998750,0.511639650,0.586667000,9.022071840,-0.081209850,0.044223670,0.029364230
1640790540.000710,-0.058034900,0.307653010,10.987882610,-0.019577150,0.032064320,-0.006712970
1640790540.003850,0.115201320,0.434172330,10.059783940,-0.048395980,-0.000588600,-0.004988910
1640790540.005560,-0.266103570,0.045038950,10.156528470,-0.078952310,-0.110591940,0.005479160
1640790540.008410,-0.395796390,-0.231483950,9.660890580,-0.113712250,0.025728350,-0.016853210
1640790540.010620,0.093050490,-0.037178550,8.656358720,-0.071157520,0.076472760,0.004354120
1640790540.013400,-0.081495770,-0.088044580,9.987887380,-0.029174990,0.073249660,0.023426120
1640790540.016050,0.375769640,0.195254030,9.547429080,-0.059409440,0.075744100,0.012087820
1640790540.018370,0.399955930,0.494787450,9.873262410,-0.104041380,-0.023794170,0.009386240
1640790540.020890,0.032481810,0.206551090,10.331548690,-0.125387300,0.034210080,0.009034570
1640790540.023360,0.014046570,-0.084745110,9.655483250,-0.026172400,0.028666850,-0.020271540
1640790540.025630,-0.516239520,-0.281378000,10.040791510,0.083081430,-0.006160140,-0.029024480
1640790540.028710,-0.458277580,-0.341506090,9.296709060,0.046604880,0.040179490,-0.010117890
1640790540.030570,-0.309788170,-0.308209480,9.205499650,-0.015398860,0.018739700,0.003711880
1640790540.033460,-0.195719670,-0.051175560,9.661981580,-0.088229780,0.070540610,0.021056830
1640790540.035630,0.198201880,0.081220100,9.695678710,-0.057862710,0.072190170,0.038588050
1640790540.038350,0.162885740,-0.009793800,10.373596190,0.068245830,0.063043840,0.000929830
1640790540.040770,0.141041400,0.215035750,10.180354120,0.117428610,0.028280910,-0.027012830
1640790540.043430,-0.198159320,0.176652980,9.899835590,0.082196280,-0.044317540,-0.022219120
1640790540.045640,-0.360444660,0.056170780,9.226309780,0.014181440,-0.040580340,-0.026324390
1640790540.049130,-0.255540100,0.326046470,9.015947340,-0.018857420,0.023277110,-0.010910630
1640790540.050630,-0.346498670,0.310957910,9.892395970,0.011125210,0.115291770,0.027093290
1640790540.053410,-0.052563240,0.290274440,10.340413090,0.055915120,0.079372530,0.021389130
1640790540.055600,-0.110163850,0.372351440,10.751061440,0.083893540,-0.016610330,-0.002120440
1640790540.058380,-0.111966520,0.425477890,9.909948350,0.044682620,-0.029248000,-0.008051100
1640790540.060810,-0.102973770,0.467028800,9.286442760,-0.024771690,-0.042818490,-0.025045870
1640790540.063330,-0.221367580,0.593123850,9.539792060,-0.045461960,0.029692050,-0.026151540
1640790540.065970,0.115082890,0.772315560,9.478954320,-0.039719050,0.075866290,0.001017750
1640790540.068440,0.144333810,0.631167290,10.403397560,-0.010757150,0.061897930,0.012411180
1640790540.070560,0.020215960,0.387827430,10.711529730,0.017075240,0.033958260,0.007629390
1640790540.073540,-0.105749050,0.384346430,9.909839630,-0.013227760,-0.064729160,0.013686720
1640790540.075690,-0.531729340,0.070035470,9.637287140,-0.046472260,-0.080677870,0.017222760
1640790540.078560,-0.265785370,0.125083210,8.748954770,-0.075608480,0.035652520,0.008381900
1640790540.080700,-0.026081630,0.317077930,9.411229130,-0.077059860,0.093266370,0.002866980
1640790540.083430,0.088418080,0.269080760,10.641193390,-0.050432990,0.119379160,-0.009626150
1640790540.086720,0.454710420,0.483095590,10.295715330,-0.035630170,0.037290150,-0.030627850
1640790540.088330,0.156763970,0.431439280,10.221428870,-0.047500430,-0.068110240,-0.002042950
1640790540.090570,0.011838910,0.045543920,9.295910840,-0.048688050,-0.010924040,0.033426290
1640790540.093460,-0.221629620,-0.294326810,9.047551160,-0.006420910,-0.000195210,0.016422570
1640790540.095620,-0.547155740,-0.421832650,9.679119110,0.030314920,0.028754770,0.026892130
1640790540.098510,-0.100904380,-0.206708250,9.470033650,0.000979010,0.074142220,0.005178150
1640790540.100620,-0.110993740,0.085552000,10.241019250,-0.071772940,0.059950360,-0.031653050
1640790540.103500,0.108159050,0.452126800,10.151990890,-0.108224180,0.059524190,-0.002451240
1640790540.105720,0.187604870,0.372643830,9.898829460,-0.026671590,0.009667870,0.000095370
1640790540.109740,-0.257867900,-0.008197350,9.892593380,0.101652750,-0.048670170,-0.000642240
1640790540.110690,-0.167573260,0.143257390,9.114110950,0.127416850,-0.040699540,0.021626060
1640790540.113520,-0.422969640,-0.197969630,9.573199270,0.012323260,0.038798150,0.021028520
1640790540.118090,-0.234525930,-0.204706270,9.896069530,-0.070397560,0.081403560,0.012151900
1640790540.118800,0.020430640,0.296357900,10.363875390,-0.042212010,0.055648390,-0.011305510
1640790540.120610,-0.016475420,0.547811870,10.251734730,-0.008437040,0.023828450,-0.020265580
1640790540.123370,0.210623400,0.976225910,9.533480640,0.029142200,-0.038518000,-0.022684040
1640790540.125720,-0.050957240,1.122765060,9.583863260,-0.018098950,0.000910460,-0.024512410
1640790540.128360,-0.164267090,0.711304130,9.439492230,-0.058344010,0.022293630,0.029535590
1640790540.130580,-0.191014330,0.419568690,10.067917820,-0.017651920,0.021636490,0.031122570
1640790540.133440,-0.401653710,0.157185970,10.480986600,-0.014278290,0.036713480,0.001184640
1640790540.135770,-0.123540480,0.228036370,9.997385980,-0.053136050,-0.017303230,0.018674140
1640790540.138350,-0.125585060,0.259150620,9.908177380,-0.085082650,0.000308450,-0.021943450
1640790540.141080,0.155612130,0.253370670,9.083886150,-0.111943480,0.039434440,-0.031524900
1640790540.143350,0.417160060,0.502750750,9.336066250,-0.059202320,0.054305800,-0.002354380
1640790540.145630,0.249161360,0.338824270,10.019891740,-0.040228670,0.096178060,-0.003254410
1640790540.148900,0.320813120,0.359154760,10.007124900,-0.066776570,0.007677080,0.011487310
1640790540.150640,-0.085775240,0.394110950,10.435814860,-0.093780470,-0.022341310,0.009123980
1640790540.153420,-0.263078210,-0.243806390,9.735653880,-0.102072960,0.027728080,-0.010097030
1640790540.155690,-0.181539240,-0.222171380,9.333584790,-0.024449820,0.024780630,-0.019128620
1640790540.158390,-0.447607040,-0.179386710,9.704476360,0.015681980,0.102736060,-0.015628340
1640790540.160600,-0.045963790,-0.262276230,9.136202810,-0.027681890,0.076703730,0.022900100
1640790540.163320,-0.065298360,0.199928300,10.068210600,-0.067284700,0.005896390,0.019620360
1640790540.165910,0.086908480,0.162908030,9.775905610,-0.119510310,0.077599290,0.014586750
1640790540.168380,0.267130140,-0.042183040,9.742487910,-0.037303560,0.025631480,0.015206630
1640790540.170620,-0.299150410,-0.156391110,10.620631220,0.094224510,0.056503720,-0.054416060
1640790540.173480,-0.275243370,-0.192651930,9.509868620,0.093895200,0.004890560,-0.053302940
1640790540.175750,-0.533856750,-0.020557610,9.540783880,0.043155250,-0.082132210,-0.003065170
1640790540.178350,-0.540830790,0.022791460,9.109695430,-0.071437660,0.046126550,-0.010025500
1640790540.180580,0.012420960,0.327617620,9.122339250,-0.087192640,0.064815570,0.049969550
1640790540.183420,-0.225224440,0.317881110,10.915965080,0.031468280,0.113315880,0.048251450
1640790540.185600,0.099920710,0.149051730,10.444062230,0.106328730,0.057229400,-0.022475420
1640790540.188840,-0.071016340,0.514263390,10.371826170,0.105325900,-0.110845280,-0.003607570
1640790540.190610,-0.512992200,0.342326610,9.600271220,0.003549460,-0.054420530,-0.020496540
1640790540.193350,-0.248862010,0.214639890,8.618019100,-0.066457690,-0.045584150,-0.020907820
1640790540.195600,-0.485188990,0.608873190,9.845044140,-0.030583140,0.026829540,0.006175040
1640790540.198820,-0.075169210,0.393314390,9.912499430,0.007928910,0.106683400,0.007554890
1640790540.200640,0.230188530,0.576278090,10.677711490,0.036381190,0.015306470,0.015658140
1640790540.203420,-0.143845780,0.749297560,11.016009330,-0.010973220,-0.020100180,-0.000591580
1640790540.206000,0.045731300,0.403872220,9.492133140,-0.075495250,-0.110045100,-0.004006920
1640790540.208430,-0.175141420,0.581062380,9.157365800,-0.056324910,-0.083766890,0.005774200
1640790540.210560,-0.045950050,0.449893560,8.862010000,-0.051796440,0.067690020,0.007745620
1640790540.213300,0.271149040,0.330072370,9.770061490,-0.040027500,0.094783310,0.026424230
1640790540.216000,-0.076048350,0.421701190,11.000840190,-0.035877530,0.049690910,0.008367000
1640790540.218460,-0.013956300,0.216597930,10.423814770,-0.102899980,-0.073821840,-0.002525750
1640790540.221080,-0.182838400,0.163071140,9.774255750,-0.087553250,-0.105439130,0.022470950
1640790540.223370,-0.375710100,-0.088125930,9.005497930,-0.042662020,-0.002732870,0.000403820
1640790540.225620,-0.008482400,-0.074872750,8.951034550,-0.014811760,0.043070320,0.013104080
1640790540.228340,0.152746260,0.226684940,9.719981190,-0.024533280,0.125518440,0.024080280
1640790540.230580,0.444057850,0.157247500,10.100929260,-0.105440620,0.078903140,-0.002472100
1640790540.233450,0.431862290,0.406445380,10.599761010,-0.121356570,-0.005723540,0.023464860
1640790540.235710,0.000886990,0.134576420,9.801256180,-0.053226950,-0.017285350,0.030912460
1640790540.238350,-0.338839260,-0.473797230,9.385214810,0.057618320,-0.086243450,0.001397730
1640790540.240740,-0.800520000,-0.375203430,9.331551550,0.114965450,0.005061930,0.001026690
1640790540.243400,-0.449186210,-0.367079790,8.686853410,0.015395880,0.053967540,-0.004588070
1640790540.245590,-0.230755050,-0.145173670,10.161306380,-0.089567880,0.087869150,-0.003755090
1640790540.248820,0.038661700,0.426260200,10.062866210,-0.111189490,0.123135750,0.005960460
1640790540.250680,0.193568620,0.328504350,10.310236930,-0.008443000,-0.054433940,0.007487830
1640790540.254990,-0.163634020,0.188057840,10.175936700,0.136002900,-0.052790340,0.005765260
1640790540.258990,-0.165083870,0.041200180,8.600412370,0.152809930,-0.065077850,-0.014151630
1640790540.259460,-0.491452040,-0.248437990,9.754781720,0.075089920,-0.038596980,-0.000973050
1640790540.260560,-0.391273680,-0.046592640,9.502326970,-0.022538000,0.111614170,-0.000745060
1640790540.263320,-0.025508170,0.313081440,9.867459300,-0.067330900,-0.005865100,0.001260640
1640790540.265940,-0.073674490,0.592827680,10.824123380,-0.012253220,0.019049640,0.019921360
1640790540.268360,0.269989730,0.821513120,9.257945060,0.056788330,0.009144850,-0.022463500
1640790540.270630,-0.103046450,0.894758940,10.186079030,0.063814220,-0.104565940,-0.021535160
1640790540.273540,-0.305222210,0.700863900,9.601797100,0.021202870,0.020317740,0.023953620
1640790540.275700,-0.170670670,0.383262070,9.032550810,-0.035463270,-0.052289660,0.000710790
1640790540.278350,-0.611563980,0.364075420,10.764375690,-0.062650440,-0.019106270,0.021740790
1640790540.280570,-0.172628060,0.355148170,9.391026500,-0.062973800,0.065575540,0.014126300
1640790540.283580,-0.087777400,0.145889370,10.225825310,-0.030212100,-0.085437310,-0.033368170
1640790540.285800,-0.053945460,0.406247200,10.029665950,-0.007775430,0.023309880,-0.014601650
1640790540.288970,0.493555610,0.299479750,8.590165140,-0.031042100,0.007382040,0.003816190
1640790540.290540,0.047028170,0.162343470,10.458278660,-0.050799550,-0.026087460,0.023169820
1640790540.293320,0.207300200,0.478522120,9.428952220,-0.083374980,0.034582610,0.029689080
1640790540.295610,0.271870790,0.327451050,9.503566740,-0.100167100,-0.085218260,0.004857780
1640790540.298780,-0.179082600,0.188762860,10.354640960,-0.069485610,0.039589410,-0.014273820
1640790540.300730,0.045894590,0.157256320,9.195646290,-0.020378830,0.054796050,-0.042703760
1640790540.304110,-0.517297150,-0.241732030,10.541823390,0.031869110,-0.060755020,-0.012946130
1640790540.308740,-0.494474530,-0.308587790,9.405790330,0.028137870,-0.000038740,0.017121430
1640790540.309290,-0.122726380,-0.223111200,8.860410690,-0.026494270,-0.070510810,0.011874740
1640790540.310580,-0.304940430,-0.116943300,10.068237300,-0.088901830,0.060802700,0.036044420
1640790540.313320,0.347689570,0.030164460,9.233180050,-0.053478780,0.116251410,-0.012716650
1640790540.316140,0.190730560,0.115837840,10.767270090,0.039649010,-0.011266770,-0.053867700
1640790540.319850,-0.057497890,0.224556270,10.298386570,0.093555450,-0.007325410,-0.034016370
1640790540.322280,0.047792610,0.106306900,8.986199380,0.092557070,-0.136207010,-0.025060770
1640790540.323290,-0.623703540,0.041212070,9.796628000,0.023443990,-0.056912010,0.003463030
1640790540.325590,-0.230431380,0.217514020,8.760234830,-0.037796800,0.079584120,0.048586730
1640790540.328310,-0.210056130,0.106942210,10.375432010,-0.002679230,0.038923320,0.018051270
1640790540.330590,-0.194623080,0.436670480,10.910644530,0.031957020,0.084754820,-0.013512370
1640790540.333510,0.220617150,0.785417380,9.792394640,0.043171640,-0.071249910,-0.031057000
1640790540.335700,-0.189424810,0.702782870,10.275246620,0.016780200,-0.106149920,-0.036297730
1640790540.340180,0.061615720,0.834898470,8.573925020,-0.050827870,0.007711350,-0.019596520
1640790540.340640,0.007154440,0.572901130,9.434181210,-0.041212140,-0.008191170,0.020389260
1640790540.343360,-0.334070120,0.041680960,10.656181340,0.004294520,0.081215820,0.019402810
1640790540.345570,0.027369470,0.101709880,9.851269720,0.042864680,-0.033818180,0.002366300
1640790540.348670,-0.335186030,0.016709730,10.758047100,0.000552830,-0.082911550,-0.000479820
1640790540.350910,-0.028314970,0.064165500,9.071512220,-0.085583310,0.012363490,-0.015449520
1640790540.353370,0.235129430,0.440618460,9.032483100,-0.091612350,-0.027719140,-0.026161970
1640790540.355720,0.126469880,0.498615950,9.847858430,-0.063338870,0.118836750,-0.009636580
1640790540.358530,0.599830990,0.601178770,9.246351240,-0.011061130,0.061655040,0.008119640
1640790540.360600,0.049002920,0.556932690,11.057909010,0.003656750,-0.043661890,0.007796290
1640790540.363460,-0.137352960,0.160979060,9.877259250,-0.059662770,-0.001610820,0.034298010
1640790540.365690,-0.214961710,-0.349298150,9.267830850,-0.028352440,-0.093066700,0.029808280
1640790540.371950,-0.736907660,-0.617246150,9.888648030,0.017392630,0.047378230,-0.018969180
1640790540.372580,-0.150132100,-0.321562950,8.437468530,0.009812420,0.080031160,-0.016580520
1640790540.373340,-0.214089780,-0.021248940,10.227222440,-0.007636850,0.007349250,-0.024740400
1640790540.375720,0.133259310,0.455379580,9.747285840,-0.084331640,0.091889510,-0.031977890
1640790540.378300,0.562778060,0.687183440,9.442071910,-0.068026790,-0.037865340,0.022645300
1640790540.380710,-0.068164220,0.198008950,10.930399890,0.035512450,0.046189140,0.020498040
1640790540.383620,-0.003666860,-0.068971430,9.432367320,0.131821630,0.021035970,-0.000888110
1640790540.385710,-0.635993720,-0.144468590,10.093421940,0.146523120,-0.125393270,0.014562910
1640790540.388320,-0.831437290,-0.262302670,9.414269450,0.006568430,0.012750920,-0.002925100
1640790540.390640,-0.291739170,0.078797300,8.621975900,-0.094638760,-0.026960670,-0.006240610
1640790540.393340,-0.478740960,0.460638940,10.651003840,-0.056308510,0.064983960,0.004681950
1640790540.395720,0.291069510,0.598740280,9.745616910,0.024051960,0.126552580,-0.005328660
1640790540.398340,0.378856030,0.857090470,10.601085660,0.104630020,-0.070984660,-0.017082690
1640790540.400840,0.098580960,0.977943060,10.461728100,0.036108490,0.012090800,-0.004403290
1640790540.403370,0.224204780,0.615385060,8.808427810,-0.073321180,-0.063084090,0.028067830
1640790540.405640,-0.583728670,0.267742310,10.179454800,-0.056584180,-0.097593650,0.025676190
1640790540.408410,-0.464947700,0.105056290,9.164054870,-0.030015410,0.051236160,0.014849010
1640790540.410620,-0.276609090,-0.104723270,9.670561790,0.031474230,-0.021626060,0.023140020
1640790540.413330,-0.477819060,-0.022789510,10.987250330,0.024014710,0.062915690,-0.020571050
1640790540.416000,0.250520620,0.349458580,9.375372890,-0.073103610,0.017136340,-0.008377430
1640790540.418440,0.094877300,0.282256540,10.060848240,-0.094753490,-0.075511630,0.034691390
1640790540.420650,0.169014890,0.253149810,9.502363200,-0.056332350,0.040522220,-0.014139710
1640790540.423340,0.359472990,0.347082820,9.120960240,0.016647580,-0.041745600,-0.000990930
1640790540.425650,-0.134156880,0.164915560,10.407382010,0.049909950,-0.007961690,0.006625060
1640790540.428640,0.132091810,0.049142730,9.496342660,-0.010226670,0.047478080,-0.027203560
1640790540.430670,-0.196183190,-0.033801970,10.241071700,-0.050698220,-0.029344850,0.008976460
1640790540.433450,-0.458182130,-0.225404230,10.050436020,-0.027282540,0.026571750,0.023192170
1640790540.435730,-0.206662100,-0.308821170,9.157703400,0.041145090,-0.062327090,0.004218520
1640790540.438330,-0.414734420,0.121053100,9.673185350,0.061039630,-0.041736670,0.015427170
1640790540.440670,0.073584880,0.241171780,9.144154550,-0.020809470,0.077022600,0.008885560
1640790540.443410,0.114553180,0.156873570,10.344964030,-0.035785140,0.056412820,-0.005939600
1640790540.445620,-0.101069570,0.321473540,10.915531160,0.018773970,0.028748820,-0.015139580
1640790540.448720,-0.070098720,0.308854760,9.942937850,0.070726880,-0.110661980,-0.024132430
1640790540.450730,-0.402261410,0.329034180,9.657000540,0.061860690,-0.121849780,0.001285970
1640790540.453840,-0.203309300,0.534273030,8.611740110,-0.013992190,0.010646880,0.008071960
1640790540.455640,-0.070315450,0.239281390,9.645575520,-0.050687800,0.071384020,0.028032060
1640790540.458330,0.127990380,0.233855280,10.593488690,-0.006884340,0.129090250,0.018365680
1640790540.460730,0.277718630,0.533707200,10.670423510,0.028465690,-0.031659010,-0.041294100
1640790540.463360,0.018927810,0.724044260,10.429312710,-0.014100970,-0.116021950,-0.022923950
1640790540.465910,0.030398230,0.713490960,8.780193330,-0.088846670,-0.056670610,-0.009079280
1640790540.468360,-0.232589240,0.342805210,9.149891850,-0.083866720,-0.019793210,0.000286100
1640790540.470620,-0.194104630,0.008348430,9.618898390,0.012733040,0.107198950,0.040350850
1640790540.473390,0.074129530,-0.259053950,9.904506680,0.081425930,0.050330170,0.009587410
1640790540.475790,-0.083367010,-0.191508670,10.819147110,0.020851200,-0.027616320,-0.012621280
1640790540.478330,0.328229730,0.221770300,9.278446200,-0.116656720,0.007872280,0.015465920
1640790540.480650,0.080332580,-0.090575130,9.606347080,-0.124457480,-0.025571880,-0.014321510
1640790540.483440,-0.083237350,-0.004445290,9.735627170,0.003494320,0.054113570,-0.030729170
1640790540.487100,0.055359170,0.333101270,9.122098920,0.109310460,0.016985830,-0.037951770
1640790540.488310,-0.352732330,0.210388680,10.252170560,0.068157920,-0.025054810,-0.038647660
1640790540.490580,-0.039313680,0.553262950,9.286479950,-0.080072860,0.055941940,0.000661610
1640790540.493370,-0.197066160,0.278004200,9.953174590,-0.133237260,0.000211600,0.031280520
1640790540.495660,-0.349219980,-0.256369830,10.521481510,-0.008738040,0.057743490,0.033152100
1640790540.498680,0.090278130,-0.035083960,9.302345280,0.142626480,-0.014607610,-0.010673700
1640790540.502560,-0.225117640,-0.049046310,10.048644070,0.109969090,-0.048178430,-0.022114810
1640790540.503460,0.195036530,0.166116370,9.195108410,-0.046961010,0.083388390,-0.009919700
1640790540.505620,0.170816790,0.403758080,9.741382600,-0.123615570,0.040362770,-0.034010410
1640790540.509120,-0.161959840,0.375288010,10.876912120,-0.066271420,0.036208340,-0.026398900
1640790540.510600,0.162492560,0.679297570,9.599771500,0.069150330,0.001209970,-0.026017430
1640790540.513350,-0.380868640,0.684561850,10.119679450,0.078669190,-0.081673270,-0.034244350
1640790540.516180,-0.303117630,0.633221810,9.410510060,-0.029854470,0.041966140,0.022350250
1640790540.518330,-0.138638600,0.349898490,9.316926960,-0.081475090,0.053684410,0.027784710
1640790540.520670,-0.385156930,0.060180160,10.791783330,-0.054353480,0.040619090,0.009801980
1640790540.523530,0.140614670,0.443912630,9.765313150,-0.016109640,0.045752520,0.014069680
1640790540.525660,0.049481550,0.451571430,9.966610910,-0.035244230,-0.039407610,-0.021669270
1640790540.528320,0.067867050,0.496125280,9.744900700,-0.105100880,0.042669480,-0.021067260
1640790540.530620,0.309060360,0.460336090,9.029480930,-0.097899160,0.057631740,0.005081300
1640790540.533460,-0.189769640,-0.234343390,10.347892760,-0.022365160,0.005838280,-0.002826750
1640790540.536910,0.035421900,-0.133840680,9.670598030,0.047925120,0.028032070,0.008659060
1640790540.538320,-0.098794390,-0.071216840,9.697840690,-0.006525220,-0.022198260,0.008134540
1640790540.541610,-0.174447600,-0.249464200,9.962686540,-0.119213770,0.056621430,0.027425590
1640790540.543300,0.029257480,-0.055320860,9.560621260,-0.084619220,0.076422100,-0.001962480
1640790540.545690,-0.323964740,-0.055322620,10.155010220,0.002099570,0.014606120,-0.040784480
1640790540.549060,-0.159280970,0.131005110,9.433559420,0.060246880,-0.013446810,-0.020463760
1640790540.550660,-0.173955920,0.326709000,9.349073410,0.055333970,-0.023585560,-0.017891830
1640790540.553340,-0.232849360,0.167234270,9.745099070,-0.043556090,0.038306420,0.013193490
1640790540.555830,0.023966680,0.100574610,9.866641040,-0.049483780,0.060535970,0.057995330
1640790540.558440,-0.183141620,-0.343203780,10.512195590,0.036142760,0.045344230,0.007869300
1640790540.560620,-0.030570210,-0.326029810,9.971716880,0.118187080,-0.011925400,-0.002130870
1640790540.563350,-0.226103140,0.110113680,9.616567610,0.114166750,-0.050915790,-0.026024880
1640790540.566050,-0.264613570,0.161930640,9.222032550,-0.019636750,-0.026477880,-0.032351910
1640790540.568370,-0.018454540,0.667078380,9.232297900,-0.081309680,0.026686490,0.004211070
1640790540.571280,-0.173586910,0.628407360,10.350231170,-0.020788610,0.094881640,0.007024410
1640790540.575320,0.065772450,0.385578300,10.589915280,0.080627200,0.039213900,-0.006422400
1640790540.576110,-0.210212840,0.698938250,10.633767130,0.133953990,-0.070942940,-0.000950690
1640790540.578320,-0.436035780,0.368685780,9.664204600,0.022904580,-0.092884900,0.018359720
1640790540.581680,-0.235958650,0.247883710,8.732514380,-0.082220140,-0.062078240,0.041566790
1640790540.583370,-0.365002300,0.380026310,9.426732060,-0.075572740,0.051856040,0.023807590
1640790540.586780,0.164144460,0.232233320,9.838562970,-0.018715860,0.103041540,0.021328030
1640790540.588460,0.380406140,0.580694560,10.624093060,0.039601330,0.023353100,-0.005654990
1640790540.590610,0.232451540,0.764940560,10.538757320,-0.029015540,-0.022628900,-0.040894740
1640790540.593330,0.323286980,0.449647610,9.389338490,-0.110325230,-0.059150170,0.008536880
1640790540.595650,-0.259893890,0.153009240,9.502437590,-0.047394630,-0.050856170,0.005355480
1640790540.598630,-0.313877490,-0.151078120,9.212962150,0.002981720,0.004403290,-0.001709160
1640790540.600680,-0.103635770,0.040916430,9.286587720,0.020426510,0.018388030,0.024798510
1640790540.605450,-0.274318780,0.169198680,10.261466030,-0.056968630,0.067625920,0.000157950
1640790540.606030,0.198830990,0.273696330,9.886028290,-0.151586530,0.047226240,0.009818380
1640790540.608370,-0.002879820,0.301587490,10.172894480,-0.082978610,-0.011225050,0.031122570
1640790540.610670,-0.133830710,-0.197442290,9.770191190,0.044129790,-0.022377080,-0.002823770
1640790540.613760,-0.041753750,-0.194505320,9.217331890,0.129158810,-0.063705440,0.004914400
1640790540.615780,-0.364783560,-0.165311170,9.411246300,0.062935040,0.014853480,0.012840330
1640790540.618930,-0.014684430,-0.378151830,9.427301410,-0.080522890,0.073933610,0.008201600
1640790540.620710,-0.157612850,-0.077171320,10.371902470,-0.080092250,0.045269740,0.003463030
1640790540.623440,-0.222197550,0.076951050,10.185664180,0.024983290,-0.017698110,-0.005249680
1640790540.625650,-0.082982990,0.200988100,9.589699750,0.126156180,-0.097030390,-0.006164610
1640790540.628320,-0.272823070,0.589706660,9.251107220,0.105601550,-0.019270180,-0.003571810
1640790540.630930,-0.093888210,0.438672960,9.336519240,-0.019049640,0.039613250,0.017926100
1640790540.633360,-0.196071040,0.229331990,10.385505680,-0.035694240,0.044678160,0.024466220
1640790540.635720,-0.231486280,0.232987230,10.331228260,0.035348540,-0.010488930,-0.014428800
1640790540.638360,-0.181142670,0.312477830,10.159656520,0.069509450,-0.098377470,-0.014615060
1640790540.640650,-0.409073470,0.448011220,9.512231830,0.053632260,-0.068710750,-0.006814300
1640790540.643370,-0.138972000,0.505354230,8.992303850,-0.024622680,-0.050672890,-0.012974440
1640790540.645670,0.067826280,0.471044720,9.762904170,-0.058804460,0.062911220,0.035239760
1640790540.648420,0.272420080,0.370311500,10.142654420,0.002202390,0.089502330,0.020971900
1640790540.651230,0.310418700,0.529344080,10.841863630,0.021757190,-0.033533570,-0.017458200
1640790540.653470,-0.007862200,0.756822410,10.167233470,-0.023284560,-0.083470350,0.006257000
1640790540.655690,-0.154002040,0.492061820,9.090032580,-0.089944910,-0.121502590,-0.012093780
1640790540.658310,-0.452964930,0.258819100,9.451919560,-0.076580070,-0.024998190,-0.009286410
1640790540.660600,-0.321313260,0.203911300,9.165118220,0.002245610,0.068242850,0.022378560
1640790540.663740,-0.016129850,0.067776770,10.168053630,0.019690390,0.022856890,0.011985000
1640790540.668030,0.125607980,0.370759460,10.441835400,-0.061228880,0.051289800,0.013813380
1640790540.669490,0.365834240,0.473210540,9.570638660,-0.157913570,-0.035277010,0.036114450
1640790540.670670,0.105064900,-0.056428760,10.094660760,-0.110562150,-0.051611660,0.024096670
1640790540.673490,0.022773320,-0.226612150,9.105358120,0.037384030,0.007449090,-0.001861160
1640790540.675690,0.060374440,-0.302941080,9.247319220,0.111804920,-0.046873100,-0.010573870
1640790540.678310,-0.162185890,-0.172679110,10.099596980,0.020830330,0.078925500,-0.014583770
1640790540.680870,0.142314390,0.166853760,9.378080370,-0.130276350,0.063501310,0.002443790
1640790540.683360,-0.055019270,0.155782400,10.609383580,-0.148032620,-0.022777910,0.029292700
1640790540.685660,-0.140623260,-0.003516890,9.774921420,0.010187920,0.040644410,0.020308800
1640790540.688450,-0.000739590,0.044382320,9.156440730,0.166936220,-0.071840000,0.000911950
1640790540.690610,-0.426370380,0.033101840,10.014775280,0.144848240,0.013594330,0.000740590
1640790540.693300,0.057238880,0.082368310,8.860554700,-0.017741320,0.072880070,-0.001765790
1640790540.695940,-0.039194620,0.179867550,10.387534140,-0.107480570,0.010780990,0.002685190
1640790540.698390,-0.128456000,0.170579030,10.463203430,-0.052280740,0.083884600,-0.002820790
1640790540.702720,0.162060480,0.208927320,9.544057850,0.107494000,-0.061298910,-0.013133880
1640790540.703610,-0.405802010,0.222904280,10.457525250,0.164034960,-0.063727800,-0.019663570
1640790540.705650,0.009429340,0.299197640,8.671596530,0.054186580,0.043870510,0.012332200
1640790540.708340,0.034104190,0.189927550,9.797104840,-0.038433080,0.022174420,0.035724050
1640790540.710640,-0.205671160,0.299864170,10.702458380,-0.047184530,0.131413340,0.007964670
1640790540.713420,0.269571750,0.807203530,9.647244450,-0.020289420,-0.015755000,-0.003300610
1640790540.715740,-0.281020100,1.000373480,10.639234540,0.004822020,-0.087784220,-0.014479460
1640790540.718340,-0.191688790,0.958213570,9.060779570,-0.026071070,0.012204050,-0.016573070
1640790540.720660,-0.140106960,0.705830930,9.246802330,-0.016437470,-0.019416210,0.008946660
1640790540.723280,-0.610395730,0.141701920,10.552939410,0.001230840,0.076448920,0.016377870
1640790540.725650,0.092073240,0.105355370,9.507825850,-0.010548530,0.023807590,0.006040930
1640790540.728700,-0.021176260,0.275898720,10.489606860,-0.075234480,-0.036485490,0.014556950
1640790540.730710,0.155289050,0.293065430,9.650473590,-0.151249780,0.052073600,0.023938720
1640790540.735300,0.592280210,0.268501730,9.050081250,-0.111827250,-0.008055570,0.013720990
1640790540.736090,0.159042420,0.119827340,10.032165530,-0.005666910,0.054769230,0.006940960
1640790540.738280,0.370532600,-0.087436150,9.281547550,0.052504240,0.047144300,0.011238460
1640790540.740730,0.004924060,-0.053647180,10.173216820,0.027769810,-0.019001960,-0.001771750
1640790540.743330,-0.364555570,-0.002612580,9.877681730,-0.108228650,0.037477910,0.013580920
1640790540.745740,-0.164984300,-0.198888060,9.346140860,-0.118200490,-0.014843050,0.035692750
1640790540.749550,-0.599581960,-0.295434980,10.174968720,0.007598100,0.061324250,-0.020690260
1640790540.750680,-0.301103060,0.017301240,9.211970330,0.092428930,0.042076410,-0.019505620
1640790540.753520,-0.085121060,0.274110650,9.743395810,0.086954240,-0.016580520,-0.006134810
1640790540.755660,0.090389840,0.478877220,9.434988020,-0.058875980,0.089152140,-0.006456670
1640790540.758310,0.521999480,0.572676240,9.437791820,-0.128698350,0.049905480,0.052089990
1640790540.760980,0.063550190,0.039588110,10.833147050,-0.020870570,0.080528860,0.051164640
1640790540.763390,-0.066220910,-0.330189140,10.010928150,0.127771510,-0.009709600,-0.001481180
1640790540.768550,-0.407519280,-0.228889120,9.909451480,0.191442680,-0.137989240,-0.011150540
1640790540.769080,-0.601247490,-0.382787530,9.069755550,0.053390870,0.035987800,-0.020624700
1640790540.770590,-0.205830140,-0.112760670,8.937731740,-0.078260900,0.066022580,-0.019982460
1640790540.773410,-0.369241920,0.470576490,10.823557850,-0.059489910,0.115835670,-0.008359550
1640790540.775710,0.064261240,0.781785730,10.033019070,0.013512380,0.064313420,-0.000347200
1640790540.778580,0.176736160,1.255234720,10.226346970,0.079596060,-0.105966640,-0.000220540
1640790540.780680,-0.041992650,1.273960110,9.775335310,0.018009540,0.018320980,0.011083480
1640790540.783330,-0.024943250,0.469494880,9.171713830,-0.026845930,-0.006993120,0.042200090
1640790540.786010,-0.550076720,0.046782770,10.630644800,0.044955310,-0.030311950,0.014722350
1640790540.788340,-0.342771380,-0.101766880,9.386196140,0.031073390,0.027126080,-0.006833670
1640790540.790650,-0.086642840,0.079865050,9.603367810,-0.033132740,-0.047469140,0.016058980
1640790540.793360,-0.130941320,0.409300360,10.126279830,-0.115098070,0.087431070,-0.017228720
1640790540.799960,0.448712440,0.599960980,9.100548740,-0.150847450,0.052082540,-0.002907220
1640790540.801000,0.199076650,0.453309360,10.524042130,-0.017023090,-0.025047370,0.026053190
1640790540.801380,0.228951750,0.191402780,9.662371640,0.083082920,0.037133690,-0.034773350
1640790540.803330,0.106070190,0.231538970,9.538793560,0.055931510,-0.080399220,-0.000436600
1640790540.805640,-0.529686150,0.005957510,10.326282500,-0.045435130,0.001999740,0.023813550
1640790540.808320,-0.158629660,-0.387288570,8.758158680,-0.122183580,0.040188430,-0.006107990
1640790540.810950,-0.373240590,-0.222030370,10.009659770,-0.037449600,-0.004579130,0.017304720
1640790540.817710,-0.367933990,-0.280579780,9.819733620,0.077272940,0.097762030,-0.004853310
1640790540.818360,0.079517890,-0.034485540,9.222871780,0.096245100,-0.063450620,-0.029513240
1640790540.818690,-0.230917620,0.508966390,10.249762540,-0.001570580,-0.026041270,0.011709330
1640790540.820640,0.350252960,0.032175700,8.856496810,-0.096195940,0.084109600,0.010031460
1640790540.823380,0.038231140,-0.261579720,10.498968120,0.030867760,0.005164740,-0.016963480
1640790540.825690,-0.432538180,-0.059423300,10.557286260,0.170817990,0.024846200,-0.043949480
1640790540.829800,-0.215469480,-0.235841750,9.019861220,0.159095240,-0.141233210,-0.039166220
1640790540.830830,-0.669470730,0.128556820,9.777556420,0.045433640,-0.078912080,-0.021588800
1640790540.834410,-0.198750020,0.308089440,8.756179810,-0.067418820,0.101943310,0.005222860
1640790540.835620,-0.041049220,0.109109420,10.244997980,0.002817810,0.027932230,0.024272510
1640790540.838360,-0.083017310,0.476933450,11.038590430,0.149020570,0.059929490,-0.022724270
1640790540.840720,0.415973280,0.686525460,9.577796940,0.138770030,-0.064615910,-0.048153090
1640790540.843590,-0.122145880,0.684612100,10.256774900,0.040996070,-0.118795020,-0.009545680
1640790540.845970,-0.134687470,0.583612560,9.003676410,-0.041647260,0.000028310,-0.031438470
1640790540.848450,-0.068817720,0.223291160,9.356747630,-0.002548100,-0.054574010,0.001361970
1640790540.850730,-0.356974480,0.233296300,10.485182760,0.092016160,0.062371790,0.019755960
1640790540.853330,0.027445860,0.279227760,9.788988110,0.080716630,0.022880730,-0.020603840
1640790540.855660,-0.245501710,0.411832990,10.608130460,-0.002321600,-0.091905880,0.004194680
1640790540.858360,-0.255863190,0.548066850,9.528679850,-0.076194120,-0.025907160,-0.001104180
1640790540.860930,-0.011142300,0.225583880,9.073303220,-0.043419010,-0.074352340,-0.013954940
1640790540.863600,-0.136954230,0.449782430,9.910093310,0.052784390,0.006414950,-0.007660690
1640790540.865720,0.315433470,0.498912420,9.365729330,0.050045550,0.076079350,-0.015243890
1640790540.868310,0.272327600,0.323809860,10.556875230,-0.018419330,-0.007493790,-0.016088780
1640790540.870650,0.125145510,0.564925190,10.030842780,-0.085808340,-0.005638600,0.005085770
1640790540.873370,0.171516370,0.050091230,9.099925040,-0.079250340,-0.088606780,0.022405380
1640790540.875810,-0.258974790,-0.341448400,9.601475720,0.047917680,-0.013293330,0.022967160
1640790540.878440,-0.111488740,-0.177089990,8.990252490,0.108791900,0.045800210,0.000032780
1640790540.880910,-0.136161680,-0.367917810,10.172906880,0.047938530,0.014041360,0.001481180
1640790540.883410,-0.027492590,-0.015463060,10.063235280,-0.058048970,0.085915650,-0.023187700
1640790540.885660,0.152511790,0.251551510,9.738195420,-0.092832730,-0.014053290,-0.039325650
1640790540.888370,-0.318433110,-0.016459860,10.378353120,0.018629430,-0.019010900,-0.004489720
1640790540.891650,-0.330095410,0.036087280,9.012643810,0.169409810,-0.031371410,-0.028552120
1640790540.893360,-0.491249140,-0.019709720,9.557374000,0.181324770,-0.100748240,-0.022293630
1640790540.896290,-0.231695350,-0.058545280,9.304944040,0.057312850,0.082056220,0.031536820
1640790540.898360,0.215037610,-0.050166420,9.591992380,-0.008805100,0.083239380,-0.009876490
1640790540.900600,0.042839370,0.108812210,11.133389470,0.006051360,0.055837640,-0.021968780
1640790540.903350,0.393008620,0.484725000,9.595495220,0.088293860,-0.007106360,-0.018197300
1640790540.905680,0.068154560,0.515775080,9.651319500,0.143779830,-0.148548170,-0.059829650
1640790540.908480,-0.305943340,0.524209260,9.327795030,0.093272330,-0.005987290,-0.032794480
1640790540.910780,-0.218139420,0.330190450,8.901376720,0.049425670,0.021043420,-0.008396810
1640790540.913740,-0.810710610,-0.085331250,11.189386370,0.063002110,0.011067090,-0.034968550
1640790540.915710,-0.421166060,0.257951170,10.022309300,0.085063290,0.024777650,-0.025801370
1640790540.918330,-0.349346970,0.525650200,10.020094870,0.065046550,-0.118643070,-0.019653140
1640790540.920660,-0.379621740,0.721520840,9.998432160,-0.013494490,-0.010041890,-0.033262370
1640790540.923380,0.382239130,1.076392290,8.361262320,-0.038173800,0.005069380,-0.015789270
1640790540.925790,0.105879750,0.778407040,10.402552600,0.015100840,-0.005967920,-0.025625530
1640790540.928360,0.283085320,0.720320460,10.143588070,0.042834870,0.081868470,-0.045885140
1640790540.930880,0.164309750,0.753957990,10.085568430,0.020185110,-0.128003950,-0.040744250
1640790540.933370,-0.532780050,0.321377340,10.850481990,-0.062702600,-0.113344200,-0.033318990
1640790540.935660,-0.089174130,0.188723190,8.297820090,-0.090694430,-0.024385750,-0.022725760
1640790540.938510,-0.331373390,-0.073125470,9.589986800,-0.025440750,-0.040547540,-0.022181870
1640790540.941300,-0.124209080,-0.125613540,9.974041940,0.022304060,0.146199760,-0.014935440
1640790540.943320,0.488037230,0.162368510,9.445009230,0.017504390,0.004227460,-0.032100080
1640790540.946040,-0.051543330,0.332866100,11.205627440,-0.077542660,-0.066408510,-0.040359790
1640790540.951120,0.316222310,0.404466600,9.133951190,-0.130854550,-0.001196560,-0.019261240
1640790540.951400,-0.050447460,0.039278100,9.488711360,-0.030654670,-0.108109420,-0.056569280
1640790540.953330,-0.477938000,-0.074384910,9.932376860,0.069627150,0.039498510,-0.058822330
1640790540.955740,0.042678150,-0.041043650,8.602144240,0.106531400,0.026173890,-0.036214290
1640790540.958410,-0.379269540,-0.165074830,10.488416670,0.019016860,-0.024476650,-0.035279990
1640790540.960660,0.089439660,0.192026640,9.476058010,-0.109529500,0.079856800,-0.001481180
1640790540.963480,0.209338340,0.005819830,9.618677140,-0.073122980,-0.032998630,0.006724890
1640790540.967650,-0.186249290,-0.278947170,10.353371620,0.069446870,0.009709600,-0.040212270
1640790540.968310,0.206717850,0.075561960,8.751071930,0.164453690,0.006306170,-0.075769420
1640790540.970690,-0.377360340,-0.039331070,9.961405750,0.121150930,-0.054103140,-0.080980380
1640790540.973460,-0.233997690,0.033283320,9.455926900,-0.020213430,0.031094250,-0.069567570
1640790540.975810,-0.105441590,0.208570930,9.485201840,-0.033128260,-0.017698110,-0.040778520
1640790540.978760,-0.514178220,-0.115674820,10.568602560,0.045767420,0.023385880,-0.018055740
1640790540.980670,-0.212909850,0.069227350,9.577289580,0.163997720,-0.015531480,-0.026364620
1640790540.983310,-0.411660610,0.193750840,9.772462840,0.171826780,-0.099340090,-0.042116640
1640790540.985700,-0.113720740,0.204897930,9.151757240,0.056201230,0.001659990,-0.032721460
1640790540.988700,0.213664160,0.520664040,9.155543330,-0.004357100,0.025978680,-0.051948430
1640790540.990660,0.074066640,0.584779380,10.414708140,-0.010555980,0.050035120,-0.057534880
1640790540.993640,0.296630560,0.677551030,10.151712420,0.061687830,0.001956520,-0.036360320
1640790540.995760,-0.189291510,0.594648060,10.439463620,0.132974980,-0.108304620,-0.060623890
1640790540.999050,-0.466389720,0.394661900,9.651822090,0.075930360,-0.095535810,-0.036185980
1640790541.000690,-0.512388230,0.306179700,9.102085110,0.034017850,-0.068832930,-0.002025070
1640790541.003430,-0.639213800,0.098821980,9.791178700,-0.011473890,0.019404290,-0.038442020
1640790541.005660,-0.096940370,0.502169070,9.709235190,-0.032679740,0.040042400,-0.022904570
1640790541.008370,0.000129650,0.724109830,10.529802320,0.003728270,-0.008518990,-0.032508380
1640790541.010950,0.206959160,0.799797000,10.124599460,-0.024430460,-0.037880250,-0.074121360
1640790541.013410,0.294285950,1.087228060,9.409377100,-0.032711030,-0.099782640,-0.030246370
1640790541.015940,-0.146721850,0.472171460,9.805615430,-0.021713970,-0.048844520,-0.023867190
1640790541.018360,0.014773700,0.121637520,9.277971270,-0.003793840,-0.007675590,-0.024569040
1640790541.020790,-0.201000090,0.203943250,10.003185270,0.015661120,-0.028005250,-0.008416180
1640790541.023360,-0.079245920,-0.110470490,10.068743710,-0.067034360,0.031811000,-0.023543830
1640790541.025700,0.198653250,0.188707470,9.546722410,-0.108590740,-0.005514920,-0.020128490
1640790541.028440,-0.093080310,0.212373140,9.960919380,-0.080686830,-0.018210710,-0.015269220
1640790541.030650,0.190248740,-0.190835490,9.247071270,-0.004507600,-0.006660820,-0.020086760
1640790541.033400,-0.023216010,0.009508790,9.590333940,0.094610450,-0.032341480,-0.026132160
1640790541.035810,-0.165713280,-0.103025420,9.956121440,0.035303830,0.007773940,-0.032004710
1640790541.038410,-0.025946040,-0.106439370,9.747656820,-0.057321790,0.001676380,-0.018726290
1640790541.040750,-0.343347820,-0.072171050,10.028074260,-0.054822860,-0.009654460,-0.039580470
1640790541.043420,-0.085545830,-0.217310950,9.582963940,0.005152820,-0.003018980,-0.040104980
1640790541.045810,-0.163506700,-0.113670460,9.497080800,0.149986160,-0.012196600,-0.031870600
1640790541.048380,-0.073763580,0.161221330,9.355161670,0.133709620,-0.023984910,-0.038665540
1640790541.050680,0.240291700,0.255002230,9.580193520,-0.000777840,0.036457180,0.025714930
1640790541.053380,0.034394170,0.116283330,10.154039380,-0.039340560,0.079542400,0.023429090
1640790541.055670,-0.031069820,-0.102813100,10.551318170,0.047495960,-0.026467440,-0.028035040
1640790541.058250,-0.396080370,0.031032000,10.156978610,0.178135950,-0.075179340,-0.045496230
1640790541.060950,-0.496485470,0.198916110,9.006827350,0.170414190,-0.101001560,-0.072780250
1640790541.063380,-0.474100230,0.431171000,9.364579200,0.033426290,-0.043860080,-0.039228810
1640790541.065960,-0.244831010,0.578517850,9.421224590,-0.044591720,0.112549960,0.003780420
1640790541.068740,0.063208660,0.464797020,10.445080760,0.014139710,0.020553170,-0.001558660
1640790541.070620,0.017070820,0.691766020,11.049939160,0.109179330,-0.014026460,-0.010362270
1640790541.073440,0.167750120,0.990145270,9.431785580,0.081409510,-0.089041870,-0.010733310
1640790541.075700,-0.090841710,0.716645120,9.774044990,-0.023406740,-0.118033580,0.001366440
1640790541.078670,-0.176396090,0.451426890,9.249019620,-0.053700810,0.042496620,0.002650920
1640790541.080740,0.027548020,0.128481190,9.409089090,0.008739530,-0.016003850,-0.006833670
1640790541.083410,-0.256792690,-0.044018880,10.973747250,0.083228950,0.021226700,-0.002065300
1640790541.085850,0.032461530,0.334599140,9.480802540,0.022917990,0.005252660,-0.021193920
1640790541.088310,-0.133467670,0.386013570,10.158391000,-0.104366240,-0.132329780,0.000096860
1640790541.090660,-0.263312310,0.273120190,9.748365400,-0.106553730,0.019133090,0.023894010
1640790541.093290,0.203507300,0.273791370,8.744690900,-0.000013410,-0.025638940,-0.018964710
1640790541.095790,-0.064375810,0.388074430,10.568153380,0.074006620,-0.003679100,0.001369420
1640790541.099300,0.304554820,0.539626360,9.459413530,0.002543630,0.091396260,0.006358330
1640790541.100860,0.313586890,0.391942020,10.078412060,-0.107705590,-0.066587320,-0.001966950
1640790541.103320,-0.258815770,0.143737940,10.557186130,-0.114287440,-0.012084840,0.039501490
1640790541.105690,0.033996050,-0.319822190,8.599997520,0.014464560,-0.060360130,0.030811130
1640790541.108320,-0.405160070,-0.652093710,9.978036880,0.129343580,-0.073461230,0.014717880
1640790541.111060,-0.155703440,-0.317973520,9.287205700,0.082969660,0.112514180,0.010669230
1640790541.114850,0.251534730,-0.165397200,9.648694040,-0.047430390,0.013360380,-0.008569660
1640790541.115780,0.055075740,0.169244890,10.671750070,-0.113834450,0.054399670,-0.004594030
1640790541.118340,0.474664210,0.552776750,9.172739980,-0.045815110,0.023554270,-0.004065040
1640790541.120670,-0.212790520,0.166990950,10.315654750,0.119988610,-0.101977580,-0.008031720
1640790541.123260,-0.596030180,0.099739260,9.449186330,0.195790830,-0.058111550,0.009986760
1640790541.125680,-0.307020600,-0.067638250,8.705371860,0.119064760,-0.076146440,0.018939380
1640790541.128410,-0.615253510,-0.490934250,10.332086560,0.003290180,0.101692970,0.037407880
1640790541.130750,0.038049500,-0.078105220,9.753066060,-0.020459300,0.112932920,0.011439620
1640790541.133340,0.072490820,0.175799520,10.675848960,0.047576430,-0.042989850,-0.007604060
1640790541.135870,0.281877640,0.469753060,9.685193060,0.088176130,-0.017237660,0.006087120
1640790541.138250,0.410672840,0.769180300,8.876281740,0.119374690,-0.065979370,-0.003583730
1640790541.140690,-0.194403470,0.436833020,10.129327770,0.085102030,-0.008080900,0.022867320
1640790541.143380,-0.101698870,0.360704870,9.526034360,0.063398470,0.025291740,0.045140080
1640790541.145960,-0.477839350,0.259894040,10.506757740,0.060363120,-0.049421190,0.009842220
1640790541.148370,-0.576251920,0.354560200,10.303696630,0.006769600,0.009840730,0.016857680
1640790541.151410,-0.382101540,0.731501940,9.464115140,0.016054510,-0.074125830,0.005735460
1640790541.153310,-0.478558330,0.783051910,9.936241150,-0.007517640,-0.055357820,-0.016640130
1640790541.155680,0.294152620,1.009701610,8.745093350,-0.027216970,0.053645670,0.026881690
1640790541.158280,0.273202960,0.863793370,10.247270580,-0.004707280,0.025956330,0.028745830
1640790541.161200,0.168702620,0.535342630,10.892759320,-0.023803120,0.047419970,0.023369490
1640790541.163330,0.214018020,0.717759610,9.853709220,-0.044488910,-0.113484270,0.034016370
1640790541.165700,-0.431192930,0.304894270,10.315660480,-0.088432440,-0.139234970,0.018666680
1640790541.168770,-0.170373660,0.139334440,8.691447260,-0.108481930,0.008374450,0.026656680
1640790541.170690,-0.235725610,0.200705600,9.438261030,-0.038620830,0.007957220,0.027358530
1640790541.173310,-0.229016620,0.053094200,10.612553600,-0.030642740,0.088316190,0.022284680
1640790541.175720,0.421846180,0.554216860,9.552494050,-0.078414390,0.007431210,0.020708140
1640790541.178380,-0.016359360,0.765622680,10.643174170,-0.167557610,-0.079382960,0.021697580
1640790541.180900,0.124372830,0.532920300,9.555102350,-0.196801140,0.001184640,0.040292740
1640790541.184460,0.008863150,0.310397420,9.137660030,-0.063629450,-0.074540090,0.025337930
1640790541.185670,-0.299598870,-0.050620300,10.053080560,0.013087690,0.010906160,0.017021600
1640790541.188320,0.248609480,-0.162207370,9.184174540,-0.009223820,0.080236800,0.031970440
1640790541.190660,-0.083355020,-0.179464890,10.379670140,-0.091703220,-0.012984870,0.029179450
1640790541.193550,0.068262240,-0.183520530,10.101411820,-0.194935520,0.022880730,0.059933970
1640790541.196620,0.259351370,-0.176402880,9.163113590,-0.113543890,-0.019188230,0.065425050
1640790541.198780,-0.186718080,-0.328216280,9.908153530,0.021587310,-0.004802640,0.022161010
1640790541.200860,0.053063810,-0.035221580,9.309453960,0.074566900,0.044338410,0.015978520
1640790541.203370,-0.091971170,0.177484470,9.684551240,0.013564530,0.002689660,-0.003740190
1640790541.205690,-0.092598670,0.249168840,10.014073370,-0.123892730,0.034140050,-0.000792740
1640790541.208300,-0.046710200,0.307434170,9.779655460,-0.107519340,0.041425230,0.048245490
1640790541.211090,-0.420483950,-0.101518860,10.125996590,0.027278070,-0.017063320,0.045935820
1640790541.213460,-0.316773680,-0.231825890,9.673200610,0.147369520,-0.056308520,0.053730610
1640790541.217660,-0.303020720,-0.161978410,9.169662480,0.121282060,-0.004899500,0.047832730
1640790541.218380,0.018799930,-0.288019870,9.403734210,-0.021412960,0.048205250,0.031188130
1640790541.220650,0.224004600,-0.013110590,10.044079780,-0.075985480,0.098554800,0.015684960
1640790541.223260,0.348878000,0.365698990,10.019559860,-0.029632450,0.058861070,0.002442300
1640790541.225750,0.218500760,0.483281110,10.380275730,0.068968520,-0.041241940,0.023648140
1640790541.228620,-0.207977460,0.587935150,9.783771510,0.129343570,-0.062493980,0.027282540
1640790541.233240,-0.369960010,0.408043620,9.057117460,0.062230230,-0.083038210,0.038367510
1640790541.234590,-0.621986990,0.046450570,9.862115860,0.024069850,0.034651170,0.063472990
1640790541.235690,-0.475706010,0.038676290,9.837715150,0.019513070,0.114549700,0.026586660
1640790541.238300,-0.282226030,0.402402040,10.599824910,0.003929440,-0.018973650,0.011731680
1640790541.240770,-0.193614510,0.874878290,10.331557270,-0.013934080,-0.006607170,0.019730630
1640790541.243390,0.275367230,1.079915880,9.014619830,-0.064976510,-0.062923130,-0.004330280
1640790541.246110,0.184595210,1.020989890,9.930068020,-0.061777250,-0.007726250,0.039103630
1640790541.249510,0.149088730,0.695262790,9.869213100,0.012572110,0.092618170,0.052554920
1640790541.251900,0.144855840,0.274035840,10.363304140,0.027962030,-0.046718120,0.032293800
1640790541.253280,-0.328298030,0.400497590,10.830261230,-0.040048360,-0.040745740,0.045438110
1640790541.255680,-0.157039310,0.326469060,9.184432030,-0.139985980,-0.045323370,0.040526690
1640790541.258270,-0.243846330,0.233514040,9.626822470,-0.163881500,-0.046460340,0.028070810
1640790541.260990,-0.151155810,0.613793850,9.545171740,-0.090941790,0.099763280,0.025837130
1640790541.263660,0.247947080,0.475930480,9.725905420,-0.043401120,0.051541620,0.029413400
1640790541.265720,0.031940900,0.588654340,10.893486020,-0.051179530,0.006447730,0.025302180
1640790541.268530,0.059990750,0.760692300,9.960582730,-0.148440910,-0.033971670,0.033941870
1640790541.270640,-0.036088240,0.117102390,9.854434010,-0.191214700,-0.082896650,0.055228180
1640790541.273310,-0.322219910,-0.115683740,9.586980820,-0.104402030,0.031995770,0.039213910
1640790541.275890,-0.010231530,-0.243942570,9.126352310,-0.018791850,0.038072470,0.037465990
1640790541.278290,0.008920590,-0.494793210,10.029610630,0.001360480,0.063486400,0.059282790
1640790541.281000,0.225524600,-0.062113620,9.654680250,-0.086328390,0.064042220,0.035339600
1640790541.284100,0.326543510,0.132095550,10.058036800,-0.188116730,-0.013852120,0.061690810
1640790541.285690,0.023820470,-0.060028460,9.991756440,-0.148291900,0.034137070,0.062493990
1640790541.288270,0.031841100,-0.037403920,9.398823740,0.007539990,-0.001299380,0.004538890
1640790541.290710,-0.436445500,-0.104067970,10.222324370,0.103309760,0.011271240,0.001898410
1640790541.293440,-0.482309670,-0.097811980,9.386758800,0.044937430,0.034223490,0.009658930
1640790541.296180,-0.289715020,0.043519560,9.672454830,-0.073041020,-0.042057040,0.013893840
1640790541.298340,-0.306542130,0.011583850,9.857934000,-0.125598890,0.098825980,0.068446990
1640790541.300780,0.113753620,-0.056225110,9.511467930,-0.021709500,0.064332780,0.070820740
1640790541.303300,-0.107907060,-0.071027610,10.793106080,0.116020440,-0.012168290,0.029204790
1640790541.305710,0.081012360,0.110929020,9.389263150,0.108055790,0.000858310,0.021718440
1640790541.309270,0.196133550,0.146119740,9.352651600,0.012658540,-0.056880720,0.010129810
1640790541.310740,-0.200999990,0.076741240,10.267887120,-0.074450670,0.093361740,-0.003834070
1640790541.313510,-0.001662110,0.224249150,9.618762020,-0.026085970,0.026123230,0.016297400
1640790541.315740,-0.500308280,0.058145950,10.951384540,0.101001560,-0.065971900,0.006373230
1640790541.318290,-0.443475430,0.239124660,9.543807030,0.111381730,0.004537400,0.003251430
1640790541.320640,-0.305578710,0.526474420,9.323688510,0.057408210,-0.070677710,0.040842590
1640790541.323280,-0.537202540,0.403102670,10.293924330,-0.036697090,0.054608290,0.030407310
1640790541.325780,0.245368850,0.791826010,9.033514980,-0.080753860,0.051614650,0.025928030
1640790541.328300,0.146806850,1.006560090,10.775587080,-0.025609140,-0.020958480,0.024575000
1640790541.330930,0.351625920,0.779006420,10.027726170,-0.002025070,0.084292900,-0.007425250
1640790541.333330,0.435237530,0.814668180,9.543328290,0.004407760,-0.069847720,-0.005382300
1640790541.335680,-0.376049160,0.326924230,10.694887160,-0.013814870,-0.020796060,0.030104820
1640790541.338320,-0.160758470,-0.238122420,8.804692270,-0.036993620,0.001187620,0.034169850
1640790541.340940,-0.442778970,-0.183259250,9.950130460,-0.010626020,-0.084078310,0.024439390
1640790541.343340,-0.375826660,-0.150422780,9.944254880,-0.051124410,0.130152700,0.022181870
1640790541.346170,0.400753140,0.188301380,9.096685410,-0.082109880,0.041998930,0.005872550
1640790541.348340,0.119737370,0.584135120,10.941925050,-0.065919760,0.041998930,-0.002668800
1640790541.350980,0.606514040,0.498064190,9.322839740,-0.062276420,0.095452360,0.016321240
1640790541.353310,0.289534030,0.311877820,9.887066840,0.022408370,-0.102254760,0.020742420
1640790541.355890,-0.254623920,0.133480270,10.085526470,0.035482650,0.013695660,0.020360950
1640790541.358350,0.138643290,-0.249258060,8.564901350,-0.016672910,0.031660500,0.045722730
1640790541.360710,-0.540184320,-0.464557350,10.705816270,-0.020852690,0.035539280,0.017011170
1640790541.363630,-0.232941310,-0.384235440,9.666777610,-0.039495520,0.137920650,0.011578200
1640790541.365760,0.096348590,-0.399893760,9.489654540,0.041534010,-0.027951600,0.033600630
1640790541.368280,-0.212454970,-0.164234710,10.320324900,0.100323570,0.043489040,-0.003147130
1640790541.370660,0.447291400,0.249521460,8.646038060,0.038348140,0.055891280,0.006978210
1640790541.373450,0.014700120,0.216141270,10.257643700,0.011333820,0.007848440,0.044572350
1640790541.375780,-0.027369300,-0.121550840,9.951358800,0.030720240,0.129888970,-0.006595250
1640790541.378280,-0.114933070,-0.224511280,9.744935990,0.149023530,-0.020492080,-0.017587840
1640790541.381180,-0.824061160,-0.227490250,10.488765720,0.203254830,-0.050464270,-0.004944210
1640790541.383330,-0.341072470,-0.210567530,8.557191850,0.127297640,-0.017413500,-0.022824110
1640790541.385680,-0.377549200,0.036904690,9.453714370,0.059783460,0.006476040,0.028593840
1640790541.388710,-0.147030460,0.048675270,9.994130130,0.047618150,0.182862580,0.045245890
1640790541.390670,0.303064380,0.051253130,10.073246000,0.137925160,0.041508670,0.006960330
1640790541.393280,-0.049498800,0.450229470,10.861160280,0.220392660,-0.040334460,-0.001430510
1640790541.395740,0.036789830,0.574447810,9.248358730,0.153909590,-0.051696590,-0.021754200
1640790541.398450,-0.255870760,0.581603880,9.159001350,0.071230530,-0.101020940,-0.024950510
1640790541.400780,-0.414345260,0.695213560,9.510066990,0.048758090,0.064909470,-0.005796550
