timestamp,accel_x,accel_y,accel_z,gyro_x,gyro_y,gyro_z
1645506130133250048,-0.405735610,0.180125830,10.089078900,-0.000384450,-0.014565890,-0.036855050
1645506130134139904,-0.310569260,0.407777250,10.078196530,0.014056270,-0.016421080,-0.013402100
1645506130138190080,-0.141403940,0.745042800,9.272048000,0.000795720,-0.047004220,-0.011013450
1645506130139180032,0.156426440,0.502001940,9.674762730,-0.051169100,0.016590950,0.006289780
1645506130143409920,0.174840200,0.479820880,9.948098180,-0.043179090,0.099948060,0.016659500
1645506130145099776,0.114679640,0.191845210,10.310222630,0.027816000,0.009240210,0.000108780
1645506130148219904,0.026286350,0.034089290,10.386857990,0.045515590,-0.066345920,0.005510450
1645506130149159936,-0.164827530,0.298258220,9.117418290,-0.005254150,-0.062078240,-0.006903710
1645506130154539776,-0.186745150,0.102900840,9.118317600,-0.095254180,-0.008201600,-0.023041660
1645506130155419904,-0.226906730,0.188883690,9.654479980,-0.075699370,0.074066230,-0.021502370
1645506130158459904,-0.221845370,0.250169160,9.996412280,0.032854080,0.063912580,-0.014343860
1645506130159190016,-0.212987140,0.071960350,10.601420400,0.060707330,-0.033213200,0.000058110
1645506130163379968,-0.314399180,0.165511380,9.861269000,0.031350550,-0.057473790,0.026734170
1645506130164219904,-0.183357480,0.014290390,9.243636130,-0.023740530,-0.058206930,0.007429720
1645506130168289792,-0.166283890,-0.033533220,9.431765560,-0.037650760,0.010062760,0.000059600
1645506130169220096,-0.063447770,0.222827170,9.591113090,0.015136600,0.071914490,-0.026464470
1645506130173519872,0.073790400,0.396537360,10.246776580,0.019831960,0.036606190,-0.022256380
1645506130174969856,-0.067910430,0.553748130,10.415225030,0.024992230,-0.050759320,0.011977550
1645506130178999808,-0.073328120,0.610885620,9.673192980,-0.008884070,-0.073747340,0.020970400
1645506130181189888,-0.113682660,0.446327270,9.371556280,-0.034551320,-0.016000870,0.023059540
1645506130183399936,-0.264434990,0.222720550,9.816551210,-0.002732870,0.039418050,0.005047020
1645506130184249856,-0.256297080,0.143753100,10.213913920,0.027397280,0.046260650,-0.005634130
1645506130188519936,-0.204945270,0.241735950,10.021492000,0.030681490,-0.063130260,-0.004601480
1645506130190039808,-0.125138580,0.356000900,9.738288880,-0.039660930,-0.070299220,0.000631810
1645506130193399808,0.166706640,0.359157000,9.025590900,-0.087580110,0.037574780,0.013062360
1645506130194299904,0.125392290,0.130563510,9.899819370,-0.005529820,0.034868720,0.002209840
1645506130198439936,0.073660280,0.092991350,10.371480940,0.056700420,0.033153590,0.009483100
1645506130199669760,0.160355030,0.214592900,9.507868770,0.048971190,-0.041125730,0.023467840
1645506130203320064,-0.132967990,0.000280430,9.987025260,-0.035816430,-0.048860910,0.001394750
1645506130204369920,-0.272140410,0.051285130,9.524524690,-0.067138670,0.022147600,-0.005009770
1645506130208410112,-0.300234110,0.243452800,9.606114390,0.017982720,-0.050182640,-0.030530990
1645506130209369856,-0.355619550,0.351018310,10.117242810,0.034224980,0.022381540,-0.027754900
1645506130213469952,-0.052456670,0.620775280,9.578269960,0.006678700,0.063116850,-0.000780820
1645506130214279936,-0.162685170,0.503318670,10.585717200,-0.018663710,-0.024493040,0.010444220
1645506130218289920,-0.168040380,0.338915470,9.970003130,-0.035355990,-0.041277710,0.034359110
1645506130219300096,0.081226660,0.338756560,9.158364300,0.016266110,-0.066429380,0.016872590
1645506130223369728,-0.111525390,0.268848750,9.818851470,0.003553930,0.032569470,-0.006403030
1645506130224189952,-0.019031730,0.372002870,9.694643970,-0.036457180,0.045076020,-0.004518030
1645506130228859904,0.041260230,0.391845880,10.104619980,-0.026947260,-0.027504560,-0.001525880
1645506130230919936,-0.040857980,0.270114990,9.931590080,-0.037978590,-0.006565450,-0.001579520
1645506130233270016,0.057696850,0.210330640,9.509691240,-0.009018180,-0.014899670,0.016935170
1645506130234149888,-0.178620090,0.051172110,9.829686160,0.028307740,-0.003242490,0.007283690
1645506130239189760,-0.190478590,-0.124081040,9.601813320,0.008808080,-0.006733840,0.002303720
1645506130241609728,-0.131321770,-0.024468220,9.837646480,0.012329220,-0.001907350,0.000734630
1645506130243340032,-0.294516920,0.010024150,9.927680970,-0.016568600,0.019852820,-0.018110870
1645506130244459776,-0.236390930,0.095228040,10.051885600,-0.012163820,-0.041277710,-0.021168590
1645506130248719872,-0.145095360,0.537503960,9.784872060,0.035989280,-0.019469860,-0.008304420
1645506130249760000,0.020610140,0.603173550,9.499773980,0.013239680,-0.010387600,0.001657010
1645506130253459968,0.074381900,0.575774850,10.088268280,-0.019180780,0.028672820,0.027050080
1645506130254259712,-0.035105100,0.543593170,9.803981780,0.000599030,0.034226480,0.022298100
1645506130258349824,-0.044357230,0.239198150,10.078011510,0.016427040,-0.078597660,0.018538530
1645506130259119872,-0.197457400,0.360950050,9.852963450,0.017504400,-0.033015020,0.024504960
1645506130263429888,-0.201378810,0.353086680,9.165136340,-0.025132300,-0.024059410,-0.015109780
1645506130264259840,-0.207203490,0.162310480,10.065935130,-0.062309210,-0.005306300,-0.020176170
1645506130269949952,-0.193012190,0.282821330,9.741092680,-0.020229810,0.053949650,-0.022323430
1645506130271669760,0.041855010,0.012819140,9.825888630,0.024621190,-0.016541780,-0.012864170
1645506130273459968,-0.119024990,-0.003842380,10.344112400,0.035063930,-0.017508860,0.024519870
1645506130274279936,-0.082056540,0.104663030,9.228116040,0.004374980,-0.037314000,0.017586350
1645506130278759936,0.018719750,-0.145474750,9.641368870,-0.021870430,-0.067269810,0.022630390
1645506130279789824,-0.165260700,-0.012262650,9.751300810,0.007420780,0.048929460,0.004610420
1645506130283309824,-0.081327100,0.192686780,9.764106750,0.031861670,0.035902860,-0.029625000
1645506130284250112,-0.316217720,0.394038020,10.714401250,0.031745440,-0.062975310,-0.015383960
1645506130288209920,-0.269355120,0.841655670,9.522586820,0.006851550,-0.066044910,-0.008720160
1645506130289229824,0.027901480,0.913372520,9.264924050,-0.059561440,-0.049285590,0.006701050
1645506130293399808,-0.140803430,0.657567260,10.004268650,-0.042532380,0.067520150,0.016030670
1645506130295810048,-0.099782650,0.383624170,9.986535070,0.028894850,0.040234630,-0.013810400
1645506130298419968,-0.126037280,0.250155000,10.371376990,0.063432750,-0.097289670,0.002214310
1645506130299729920,-0.279287160,0.141773100,9.662961960,-0.000247360,-0.084777190,0.013458730
1645506130303369984,0.006618330,0.057441710,9.102061270,-0.100819770,-0.027118630,-0.006483500
1645506130304339968,-0.031365980,-0.017163490,9.732616420,-0.068724140,0.046628720,-0.001010300
1645506130308480000,0.136005570,-0.070367070,10.013623240,0.019729140,0.044482950,-0.026215620
1645506130311769856,0.281665800,0.139918150,10.186609270,0.061988840,0.008909410,-0.004392860
1645506130313259776,-0.081690040,0.236294340,10.036298750,0.034232430,-0.057064000,0.014890730
1645506130318150144,-0.274848670,0.150654030,9.665773390,-0.063674150,-0.109682980,0.005984310
1645506130318739968,-0.289232610,0.228327210,9.050753590,-0.028464200,-0.039313730,0.016471750
1645506130319150080,-0.333656190,0.196258720,9.626993180,0.038577620,0.038844350,-0.028789050
1645506130323340032,-0.258427920,0.454500730,10.506381990,0.029453640,0.083981480,-0.020608310
1645506130324159744,-0.190705240,0.713127610,10.357594490,0.013546650,-0.024919220,-0.011001530
1645506130328649984,-0.085375920,0.487267790,10.187753680,-0.057700280,-0.111134360,-0.012633200
1645506130330519808,0.096202280,0.526354430,9.012379650,-0.036633010,-0.042073420,0.022740660
1645506130333519872,-0.008606800,0.319976540,9.367940900,0.017607210,0.003351270,-0.006066260
1645506130334650112,-0.017288150,0.113813800,10.081722260,0.009185070,0.049690900,-0.007300080
1645506130338309888,-0.017655290,0.259226830,10.151896480,0.014793870,-0.019294020,0.007177890
1645506130340129792,-0.071848510,0.058230470,10.282704350,-0.031578540,-0.059150160,-0.011655690
1645506130343350016,-0.017223280,0.177935030,9.462491990,-0.071664150,-0.045536450,-0.004187230
1645506130344249856,-0.100673880,0.217441810,9.379190440,-0.008349120,0.015823540,-0.011198220
1645506130348899840,-0.133010600,0.131125410,9.846457480,0.016953050,0.012271110,-0.032682720
1645506130350040064,-0.078203780,0.323712590,9.657041550,0.034536430,-0.012661520,0.002194940
1645506130353319936,-0.075826380,0.165222560,9.808659550,0.002868470,-0.010101500,-0.001667440
1645506130354299904,-0.193436260,0.087205170,9.976352690,-0.059008600,-0.013144310,-0.005975370
1645506130360309760,-0.359323440,0.215634170,10.066679950,-0.000715260,-0.030283640,-0.003755090
1645506130360960000,-0.258386550,0.266477560,9.795753480,0.029054290,-0.055947900,-0.026296080
1645506130365550080,-0.099927790,0.478926900,9.465040210,0.006037950,-0.012004380,-0.008751450
1645506130366429952,0.063711660,0.594166460,9.745157240,-0.032195450,0.072006880,-0.006565450
1645506130368599808,0.063604270,0.422600000,10.185542110,-0.058668860,0.034393370,-0.005874040
1645506130370129920,-0.052863390,0.408203240,10.321288110,-0.000721220,-0.076913830,0.011856850
1645506130373459712,-0.070639510,0.276797590,9.596880910,0.020094220,-0.056265300,0.001515450
1645506130374539776,-0.096088570,0.164817450,9.296723370,-0.011838970,-0.039009750,-0.001397730
1645506130378700032,-0.150001960,0.100069970,9.984571460,-0.033096970,0.037693970,-0.007025900
1645506130381289984,-0.040950070,0.072202600,9.738480570,-0.036244090,0.072860720,-0.022105870
1645506130383219968,-0.027977680,0.117054360,10.196198460,-0.015263260,-0.041671090,-0.022067130
1645506130384929792,-0.157670750,0.113912110,10.008366580,0.001206990,-0.003117320,0.003220140
1645506130388399872,-0.148777020,0.082649750,9.206010820,0.013963880,-0.060519570,-0.009441370
1645506130389329920,-0.278457160,0.032310350,9.919362070,0.031249230,-0.053223980,0.015081470
1645506130395320064,-0.227958660,0.072764430,9.502050400,0.001148880,0.069051980,0.002789500
1645506130397539840,-0.103093520,0.223182980,10.078192710,-0.017094610,0.010025500,-0.019663570
1645506130400270080,-0.296587440,0.406608250,10.994764330,-0.006324050,0.005276500,-0.010454650
1645506130400819968,-0.087459820,0.670783400,9.465532300,0.000275670,-0.077340010,-0.008434060
1645506130403329792,0.020310640,0.774329130,9.468212130,-0.006836650,-0.106090320,-0.002314150
1645506130404219904,0.052057110,0.668579460,9.188762660,-0.041739640,0.078296670,0.005310770
1645506130408429824,0.204632570,0.463900540,9.537752150,-0.028952960,0.063841040,-0.004932280
1645506130409220096,-0.050856050,0.163764690,10.966545100,0.013919180,-0.000293550,0.006157160
1645506130413910016,-0.163439450,0.042260310,9.992836950,0.005160270,-0.071884710,0.006887320
1645506130416960000,-0.091498550,-0.000405820,9.425992010,-0.026860840,-0.103980300,0.002844630
1645506130418299904,-0.422648070,-0.180909280,9.612351420,-0.043879450,0.032025580,-0.020487610
1645506130419159808,-0.232624130,-0.068566440,9.310550690,-0.011502210,0.037033860,-0.026932360
1645506130423310080,-0.161877510,0.147748710,10.118678090,0.041539960,0.014011560,-0.017419460
1645506130424219904,-0.178385320,0.228428710,10.019920350,0.007727740,0.006292760,-0.006730850
1645506130428979968,-0.017711770,0.402259140,10.011415480,-0.018878280,-0.065281990,0.019741060
1645506130431639808,-0.136496600,0.415347370,9.910070420,-0.007864830,-0.026793780,0.024665900
1645506130433309952,-0.084208140,0.269480970,9.715507510,0.010833150,-0.025373700,0.007277730
1645506130436069888,-0.079366280,0.562925760,9.963260650,0.018735230,0.022557380,-0.000795720
1645506130438259968,-0.186248840,0.569773020,9.955350880,-0.018797820,0.010286270,-0.005942580
1645506130440169728,-0.058008800,0.455666240,9.981060030,-0.049176800,-0.061111150,-0.000491740
1645506130443599872,-0.000141060,0.612220880,9.367376330,-0.031399730,-0.022622940,0.009536740
1645506130446359808,0.014823300,0.092671570,9.517892840,-0.015607480,-0.005519390,-0.002485510
1645506130448359936,-0.026785310,0.055275850,10.175082210,0.009515880,0.029316550,0.012342630
1645506130449929984,-0.082638920,0.056930700,9.979982380,0.021564960,0.008741020,0.003388520
1645506130454469888,-0.117515380,-0.295929520,10.287460330,-0.024971370,-0.068423160,0.000368060
1645506130455159808,-0.224846040,0.077380160,9.608115200,-0.031937660,-0.023603440,-0.000606480
1645506130458390016,-0.177480530,-0.013365040,9.117954250,-0.015275180,-0.012700260,-0.025022030
1645506130461459968,-0.169320270,0.118372940,9.878667830,0.017112500,-0.004252790,-0.017169120
1645506130463279872,0.007611270,0.670596300,9.557200430,0.042748450,0.037148600,-0.007571280
1645506130464569856,0.185654680,0.416275290,10.144548420,-0.013272460,-0.007385020,0.001515450
1645506130468349952,-0.011403210,0.450951040,10.441246030,-0.033806270,0.008040670,0.016225880
1645506130469229824,-0.031679020,0.345694040,9.701553340,0.011505190,-0.024306770,0.001625720
1645506130473520128,-0.200548530,0.095043690,10.005712510,0.038598480,-0.076539810,0.008253750
1645506130474289920,-0.320616690,0.475955750,9.351516720,0.024327640,0.000283120,-0.002223250
1645506130479419904,-0.185792340,0.349741580,9.322731970,-0.052987040,0.011555850,-0.024469190
1645506130481479936,-0.131021720,0.304758130,10.071602820,-0.066491970,0.019970540,-0.003372130
1645506130483320064,0.052381600,0.320150200,9.929947850,0.000932810,0.046429040,-0.018267330
1645506130484189952,0.184326480,0.040518460,10.188119890,0.053413200,-0.014740230,-0.008057060
1645506130488449792,-0.006067600,0.042780910,10.064739230,0.054110590,-0.026741630,0.007759030
1645506130489229824,0.097017670,0.004820550,9.308030130,-0.010253490,-0.018404420,0.005321210
1645506130493569792,-0.021025460,-0.166033940,9.543803220,-0.033721330,0.020633640,0.012826920
1645506130494339840,-0.219065460,-0.037436940,9.925851820,0.009129940,0.060869760,-0.020593400
1645506130498429952,-0.251800660,0.185120430,10.013106350,0.047869980,0.008082390,-0.028334560
1645506130499290112,-0.383112640,0.534782230,9.983960150,0.063212220,-0.059872870,-0.019471350
1645506130503350016,-0.248614040,0.721067850,9.721654890,-0.006616120,-0.018689040,0.000938770
1645506130504219904,-0.083369910,0.627792420,9.701215740,-0.041954220,0.061219940,0.022584200
1645506130508469760,-0.132107760,0.464787240,10.232451440,0.017866490,0.036321580,-0.005738440
1645506130511059968,-0.100085740,0.335877210,10.229165080,0.049640240,-0.002530220,-0.003252920
1645506130513809920,-0.067950090,0.454306750,9.392271040,0.052970650,-0.056996950,0.012250240
1645506130515689728,-0.102194790,0.298680930,9.605471610,-0.035765770,-0.050435960,-0.013045970
1645506130518409984,0.024153230,0.105773810,9.343525890,-0.084756310,0.061629720,-0.005279480
1645506130519650048,0.166115730,0.060134600,9.775296210,0.021977720,0.057744980,-0.025755170
1645506130523429888,0.081084590,-0.141108420,10.698678970,0.072857740,0.062619160,-0.029030440
1645506130525809920,0.017524130,0.154250060,9.876595500,0.065632160,-0.013732910,0.002686680
1645506130530619904,-0.240931750,0.109243080,9.852455140,-0.009064370,-0.081835680,0.003993510
1645506130531229952,-0.365285430,-0.010898550,9.287553790,-0.059689590,-0.020870570,0.006820260
1645506130533360128,-0.322929530,0.174488200,9.213932040,0.045652690,0.032852590,-0.008617340
1645506130534159872,-0.310017760,0.326035200,10.309476850,0.089746720,0.079700350,-0.041994450
1645506130538220032,-0.190060450,0.790405270,10.254551890,0.027289990,0.034445530,-0.017198920
1645506130539209728,-0.060112830,0.938044670,10.289394380,-0.040392580,-0.041726240,0.004227460
1645506130543369984,-0.069769940,0.686854420,9.803197860,-0.074219710,-0.046078860,0.007218120
1645506130544250112,0.095956860,0.568544570,9.122675900,0.011606520,-0.005798040,0.011350210
1645506130548969984,0.053912140,0.322818160,9.706706050,0.064007950,0.067846480,-0.013473630
1645506130549679872,-0.021783250,0.148602080,10.090209960,0.005300340,0.039847200,-0.015781820
1645506130553380096,0.005805340,0.150467600,10.187783240,-0.053296980,-0.024676320,-0.007398430
1645506130554189824,-0.049963720,-0.001423770,9.766216280,-0.088281940,-0.011590120,-0.011663140
1645506130558419968,-0.075081010,-0.075966610,9.524748800,-0.038765370,-0.000070040,-0.006836650
1645506130559299840,-0.199271740,0.033676040,9.875742910,0.061824910,0.052922970,-0.002270940
1645506130563709952,-0.245154320,0.091257190,9.795180320,0.052817170,-0.005632640,-0.005628170
1645506130564450048,-0.143739090,0.245748640,10.017067910,-0.018075110,-0.022286180,0.028581920
1645506130568259840,-0.132409360,0.314101790,9.661431310,-0.066180530,0.064486270,0.012949110
1645506130569190144,-0.197852820,0.177591800,10.138450620,-0.033807770,-0.001870100,-0.015378000
1645506130573400064,-0.370919880,0.364984570,10.501026150,0.064352150,-0.010697550,-0.014072660
1645506130574269952,-0.181495890,0.646871570,9.252364160,0.062024590,-0.064149510,-0.021792950
1645506130578459904,-0.011393180,0.659359220,9.675926210,-0.046309830,-0.027178230,0.011712320
1645506130580279808,0.025152370,0.559240400,9.766201020,-0.103457280,0.130392630,0.021196900
1645506130583360000,0.039951440,0.200113610,10.207318310,-0.031135980,0.020152330,0.012081860
1645506130584260096,-0.155486330,-0.018224780,10.850676540,0.082087530,-0.056457530,0.027473280
1645506130588489984,-0.174508940,0.033055770,9.164111140,0.074432800,-0.053364040,0.010079150
1645506130590649856,-0.174837100,-0.103770900,9.368826870,-0.033889710,-0.049975510,0.004118680
1645506130593359872,-0.273920540,-0.074132920,9.864567760,-0.086401400,0.091896960,0.000411270
1645506130594220032,-0.054452240,0.141596230,9.589448930,-0.025014580,0.046814980,-0.021415950
1645506130599429888,-0.057598110,0.283984270,10.640427590,0.058418500,-0.020602350,-0.002574920
1645506130600430080,-0.129090120,0.409590720,9.843017580,0.067859890,0.018443170,0.014077130
1645506130603299840,-0.111888920,0.330245880,9.630693440,0.030352170,-0.075229990,0.030878190
1645506130604389888,-0.299978350,0.152892860,10.018830300,-0.001043080,-0.029662250,0.051964820
1645506130608599808,-0.178626480,0.090140830,9.246587750,-0.005778670,0.042240320,0.007137660
1645506130609200128,-0.166043920,0.187619120,10.273669240,0.028346480,0.030326850,0.001677870
1645506130614039808,-0.354431810,0.337648540,10.560868260,0.040864940,0.009445840,-0.006692110
1645506130615139840,-0.097035800,0.551354350,9.687071800,0.015071030,-0.106801100,-0.007978080
1645506130618309888,0.016560450,0.691525760,9.562852860,-0.019967560,-0.034999850,0.020678340
1645506130619149824,-0.008246240,0.398702410,9.502114300,-0.027067960,0.067621470,0.012034180
1645506130623499776,0.030073980,0.296026020,10.312238690,0.023625790,0.036756700,0.020624700
1645506130624229888,-0.104974540,0.259880600,10.441035270,0.073313710,-0.021943450,0.037735700
1645506130628499968,-0.072502700,0.029013650,9.766409870,0.013665860,-0.090761500,0.022764510
1645506130629299968,-0.035897560,0.183705780,9.371878620,-0.042147930,0.002190470,0.025878850
1645506130633270016,-0.124522650,0.010243930,9.515419960,-0.023321810,0.050465770,-0.005285440
1645506130634219776,-0.056552470,-0.005111240,10.123404500,0.033836070,0.023303930,-0.008185210
1645506130638259968,0.003140100,0.467657360,9.852400780,0.078859930,0.017225740,0.005134940
1645506130640130048,-0.093587080,0.249520820,9.987549780,0.002129380,-0.025486940,0.018408890
1645506130643339776,-0.245840470,0.248443870,10.152828220,-0.028902290,-0.009560590,0.048878790
1645506130644409856,-0.306560750,0.217865240,9.723233220,0.042788700,-0.029583280,0.032782560
1645506130648269824,-0.288966150,0.106717740,9.979571340,0.064674030,-0.033044820,0.004608930
1645506130649169920,-0.114514970,0.702754380,9.545247080,0.025492900,0.038938230,0.011773410
1645506130653359872,0.000089640,0.634626690,9.935276030,-0.051429880,0.039590900,0.011330840
1645506130654179840,0.073768900,0.532669190,10.379775050,-0.063399980,-0.001999740,0.029769540
1645506130658289920,0.164230820,0.623228910,9.693145750,0.032402580,-0.036583840,0.033016510
1645506130659200000,0.172108280,0.209102360,9.690566060,0.045488770,-0.023706260,0.018544500
1645506130663529984,0.004712000,0.258884190,9.819765090,0.007432700,0.042988360,0.023937230
1645506130664439808,-0.080597750,0.067293380,9.914441110,-0.028052930,0.046309830,0.018246470
1645506130668720128,-0.232148960,-0.237714260,10.271353720,-0.041362650,-0.033247470,0.003704430
1645506130669900032,-0.266016780,0.054888660,9.551012040,0.014206770,-0.020672380,-0.001104180
1645506130673529856,-0.221939470,0.015839090,9.349812510,0.043314700,0.006161630,-0.016164780
1645506130674819840,-0.334077750,0.293222670,9.923074720,0.014531620,0.018511710,0.000834470
1645506130678439936,-0.039214860,0.457965730,9.901432990,-0.011730200,0.037415330,0.037589670
1645506130679200000,0.060575500,0.190943670,10.209980960,-0.011900070,0.024349990,0.039397180
1645506130683349760,-0.044218380,0.418149500,10.358921050,0.037811700,-0.004845860,0.030435620
1645506130684540160,-0.084986610,0.457033750,9.858329770,0.047335030,-0.035119060,0.022970140
1645506130688209920,-0.217366960,0.512802060,9.465638160,-0.006210800,-0.056055190,0.006178020
1645506130689139968,-0.195293620,0.616252960,9.556540490,-0.048227610,0.013497470,0.004902480
1645506130693440000,-0.171323630,0.425706450,9.794437410,-0.042350590,0.078991060,-0.004662570
1645506130694350080,-0.080146500,0.438423450,10.108009340,0.008358060,0.002196430,-0.005654990
1645506130698439936,0.014669450,0.239146620,10.303777690,0.020670890,0.010634960,0.030815610
1645506130699179776,-0.011302830,-0.000955270,9.601444240,0.008322300,-0.000178810,0.045821070
1645506130703300096,-0.095042320,-0.125538630,9.901399610,-0.003874300,-0.061671440,0.029872360
1645506130704199936,-0.204933430,-0.338960380,9.615215300,-0.000561770,0.027911360,0.025060770
1645506130708369920,-0.136400890,-0.195556420,9.386542320,0.035667420,0.008831920,-0.006037950
1645506130709280000,-0.246477170,0.013619380,10.467449190,0.034128140,0.022971630,-0.027905410
1645506130713459968,-0.271940140,0.352003280,9.916014670,0.015942750,0.022298100,-0.008399790
1645506130714259968,-0.096344660,0.698005020,9.882815360,0.013729930,-0.078582770,-0.002355870
1645506130718299904,-0.069888750,0.708770390,9.944114690,-0.006575880,0.012731550,0.012493140
1645506130719219968,-0.047209210,0.628050390,9.514064790,0.014458600,0.049439080,0.033777960
1645506130723470080,-0.081938110,0.366818070,10.367303850,0.058004260,-0.000283120,0.018465520
1645506130724249856,-0.362071040,0.258997680,10.177014350,0.047515330,-0.024868550,0.031453370
1645506130728659968,-0.147076890,0.348805010,9.434189800,-0.005872550,-0.089177490,0.032235690
1645506130730190080,-0.162917350,0.223066370,9.778499600,-0.062711540,-0.001285970,0.007805230
1645506130733449984,-0.145196320,0.121134020,9.765556340,-0.034821040,0.069461760,-0.007595120
1645506130734289920,0.124912960,0.220796090,10.205606460,0.059121840,0.020717080,-0.026023390
1645506130739759872,-0.090112660,0.276718880,10.209426880,0.066302720,-0.008451940,-0.005094710
1645506130740619776,-0.087044480,0.307218130,9.564958570,-0.003127750,-0.089284800,0.032301250
1645506130743799808,-0.069465790,0.207565010,9.464159970,-0.041897600,-0.031684340,0.032092630
1645506130745990144,-0.199252190,-0.002480600,9.533819200,-0.006684660,0.017994640,0.018620490
1645506130748349952,-0.025372250,0.139914710,10.099947930,0.060147060,0.035819410,-0.000312920
1645506130749859840,-0.059829720,0.375708370,10.060292240,0.050210960,0.044517220,-0.018540020
1645506130753270016,-0.077553080,0.293120270,10.216435430,-0.026446580,-0.041233010,-0.007599590
1645506130754200064,-0.079279870,0.464191200,9.880703930,-0.029222670,-0.036759670,0.013874470
1645506130758390016,-0.177008700,0.359146710,9.286425590,0.023727120,-0.068560240,0.005474690
1645506130759680000,-0.137369920,0.267685150,9.738030430,0.034478310,-0.003080070,0.005081300
1645506130763439872,-0.154272900,0.472349850,9.759601590,0.015351180,0.087130080,0.004892050
1645506130764439808,-0.251601790,0.208155900,10.649392130,-0.013419980,-0.012008840,0.006720420
1645506130768679936,-0.251173730,0.351519470,10.529849050,-0.008141990,-0.049734120,0.029760600
1645506130770469888,-0.096008160,0.483074690,9.000459670,-0.000211600,-0.082670140,0.007009510
1645506130773479936,0.073705940,0.274511690,9.300536160,-0.025004150,0.000086430,0.001238290
1645506130774439936,0.100104530,0.392793450,9.593743320,-0.009150800,0.109249350,0.008283560
1645506130778369792,0.105572160,0.206872540,10.167991640,0.030221050,0.010965770,0.009657440
1645506130779310080,0.016095200,0.084086540,10.673053740,0.014629960,-0.053772330,0.017300250
1645506130783689984,-0.130662620,0.204271200,9.522997860,-0.011640790,-0.052239010,0.009259580
1645506130784619776,-0.204923990,-0.078042280,9.440168380,-0.018432740,-0.045798720,-0.003901120
1645506130788300032,-0.416350010,0.095890040,9.770775790,0.010003150,0.036945940,-0.013270980
1645506130789199872,-0.276875560,0.342702450,9.468133930,0.033140180,0.025728350,-0.005839770
1645506130793339904,-0.199514810,0.300341670,10.244851110,0.000579660,-0.008668010,0.005687770
1645506130794429952,-0.125773860,0.514651060,10.074948310,-0.008809570,-0.017540160,0.025600190
1645506130798879744,0.033836380,0.438963860,9.802005770,-0.001867120,-0.045830020,0.029233100
1645506130800150016,0.067837980,0.383427320,10.004016880,0.008508560,-0.006142260,0.009652970
1645506130803289856,0.020973760,0.448166430,9.874628070,0.012980400,0.027865170,-0.009457770
1645506130804239872,-0.017416290,0.414706110,9.993293760,-0.014278290,0.002069770,-0.001682340
1645506130808849920,-0.073588390,0.415873440,9.845646860,-0.017449260,-0.045192240,0.001677870
1645506130813099776,-0.067970570,0.360056070,9.538536070,-0.027240810,-0.026868290,0.012813510
1645506130814749952,0.040141980,0.318476710,9.363574030,-0.024513900,0.039950010,0.012008850
1645506130815229952,0.004186400,0.163877100,10.083168980,0.000947710,0.039348010,-0.003321470
1645506130818209792,-0.063567840,0.046549660,10.258907320,-0.002002720,0.039781630,0.013414030
1645506130819289856,-0.062467240,-0.049421470,9.876362800,0.012072920,-0.022953750,0.016792120
1645506130823439872,-0.308452400,-0.195376160,10.054164890,0.008042160,-0.056651230,-0.004559760
1645506130824709888,-0.342805920,0.010489160,9.177288060,0.002731380,-0.010322040,-0.005036590
1645506130828300032,-0.187502250,0.158856630,9.375190730,0.024147330,-0.006963310,-0.015668570
1645506130830809856,-0.252676190,0.322772980,10.268813130,0.001133980,0.074303160,-0.014798340
1645506130833420032,0.070740450,0.696393250,10.003511430,0.002516810,0.048455600,0.005437430
1645506130834220032,0.001646760,0.543005590,10.635357860,0.004082920,-0.049637250,0.008165830
1645506130838259968,0.002534240,0.510518010,9.694910050,0.004605950,-0.034302480,0.026570270
1645506130839190016,0.134001050,0.483753260,9.186453820,0.025798380,-0.011359160,0.019110740
1645506130843709952,-0.220040840,0.289738680,10.073272710,-0.012871620,0.041028860,0.005112590
1645506130844839936,-0.160634340,0.358341630,9.756556510,-0.036081680,0.027827920,0.006049870
1645506130848559872,-0.092415120,0.280180340,10.023915290,-0.021596250,-0.009401140,0.006726390
1645506130849479936,-0.194864660,0.194343510,9.957119940,-0.031526390,0.013399120,0.001142920
1645506130853359872,0.037348760,0.203280150,9.599025730,-0.000056620,0.013175610,0.001515450
1645506130854240000,-0.012023860,0.144572020,9.770659450,0.019317860,0.027616320,-0.001551210
1645506130858299904,0.042004180,0.131447210,9.625326160,-0.024445360,0.026816130,0.007104870
1645506130862489856,0.087742950,0.098656860,9.927791600,-0.018179410,0.034739070,0.011515620
1645506130863989760,-0.161977740,0.004973600,9.895043370,-0.001229350,0.017671290,-0.006872420
1645506130864729856,-0.254054040,0.071331050,10.015619280,0.025998060,-0.034593050,-0.017344950
1645506130868229888,-0.237424670,0.476043730,9.613474850,0.022004550,0.001381340,-0.018458070
1645506130869159936,-0.191065030,0.534016670,9.567420010,-0.045362110,0.042375910,-0.010456150
1645506130873279744,-0.043424610,0.508798900,10.334135060,-0.053289540,0.077007710,0.015649210
1645506130874199808,-0.018535830,0.544946010,9.904358860,0.007632380,0.052413340,0.008481740
1645506130879069952,0.025503890,0.356222930,10.101758000,0.039029130,-0.050912800,0.007538500
1645506130879979776,-0.004067520,0.425377670,9.636108400,0.006802380,0.004033740,0.016181170
1645506130883309824,-0.114337790,0.279016230,9.291526790,-0.053125620,0.015839930,-0.016790630
1645506130884549888,-0.125044730,0.061341160,10.266197200,-0.070527200,0.034961100,-0.018641350
1645506130888259840,-0.164604260,0.203416680,9.834225650,0.002491470,0.064973530,-0.023579600
1645506130889199872,-0.046529070,0.202422010,9.758408550,0.024528810,-0.010851030,-0.031788650
1645506130894269952,-0.094559250,0.308541890,9.958439830,-0.023274120,0.027833880,-0.001178680
1645506130896719872,-0.053706940,0.217834070,9.260416030,-0.039574500,0.032275920,0.009118020
1645506130898229760,0.081845330,-0.084720250,9.962175370,-0.009165700,-0.002819300,0.011642280
1645506130899260160,-0.188243420,-0.038527800,10.031756400,0.045076010,0.041094420,0.005660950
1645506130903239936,-0.127488370,-0.020569930,9.615805630,0.039528310,0.015433130,-0.027810040
1645506130904199936,-0.281992470,0.081879710,10.289207460,-0.009828810,-0.001905860,-0.020684300
1645506130908879872,-0.454031680,0.369020310,9.816379550,-0.017982720,-0.012362010,-0.024281440
1645506130910469888,-0.067556600,0.521259610,9.413416860,-0.016005340,-0.026150050,-0.033673650
1645506130913519872,-0.074795340,0.628266930,9.793193820,0.009006260,0.079120680,-0.009801980
1645506130915170048,-0.019367520,0.551476840,10.050871850,0.025989120,0.069583950,-0.012931230
1645506130918350080,0.099200990,0.424692690,10.327681540,0.018490850,-0.007410350,0.011582670
1645506130919190016,-0.117927190,0.329390110,9.840000150,0.010837610,-0.052091480,0.015261770
1645506130923460096,-0.105644220,0.108799760,9.448669430,-0.035616760,-0.022742150,-0.006265940
1645506130924519936,-0.208791430,0.115801140,9.524429320,-0.020070370,0.044931480,-0.018461050
1645506130928439808,-0.232705470,-0.006344680,9.935765270,0.023210050,0.022944810,-0.042936200
1645506130930639872,0.008259770,0.072745390,9.918269160,0.022479890,0.055806330,-0.035694250
1645506130933299968,-0.030759640,0.230778630,9.779350280,0.030557810,0.023587050,-0.008928780
1645506130934239744,-0.164855350,0.026494670,10.269047740,-0.017221270,-0.029909610,0.003507730
1645506130938200064,-0.000554670,0.192813920,9.342445370,-0.003623960,-0.006972250,0.020049510
1645506130939289856,-0.069058110,-0.011122160,9.531885150,0.068607930,0.012275580,-0.009703640
1645506130943379968,-0.184445560,-0.020865520,10.080610280,0.063943870,0.074544550,-0.039181120
1645506130944349952,-0.223425690,0.427055090,9.935536380,0.057002900,0.025594240,-0.027695300
1645506130948699904,-0.429711670,0.375774320,10.439970970,-0.005170700,-0.058972840,-0.043709570
1645506130949669888,-0.143758510,0.728330430,9.292982100,-0.034281610,-0.052949790,-0.013276940
1645506130953250048,-0.100671040,0.721252260,9.337346080,0.010050830,0.030028820,-0.007241960
1645506130954210048,-0.061420320,0.410362480,10.180382730,0.022487340,0.099395240,-0.024445360
1645506130958339840,-0.038963760,0.381939590,10.367153170,0.067791340,0.029784440,0.002987680
1645506130959869952,-0.090662030,0.084599450,10.355399130,0.057868670,-0.072836880,0.002241130
1645506130963449856,-0.036097370,-0.030575380,9.355905530,-0.021326540,-0.054243200,-0.000587110
1645506130964229888,-0.073263170,0.091171850,9.128980640,-0.028809910,0.011956690,-0.019231440
1645506130968619776,-0.082958640,0.062744160,9.769317630,-0.009195510,0.080029670,-0.046437980
1645506130970340096,0.051327850,0.159691300,9.953215600,0.035715100,0.043019660,-0.030267240
1645506130973680128,-0.012872740,0.217035590,10.243818280,0.093938420,0.015175340,-0.016401710
1645506130975379968,-0.231398970,0.271270690,10.038404460,0.033320490,-0.045502190,-0.016660990
1645506130978889984,-0.255245270,0.416073440,9.543673520,-0.023104250,-0.081014660,0.009502470
1645506130979970048,-0.273895170,0.234929640,9.287846570,-0.013315680,0.036379700,-0.012855230
1645506130983279872,-0.260805930,0.138649840,9.664198880,0.035133950,0.069670360,-0.044314560
1645506130984549888,-0.348249640,0.272115590,10.615054130,0.100541110,0.034882130,-0.028955930
1645506130989440000,-0.252881020,0.490082950,9.990271570,0.054241730,-0.051884360,-0.028258560
1645506130990680064,-0.071620260,0.614245890,9.667693140,-0.048805780,-0.111156710,0.009232760
1645506130993649920,0.039332970,0.450043740,9.475599290,-0.066931550,0.058396160,0.010915100
1645506130994710016,0.130452100,0.212982270,9.574955940,0.025369230,0.078226630,-0.029240550
1645506130998279936,-0.027684810,0.211649340,10.761459350,0.111460690,-0.003990530,-0.019879640
1645506130999239936,-0.126083850,0.421650890,9.770512580,0.056560340,-0.036676230,-0.009405610
1645506131003279872,-0.050948320,0.383059230,9.270704270,-0.080561650,-0.105890630,-0.002829730
1645506131004689920,-0.276403280,0.224288370,9.785969730,-0.099872050,0.018559400,-0.006301700
1645506131008389888,-0.145083200,0.131394540,9.243776320,0.008787220,0.068721180,-0.045038760
1645506131009250048,-0.134257380,0.125310750,10.375216480,0.111930070,-0.004732610,-0.043179100
1645506131013540096,-0.278970960,0.245118320,10.155707360,0.065597890,0.018624970,-0.011901560
1645506131014289920,-0.065234920,0.215297680,9.451617240,-0.056818140,-0.074855980,0.007130210
1645506131018230016,-0.206016470,0.120472500,10.083958630,-0.071081530,-0.055857000,0.018146640
1645506131019239936,-0.170161230,0.010578160,9.378882410,0.008672480,0.036919120,-0.019590560
1645506131023409920,-0.017160300,0.194824460,9.935443880,0.087220960,0.008890030,-0.048896670
1645506131026569728,-0.368042650,0.481818850,10.611553190,0.057928260,0.025999540,-0.032693140
1645506131028349952,-0.136976820,0.671642720,9.645793910,-0.055521720,-0.085821730,-0.007474420
1645506131029280000,0.000904990,0.714674950,9.642585750,-0.084425520,-0.083072490,0.022840500
1645506131033229824,-0.021959040,0.386786100,9.435157780,-0.026053190,0.057324760,0.004562740
1645506131034400000,0.197857710,0.239996370,9.890057560,0.064311910,0.055845070,-0.023175780
1645506131038459904,-0.111686600,0.285069470,10.575064660,0.085018590,0.008323790,-0.008220970
1645506131039399936,-0.161506910,0.141636190,9.952669140,-0.037127730,-0.094620880,-0.005900860
1645506131043459840,-0.072190510,0.203922180,9.380498890,-0.124190750,-0.069686780,0.003035370
1645506131044899840,-0.211545710,0.049987000,9.379154210,-0.057515510,0.035375360,-0.014832620
1645506131048369920,-0.098453210,-0.035690040,9.937925340,0.052912540,0.038434560,-0.032842160
1645506131049270016,-0.026097600,0.406525140,9.948609350,0.100353380,0.032857060,-0.013804440
1645506131053380096,-0.035692920,0.206602320,10.009516720,-0.011160970,-0.017593800,-0.001634660
1645506131054259968,-0.090696300,0.064667170,10.105636600,-0.068560250,-0.039164710,0.024843210
1645506131058299904,-0.253744900,0.064881320,9.497993470,0.019824500,-0.059705980,-0.006534160
1645506131059429888,-0.182201220,0.057599880,9.591138840,0.063076620,-0.045159460,-0.040315080
1645506131063289856,-0.097350710,0.611031350,9.585371020,0.026880210,0.067000100,-0.024871530
1645506131064299776,-0.105632660,0.649110560,10.253832820,-0.031720100,0.067342820,-0.020530820
1645506131068919808,-0.063640510,0.544003670,10.708229060,-0.050392740,-0.048735730,0.000028310
1645506131069860096,-0.031657120,0.775270220,9.542329790,0.015102330,-0.086237490,0.023578110
1645506131073459968,0.017674080,0.386736630,9.204787250,0.010529160,-0.035734470,0.001576540
1645506131074999808,-0.066305920,0.284153580,9.677816390,-0.007446110,0.066889830,0.010317560
1645506131078820096,-0.238833900,0.183809340,10.239078520,-0.012956560,0.046914820,-0.002646450
1645506131079529984,-0.117321230,-0.132965490,10.409315110,-0.030323870,-0.058907280,-0.010380150
1645506131083279872,-0.121549230,0.158319800,9.592588420,-0.011125210,-0.049255800,-0.011356180
1645506131084369920,0.011750980,0.240511780,9.211379050,-0.018619000,0.017124420,-0.023293500
1645506131088239872,-0.025761530,0.282689150,9.762755390,-0.039932120,0.030237430,-0.010530650
1645506131089289984,-0.057922050,0.408213590,9.860887530,0.005009770,0.033311550,0.006237630
1645506131093609728,-0.012854870,0.234355900,9.970434190,0.007967650,-0.017449260,0.013628600
1645506131094589952,-0.278093810,0.205280010,10.124924660,0.000393390,-0.046315790,0.022211670
1645506131098330112,-0.316915810,0.293901230,9.717926030,-0.009940560,-0.017268960,-0.000318880
1645506131099279872,-0.389576140,0.361132980,9.834239010,-0.042848290,-0.023761390,-0.013418500
1645506131103299840,-0.285527170,0.625284430,9.884797100,-0.041946770,0.010234120,-0.023162360
1645506131104239872,-0.060055550,0.610011400,9.910326960,-0.043903290,0.053545840,-0.023730100
1645506131108310016,0.046492510,0.621815500,9.995033260,-0.014451140,-0.026458500,0.004707280
1645506131109839872,0.132436070,0.509576020,9.934350010,-0.009669360,-0.030259790,0.018697980
1645506131113289728,0.160894750,0.386320800,9.487475400,-0.056885190,-0.000862780,0.026050210
1645506131114379776,0.029529060,0.181190640,9.886428830,-0.072857740,-0.009235740,0.011196730
1645506131118249984,-0.171180100,-0.077833700,10.303643230,-0.046215950,0.027425590,-0.008332730
1645506131119209984,-0.164400440,0.000169110,9.567187310,-0.007751580,-0.025714930,-0.022040310
1645506131123200000,-0.239324320,0.064425830,9.917889600,-0.018250940,-0.043183570,-0.022035840
1645506131124280064,-0.214770530,0.266367520,9.450981140,-0.084698210,0.053741050,-0.013309720
1645506131128630016,-0.066785490,0.455308440,9.510923390,-0.078688570,-0.002835690,-0.000302490
1645506131129890048,-0.125676890,0.232779400,10.455019950,-0.040124360,0.033220650,0.016303360
1645506131133440000,0.016408160,0.140933680,9.723107340,0.022283190,0.015750520,0.018060210
1645506131134409984,-0.089158390,0.054199920,10.086053850,0.053875140,-0.058035550,0.008556240
1645506131138419968,-0.268274550,0.037034340,9.908146860,-0.026492770,-0.007684530,0.003816190
1645506131140139776,0.005426720,0.422014560,9.069676400,-0.086143620,-0.018708410,0.001597400
1645506131143899904,-0.025769210,0.435085770,10.131526950,-0.090727210,0.054639590,-0.017307700
1645506131145619968,-0.064090440,0.524418410,10.106823920,-0.040231650,0.076493610,-0.024196500
1645506131149920000,0.020685010,0.710839570,10.141844750,0.031754380,-0.044901680,-0.002129380
1645506131150640128,-0.218739230,0.530082520,10.037711140,-0.008918350,-0.047805910,0.028702620
1645506131153309696,-0.233129530,0.454037160,9.287004470,-0.088900340,-0.017817320,0.041663650
1645506131154299904,-0.261850570,0.278117480,9.844642640,-0.101739170,0.024206940,0.031666460
1645506131160140032,-0.269393030,-0.052312190,9.984600070,-0.055925560,0.050270570,0.006027520
1645506131160950016,0.086863860,0.039790150,9.877408030,0.013995170,0.010220710,-0.019168850
1645506131163280128,0.126024100,0.176352840,9.859487530,-0.004008410,0.043217840,-0.012731550
1645506131164399872,0.101154480,0.194234450,9.714574810,-0.093331930,-0.010484460,-0.009903310
1645506131168359936,0.151603910,0.340861920,9.652009960,-0.089095540,-0.004512070,0.018459560
1645506131169220096,0.026063270,0.104915680,9.452302930,-0.040081140,0.044129800,0.014643370
1645506131173410048,-0.182249810,-0.097390440,10.270144460,0.024214390,0.022120780,0.003784900
1645506131174389760,-0.389279370,0.152233630,10.153089520,0.053612890,0.041553370,-0.004585090
1645506131178889984,-0.461638540,0.225428580,9.822994230,-0.040641430,-0.068041680,-0.015021860
1645506131180150016,-0.303063360,0.591883540,9.776041980,-0.124011950,-0.012995300,0.000512600
1645506131183359744,-0.141189020,0.699513670,9.294260980,-0.106072430,0.096645960,-0.009663400
1645506131184279808,-0.020885850,0.368085890,10.372653960,-0.004908440,0.022199750,-0.009597840
1645506131188189952,0.076527250,0.542763830,10.231794360,0.067377100,0.049476330,0.015273690
1645506131189260032,0.190462470,0.364082780,9.586315160,0.008837880,-0.023695830,0.019815570
1645506131193469952,0.045157670,0.164918900,10.170959470,-0.119200360,-0.019608440,0.036551060
1645506131195350016,-0.092254820,0.198356840,9.494922640,-0.122475620,0.058232260,0.013309720
1645506131198669824,-0.074839420,-0.132980540,9.751993180,-0.021973250,-0.006854530,-0.017815830
1645506131199699968,-0.208055390,0.096079560,10.143828390,0.053283570,0.045205650,-0.014103950
1645506131203419904,-0.132243080,0.292710210,9.383708000,0.011892620,0.062523780,-0.021396580
1645506131204419840,-0.170163810,0.250886320,10.222307210,-0.082394480,-0.026410820,0.000122190
1645506131208459776,-0.240209300,0.463206500,9.886975290,-0.097794840,0.027169290,0.026862330
1645506131209799936,-0.066843800,0.159082170,9.508641240,-0.037050250,0.009354950,0.011657180
1645506131213499904,-0.265423770,0.029008070,10.293146130,0.047537680,0.027742980,0.004629790
1645506131214419968,-0.319967930,0.032645040,9.812049870,0.070787970,0.038772810,-0.010429320
1645506131218200064,-0.210737150,0.168967980,9.788325310,-0.004108250,-0.071118770,-0.011378530
1645506131219249920,-0.231689720,0.502693530,9.702892300,-0.104451180,-0.000396370,0.010895730
1645506131223369728,0.012930000,0.359955910,9.577300070,-0.111883890,0.069761280,-0.003141170
1645506131224259840,-0.047035800,0.384135930,10.409060480,0.015674540,0.045207150,-0.005765260
1645506131228669952,-0.158924090,0.497805150,10.239595410,0.098444520,-0.023706260,0.000712280
1645506131230469888,-0.152332990,0.481411070,9.768040660,0.001029670,-0.070327530,0.017985700
1645506131233219840,-0.245777230,0.566584890,9.428314210,-0.115035470,-0.023840370,0.029970710
1645506131234360064,-0.274363220,0.105569330,9.757680890,-0.116695490,0.026287140,0.001642110
1645506131238210048,-0.120510950,-0.025667330,9.950595860,0.017330050,0.045646720,-0.011770430
1645506131239259904,-0.006813520,0.103317480,9.921203610,0.094653680,0.020885470,-0.028236220
1645506131243660032,-0.069910120,0.055773620,10.254782680,-0.002910200,-0.000280140,-0.007589160
1645506131244879872,-0.059018850,0.321319190,9.581678390,-0.081929570,-0.043445830,0.027188660
1645506131248719872,-0.004829200,0.090072460,9.601666450,-0.086513170,-0.036193430,0.027108190
1645506131249359872,-0.045174090,-0.085749280,9.920833590,-0.001363460,0.069047520,0.017823280
1645506131253309952,-0.196639690,0.203278010,10.226390840,0.106252740,0.039470200,-0.004355610
1645506131254259712,-0.406025830,0.137152390,10.655429840,0.052312030,-0.049518050,-0.002573430
1645506131258349824,-0.362498940,0.500822780,9.618337630,-0.041072070,-0.082424280,0.024998190
1645506131260140032,-0.281635340,0.603380440,9.407593730,-0.084435950,-0.031673910,0.013630090
1645506131264930048,-0.125404310,0.515705050,9.551772120,-0.069196510,0.067156550,0.003200770
1645506131266690048,-0.043246610,0.736344810,9.960791590,0.027304890,0.058126450,0.004106760
1645506131268280064,0.177390310,0.404494430,10.366341590,0.057868660,0.002399090,0.009360910
1645506131269260032,0.017033090,0.148591580,10.205860140,0.006699560,-0.055435300,0.022143130
1645506131273200128,-0.053530500,-0.036837910,9.602906230,-0.025072700,-0.075347720,0.026719270
1645506131274349824,-0.222887050,-0.504956310,9.447391510,-0.032052400,-0.021371250,0.004409250
1645506131279249920,-0.283141910,-0.228690280,9.518172260,0.016856200,0.028073790,-0.018210710
1645506131281689856,-0.227692320,-0.129014790,9.985614780,0.049431630,0.069020690,-0.011822580
1645506131283259904,-0.336008700,-0.046643660,10.460670470,0.039897860,-0.017097590,-0.003968180
1645506131284469760,-0.271070210,0.525862100,10.090928080,0.035949060,-0.093884770,0.016368930
1645506131288239872,-0.089693180,0.556124810,9.428948400,-0.006470080,-0.036594260,0.022539490
1645506131289419776,-0.166509640,0.553038540,9.796171190,-0.001925230,0.023105740,0.005400180
1645506131293469952,-0.146314320,0.606449540,10.366818430,0.059315560,0.040994590,0.007018450
1645506131294939904,-0.108018830,0.463715370,9.942138670,0.076480210,-0.041933360,0.013318660
1645506131298279936,-0.045337840,0.574249450,9.875282290,0.019496680,-0.113609430,0.016623730
1645506131299360000,0.038481000,0.520375010,9.360012050,-0.069315730,0.018566850,0.027136510
1645506131303269888,0.042481850,0.147843720,9.485849380,-0.052446130,0.018770990,0.015354160
1645506131304289792,0.003446420,-0.064634040,10.494108200,0.046618290,0.028181080,-0.009271500
1645506131308430080,-0.015357000,-0.061129160,9.816138270,0.106924770,0.014688080,0.000151990
1645506131309549824,-0.149379400,-0.065240190,10.041318890,0.050337610,-0.088448820,0.008033220
1645506131314869760,-0.319120760,0.028585060,9.778598790,-0.045654180,-0.030533970,0.015111270
1645506131315589888,-0.237291490,0.122608660,8.923253060,-0.031968950,-0.017395620,-0.000305470
1645506131318369792,-0.179279150,0.246403130,10.134365080,0.048217180,0.021772090,-0.004886090
1645506131319289856,-0.174651180,0.446859060,10.002317430,0.093106930,0.083175300,0.012502080
1645506131323289856,-0.073427200,0.608836410,10.215873720,0.074714420,-0.068962580,0.021435320
1645506131324260096,-0.132230300,0.666405020,10.267977710,-0.020176170,-0.078679610,0.037851930
1645506131328610048,-0.075605270,0.515943470,9.179075240,-0.052422290,-0.029170510,0.024166710
1645506131329489920,-0.053886480,0.397921170,9.788288120,0.014935440,0.009760260,-0.009477140
1645506131333380096,-0.337176380,0.316080780,10.228657720,0.057943170,0.044745200,-0.021490450
1645506131334279936,-0.205259650,0.390507130,9.950740810,0.038839870,-0.076147910,-0.010201330
1645506131338209792,-0.096793410,0.438337620,9.844443320,-0.031232840,-0.066614160,0.020150840
1645506131339289856,-0.063406240,0.165822070,9.359383580,-0.071726740,0.003097950,0.033786900
1645506131343399936,0.151730700,0.105032550,9.887084010,-0.012156370,0.029549000,0.016486640
1645506131344329728,0.043015170,0.081004170,10.292048450,0.072142490,0.033493340,0.009891390
1645506131348819968,0.050960260,-0.037528880,10.055897710,0.055941930,-0.057116150,0.011856850
1645506131350870016,0.009363520,0.244310410,9.674613000,-0.009731950,-0.038041170,0.005593900
1645506131353250048,-0.199652540,0.247224760,9.269473080,-0.059610610,-0.028002260,-0.009636580
1645506131355949824,-0.204871620,0.327106740,9.728741650,-0.033210220,-0.016902380,-0.012527410
1645506131358299904,-0.130649190,0.686721030,9.628934860,0.043781100,0.059552490,-0.002713500
1645506131359279872,-0.118334410,0.335586490,10.233416560,0.045368080,0.005404650,0.006985670
1645506131363389952,-0.148909570,0.308250070,10.532067300,0.023977460,0.005595390,0.029741230
1645506131364329728,-0.200190530,0.304616030,9.748181340,0.008901960,-0.065675390,0.031936170
1645506131368329984,-0.236459910,0.014850320,9.794963840,-0.022166970,-0.070697070,0.025501850
1645506131369289984,-0.169359060,0.469021680,9.310436250,-0.023388860,0.036883350,0.001502040
1645506131373649920,-0.102450910,0.407987740,9.768983840,-0.010843580,0.031022730,-0.013412540
1645506131379979776,-0.028294890,0.490365360,10.431638720,-0.003954770,0.012162330,-0.004282590
1645506131381229824,0.132881280,0.730204880,9.742443080,0.002132360,-0.009067360,0.012178720
1645506131381619968,0.125906270,0.304254170,9.907301900,-0.027753410,-0.037403410,0.024589900
1645506131383299840,-0.053911330,0.316017540,9.860630040,-0.026533010,0.008179250,0.030203170
1645506131384359936,0.010168180,0.067554450,9.360188480,0.003786390,-0.001071390,0.025795400
1645506131388229888,-0.168272930,-0.265290530,9.972441670,0.010555980,0.015003980,0.006754700
1645506131389420032,-0.297507970,0.042513070,9.927794460,0.009268520,0.034643710,-0.016741450
1645506131393359872,-0.298750640,0.100342230,9.936352730,-0.014391540,-0.038094820,-0.019045170
1645506131394419968,-0.338867660,0.320842000,9.970656390,-0.037938360,-0.038826470,-0.006951390
1645506131398350080,-0.113441710,0.434103970,9.527747150,-0.014975670,0.039771210,0.008630750
1645506131399260160,-0.097652860,0.221139330,10.128381730,0.025810300,0.051383680,0.009222330
1645506131404290048,-0.100741330,0.328785870,10.357498170,0.060932350,-0.005997720,0.009861590
1645506131405099776,-0.050513480,0.323292670,9.903871540,0.029122830,-0.048352780,0.025002660
1645506131408509952,-0.014153370,0.450635050,9.528830530,-0.048808760,-0.044462080,0.014576320
1645506131409459712,-0.005543170,0.488797010,9.847002980,-0.077834730,0.031812490,-0.002920630
1645506131413420032,0.010697480,0.371952620,9.959580420,-0.026279690,0.066483030,-0.016255680
1645506131414350080,0.104354880,0.416762470,9.999754910,0.048229090,-0.002691150,-0.019735090
1645506131418259968,-0.063884550,0.240317910,10.122740750,0.033542520,-0.018383560,0.008927290
1645506131419309824,-0.166309830,0.097498980,9.387504580,-0.028067830,-0.010055300,0.030502680
1645506131424009984,-0.271232600,-0.085537100,9.824100490,-0.038675970,-0.043010710,0.014229120
1645506131424569856,-0.375026290,-0.296922090,9.910406110,-0.005720560,0.031699240,0.009661920
1645506131428519936,-0.164160100,-0.109511700,9.555709840,0.066301230,0.042334200,-0.025419890
1645506131429240064,-0.230233700,0.041026670,10.505130770,0.066487490,0.025035440,-0.029259930
1645506131433420032,-0.279230650,0.477005390,9.959668160,0.000716750,-0.018239020,-0.006604200
1645506131434389760,0.086517590,0.788177190,9.419156070,-0.045154990,-0.080616790,0.011341270
1645506131438569984,-0.026991650,0.539475620,9.770462990,-0.030529500,0.031355030,0.009036060
1645506131439639808,0.035481790,0.515418050,9.735223770,0.054104630,0.072449450,0.007811190
1645506131443960064,-0.057243280,0.426534650,10.520817760,0.105226050,0.002044440,0.012299420
1645506131446009856,-0.358702300,0.306828530,10.284604070,0.020724540,-0.072230410,0.032386190
1645506131448329984,-0.084160840,0.380327820,9.226168630,-0.070422890,-0.080619760,0.026138130
1645506131449309952,-0.219835480,0.092786510,9.416977880,-0.063622010,0.030483310,0.003096460
1645506131453359872,-0.145654250,-0.032710320,9.593509670,0.030918420,0.058904290,-0.021223720
1645506131454319872,0.055494320,0.127714660,10.145622250,0.113400820,0.050686310,-0.017133360
1645506131458299904,-0.131698070,0.074827180,10.253686900,0.053751460,-0.017046930,0.013491510
1645506131459369984,-0.121412280,0.113567960,9.992883680,-0.038149950,-0.078748170,0.028038030
1645506131463279872,-0.199781700,0.120044750,9.496524810,-0.027517980,-0.036183000,0.021111970
1645506131464320000,-0.292645750,0.164657980,9.443980220,0.031870610,-0.009450320,-0.018058720
1645506131468430080,-0.161982640,0.481763120,10.009362220,0.076292460,0.050169240,-0.012660030
1645506131469689856,-0.208095280,0.636675420,9.887220380,0.055409980,0.034841900,0.007115300
1645506131473270016,-0.105157030,0.533128680,10.249330520,-0.017669800,-0.071889160,0.024747850
1645506131474279936,0.020391040,0.659862340,9.745528220,-0.030346210,-0.019137560,0.049917400
1645506131478540032,-0.089054540,0.346973630,9.482751850,-0.000309940,-0.019162890,0.019997360
1645506131479279872,-0.119553760,0.116758440,10.285835270,0.040051340,0.005057450,0.000548360
1645506131483379968,-0.233447300,0.225302670,9.721543310,0.069957960,0.031441450,0.002619620
1645506131484549888,-0.246940050,0.052457550,9.954164510,0.011259320,-0.077448790,-0.000873210
1645506131488260096,-0.155712570,0.229842390,9.732474330,-0.062263020,-0.034005940,0.020156800
1645506131489260032,-0.037578650,0.259571080,8.954925540,-0.030151020,0.005851690,0.003001090
1645506131493819904,0.078653670,0.120711210,10.040885930,0.027497110,0.016582010,-0.005352500
1645506131494799872,0.001828540,0.283353060,10.139300350,0.082714860,0.052885710,0.014255940
1645506131498339840,0.043263830,0.123432450,9.969889640,0.063543010,-0.048767030,0.010474020
1645506131499500032,-0.121775480,0.136138360,10.262214660,-0.011660160,-0.061076870,0.027538830
1645506131503389952,-0.277235420,0.263988790,9.381447790,-0.023834410,-0.026416780,0.015044210
1645506131504279808,-0.175615800,0.312042770,9.559746740,-0.006493930,-0.021724400,-0.011824070
1645506131508459776,-0.269549760,0.547627570,10.026740070,0.028738380,0.058858090,-0.001797080
1645506131509519872,-0.186094780,0.605212090,10.036354060,0.034484270,0.006218250,-0.005316730
1645506131513249792,-0.010802850,0.700608370,10.079208370,-0.010760130,-0.054171680,0.012145940
1645506131514370048,0.007184720,0.662737130,9.603281020,-0.040483470,-0.022469460,0.035557150
1645506131519340032,-0.032673180,0.347274510,9.821583750,-0.050048530,0.008605420,0.012327730
1645506131520329984,-0.091967450,0.248701080,9.841042520,0.005577500,0.011833010,0.002530220
1645506131523379968,-0.175124380,0.052388740,9.909200670,0.037752100,-0.038294490,-0.007252400
1645506131524570112,-0.102450720,0.104389270,9.588163380,-0.017504390,-0.002639000,0.000183280
1645506131528640000,-0.137067010,0.129334910,9.619063380,-0.051097580,0.012141470,-0.000795720
1645506131529510144,-0.224480080,0.036590940,10.164686200,-0.059895210,-0.014646350,0.003141160
1645506131533299968,0.129891230,0.276473700,9.403539660,0.013300780,0.011844930,0.015980010
1645506131534319872,0.004601670,0.167042580,10.120850560,0.042426590,0.012058020,0.003133710
1645506131538230016,-0.226618960,0.161981940,10.358971600,0.000007450,0.021424890,0.010831650
1645506131539249920,-0.193828310,0.296658520,9.623967170,-0.004105270,-0.063309060,0.019723180
1645506131543809792,-0.510557770,0.180520040,9.996096610,-0.013686720,-0.072842840,0.002896790
1645506131545179904,-0.234513360,0.632055580,9.135404590,-0.033575300,0.004377960,-0.000141560
1645506131548719872,-0.122895610,0.689404070,9.800577160,-0.031772250,0.043113530,-0.011190770
1645506131549520128,-0.127605420,0.632173180,10.373876570,-0.053395330,0.046335160,-0.011405350
1645506131553319936,0.231173870,0.653793750,9.779521940,-0.022749600,-0.028002260,0.013414030
1645506131554289920,0.082653370,0.242751210,10.127733230,-0.008846820,-0.039164730,0.015397370
1645506131558369792,-0.061601670,0.135886450,9.544841770,-0.035811960,-0.030778350,0.012870130
1645506131559439872,-0.043440550,-0.080800110,9.440904620,-0.020037600,-0.035482650,0.018335880
1645506131563479808,-0.257590140,-0.260375710,9.690979000,-0.033089520,0.037090480,-0.012016300
1645506131565920000,-0.125155970,-0.130245700,9.890338900,-0.034037230,0.033533580,-0.007765000
1645506131568249856,-0.227284060,-0.068340060,10.313661580,0.016291440,0.012771790,-0.010849530
1645506131569280000,-0.284579580,0.242584710,9.901839260,0.005601350,-0.087505560,-0.019225480
1645506131573210112,-0.036377100,0.507586600,9.481641770,-0.016680360,-0.065085290,0.014550980
1645506131574369792,-0.117341840,0.504053830,9.514017110,-0.035886470,0.068523000,0.008244810
1645506131578639872,-0.174103710,0.358239050,10.362084390,-0.013683740,0.024335090,0.000070040
1645506131580269824,-0.285802660,0.494971390,10.527561190,0.044731800,-0.025588270,0.015860800
1645506131583369984,-0.235114860,0.566884990,9.474235530,0.014722350,-0.106006860,0.000093880
1645506131584319744,-0.070476780,0.527867440,9.558615680,-0.080573570,-0.056453060,0.016365950
1645506131588480000,-0.097708790,0.406932650,9.375568390,-0.082640360,0.070324540,-0.001578030
1645506131590380032,0.107200270,0.022550130,9.868906970,-0.007404390,0.019225470,-0.020711120
1645506131593679872,-0.000987650,-0.044802800,10.651835440,0.072595490,-0.009490550,0.005252660
1645506131595510016,-0.115169330,-0.031538890,9.670148850,0.041794770,-0.064554810,0.002762670
1645506131598719744,-0.059766050,-0.171101080,9.648597720,-0.052391000,-0.111193970,0.001013280
1645506131600279808,-0.227905530,-0.019521800,9.427872660,-0.064790260,0.011411310,0.010341410
1645506131603520000,0.038236240,0.031592920,9.312539100,0.000758470,0.053164360,-0.027605890
1645506131604290048,-0.110495450,0.208951830,10.742269520,0.062416500,0.036689640,-0.020034610
1645506131608329984,-0.241287750,0.627451660,10.144068720,0.059536100,-0.028590860,-0.003863870
1645506131609769728,0.034490910,0.753661450,9.536472320,-0.026607520,-0.116795310,0.010906160
1645506131613449728,-0.174380300,0.780607220,9.618369100,-0.079628810,-0.018863380,0.032766160
1645506131614589952,-0.139746190,0.558017550,9.507277490,-0.034943220,0.064486270,0.002689660
1645506131618360064,-0.179170400,0.393750340,10.462641720,0.046564640,0.016590950,0.000019370
1645506131619299840,-0.321708890,0.406371330,10.234492300,0.053505600,-0.058954950,0.000791250
1645506131623299840,0.024108120,0.250388210,9.322996140,-0.056210160,-0.069141400,0.002895300
1645506131624729856,-0.026044550,0.150785800,9.413598060,-0.093349810,0.020755820,0.022004540
1645506131628349952,-0.034166950,-0.142176790,9.737848280,-0.044138720,0.038290020,-0.002147260
1645506131630240000,0.113448460,-0.175971020,10.126423840,0.055137280,0.018636880,0.004699830
1645506131633319936,-0.007845210,-0.002384380,9.971143720,0.085589300,-0.018124280,0.004732610
1645506131634289920,-0.146391730,-0.091900100,10.138882640,-0.018377600,-0.049726670,-0.002031030
1645506131638229760,-0.235560250,0.263524800,9.488733290,-0.059171030,-0.026597090,0.006242100
1645506131639259904,-0.300629910,0.370285300,9.540902140,-0.016692280,-0.033158070,-0.012964010
1645506131643509760,-0.131045490,0.575022100,9.865837100,0.017450750,0.056909030,-0.009515880
1645506131645009920,-0.045572770,0.917552770,9.851090430,0.042979420,0.044575340,0.011280180
1645506131649179904,-0.049666480,0.622375190,10.448843000,-0.013929610,-0.017297270,0.013557080
1645506131649920000,0.068715800,0.616955280,9.708961490,-0.044886760,-0.047105540,0.045458970
1645506131653379840,-0.046303190,0.311491580,9.651308060,-0.023187700,-0.040614610,0.024501980
1645506131654350080,-0.056160220,0.026273690,9.738425250,-0.030769410,0.026921930,-0.013940040
1645506131658690048,-0.037219170,0.147094960,9.636839870,0.006105000,0.014942880,-0.015272200
1645506131660539904,0.015180220,-0.020693970,9.948678020,-0.012014810,0.021456180,-0.040653340
1645506131663219968,0.038327030,0.069596530,9.849792480,-0.054942080,0.020857160,-0.021179020
1645506131665740032,-0.045230310,0.124749310,9.860041620,-0.009109080,0.001633170,0.007012490
1645506131668179968,-0.120549500,0.007003650,9.839081760,0.009103120,-0.021111970,0.008879600
1645506131669279744,-0.062348020,0.151565540,9.487671850,0.029902170,-0.010192400,0.018568340
1645506131673260032,-0.063601940,0.183063370,9.776570320,0.011383000,0.074233110,0.009974840
1645506131674379776,-0.197508800,0.239568290,10.177681920,-0.023533410,0.054794550,0.004255770
1645506131680379904,-0.290423720,0.442341150,10.276350020,-0.003209710,-0.048357250,0.002974270
1645506131682289920,-0.095802050,0.662558260,9.499022480,-0.004439060,-0.030981010,-0.012049080
1645506131683310080,-0.040360030,0.718504670,9.338537220,-0.029106440,0.015476350,0.004406270
1645506131684419840,-0.121615150,0.545724270,10.075015070,-0.017428400,0.080350050,-0.000420210
1645506131688219904,-0.092699010,0.429308980,9.891779900,-0.005990270,0.048705940,-0.001311300
1645506131689910016,-0.178517240,0.223361490,10.318502430,0.003381070,-0.064067540,0.016017250
1645506131694309888,-0.250524040,0.106587920,9.761774060,-0.023169820,-0.009393690,0.012865660
1645506131696039936,-0.162721340,0.007982560,9.105394360,-0.036647920,-0.020915270,0.003103910
1645506131698190080,-0.242060290,-0.101758340,10.023435590,-0.012926760,0.029814240,-0.008584560
1645506131699299840,-0.012987500,0.015577350,9.512201310,0.006382170,0.098733600,-0.003615020
1645506131703219968,0.070026060,-0.000266390,10.228936200,0.029739740,-0.008723140,0.009776650
1645506131704259840,-0.178923160,0.020899510,10.461629870,0.024358920,-0.019030270,0.019577140
1645506131708580096,-0.021298200,0.258345840,9.052516940,0.012406700,-0.064589080,0.014007090
1645506131709489920,-0.185115710,0.306984780,9.823460580,-0.008092820,-0.017070770,0.010882320
1645506131713519872,-0.321490590,0.357142360,9.779485700,-0.015389920,0.108873840,-0.017301740
1645506131714380032,-0.174778970,0.443275930,10.063752170,0.034406780,0.000192220,-0.012013320
1645506131718349824,-0.293777970,0.609927120,10.472128870,0.055344410,-0.047096620,-0.002464650
1645506131719300096,-0.004723210,0.711180930,9.219794270,-0.016207990,-0.034922360,0.015181300
1645506131723239936,0.101855460,0.598582150,9.622265820,-0.057433550,0.021329520,0.018267340
1645506131724689920,-0.095725390,0.253212240,10.082438470,-0.026531520,0.085717450,0.004059080
1645506131728570112,-0.008535210,-0.057919360,9.982141490,0.057263670,-0.012891000,-0.002296270
1645506131729580032,-0.142612760,0.020376630,10.010840420,0.083227460,-0.048710410,0.002853570
1645506131733189888,-0.175169780,0.024635870,9.370570180,-0.029569870,-0.021491950,-0.007727740
1645506131734299904,-0.070429110,0.136485990,9.526755330,-0.088153760,0.022184850,-0.006885830
1645506131738169856,-0.059505730,0.283002500,9.711246490,-0.023716690,0.078357760,-0.018836560
1645506131739310080,0.039687400,0.107945110,10.237723350,0.054030120,0.032390650,-0.010541080
1645506131743310080,-0.079302620,0.291982440,10.259632110,0.112305590,0.025257470,0.007516150
1645506131744329984,-0.314753590,0.271626950,9.710896490,0.049369050,-0.072625280,0.002698600
1645506131751139840,-0.337364440,0.230383310,9.419325830,-0.051474570,-0.081782050,0.015962120
1645506131751579904,-0.276397620,0.467239830,9.023451810,-0.053775320,0.055947910,-0.005489590
1645506131753179904,-0.176773100,0.278103770,10.140008930,-0.009706620,0.095085800,-0.036004190
1645506131754299904,-0.171249700,0.545575020,10.771341320,0.068129610,0.046958030,-0.020936130
1645506131758499840,0.004896140,0.722207130,9.966142650,0.055314600,-0.074623510,-0.018171960
1645506131759379968,0.100689780,0.494694290,9.571751590,-0.059905660,-0.045862800,0.013549630
1645506131763480064,-0.029834160,0.469840500,9.287603380,-0.079856820,0.032092630,0.018608570
1645506131764309760,0.047163980,0.125038700,9.608533860,-0.029076640,0.050292910,-0.009725990
1645506131768239872,-0.022730550,-0.044111200,10.250113490,0.052902110,0.019931790,-0.007297100
1645506131769299968,0.108571990,0.108293620,9.756116870,0.056630380,0.029504300,-0.020217900
1645506131773289984,0.060511430,0.037561400,9.834248540,-0.042623280,0.015154480,-0.022356210
1645506131775300096,-0.165406380,0.219929640,9.777130130,-0.085017090,-0.003610550,-0.004181270
1645506131778539776,0.028691180,0.204068210,9.276782990,-0.031921270,0.027042630,-0.013950470
1645506131780859904,-0.089795800,0.067307100,9.762367250,0.045549870,0.060822080,-0.006742780
1645506131783299840,-0.289950940,0.227785410,10.207301140,0.091606390,0.050872560,-0.009432440
1645506131784349952,-0.296689240,0.329612790,10.051393510,0.011241440,-0.003680590,-0.012384360
1645506131788709888,-0.353462370,0.486555010,9.833106990,-0.072486700,-0.052618990,0.008998810
1645506131789369856,-0.103899880,0.480555650,9.612984660,-0.075185300,0.045512620,-0.000023840
1645506131793589760,-0.006432870,0.391977940,9.665296550,0.011602040,0.103248660,-0.022482870
1645506131794800128,0.092450490,0.546385470,10.110352520,0.088499490,0.027045610,-0.024889410
1645506131798279936,0.193588530,0.497852270,10.003831860,0.007079540,0.036016110,-0.000549850
1645506131799289856,0.194683600,0.390546830,9.424580570,-0.075538460,-0.003401940,0.018510220
1645506131804319744,-0.072905490,0.051398410,10.162698750,-0.073832270,-0.004817550,-0.002102550
1645506131805629952,-0.202757820,-0.100820680,9.494480130,0.011569260,0.048489860,-0.023259220
1645506131811499776,-0.165449440,0.020388210,9.457026480,0.074136260,0.009205940,-0.035938620
1645506131812089856,-0.379972930,0.039518010,10.239221570,0.012792650,0.089292220,-0.024655460
1645506131813319936,-0.252871040,0.288846580,9.533502580,-0.059460110,0.036454210,-0.007848440
1645506131814359808,-0.163558200,0.337360740,10.038336750,-0.041720270,-0.036275390,-0.008814040
1645506131818249984,-0.158852160,0.272724990,9.721385960,-0.001415610,0.049716240,0.006535650
1645506131819739904,-0.009045470,0.292628470,9.628736500,0.064858800,0.041021410,-0.007432700
1645506131823409920,-0.226372390,0.178666070,10.509665490,0.056564810,0.047251590,-0.022731730
1645506131824440064,-0.250028130,0.347921310,9.843375210,-0.010713930,-0.007654730,-0.002466140
1645506131830050048,-0.020425370,0.573179960,9.579442020,-0.055600710,-0.040361290,0.004257260
1645506131831269888,-0.022401600,0.492204160,9.612676620,-0.073364380,0.075964620,-0.005264580
1645506131833319936,0.031981920,0.490210950,9.791012760,-0.006668270,0.074084110,-0.010153650
1645506131834449920,-0.023990480,0.463687360,10.213843350,0.062300270,0.041714320,-0.006334490
1645506131838419968,-0.230038870,0.167624000,9.905560490,0.025796890,-0.021792950,0.004786250
1645506131840669952,-0.186048280,0.197577890,9.622280120,-0.045758490,-0.039006770,0.022271270
1645506131844729856,-0.312617750,0.039138370,9.413011550,-0.066086660,0.044979160,0.001874570
1645506131846259712,-0.293639240,-0.162244140,9.741642000,-0.022695960,0.017455220,-0.026923420
1645506131848280064,-0.146573310,0.103939290,9.945471760,0.049504630,0.074060250,-0.022690000
1645506131849349888,-0.033400320,-0.019443110,9.644727710,0.058950490,0.047200920,-0.035238270
1645506131853649920,0.004803970,0.068053580,10.048029900,0.009365380,-0.028797980,-0.013883410
1645506131854439936,0.208895560,0.269980160,9.022319790,-0.010003150,0.020569560,-0.011464950
1645506131858609920,0.234784750,-0.111157540,9.393655780,-0.000481310,0.021041930,-0.048233560
1645506131860100096,0.127909000,-0.055771160,10.167164800,0.059960790,0.110067430,-0.082087520
1645506131863309824,0.061827320,0.044119940,9.705916400,0.114837290,0.066402560,-0.098927320
1645506131864329728,-0.138498930,0.143626930,10.266472820,0.065429510,-0.040180980,-0.088277470
1645506131868290048,-0.084038430,0.710888800,9.026185040,-0.018042330,0.022310020,-0.066539650
1645506131870139904,-0.065689050,0.635784690,8.826393130,-0.065664950,0.056670600,-0.071156010
1645506131876629760,-0.104653320,0.558122460,9.728930470,0.001564620,0.111961360,-0.068557250
1645506131879219968,-0.011136720,0.316427410,9.684577940,0.134661780,0.114059430,-0.069063900
1645506131880239872,-0.094746040,0.061516260,10.233958240,0.141477630,0.001281500,-0.089803350
1645506131880760064,-0.098561890,0.238574620,9.531322480,0.025242570,0.001229350,-0.090317440
1645506131883329792,0.002725670,0.105596620,8.834342960,-0.090941790,0.045013430,-0.109948220
1645506131884440064,0.124154900,0.065904790,9.216031070,-0.054246200,0.155152380,-0.126369300
1645506131888339968,0.041987930,0.078272700,10.032534600,0.108712920,0.139774380,-0.137375310
1645506131889299968,-0.180641990,0.313894900,10.006165500,0.158730160,0.027762360,-0.123679620
1645506131893600000,0.011444760,0.682593410,9.078691480,0.045634810,-0.039498510,-0.088413070
1645506131894369792,-0.233015090,0.561488450,9.449129100,-0.103883450,0.076596450,-0.063048310
1645506131898389760,-0.202199560,0.524533090,9.496294020,-0.074583300,0.161783400,-0.081995140
1645506131899360000,-0.278237400,0.369226040,10.454542160,0.084036590,0.074735280,-0.108726350
1645506131903460096,-0.404569600,0.504577160,9.921089170,0.134989630,0.028355420,-0.116276760
1645506131904439808,0.096039970,0.807273920,8.540214540,0.002172590,-0.002776090,-0.106649100
1645506131908599808,-0.082333470,0.469772430,9.339443210,-0.141914200,0.100785480,-0.098450490
1645506131909299968,0.066799010,0.209292110,9.222306250,-0.102603450,0.149148730,-0.113978990
1645506131913399808,0.237289530,0.027189250,9.957671170,0.068362060,0.059610610,-0.131031870
1645506131914379776,0.006780550,-0.052998690,9.989076610,0.122413040,0.078131270,-0.128389910
1645506131918289920,-0.017474450,0.036508380,9.572270390,0.000253320,0.032067300,-0.129289940
1645506131919620096,-0.446058240,0.082785420,9.560190200,-0.082753600,0.037553910,-0.102093820
1645506131923269888,-0.482829900,-0.020950240,9.074504850,-0.075453520,0.014325980,-0.131793320
1645506131924489984,-0.244909810,0.378735180,9.233684540,0.028045480,0.109282140,-0.131097450
1645506131928400128,-0.279221300,0.569379030,9.760280610,0.091491650,0.152088700,-0.133971880
1645506131930009856,-0.116426730,0.570778670,10.338736530,0.007323920,0.060330320,-0.123457600
1645506131933329920,0.080507100,0.811684790,9.621581080,-0.043548650,0.022162500,-0.084283960
1645506131934350080,0.121439480,0.373027530,9.297845840,-0.077964370,0.034722690,-0.111083690
1645506131938479872,0.122752530,0.342339400,9.313096050,-0.034102800,0.085061800,-0.120174910
1645506131939409920,-0.045012330,0.259631750,9.246511460,0.054793070,0.085353850,-0.136151920
1645506131943399936,-0.032899590,-0.083296080,9.587333680,0.017724930,0.060659650,-0.151033700
1645506131945929984,-0.136474970,0.117438230,9.564605710,-0.025971240,0.080214460,-0.139778870
1645506131948279808,-0.241919490,-0.066209280,9.698423390,-0.059357300,0.065964460,-0.144557670
1645506131949410048,-0.231383250,-0.029168970,9.612013820,-0.028394160,0.033319000,-0.136955100
1645506131953309952,-0.159565970,0.243219730,9.297156330,0.039683290,0.086192790,-0.123924040
1645506131954429952,-0.173957200,0.150186580,9.622019770,0.024211400,0.113695860,-0.132398310
1645506131958400000,-0.315778760,0.228484440,9.961865430,0.011023880,0.048218660,-0.119057290
1645506131961459968,-0.244236780,0.307411280,9.540475850,0.004099310,0.013387200,-0.120699410
1645506131963340032,-0.098992970,0.467319700,9.179004670,-0.028464200,0.022268300,-0.125096740
1645506131964320000,0.057649160,0.675380530,9.624045370,-0.039841230,0.111986680,-0.116519620
1645506131968459776,0.141034560,0.502219680,9.684599880,-0.026692450,0.161871360,-0.131911040
1645506131970429952,0.194993540,0.373407780,9.815105440,0.026884670,0.035703180,-0.131179360
1645506131973309952,0.003811200,0.233812510,9.790384290,0.031417610,0.042381880,-0.117972520
1645506131974680064,-0.213142160,0.089444030,8.807255740,-0.014787910,0.013162200,-0.124876220
1645506131978449920,-0.498523830,-0.097992130,9.533407210,-0.048963730,-0.002594290,-0.127044320
1645506131979319808,-0.537756380,-0.172788500,9.236075400,-0.027157370,0.122989720,-0.150664150
1645506131983379968,-0.332990940,-0.104893010,9.571701050,0.031663480,0.088173150,-0.166966040
1645506131984499968,-0.419354290,0.089547560,10.697128300,0.045622880,0.102174290,-0.148935600
1645506131988320000,-0.168827850,0.342046350,9.449568750,0.008580090,0.019185250,-0.129489620
1645506131989629952,0.114130970,0.418981550,9.366353030,-0.029146680,-0.037479400,-0.103680790
1645506131993989888,0.180469160,0.206133050,9.161784170,-0.005532800,0.117526960,-0.100304210
1645506131995119872,0.175181400,0.191038100,9.477065090,0.062240670,0.106471790,-0.127971200
1645506131998319872,-0.106101770,0.337995200,10.495657920,0.081989170,0.044649840,-0.129975380
1645506131999339776,-0.328948940,0.380254510,9.655442240,0.002859530,-0.034701820,-0.119166080
1645506132003340032,-0.297765310,0.462253390,9.192397120,-0.055794430,-0.029958790,-0.124846410
1645506132004339968,-0.480441180,0.282880930,9.238535880,-0.014720860,0.091844800,-0.141310710
1645506132008329984,-0.493627550,0.136953250,9.554902080,0.063723320,0.071434680,-0.152099120
1645506132010149888,-0.291570870,0.203218940,9.837491990,0.104404990,0.056190800,-0.125451390
1645506132013870080,-0.308911140,-0.099815820,9.807454110,0.047780580,0.009770690,-0.107017170
1645506132014739968,-0.252825260,-0.127342850,9.878335000,-0.017949940,-0.024095170,-0.096210840
1645506132018240000,-0.109685280,-0.073023360,9.148207660,0.036732860,-0.004264710,-0.113676500
1645506132019340032,-0.031412810,-0.095730800,9.474292760,0.065189610,0.008657580,-0.153352320
1645506132023629824,0.222499490,0.417777420,9.598884580,0.072307880,0.141794990,-0.130967800
1645506132026500096,0.049438710,0.452359110,10.180043220,0.063155600,0.051523750,-0.124405340
1645506132028819968,-0.078628530,0.576079310,10.144673350,0.022910540,-0.072607380,-0.101953750
1645506132029419776,-0.021648400,0.821071030,8.696937560,0.030587610,-0.060088930,-0.076080870
1645506132033949952,-0.325801250,0.448216140,9.167279240,0.011825560,0.025929510,-0.104679180
1645506132034739968,-0.537191630,0.514348570,9.853312490,0.026470430,0.095765310,-0.106839860
1645506132038220032,-0.627009450,0.323134360,10.126651760,0.080005820,-0.023691360,-0.121116640
1645506132039419904,-0.494623360,0.049033130,9.914733890,0.037877270,-0.082655260,-0.135256350
1645506132044359936,-0.215037290,0.209543180,8.896896360,0.009246170,0.007116800,-0.121930260
1645506132045949952,-0.146983280,0.014863170,9.318802830,0.004178290,0.032217800,-0.125296410
1645506132048719872,0.088707690,0.058066360,9.723973270,0.027376420,0.018525120,-0.114260620
1645506132049469952,0.327841010,0.046468800,9.651802060,0.083874170,0.008560720,-0.091791150
1645506132053259776,0.260364650,-0.157419380,9.973812100,0.084123020,-0.004528460,-0.105264780
1645506132054329856,0.026916060,0.093723300,9.909879680,0.073878470,-0.027799610,-0.097228590
1645506132058230016,-0.192923530,0.405520020,9.476370810,0.033134230,-0.050082800,-0.107474630
1645506132059830016,-0.325106980,0.645543630,9.325550080,-0.028990210,-0.029543040,-0.119818750
1645506132063279872,-0.298244950,0.762971280,9.608930590,0.008927290,0.049532960,-0.117389870
1645506132064479744,-0.363658550,0.759061630,9.660723690,0.079727170,0.046361990,-0.122414540
1645506132068589824,-0.294915170,0.688617350,9.879365920,0.072416660,-0.054040540,-0.098769360
1645506132069299968,-0.241040020,0.493191420,9.656808850,0.007602570,-0.021116440,-0.069309770
1645506132073269760,-0.117131700,0.056727230,9.274166110,-0.025255980,-0.025387110,-0.091537830
1645506132076239872,-0.122498260,-0.389983240,9.988673210,0.037723780,-0.018166010,-0.104402030
1645506132078619904,-0.012217690,-0.335103180,9.304750440,0.095488120,0.025625530,-0.129206450
1645506132079599872,0.199549270,-0.170601680,9.495480540,0.068052110,-0.018508730,-0.140586510
1645506132083269888,-0.031907650,0.017665190,10.106633190,0.010897220,0.016136470,-0.110313300
1645506132084379904,0.079367620,0.318634630,9.099713330,0.000977520,-0.039805470,-0.099135940
1645506132088189952,0.037282020,0.392567100,9.776731490,0.053839390,-0.055862960,-0.068072970
1645506132089289984,-0.247612760,0.502462920,9.645606990,0.090719760,0.052131720,-0.055290770
1645506132093449728,-0.256810220,0.525116620,9.673640250,0.086672610,-0.005713110,-0.080902880
1645506132094379776,-0.697383170,0.478833110,10.455322270,0.043098630,-0.050097700,-0.075592100
1645506132098219776,-0.569472790,0.565781890,9.117049220,0.000962620,-0.084833810,-0.084574510
1645506132099350016,-0.214665250,0.485548880,9.144651410,-0.000201170,-0.044566390,-0.106967990
1645506132103319808,-0.319734990,0.320091400,9.681682590,0.025621060,0.078058230,-0.109244890
1645506132104480000,0.132089050,0.282123630,9.559774400,0.065086790,0.013069810,-0.099405650
1645506132108480000,0.104519760,0.043937840,10.214967730,0.082311030,-0.054311760,-0.066290800
1645506132111769856,0.039106150,-0.183500650,9.550473210,0.032663340,-0.070594260,-0.053665040
1645506132113469952,0.132146980,-0.254910560,9.354589460,0.036659840,-0.075753030,-0.059390080
1645506132115340032,-0.164174330,-0.235956790,9.415859220,0.064101820,-0.007525090,-0.074522200
1645506132118330112,-0.047661770,-0.068011510,9.562334060,0.058753800,0.007312000,-0.104400520
1645506132119500032,-0.119828630,0.360680700,10.020025250,0.076137480,0.046971440,-0.096093120
1645506132123309824,-0.404448540,0.550621990,10.083148000,0.058592870,-0.077591850,-0.092636060
1645506132124389888,-0.228862000,0.857052390,9.555937770,0.033393510,-0.117766870,-0.054818400
1645506132128609792,-0.284807320,0.923316720,8.924277310,0.037923460,-0.015690920,-0.042571130
1645506132130529792,-0.292284700,0.568358720,9.807867050,0.023856760,0.018467010,-0.068278600
1645506132133359872,-0.289340790,0.617416500,10.216745380,0.060684980,0.030820070,-0.047390160
1645506132134409984,-0.219215780,0.255097390,9.822062490,0.071737180,-0.113098340,-0.067912040
1645506132139340032,0.075283710,0.098533530,9.586009030,0.017948450,-0.088340050,-0.064863260
1645506132139909888,0.160146560,0.231302230,8.746171950,0.005994740,0.009685760,-0.075610000
1645506132143549952,0.120678610,-0.058788000,9.537956240,-0.006233160,-0.006274880,-0.097773970
1645506132145499904,0.168346120,0.128475870,9.882890700,0.027272110,0.005955990,-0.065521900
1645506132148389888,0.124834520,-0.009771730,9.705511090,0.066114960,-0.015099350,-0.065721570
1645506132149400064,-0.118413660,-0.107409760,10.444280620,0.075168920,-0.061194610,-0.053121150
1645506132153349888,-0.297401700,0.255313810,9.322907450,0.061136490,-0.062139330,-0.044092540
1645506132154340096,-0.268970190,0.251821190,9.042347910,-0.002646450,-0.044590240,-0.074113910
1645506132158499840,-0.309848850,0.473520340,9.690489770,-0.009521840,0.051084160,-0.052218140
1645506132159639808,-0.285067170,0.568191650,9.637578010,0.073342010,0.027693810,-0.064676990
1645506132163800064,-0.173531470,0.652753770,10.181524280,0.079885130,-0.084477680,-0.071372100
1645506132166129920,-0.013802100,0.941527370,9.440896990,0.019273160,-0.045013430,-0.040151180
1645506132168269824,0.120258260,0.610719260,9.231575970,-0.062310700,0.008790190,-0.058403610
1645506132169319936,-0.053752390,0.318898830,10.241517070,-0.046131010,0.029143690,-0.066898770
1645506132173389824,-0.093642610,0.164793730,9.737547870,0.068940220,-0.032676750,-0.044824180
1645506132174439936,0.110221300,-0.000836070,9.312142370,0.072300420,-0.083217030,-0.051054360
1645506132178360064,0.086679210,0.134369490,9.206592560,-0.015600030,0.025901200,-0.046531860
1645506132182289920,0.084710600,0.090282920,9.357171060,-0.074954340,0.052924470,-0.031639640
1645506132183219968,0.069773350,0.011954930,10.014105800,-0.025810300,0.032326580,-0.037801270
1645506132184359936,-0.121976520,0.005604510,10.115341190,0.072249770,-0.012920800,-0.043965880
1645506132188230144,-0.190034370,0.197779890,9.650160790,0.079770390,-0.048317020,-0.048966710
1645506132189319936,-0.323238070,0.438513430,9.244001390,0.031812490,-0.028146800,-0.051586330
1645506132193359872,-0.343698350,0.596093240,9.388288500,-0.071580710,0.010500850,-0.050577520
1645506132194360064,-0.047926490,0.791662810,9.509051320,-0.078803310,0.094661120,-0.036662820
1645506132198489856,-0.091490750,0.579613690,10.365140910,0.015579170,0.034680960,-0.044550010
1645506132199339776,-0.089886860,0.581858340,10.175375940,0.065332660,-0.046893960,-0.031395260
1645506132203219968,0.173392010,0.585806910,8.989869120,0.029160080,-0.042124090,-0.001972910
1645506132204359936,-0.063356160,0.143081280,9.631373410,-0.087729080,0.032219290,-0.020585950
1645506132208609792,-0.079325010,0.097975630,9.724796300,-0.108957310,0.072391340,-0.030112270
1645506132209820160,0.012325430,-0.157828300,9.906443600,0.006872410,0.006335970,-0.048175450
1645506132213489920,-0.048724150,-0.191727060,9.906614300,0.062307730,0.005277990,-0.066570950
1645506132215049984,0.019359260,0.304188760,9.238033290,0.034594540,0.030073530,-0.043392180
1645506132218390016,-0.200604070,0.306126890,9.764945980,-0.075390930,-0.002509360,-0.031487640
1645506132221099776,-0.172034610,0.389626030,9.382825850,-0.108158600,0.011365120,0.000673530
1645506132223289856,0.007767950,0.259249510,9.412343980,0.008320810,0.069874530,0.000901520
1645506132224470016,-0.266521780,0.139767970,10.432966230,0.082831090,0.069980320,-0.029477470
1645506132228379904,-0.270680220,0.519135950,10.092267040,0.055353340,-0.013639040,-0.015358630
1645506132229509888,-0.225590500,0.537452160,9.486720090,-0.070691110,-0.058670340,-0.023239850
1645506132233219840,-0.158357010,0.557047070,9.234006880,-0.154308990,0.026874240,-0.020556150
1645506132234400000,0.035487740,0.543039320,9.574924470,-0.057624280,0.115159150,-0.020460780
1645506132238629888,-0.050283180,0.424460050,10.153847690,0.049884610,0.056269760,-0.042045110
1645506132239419904,0.056090860,0.476771500,9.940132140,0.038619330,-0.030042230,0.001163780
1645506132243320064,0.116172660,0.307624520,9.431627270,-0.058422980,0.019527970,0.021570920
1645506132244339968,-0.110480550,0.006146450,9.539068220,-0.131511690,0.024890910,0.008174780
1645506132248309760,-0.179244530,-0.136313110,9.951927190,-0.048822160,0.040979680,0.003282730
1645506132250579712,-0.147594060,-0.075376360,9.381331440,0.039003790,0.048786410,-0.024768710
1645506132253319936,-0.148736800,0.130966110,9.755834580,0.018808250,0.024579470,-0.024002790
1645506132254349824,-0.193445710,0.375020650,9.858584400,-0.049279640,0.083288550,-0.002568960
1645506132258309888,-0.155282480,0.497764830,9.420720100,-0.093488400,-0.001108650,0.007371610
1645506132259379968,-0.126790230,0.348444190,10.068911550,-0.044845040,-0.007672610,0.011794270
1645506132263399936,-0.099893820,0.317678210,9.387814520,0.022974610,0.093142690,0.002609190
1645506132264320000,-0.140112470,0.239160210,9.853763580,0.045476850,0.038729610,-0.009007750
1645506132268420096,-0.285434130,0.214950040,10.466788290,-0.008429590,0.040915610,-0.003024940
1645506132269829888,-0.064065140,0.455942660,9.227706910,-0.087431070,-0.017458200,-0.004780290
1645506132273469952,0.075404610,0.334254710,9.798787120,-0.101141650,0.015529990,-0.009809440
1645506132274370048,0.085257030,0.322385400,9.554550170,-0.044991080,0.131009520,-0.016444920
1645506132278339840,0.147319840,0.341284280,9.612921710,0.042651590,0.074346370,-0.000482800
1645506132280169984,-0.053033390,0.127421050,10.493484500,0.035957990,0.020582970,0.020021200
1645506132283249920,-0.137123660,0.151694030,9.363819120,-0.040903690,0.007741150,0.029295690
1645506132284389888,-0.094080840,0.111271610,9.363517760,-0.080017750,0.003255900,0.013616680
1645506132288539904,-0.217147080,-0.048131180,9.602098460,-0.067202750,0.117775820,-0.004620850
1645506132290220032,-0.094485280,0.114554290,9.600689890,0.015409290,0.116156050,-0.026310980
1645506132293299968,-0.217788760,0.283890520,10.532248500,0.055965780,0.057400760,-0.036387150
1645506132294419968,-0.273873090,0.461564870,9.635922430,-0.022596120,-0.018137690,-0.008167330
1645506132298709760,0.028841400,0.558642570,9.071383480,-0.083598480,-0.007885690,0.020369880
1645506132299429888,-0.051439840,0.274842920,9.557735440,-0.070600220,0.145503890,0.001052020
1645506132303399936,-0.147337120,0.124351820,10.272005080,0.013817850,0.111009180,0.003960730
1645506132304319744,-0.141030680,0.247467490,10.434167860,0.086015460,0.038222970,0.012201070
1645506132308539904,-0.182125230,0.278044070,9.538761140,-0.006328520,-0.037463010,0.004918870
1645506132309339904,-0.017485320,0.465379420,9.245724680,-0.119246560,0.016140940,0.020651520
1645506132313669888,0.009803750,0.421816860,9.209143640,-0.108954320,0.155320730,0.004132090
1645506132314999808,-0.008297030,0.180454310,9.970261570,-0.005671380,0.097352250,-0.025086100
1645506132318439936,0.030671860,0.326466890,10.267642970,0.083616380,0.076769300,0.003640350
1645506132319350016,-0.012568860,0.195153760,9.540601730,0.029328470,0.031422080,0.000414250
1645506132323180032,-0.182097810,0.030355210,9.884069440,-0.086231550,-0.007681550,0.016324230
1645506132324299776,-0.226606710,0.153995020,9.100486760,-0.087550280,0.085975220,0.013329090
1645506132328229888,-0.124234870,-0.044537280,9.305963520,-0.029203300,0.089044870,-0.021877890
1645506132329519872,-0.192003680,0.139990520,10.404754640,0.047849120,0.148634610,-0.003780430
1645506132333369856,-0.106167470,0.319555970,9.795238490,0.067098450,0.082929450,-0.001755360
1645506132334470144,-0.157313620,0.344947930,10.196000100,-0.023965540,-0.039197510,0.017453730
1645506132338359808,-0.077830190,0.610703350,9.348213200,-0.094421210,0.064173350,0.038486720
1645506132340260096,-0.031920340,0.386522200,9.274764060,-0.073865060,0.119668250,0.001083310
1645506132343180032,-0.270478010,0.345023720,10.626078610,0.028161710,0.102491680,0.007675590
1645506132344379904,-0.144907980,0.491162060,9.663318630,0.085833680,0.057728600,0.007078050
1645506132348589824,0.029741450,0.493414880,9.468751910,-0.014762580,0.004252790,0.008103250
1645506132350359808,-0.057629400,0.580020790,9.569899560,-0.133349020,0.103074320,0.025068230
1645506132353420032,0.126563760,0.235210820,9.230490680,-0.118024660,0.144785690,0.004239380
1645506132354669824,-0.015904670,-0.090239170,10.332264900,0.024077300,0.089103010,0.005729500
1645506132358259968,-0.120868250,-0.092345070,10.067618370,0.117477770,0.069701680,0.000028310
1645506132359299840,-0.119585100,0.080477390,9.465376850,0.008536880,0.018899140,-0.000534950
1645506132363289856,-0.363108900,0.271800310,9.596703530,-0.130680220,0.046579540,0.016729540
1645506132365289984,-0.179233400,0.226406350,9.293039320,-0.140127540,0.134235640,-0.001640620
1645506132368699904,-0.140952230,0.324666350,10.102310180,0.007145110,0.144474210,-0.005067890
1645506132370029824,-0.192970590,0.579583940,10.394804950,0.113043180,0.072863690,0.002427400
1645506132373679872,-0.010294630,0.796092270,9.699996950,-0.004424150,0.005424020,0.026699900
1645506132375079936,0.118715350,0.845814470,9.214262010,-0.140924740,0.072638690,0.064311920
1645506132378190080,0.050988460,0.319813700,9.883974080,-0.159296410,0.143601000,0.035262110
1645506132379340032,-0.095660600,0.247632970,10.166124340,-0.015851860,0.121846820,0.013124940
1645506132385489920,-0.084007080,0.351426060,9.710126880,0.090281660,0.019215040,-0.005383790
1645506132385959936,-0.107866470,0.151492710,9.524132730,-0.038103760,0.046873100,-0.011679530
1645506132389250048,-0.080407420,0.224887130,9.054118160,-0.142398450,0.130283850,0.017210840
1645506132390089984,-0.244965540,-0.059675220,10.036061290,-0.119043910,0.111734890,0.002615150
1645506132393430016,-0.103186030,-0.035541050,9.950492860,-0.030037760,0.089263910,0.013223290
1645506132394889728,0.014907400,0.218031350,9.747036930,0.045675040,0.094865260,0.020565090
1645506132398870016,-0.179236870,0.141032490,10.226133350,-0.025574860,0.117452450,0.013725460
1645506132399689984,-0.249967600,0.399872990,9.793336870,-0.077120960,0.053314860,0.032059850
1645506132403569920,-0.181326730,0.532534300,9.496253970,-0.088348990,0.035770240,0.017404560
1645506132404929792,-0.054132690,0.605901360,9.315977100,-0.087763380,0.114549700,0.014257430
1645506132408329984,-0.046488290,0.846521680,9.782622340,-0.044913600,0.163240750,0.003813210
1645506132409400064,-0.033428850,0.707203920,10.409975050,-0.056536500,0.119879840,-0.000022350
1645506132413600000,-0.105171570,0.429003090,10.085829730,-0.066640980,0.036105510,0.038154430
1645506132414819840,-0.115402560,0.264337840,9.617985730,-0.070551040,0.053040690,0.023679440
1645506132418319872,-0.238102720,0.018048190,9.365196230,-0.096702580,0.102891040,0.018504260
1645506132419369984,-0.292779950,-0.113964600,9.588275910,-0.073276470,0.088943550,0.013105570
1645506132423300096,-0.148614940,-0.067730290,9.653388020,-0.046423070,0.142404440,-0.004784760
1645506132424399872,-0.160726440,-0.098368670,9.876590730,-0.052413340,0.099469720,0.008946660
1645506132428239872,-0.202007460,-0.004284090,10.404419900,-0.036858020,0.070391590,0.024835770
1645506132429479936,-0.145249690,0.187661330,9.602503780,-0.034256270,0.064943730,0.021699070
1645506132433849856,-0.140767310,0.238411780,9.708680150,-0.044465080,0.039075310,0.032748290
1645506132434670080,-0.157844690,0.378338750,9.824934960,-0.051841140,0.175261500,0.020658970
1645506132438249728,-0.137647840,0.488600550,9.660522460,-0.030888620,0.112073150,0.012835860
1645506132439350016,-0.219166980,0.559976820,10.413087840,-0.014249980,0.022937360,0.030051180
1645506132443300096,-0.036366910,0.757646080,9.239620210,-0.058217350,0.085161650,0.036710500
1645506132444379904,0.076403490,0.470539600,9.348559380,-0.090970100,0.066997100,0.025677680
1645506132448769792,-0.129605740,0.224886510,10.235968590,-0.062279410,0.170069930,0.020293890
1645506132449949952,-0.134541600,0.062181860,9.708136560,-0.013649460,0.109480330,0.017288330
1645506132453349888,-0.247211930,-0.209425510,10.380321500,0.000159440,0.000914930,0.014805790
1645506132454439936,-0.303676160,-0.149834190,9.486377720,-0.042742490,0.072100760,0.008355080
1645506132458179840,-0.110583660,-0.044065430,8.932012560,-0.064851350,0.061354040,0.000116230
1645506132459379968,-0.137277170,0.038020690,9.956383710,-0.059749190,0.155024230,0.005778670
1645506132463739904,0.005993640,0.105123370,9.858386990,-0.010438260,0.175635520,0.018174950
1645506132466119936,0.038292030,0.203065040,10.411000250,0.056594600,0.042393800,0.028966370
1645506132468740096,-0.057163540,0.444911000,9.833082200,0.024929650,0.039090220,0.036303700
1645506132469410048,0.036210190,0.542547700,9.090824130,-0.072127580,0.069847700,0.036801400
1645506132473529856,-0.121026690,0.548183200,9.878313060,-0.087627750,0.164194390,0.019043680
1645506132475559936,-0.259070430,0.371705200,10.116872790,-0.022751090,0.145366770,-0.006216760
1645506132478279936,-0.214127540,0.428068910,10.108499530,0.052049760,0.031928710,0.004082920
1645506132479879936,-0.131373880,0.604743900,9.307866100,0.012969970,0.055174530,0.009948020
1645506132484089856,-0.116476460,0.334425510,9.443810460,-0.113853830,0.111392160,0.026372080
1645506132484879872,-0.198444260,0.171623930,10.024031640,-0.099667910,0.153851520,0.033509740
1645506132488369920,-0.156794800,-0.188938110,9.907029150,0.018465520,0.087822970,0.010952350
1645506132489689856,-0.138680290,-0.333317220,10.062833790,0.077661890,0.044445700,0.014996530
1645506132493399808,-0.146333370,0.121569400,9.293977740,0.034144520,0.106087330,-0.002329050
1645506132494739968,-0.232996050,0.080500580,9.637421610,-0.098928820,0.076474250,-0.003601610
1645506132498769920,-0.106624370,0.421242890,9.854206090,-0.104986120,0.093793870,0.017252570
1645506132500649984,0.119719880,0.646058440,9.492531780,-0.003319980,0.136415690,0.002937020
1645506132503199744,0.047811460,0.517506600,10.438330650,0.041003530,0.120751570,0.014314060
1645506132504449792,-0.229017930,0.827995420,10.277110100,0.039556630,0.098046660,0.042663510
1645506132508409856,-0.299026550,0.502838670,9.661269190,-0.050461300,-0.002114470,0.038360060
1645506132509499904,-0.427924040,0.297443990,9.557968140,-0.104781990,0.050029160,0.038437550
1645506132513399808,-0.404770760,0.354400010,9.330540660,-0.059747690,0.152400120,0.007608530
1645506132514739968,-0.269055600,0.116873820,9.983648300,-0.009422000,0.108657780,-0.021171570
1645506132519119872,-0.225223030,0.373188590,10.143278120,0.003825130,0.092874470,-0.006575880
1645506132520619776,0.072147180,0.215186060,9.656137470,-0.037945810,0.079992410,0.002913180
1645506132523229952,0.010485150,0.005224700,10.012939450,-0.071763980,0.065459300,0.010794400
1645506132524410112,-0.114056210,0.090274670,9.830927850,-0.025352840,0.062169140,0.023461880
1645506132528559872,0.006762590,-0.093106460,9.342993740,0.000856820,0.071468950,0.009143350
1645506132529639936,-0.122257460,0.101366080,9.759814260,0.002822280,0.116835540,-0.002945960
1645506132533399808,-0.267270150,0.302475180,10.148836140,-0.019218030,0.126700100,0.006501380
1645506132535059968,-0.304395910,0.482981590,9.977936740,-0.045128170,0.024968390,0.021363800
1645506132538230016,-0.214929640,0.703537760,9.667088510,-0.045745070,0.015167890,0.028075280
1645506132539579904,-0.208921450,0.497168480,9.648294450,-0.053724660,0.135831580,0.016625230
1645506132543399936,-0.266329530,0.422500310,9.824059490,0.007382040,0.133307280,0.003460050
1645506132546149888,-0.375862150,0.276554140,10.560793880,0.027485190,0.035604840,-0.004225970
1645506132548679936,-0.283107400,0.314556900,9.489050870,-0.037337840,0.012613830,0.012569130
1645506132549379840,-0.067021270,0.294249180,9.195132260,-0.079931320,0.025336440,0.003336370
1645506132553499904,-0.062210380,0.003980550,9.834631920,-0.072012840,0.142829140,-0.004957620
1645506132554380032,0.111316450,0.070240030,9.704401020,0.007309020,0.140643120,0.009003280
1645506132558240000,0.131926600,-0.110727800,10.543695450,0.058320170,0.068196660,0.017099080
1645506132559369984,-0.114287790,-0.151807860,10.107871060,0.017994640,0.038495660,0.033055250
1645506132563500032,-0.067998710,0.175910030,9.219902040,-0.023007390,-0.005869570,0.027240810
1645506132564430080,-0.303553520,0.134702470,9.545773510,-0.063322490,0.075620400,-0.001131000
1645506132569059840,-0.366903990,0.373055160,9.594134330,-0.039082770,0.145566460,-0.016011300
1645506132570739968,-0.373785410,0.607724910,10.498866080,0.046537820,0.107985730,-0.016725070
1645506132573819904,-0.507931770,0.711600780,10.460680960,0.041313460,0.012663010,0.002528730
1645506132575749888,-0.181417050,0.958284020,9.369145390,-0.039432950,-0.026112790,0.043910740
1645506132578609920,-0.028626180,0.689452170,9.357980730,-0.103823850,0.116042780,0.033792850
1645506132579859968,-0.111147640,0.248975020,9.894145010,-0.073829300,0.140377890,0.010222200
1645506132583259904,-0.041099510,0.078070610,10.415151600,0.045126680,0.054308780,-0.003404920
1645506132584399872,-0.048029920,-0.119704370,9.696125980,0.062015660,0.009037550,-0.013281400
1645506132588440064,-0.043877060,-0.078647480,9.450664520,-0.050109640,-0.004602970,-0.012381380
1645506132589479936,-0.087794890,0.110684730,9.468138690,-0.113154960,0.111244630,0.005048510
1645506132593279744,-0.134926320,0.059310220,9.579763410,-0.077076260,0.090982020,-0.012432040
1645506132594359808,-0.127738820,0.137636040,10.504960060,0.037221610,0.073659420,0.009244680
1645506132598490112,-0.180277150,0.358077380,9.861191750,0.091059510,0.105187300,0.010524690
1645506132599399936,-0.302130880,0.362105280,10.038962360,0.019915400,-0.034455950,0.018291170
1645506132603719936,-0.388599190,0.606532100,9.742903710,-0.081199410,0.035718090,0.030763440
1645506132604539904,-0.268144160,0.589513240,9.083767890,-0.099270070,0.065404180,-0.007814170
1645506132608419840,-0.220762220,0.542681810,10.280483250,-0.040414930,0.091424580,-0.019894540
1645506132609599744,-0.161285790,0.718896390,10.019797330,0.033739210,0.129643080,-0.014692550
1645506132613349888,0.081281510,0.560885850,9.796588900,0.008754430,-0.002244120,-0.001893940
1645506132614509824,0.048312500,0.383365930,9.981838230,-0.079593070,0.038358570,0.031551720
1645506132618219776,0.020920350,0.052016300,9.224770550,-0.101287670,0.089080630,0.023280090
1645506132620179968,-0.106716830,-0.301411030,9.960915570,-0.029122840,0.042712700,0.029018530
1645506132623279872,-0.289500830,-0.372809500,10.004715920,0.043372810,0.082683560,0.007766490
1645506132625039872,-0.208905160,-0.256585540,9.658706670,0.027532880,0.057330740,-0.016579030
1645506132628179968,-0.375157950,0.087869560,10.087286000,-0.036984680,0.036276880,-0.015622380
1645506132629329920,-0.281843600,0.394097720,9.434849740,-0.080923740,0.053295500,-0.009664890
1645506132633209856,-0.087505920,0.561897160,9.593604090,-0.059686600,0.083579130,-0.003182890
1645506132634469888,-0.100770790,0.631430330,10.195095060,0.036063790,0.124868770,0.005368890
1645506132638319872,-0.168041170,0.588541920,10.368263240,0.054432450,0.023324790,0.003263350
1645506132640669696,-0.140859750,0.722024920,9.669610980,-0.003643330,-0.007903580,0.041607020
1645506132644599808,-0.113576610,0.519764900,9.385737420,-0.100840630,0.034497680,0.022028390
1645506132645329920,-0.260812040,0.282984790,10.021828650,-0.112029910,0.113950680,0.008192660
1645506132648249856,-0.200899780,0.277399030,9.835969920,0.005216900,0.066764650,-0.008183720
1645506132649359872,-0.184757230,0.015881380,9.942611690,0.040630990,0.004306440,-0.025656820
1645506132653410048,-0.120102240,0.112620830,9.505940440,-0.008386370,0.066937510,0.001575050
1645506132655799808,-0.113741810,0.102323980,9.673297880,-0.058326130,0.054097180,-0.005078320
1645506132658870016,-0.341343190,-0.105512410,10.220532420,-0.088733440,0.044037390,0.002378230
1645506132659659776,-0.206415970,0.039094900,9.531183240,-0.005783140,0.022484360,0.001785160
1645506132663190016,-0.206408600,0.026902850,9.870164870,0.055453180,0.053198630,-0.034987920
1645506132664369920,-0.436312620,0.387813120,10.021395680,0.020553170,0.062404580,-0.017219780
1645506132668890112,-0.221298960,0.836678800,9.685662270,-0.055536620,-0.001001360,0.000345710
1645506132671069952,-0.103969310,0.781975210,9.661343570,-0.132194150,0.039505960,0.008907910
1645506132674010112,0.035828980,0.747462570,9.741577150,-0.073012720,0.089418900,0.017395620
1645506132674949888,0.004387520,0.594516870,10.255958560,0.035883490,0.086078060,-0.010502340
1645506132678700032,-0.271751170,0.352940020,10.137849810,0.034058090,-0.017666820,-0.002758200
1645506132679450112,-0.224508230,0.318727170,9.546062470,-0.053380430,-0.045445570,0.013482570
1645506132683290112,-0.313505650,0.072029640,9.346133230,-0.141614680,0.062300280,-0.009842220
1645506132684449792,-0.347940270,-0.116529710,9.748933790,-0.108855960,0.059460110,-0.029738250
1645506132688349952,-0.139060720,-0.062538070,10.021710400,0.010584300,0.074763580,-0.028263030
1645506132689509888,-0.035709690,0.050677880,9.617019650,0.053706770,0.052970660,-0.020259620
1645506132693239808,-0.031629130,0.189492020,10.208977700,-0.026993460,-0.000721220,0.005319720
1645506132694429952,-0.004300810,0.358299640,9.564812660,-0.103032590,0.040091580,0.035026670
1645506132698350080,0.021129810,0.066719230,9.364320760,-0.081257520,-0.006185470,0.024661430
1645506132699579904,-0.050303940,0.001673200,10.148503300,0.024873020,0.085419420,-0.007613000
1645506132703599872,-0.220676970,0.344496520,9.681339260,0.079406800,0.098145030,-0.027264660
1645506132704789760,-0.331561510,0.498032840,10.359005930,-0.013269480,-0.050440430,-0.023667510
1645506132708459776,-0.242478160,0.706370060,9.649148940,-0.122810900,0.028127440,0.002537670
1645506132709859840,-0.109473680,0.508437100,9.144331930,-0.109979530,0.046125050,-0.012785200
1645506132713239808,-0.209356100,0.257293550,10.306107520,0.007636850,0.084088750,-0.015117230
1645506132714419968,-0.349927070,0.188818500,9.946518900,0.093001130,0.059865420,-0.003434720
1645506132718459904,-0.246650860,0.109412640,9.881773950,0.031276040,-0.066474070,0.007371600
1645506132721210112,-0.245769200,0.105876710,9.657131200,-0.098456440,0.007180870,0.019040710
1645506132723340032,-0.073876110,-0.034130140,9.194210050,-0.124752530,0.061030690,0.000016390
1645506132724419840,0.083310250,-0.017309310,10.047459600,-0.003357230,0.086158500,-0.031857190
1645506132728410112,0.018023870,0.074901980,10.089829440,0.102140020,0.096948430,-0.026272240
1645506132729359872,0.000024450,0.256017210,10.077863690,0.055728850,-0.024349990,-0.007693470
1645506132733549824,-0.140078070,0.480093240,9.600592610,-0.051721930,-0.011295080,0.026361650
1645506132734400000,-0.245648380,0.269362840,9.232062340,-0.103646530,0.006735330,0.018657750
1645506132738269952,-0.265427410,0.305955500,9.890723230,-0.025726850,0.092515360,-0.004138050
1645506132739650048,-0.390851440,0.437757730,10.084053990,0.079090890,0.108686090,-0.018003580
1645506132743379712,-0.493822250,0.408855020,10.652351380,0.053766370,-0.020322200,-0.008332730
1645506132744679936,-0.222366960,0.736070040,9.508195880,-0.041149550,-0.018513200,0.023271140
1645506132748199936,-0.087839530,0.435716840,9.121702190,-0.116132210,0.011098380,0.013263520
1645506132749590016,-0.059789780,0.223949760,9.828317640,-0.072494160,0.107353950,0.015717740
1645506132753919744,-0.026738250,0.198937610,9.836432460,0.065256660,0.088872000,-0.003306570
1645506132755159808,-0.047635950,-0.172719610,10.383807180,0.072208050,-0.027304890,-0.001299380
1645506132758299904,-0.016194810,0.021310250,9.722906110,0.003241000,0.010079150,0.007237490
1645506132759379968,-0.111540510,0.031767010,9.307549480,-0.072170820,0.006456670,-0.013563040
1645506132763409920,-0.155584650,0.112336780,9.743274690,-0.085662310,0.042352080,-0.014534600
1645506132764509952,-0.117350700,0.380246250,9.611295700,0.016328690,0.114572060,-0.001944600
1645506132769340160,-0.191216040,0.170952010,10.203945160,0.086131700,0.049336250,-0.008074940
1645506132772150016,-0.421709840,0.329558040,10.418808940,0.079306970,-0.011996930,0.017482040
1645506132773659904,-0.347339420,0.459077950,9.390675540,-0.002071260,-0.037394460,0.025084620
1645506132774679808,-0.332818870,0.349935020,9.514474870,-0.091922300,0.025805840,0.008487700
1645506132778349824,-0.273913590,0.456631510,9.953977580,-0.046744950,0.126250090,-0.015579160
1645506132779379968,-0.164703550,0.392153920,10.187705040,0.052623450,0.060157490,-0.034190720
1645506132783330048,-0.006968710,0.584947290,9.869522090,0.077526280,-0.027896460,-0.018925970
1645506132784770048,0.082610550,0.676251110,9.409083370,-0.021900240,0.003071130,0.013637550
1645506132788610048,0.018651870,0.383270260,9.380648610,-0.113786760,0.072936720,0.026254360
1645506132790249728,-0.124470230,0.039382170,10.109843250,-0.042170290,0.045982000,0.020195540
1645506132793299968,-0.250348450,-0.291408570,10.229434010,0.079280150,0.032582880,0.005701180
1645506132794409984,-0.162646550,-0.161531900,9.442552570,0.106778740,0.026768450,-0.021272900
1645506132798329856,-0.277002390,0.033048670,9.869088170,-0.013233720,0.025331980,-0.030800700
1645506132801159936,-0.283416870,0.286977050,9.465263370,-0.108471540,0.061419620,-0.013515360
1645506132803379968,-0.039149410,0.506185830,9.473258970,-0.050067910,0.038251280,-0.010323530
1645506132804689920,-0.158427090,0.380950060,10.384357450,0.051502880,0.086426740,-0.007648770
1645506132808310016,-0.210375830,0.601877570,9.920584680,0.096733860,0.044116380,-0.002528730
1645506132809409792,-0.248419660,0.640992460,10.056269650,0.046989320,-0.044400990,0.014218690
1645506132813210112,-0.411660790,0.506814000,9.585046770,-0.088728960,0.005508960,0.023123620
1645506132814509824,-0.133841930,0.562931300,9.314805030,-0.109823060,0.069139910,0.004929300
1645506132818230016,-0.225144300,0.263845980,10.236433030,-0.012423100,0.095683330,-0.028270480
1645506132819900160,-0.194660430,0.299300850,9.955981250,0.058689710,0.026918950,-0.033448630
1645506132823930112,0.083549900,0.439881150,9.718092920,0.037436190,0.014598670,-0.006221230
1645506132824809984,-0.151484340,0.194743140,9.705805780,-0.076279040,0.052776940,-0.000035760
1645506132828229888,-0.153789040,0.123952720,9.796332360,-0.111128370,0.016275050,0.006675720
1645506132829459968,-0.147776220,-0.025490650,9.713525770,-0.008948150,0.062285360,-0.002697110
1645506132833969920,-0.236518440,-0.151404340,9.774921420,0.052025930,0.036980210,-0.037707390
1645506132834869760,-0.237193700,0.231851030,10.094105720,0.039795040,0.063821680,-0.023588540
1645506132838789888,-0.348097410,0.513622760,9.491270070,-0.045572220,0.020141900,-0.027258700
1645506132839529984,-0.200710520,0.586483420,9.696073530,-0.127986070,-0.033688550,-0.010730330
1645506132843259904,-0.084867930,0.595385430,9.687169080,-0.066213310,0.118269030,0.004231930
1645506132844919808,-0.125912580,0.320192960,10.000397680,0.045692910,0.082631420,-0.022615490
1645506132848369920,-0.294621200,0.267495540,10.867359160,0.077813870,0.016649070,-0.003086030
1645506132849400064,-0.274726600,0.424401730,9.411207200,-0.014288730,-0.016382340,0.010450180
1645506132853319936,-0.273407940,0.229888320,9.477655410,-0.135813650,-0.048042840,-0.002247100
1645506132857149952,-0.224994030,0.242637380,9.607210160,-0.121060040,0.094363110,-0.014668700
1645506132858249984,-0.044530510,0.209084600,9.334280010,0.011563300,0.092874460,-0.038434560
1645506132859469824,0.017184020,0.183864500,10.508687970,0.066505370,0.039887430,-0.028520820
1645506132863259904,0.042591620,0.318487520,9.918834690,0.014947350,0.064224010,-0.008414690
1645506132864509696,-0.012146120,0.201317010,9.740160940,-0.078476960,-0.032886860,-0.001585480
1645506132868460032,-0.270654980,0.073153940,9.807823180,-0.088886910,0.008654590,0.007486340
1645506132869380096,-0.300075020,-0.150789630,9.145925520,-0.002545120,0.072473280,-0.028219820
1645506132873619968,-0.410789850,-0.091412250,10.057618140,0.088907790,0.058558580,-0.049343710
1645506132875320064,-0.545711700,0.203524810,10.142705920,0.076402750,0.038033720,-0.040371720
1645506132878510080,-0.336806830,0.492700100,9.673982620,-0.058838730,-0.033380090,-0.020553170
1645506132880489728,-0.143984780,0.570956050,9.748772620,-0.108654800,0.056244440,-0.002770130
1645506132883229952,-0.138362600,0.214031130,10.004353520,-0.022955240,0.089485930,-0.021103020
1645506132884480000,-0.147136970,0.281875640,10.365896220,0.114996740,0.029988590,-0.017885860
1645506132888989952,-0.044285040,0.464230720,9.597253800,0.118808460,-0.013843180,-0.012989340
1645506132891160064,-0.094070350,0.489804890,9.540449140,-0.078465030,-0.012907380,-0.009877980
1645506132893319936,-0.076247160,0.602913800,9.431962010,-0.167353470,0.083383920,0.006762150
1645506132894439936,-0.096758240,0.269692210,9.863443370,-0.066910690,0.055247550,-0.033299620
1645506132898239744,-0.103624790,0.069142400,10.234004020,0.086282200,0.052784380,-0.027576090
1645506132899389952,-0.024797930,0.276773540,9.713848110,0.139710280,0.042647120,-0.031590460
1645506132903249920,-0.321435570,0.172414910,9.989665030,-0.027161840,0.001537800,-0.020545720
1645506132906519808,-0.336634100,0.215487270,9.489049910,-0.154653210,0.004349650,0.016233330
1645506132908320000,-0.245189580,-0.046401920,9.344120030,-0.088143370,0.058032580,-0.024339560
1645506132910080000,-0.284367950,-0.202122330,10.048411370,0.071896610,0.085821760,-0.054888430
1645506132913430016,-0.222800850,0.256894470,10.014555930,0.175911200,0.057582560,-0.055350370
1645506132914429952,-0.191774460,0.547234180,9.831143380,0.025370720,-0.011394920,-0.036622580
1645506132918269952,-0.136638400,0.674246970,9.675204280,-0.165030380,0.012807550,0.010049340
1645506132919770112,-0.097589420,0.414846840,9.757887840,-0.134879370,0.090372570,-0.005254150
1645506132923290112,-0.299813420,0.070183930,10.187356000,0.073432930,0.057622790,-0.038763880
1645506132924489984,-0.339690240,0.216684400,10.172580720,0.207132120,-0.017562510,-0.050204990
1645506132928429824,-0.224164130,0.556187090,9.450413700,0.043098630,0.018990040,-0.043888390
1645506132929669888,-0.200428250,0.618412440,9.505076410,-0.193345560,0.048337880,-0.021448730
1645506132933199872,-0.098609910,0.315914750,10.134320260,-0.182664380,0.082151580,-0.021000200
1645506132934439936,0.111594510,0.088894190,9.675132750,0.051167610,0.089575350,-0.028163190
1645506132938439936,0.156126220,0.030559820,10.043111800,0.212395220,0.016839800,-0.036540630
1645506132940189952,-0.060232560,0.242409940,9.925993920,0.082665700,0.055544090,-0.020760300
1645506132943239936,-0.146114480,0.282919970,9.170357700,-0.155715640,-0.004939740,0.000458960
1645506132944519936,-0.237240600,-0.238179590,9.933682440,-0.176437210,0.039637090,-0.028055910
1645506132948249856,-0.375031560,-0.267100930,9.674674030,0.035843250,0.133284940,-0.080147390
1645506132949420032,-0.481676580,0.219922720,10.081086160,0.219807010,0.016218420,-0.091646610
1645506132953559808,-0.534996690,0.771834490,10.034051900,0.072190170,0.009317700,-0.069025170
1645506132955459840,-0.238565490,1.018000250,8.948401450,-0.181321810,0.048521160,-0.003610550
1645506132958509824,-0.101965580,0.484399500,10.192029950,-0.185370450,0.116236530,0.004395840
1645506132959439872,-0.225272730,-0.012362330,10.541195870,0.066557530,0.107125950,-0.024779140
1645506132963490048,-0.124808940,0.140148850,9.994307520,0.241683420,-0.047416990,-0.038862230
1645506132964409856,-0.127512050,0.399352790,9.498405460,0.070051860,-0.013212860,-0.033591690
1645506132968189952,-0.095572280,0.396593750,9.031024930,-0.220663860,0.085309150,-0.019291050
1645506132969349888,-0.066792740,0.183909820,10.008235930,-0.210370140,0.108675670,-0.035426020
1645506132973260032,-0.086307340,-0.056932340,10.006179810,0.046730040,0.077717010,-0.049793730
1645506132974520064,-0.073115460,0.134660140,10.069399830,0.210660710,0.006406010,-0.048518180
1645506132978459904,-0.315746250,0.545646910,9.731143000,0.096799430,0.036686660,-0.020563600
1645506132979480064,-0.497708410,0.312288250,9.480213170,-0.159114610,-0.010250510,0.004608930
1645506132983199744,-0.501863000,-0.078555350,9.833429340,-0.169304010,0.032445790,-0.005309280
1645506132984470016,-0.374964800,-0.209634710,9.532521250,0.059212760,0.122572500,-0.061404710
1645506132988760064,-0.420293060,-0.075254170,10.594873430,0.207567230,0.032831730,-0.073502970
1645506132990449920,-0.341803190,0.689255240,9.933960910,0.103662920,0.012199580,-0.042432550
1645506132993379840,-0.091946070,0.753424760,9.111569400,-0.153686110,-0.033199790,-0.024844710
1645506132994449920,-0.008925340,0.460096300,9.972613330,-0.196915880,0.058384230,0.004038210
1645506132998659840,-0.067773260,0.398542730,9.754826550,0.037673120,0.117301950,-0.027127560
1645506132999399936,-0.159947500,0.243803830,10.375607490,0.200426580,-0.022833050,-0.040593750
1645506133003599872,-0.326747630,0.613609250,10.020178790,0.101409870,-0.000226500,-0.012116140
1645506133005299712,-0.200438960,0.559922750,8.963515280,-0.142790390,-0.010305640,-0.020508470
1645506133008569856,-0.298150690,0.190202970,9.813895230,-0.207959120,0.034086410,-0.025844570
1645506133010530048,-0.276101650,0.091309700,9.560878750,-0.015601520,0.113987920,-0.053872170
1645506133013219840,-0.100565290,-0.093829510,9.964293480,0.156934560,0.027227410,-0.068059560
1645506133014989824,-0.341174900,0.213121860,10.461404800,0.123660280,0.001712140,-0.046701730
1645506133018369792,-0.167602880,0.339810520,9.304532050,-0.088968890,-0.023326280,-0.014893710
1645506133019480064,-0.108759480,0.016102340,9.562827110,-0.190977750,0.006416440,-0.010417400
1645506133023279872,-0.301625490,-0.053211590,9.944259640,-0.026007000,0.114420060,-0.039324160
1645506133024439808,-0.317305300,0.076257400,10.124675750,0.153325500,0.016264620,-0.061976910
1645506133028239872,-0.448293980,0.634633300,9.970538140,0.131531060,-0.062736880,-0.043788550
1645506133029430016,-0.217329200,0.883560540,9.183586120,-0.099621740,-0.021302700,-0.026537480
1645506133033200128,-0.123175340,0.702557090,9.594344140,-0.217889260,0.087846820,-0.013159220
1645506133034459904,-0.234984650,0.460414230,10.287269590,-0.048589710,0.080806020,-0.037316980
1645506133041819904,-0.236437440,0.143316420,10.466348650,0.121729080,-0.016103690,-0.039023150
1645506133043010048,-0.224515870,0.314153730,9.530628200,0.132791700,-0.060050200,-0.027202080
1645506133044770048,-0.288733330,0.152640670,9.283524510,-0.077585880,-0.033438210,-0.025084620
1645506133045219840,-0.251149330,-0.137119700,9.310433390,-0.200541290,0.057193630,-0.026057660
1645506133048310016,-0.167927320,-0.111079920,9.650567050,-0.065514450,0.063769510,-0.056064130
1645506133049399808,-0.086954560,-0.267311010,10.488346100,0.087107710,0.057166810,-0.070413930
1645506133053269760,-0.173551410,0.116178830,10.177222250,0.152389710,-0.002066790,-0.040136280
1645506133054839808,-0.327267740,0.352996260,9.779566760,0.011987980,-0.078009080,-0.016155840
1645506133058319872,-0.276161250,0.333122970,9.183613780,-0.152565520,-0.021110470,0.003676120
1645506133059820032,-0.391880240,0.472482710,9.501093860,-0.090937320,0.067244480,-0.013217330
1645506133063139840,-0.364290210,0.314374920,10.354312900,0.048320010,0.061543290,-0.049158940
1645506133064420096,-0.374297920,0.595644000,10.309089660,0.142095980,-0.024098160,-0.044083600
1645506133068229888,-0.175876300,0.803465840,9.556965830,0.034299500,-0.058451290,-0.031018260
1645506133069540096,-0.015832570,0.563292320,9.287891390,-0.164309170,0.019334260,-0.020870570
1645506133074149888,-0.107458320,0.344217990,9.774477960,-0.144077840,0.076800590,-0.025233630
1645506133075670016,-0.049139940,-0.019181860,9.975442890,0.019738080,0.030262770,-0.037410860
1645506133078549760,-0.116493750,-0.292954650,9.994529720,0.142316510,-0.048896660,-0.045426190
1645506133080229888,-0.211645010,-0.032180910,9.586824420,0.064228480,-0.014758110,-0.037404890
1645506133083259904,-0.307731810,0.005786050,9.414313320,-0.117960580,0.005000830,-0.026945770
1645506133084499712,-0.374992040,-0.054043710,9.792499540,-0.144758840,0.012204050,-0.041133170
1645506133088940032,-0.283901070,0.048978190,9.772870060,0.004240870,0.079926860,-0.052289680
1645506133092300032,-0.196335330,0.224760880,10.015764240,0.151281070,0.016434490,-0.059546530
1645506133093179904,-0.338784640,0.626490710,10.277011870,0.097589200,-0.035382810,-0.034859780
1645506133094449920,-0.112070630,0.845716420,9.100739480,-0.097453590,-0.022582710,-0.007131690
1645506133098219776,-0.135750090,0.443876620,9.691173550,-0.150448070,0.015200670,-0.023013350
1645506133099389952,-0.341665330,0.185782250,10.296685220,-0.014527140,0.098662090,-0.036230680
1645506133104319744,-0.256421720,0.200231980,9.842952730,0.147794200,-0.037071110,-0.053823000
1645506133105059840,-0.330243770,0.322439190,9.914815900,0.090612480,-0.082619490,-0.046733020
1645506133108729856,-0.143058940,0.453089270,8.841601370,-0.129914280,0.050070890,-0.024257600
1645506133109829888,-0.058520080,0.145120890,9.627168660,-0.160200890,0.073009730,-0.036239630
1645506133113309952,-0.298544700,-0.234249530,10.614850040,0.001361970,0.063365700,-0.036932530
1645506133114439936,-0.094921150,-0.125634820,9.756312370,0.174731020,-0.034734610,-0.051057340
1645506133118249984,-0.273623850,0.022958520,9.772830010,0.131326910,-0.062669820,-0.039181110
1645506133119479808,-0.447005510,0.323733540,9.253989220,-0.089381640,0.007660690,-0.024543700
1645506133123200000,-0.221737310,0.399139110,9.370515820,-0.170449910,0.030419240,-0.028496980
1645506133124699904,-0.311309610,0.237490950,10.180891990,-0.032703570,0.076928730,-0.045965610
1645506133128269824,-0.200684190,0.427626910,10.319063190,0.143222510,0.009158250,-0.059275340
1645506133129499904,-0.160335210,0.803729060,9.932116510,0.132019790,-0.048528610,-0.038501620
1645506133133240064,-0.246777670,0.733347650,9.261382100,-0.087273130,-0.039792060,-0.006465620
1645506133134490112,-0.186592070,0.427011130,9.597909930,-0.182825360,0.034201150,-0.018198790
1645506133138329856,-0.379151280,0.187450680,9.883862500,-0.048917540,0.067889690,-0.032797460
1645506133140339968,-0.359898330,-0.026302180,10.234834670,0.104607640,-0.054621700,-0.051791970
1645506133143859968,-0.195114280,0.350251110,9.591994290,0.089702010,0.004391370,-0.055134300
1645506133144870144,-0.169796540,0.450836810,9.168129920,-0.094531480,0.000558790,-0.036838650
1645506133148559872,-0.153352170,0.260836150,10.145566940,-0.198057310,0.029732290,-0.033567850
1645506133149929984,-0.106000710,0.201795040,9.497757910,-0.066657360,0.053292510,-0.019685930
1645506133153229824,-0.119168400,-0.287571850,10.019674300,0.116075600,-0.047622630,-0.047175600
1645506133154439936,-0.283160900,0.034284180,9.984920500,0.124306980,0.028143830,-0.047753760
1645506133158659840,-0.363943850,0.418723700,9.018140790,-0.048804280,-0.041867790,-0.034157930
1645506133160149760,-0.345726280,0.322522580,9.997274400,-0.210021440,-0.018240510,-0.034716720
1645506133163349760,-0.342491890,0.485855250,9.644642830,-0.123760100,0.094914440,-0.037442150
1645506133164439808,-0.292577860,0.394305440,10.135232930,0.082841520,-0.028824810,-0.054335590
1645506133168390144,-0.426088540,0.600406830,10.303756710,0.128565700,-0.021414460,-0.045172860
1645506133169699840,-0.297062900,0.812342940,8.961831090,-0.045730180,-0.033088030,-0.012494630
1645506133173229824,-0.276324780,0.446386960,9.892730710,-0.202693050,-0.023153430,-0.014247000
1645506133175989760,-0.343029110,0.131265280,9.852908130,-0.152875530,0.068806110,-0.024840240
1645506133178619904,-0.115503390,0.007836840,9.748377800,0.044509770,-0.031033160,-0.044985120
1645506133180219904,-0.077345830,0.041532760,10.027366640,0.100512790,-0.021970270,-0.052033370
1645506133184029696,0.014751630,0.293894170,9.150166510,-0.047940020,0.032383210,-0.038914380
1645506133185519872,0.038703140,0.329802510,9.790617940,-0.189337160,-0.003391500,-0.011602050
1645506133188199936,-0.150524850,-0.053120300,9.897627830,-0.146028400,0.036418440,-0.014156100
1645506133189430016,-0.226520180,-0.173230650,9.882272720,0.040306150,-0.033693020,-0.035136940
1645506133193319936,-0.572119470,0.128859590,10.021275520,0.135491790,-0.022743640,-0.043517350
1645506133196430080,-0.697779540,0.380798610,9.449108120,-0.021561980,-0.050371890,-0.041449070
1645506133198459904,-0.570987700,0.611804900,9.593106270,-0.189478700,-0.009997190,-0.015763940
1645506133200579840,-0.411977380,0.516721900,9.741293910,-0.168131290,0.073346500,-0.026071080
1645506133203290112,-0.264663520,0.358775590,10.451760290,-0.005580490,-0.014194850,-0.035876040
1645506133204409856,-0.045260600,0.701190890,9.836467740,0.114585460,-0.017678740,-0.021833180
1645506133209600000,0.029972060,0.468123290,9.329174040,-0.017690650,-0.056958200,-0.022387500
1645506133211049984,-0.038371750,0.368505690,9.731090550,-0.173459960,-0.011880700,-0.001308320
1645506133213879808,-0.161966980,0.163949250,9.372325900,-0.163711620,0.026506190,-0.019496680
1645506133217029888,-0.208595510,-0.309799080,10.131546970,-0.045867270,-0.050939620,-0.054062900
1645506133218499840,-0.278443520,0.124826640,9.782838820,0.067667660,0.029425320,-0.044754150
1645506133219399936,-0.270718810,0.204320590,9.510992050,-0.008964540,-0.017838180,-0.061006840
1645506133223359744,-0.404406160,0.280112150,10.180165290,-0.148941590,-0.028967850,-0.023649630
1645506133224470016,-0.330537620,0.403086480,9.200740810,-0.154848400,0.014798340,-0.005337600
1645506133228250112,-0.197303160,-0.079467110,9.904746060,-0.041776890,-0.034734600,-0.021855530
1645506133229440000,-0.427284270,0.134776000,10.102965350,0.079883640,0.029708450,-0.027072440
1645506133233289984,-0.226616000,0.408117230,9.355134960,0.030724710,-0.046144430,-0.040443250
1645506133234439936,-0.249792980,0.524733660,10.103528020,-0.150465970,-0.045822560,-0.015805660
1645506133238200064,-0.220592440,0.726691420,9.452474590,-0.206136720,0.041472910,-0.012595950
1645506133240640000,-0.009389010,0.371406910,9.860626220,-0.092391660,-0.012928250,-0.036373730
1645506133243629824,-0.314118240,0.390577640,10.199495320,0.058721010,0.000323360,-0.023944680
1645506133244580096,-0.128411430,0.515894710,9.249003410,0.021472570,-0.036674740,-0.028365850
1645506133248289792,-0.231539370,0.340681050,9.896383290,-0.148317220,-0.026364630,-0.016035140
1645506133249639936,-0.461635410,0.110444240,9.785010340,-0.208447920,0.022922460,-0.010500850
1645506133253249792,-0.199362770,-0.248312370,9.718682290,-0.096677250,-0.026001040,-0.033593180
1645506133254419968,-0.292451950,-0.186070560,9.897850040,0.053331260,0.013257560,-0.047823790
1645506133258619904,-0.173049390,0.116774320,9.453151700,0.023153420,0.000582640,-0.031991300
1645506133260019968,-0.120323460,0.364085790,9.750888820,-0.124970100,-0.015494230,-0.008457900
