# timestamp,accel_x,accel_y,accel_z,gyro_x,gyro_y,gyro_z
1640844682.857780,0.052234820,0.157494930,9.730957030,-0.168342900,0.063313540,0.029307610
1640844682.861840,0.308311160,-0.062487550,9.974852560,-0.141055900,0.079321860,0.004097820
1640844682.862399,0.309444490,-0.218090740,10.281364440,0.022907560,0.005498530,-0.020504000
1640844682.866780,-0.164254410,-0.011486230,10.232253070,0.092233720,-0.025056300,-0.027671460
1640844682.867230,-0.130739410,0.207371230,9.198774340,-0.040082630,-0.013095140,-0.022436680
1640844682.871940,-0.555710790,-0.044672780,9.639312740,-0.122059890,0.009796020,0.011339780
1640844682.873540,-0.474090870,-0.119117590,9.508963580,-0.053627790,0.050129000,0.006404520
1640844682.876940,-0.195686650,0.163734090,9.627254490,0.054410100,0.025311110,-0.008358060
1640844682.877539,-0.210316940,0.356337190,10.106472970,0.051181030,0.042034690,0.005784630
1640844682.881950,0.194590260,0.473994170,9.547093390,-0.059059250,0.044927000,-0.006370250
1640844682.882609,0.002273890,0.109911260,10.185869220,-0.067637870,0.002773110,-0.014150140
1640844682.887189,0.002172470,-0.112694830,9.708021160,0.035594410,0.001995270,-0.012731550
1640844682.888790,0.153017610,0.037931390,9.184560780,0.098748520,-0.041128700,-0.022251910
1640844682.891899,-0.253519000,-0.073094460,9.950552940,0.039298830,0.050915790,-0.002193450
1640844682.892550,-0.303058300,-0.234824840,9.933546070,-0.028181080,0.069773200,0.010603670
1640844682.897009,-0.545718250,-0.434659330,10.430852890,0.035853690,-0.066195430,-0.011329350
1640844682.897570,-0.673852740,-0.221314680,9.836133960,0.132933270,-0.060994930,-0.017212330
1640844682.901939,-0.110136320,0.649113000,8.664065360,0.076261160,-0.039988760,-0.022539500
1640844682.903350,-0.196563750,1.034509900,9.901926040,-0.069993740,0.084529820,-0.004288550
1640844682.907009,0.271583140,1.053245430,10.126245500,-0.107216840,0.111617170,0.011643770
1640844682.907729,0.159414320,0.782325740,10.814985280,0.048537550,-0.053279110,-0.019514560
1640844682.911970,-0.280960170,0.477598460,10.545210840,0.162798180,-0.120715810,-0.011169910
1640844682.913610,-0.024304870,0.534287390,8.473605160,0.076332690,-0.114126500,0.025475030
1640844682.916800,-0.321624430,0.296362010,9.233312610,-0.109164400,0.007070600,0.030082460
1640844682.917270,-0.022319600,-0.008953280,9.786601070,-0.171843170,0.160913180,0.031615790
1640844682.921779,0.277414500,-0.013830480,10.381152150,-0.006714460,0.027941170,-0.016012790
1640844682.922269,-0.167844310,0.151554150,11.007188800,0.113591550,-0.074039400,-0.054422020
1640844682.926910,0.007384280,0.640322690,9.065461160,0.025585300,-0.089420380,-0.015385450
1640844682.927430,-0.406725700,0.624458430,9.317055700,-0.122243180,-0.096979740,0.014331940
1640844682.931820,-0.452881160,0.300694880,9.645504950,-0.152826290,0.057893990,0.034324830
1640844682.932530,0.119759260,0.307337790,9.362678530,-0.008334220,0.056055200,0.010845070
1640844682.936980,-0.149665860,0.332627060,10.854085920,0.087702280,0.004655120,-0.011314450
1640844682.937610,0.218798350,0.284843980,9.838057520,-0.011634830,0.018215180,0.012017790
1640844682.942220,0.151576830,0.013118340,9.522193910,-0.072336200,-0.098943720,0.034931300
1640844682.943509,-0.098771130,-0.394166950,9.658771510,-0.067396470,-0.025200850,0.019021330
1640844682.947470,0.399306510,-0.215630840,8.628913880,0.003461540,0.049260260,0.002300740
1640844682.947759,-0.070722180,-0.000315940,10.259798050,0.047366320,0.053499650,-0.028492520
1640844682.951850,-0.034158100,0.017928670,10.280664440,-0.027991830,0.069938590,-0.026278190
1640844682.952510,-0.260302340,-0.046574990,9.961877820,-0.001452860,-0.088919710,0.000758470
1640844682.956770,-0.727237820,-0.337513890,10.016093250,0.074915600,-0.108718870,-0.007069110
1640844682.957150,-0.273146960,0.017630980,8.523411750,0.081661330,-0.015519560,0.009165710
1640844682.961930,-0.414207910,0.416214760,9.652565960,0.039513410,0.041708350,0.030432650
1640844682.962440,-0.000531700,0.239609480,10.246283530,-0.052165990,0.143148020,0.009810920
1640844682.966800,0.271640720,0.365610240,10.410135270,0.034002960,-0.007881230,0.002187490
1640844682.967180,-0.055319360,0.374335020,10.571939470,0.138780490,-0.126841660,-0.015959140
1640844682.971860,0.301243450,0.538617610,8.562974930,0.065997240,-0.065888470,-0.023862720
1640844682.972190,0.038269980,0.758886640,9.044803620,-0.032578410,-0.009323650,0.022819640
1640844682.976889,-0.194221940,0.205108030,10.259524350,-0.080807510,0.139728190,0.014296170
1640844682.977419,-0.220417140,0.066575580,10.492232320,0.050726540,0.000828500,-0.007656220
1640844682.981999,-0.681061980,0.313725650,10.778237340,0.157006070,-0.170087780,-0.001201030
1640844682.983420,-0.444480210,0.454068540,8.914688110,0.016091760,-0.067049250,-0.000564750
1640844682.986830,-0.147650810,0.856444060,8.768289570,-0.143897520,-0.003139670,0.027106700
1640844682.987190,-0.189921070,0.547067110,10.402827260,-0.130701080,0.140510500,0.024385750
1640844682.992070,0.438785370,0.412759870,10.147271160,0.029963250,0.047770140,-0.033055250
1640844682.992640,0.202885020,0.670890570,10.545143130,0.138334920,-0.137875990,-0.022678070
1640844682.996750,-0.046232610,0.425978180,9.646947860,-0.009608270,-0.074392560,0.008088350
1640844682.997180,0.130498220,0.092888320,8.602977750,-0.157931480,-0.056666150,0.037689520
1640844683.001770,-0.239973400,-0.226316420,9.834231380,-0.102861230,0.038644670,0.036667290
1640844683.002100,0.161295250,-0.239273040,9.573109630,0.009696180,0.120341770,-0.010490420
1640844683.007050,0.180423500,0.245222200,10.220400810,0.065022710,-0.021082170,-0.022788350
1640844683.008440,-0.229670570,0.375616910,10.479243280,-0.039695200,-0.010567900,-0.004878640
1640844683.011910,-0.122677740,0.144729520,9.169281010,-0.112284730,-0.086221100,0.008034710
1640844683.012329,-0.547164680,-0.141314160,9.602789880,-0.010865930,-0.067235540,-0.003553930
1640844683.016780,-0.433093160,-0.001831180,9.204943660,0.069785120,0.064753000,-0.025643410
1640844683.017099,-0.132437680,0.279910590,9.642686840,0.049771380,0.014601650,-0.019654630
1640844683.021790,-0.273683460,0.379774360,10.627349850,-0.067192320,0.054283440,0.009383260
1640844683.022369,0.222029080,0.098209150,9.816573140,-0.083708770,-0.008888540,0.016944110
1640844683.026929,0.002745490,-0.242814930,10.110963820,0.082866850,-0.107076790,0.024221840
1640844683.027469,0.070221920,0.065951220,9.161242490,0.135248910,0.002768640,-0.002861020
1640844683.031819,0.286591380,0.342215690,9.006287570,0.023819510,0.013925140,-0.002421440
1640844683.032230,-0.100783690,0.520356540,10.497302060,-0.104971240,0.065058480,0.012537840
1640844683.036800,-0.017516700,0.445445120,10.299970630,-0.094574690,0.031611330,-0.017350910
1640844683.037130,-0.400342610,0.223242670,10.539525990,0.093752130,-0.129675880,-0.038692360
1640844683.042260,-0.643207130,0.570835290,9.547883030,0.146037340,-0.085191440,-0.035332140
1640844683.042899,-0.263881740,0.737297530,8.574289320,-0.006103520,0.008590520,-0.000369550
1640844683.047809,-0.413443570,0.554132640,10.181921010,-0.146092490,0.086645780,0.045898560
1640844683.048250,0.087261750,0.543499650,10.196604730,-0.133898850,0.078444180,0.033135710
1640844683.051820,0.357406710,0.211531330,10.329792980,0.025515260,-0.087384890,0.003223120
1640844683.052240,0.275249090,0.330254640,9.794609070,0.096878420,-0.049704320,-0.022104380
1640844683.056790,0.405877650,0.475868080,8.767612460,-0.033022470,0.015415250,-0.016745930
1640844683.057649,-0.051029950,-0.104548000,10.079425810,-0.126458670,0.022622940,0.017672780
1640844683.062080,-0.093035320,-0.119863410,9.965126040,-0.088466710,0.050413610,0.000482800
1640844683.063930,-0.089632810,-0.071368490,9.947131160,0.020541250,-0.053410240,-0.009143350
1640844683.066759,-0.319975760,0.033339820,9.879973410,0.050683320,0.006507340,-0.004000960
1640844683.067180,-0.093303600,0.390486180,9.027510640,-0.045321880,0.065723070,-0.017635530
1640844683.071780,-0.265992730,0.093612110,10.152029040,-0.084294380,0.022706390,0.012891000
1640844683.072140,-0.143292460,0.114247910,9.883667950,-0.012749430,0.038804120,0.007870790
1640844683.076860,0.073926410,0.312476780,9.473100660,0.049386920,-0.062088670,-0.022202730
1640844683.077370,-0.189172180,0.180764020,10.089164730,0.017407540,0.020632150,0.006392600
1640844683.081820,-0.038657970,0.021687730,9.425306320,-0.025889280,0.075304510,-0.003479420
1640844683.082300,-0.231949450,-0.424856840,10.363955500,0.024592870,-0.028428430,-0.021085140
1640844683.086870,-0.302684580,-0.322072950,9.852422710,0.097467010,-0.000064080,-0.005114080
1640844683.087200,0.145859870,0.258448450,8.754049300,0.061742960,-0.041277710,-0.012344120
1640844683.091879,-0.100439090,0.383375970,10.009869580,-0.056865810,0.067420300,0.013501940
1640844683.092450,0.022212110,0.329614970,9.985527040,-0.061540300,0.112208720,0.003817680
1640844683.096799,-0.160186650,0.101658900,10.631648060,0.115299230,-0.069241230,-0.038655110
1640844683.097180,-0.535467570,0.281514350,10.277833940,0.182989250,-0.071170930,-0.020264090
1640844683.101760,-0.169841810,0.814211550,8.553176880,0.035138430,-0.042498120,-0.000551340
1640844683.102150,-0.437137840,0.684250950,9.934040070,-0.144729020,0.033059720,0.017996130
1640844683.107180,-0.065186300,0.413505260,9.940099720,-0.113432120,0.133459270,0.022786860
1640844683.108480,0.208492250,0.222233440,10.366716380,0.123183440,-0.012718140,-0.022596120
1640844683.114970,-0.211721570,0.358693570,10.882309910,0.183731320,-0.057414190,-0.020444390
1640844683.115460,0.154482620,0.793171940,8.762569430,-0.018376110,-0.060456990,0.020095710
1640844683.116780,-0.031665720,0.585028050,9.403322220,-0.208190110,-0.039239230,0.039018700
1640844683.117139,0.090053990,0.150403560,9.811754230,-0.167617200,0.145201400,0.017277900
1640844683.121780,0.237727580,0.019588480,9.987913130,0.113508110,0.057457390,-0.028908250
1640844683.122300,-0.424481930,0.232852580,11.235950470,0.186556580,-0.077366830,-0.050422550
1640844683.126999,-0.210672010,0.639853360,9.062244420,-0.052952780,-0.045396400,0.009506940
1640844683.128019,-0.274919480,0.434648570,9.116449360,-0.237023880,-0.069005790,0.045290590
1640844683.131880,-0.218030240,0.071813740,9.801540370,-0.172400470,0.128060590,0.034105780
1640844683.132460,0.357449230,0.146111820,9.389191630,0.083158900,0.114917740,-0.006709990
1640844683.136760,0.145121750,0.310834880,10.861170770,0.167876500,-0.017993150,-0.027628250
1640844683.137240,0.214044960,0.426252100,9.735277180,-0.049099330,0.030313430,0.003126260
1640844683.142380,0.042218760,0.009950020,9.321715350,-0.180570750,-0.080294910,0.038419660
1640844683.143200,-0.522387150,-0.653252960,10.095148090,-0.083199150,-0.011990970,0.021125380
1640844683.146900,-0.192948560,-0.528475760,8.877444270,0.123837610,0.052884230,-0.020299850
1640844683.147850,-0.337241140,0.028697780,9.961000440,0.152477640,0.003670160,-0.030790270
1640844683.151880,-0.157366770,0.474423500,9.936447140,-0.077550110,0.137613730,-0.011241440
1640844683.152560,0.067407070,0.358809650,9.797079090,-0.154857320,-0.002415480,0.013920660
1640844683.157130,-0.300720840,0.059073790,10.523297310,0.021721420,-0.068739060,0.000508130
1640844683.158429,0.035284660,0.243789360,8.831138610,0.172440710,-0.010561940,-0.023044650
1640844683.162000,-0.158759220,0.474014790,9.562376020,0.144037620,-0.018003580,-0.002974270
1640844683.162609,-0.265726860,0.487613110,10.150409700,-0.085040930,0.128132100,-0.000341240
1640844683.166780,0.051392100,0.205963760,9.964127540,-0.134646890,0.029908130,0.013302270
1640844683.167140,-0.363470380,-0.050323250,10.926516530,0.056725750,-0.058655440,0.001256170
1640844683.171759,-0.094826060,0.298054640,9.136024480,0.148484130,-0.031091270,-0.042751440
1640844683.172129,0.074754740,0.783282700,8.920495030,0.047360360,-0.052966170,0.004839900
1640844683.176960,-0.134910510,0.734467210,9.991599080,-0.144399720,0.151623790,0.023272640
1640844683.177500,0.247480060,0.494207710,9.955843930,-0.144927200,0.089988100,-0.004616380
1640844683.181810,-0.207063960,0.410304900,11.295525550,0.057704750,-0.088590380,-0.007423760
1640844683.182320,-0.312376800,0.558639590,9.563243870,0.098796190,-0.055882330,-0.031179190
1640844683.186820,-0.055967710,0.613668200,8.419670100,-0.048550970,-0.070050340,-0.004673000
1640844683.187219,-0.448028390,0.264756110,9.833726880,-0.158470880,0.122313200,0.033818180
1640844683.192210,0.036027820,-0.122026500,9.698089600,-0.106155870,0.122438360,-0.009971860
1640844683.192900,0.108131510,-0.036021900,10.679002760,0.052967670,-0.053885580,-0.006224220
1640844683.196770,0.091182050,0.277221530,9.972485540,0.037002570,0.017771120,-0.007402900
1640844683.197199,0.432931040,0.260478910,8.821322440,-0.104740270,-0.000746550,-0.009039040
1640844683.201730,-0.127917830,0.046185460,10.073213580,-0.124412780,0.048410900,0.023999810
1640844683.202180,-0.098060130,-0.260644580,9.502891540,-0.016918780,0.062224270,-0.011476870
1640844683.207110,-0.083628300,-0.200758250,9.747227670,0.109285120,-0.065909330,-0.012308360
1640844683.208240,-0.481887160,0.224366740,9.949532510,0.040744240,0.043115020,0.007227060
1640844683.212970,-0.164844810,-0.004250590,9.247113230,-0.095897910,0.040318080,-0.002731380
1640844683.213510,-0.479248260,-0.189503910,10.400494580,-0.054414570,0.006687640,0.004437570
1640844683.216750,-0.226047520,-0.062201090,9.424428940,0.080311280,0.045116240,-0.032499430
1640844683.217130,0.072439450,0.117987110,9.351162910,0.137396170,-0.042590500,-0.035287440
1640844683.222020,-0.157615040,0.597303630,9.879518510,0.025646390,0.052106380,0.009998680
1640844683.225030,0.125652300,0.308698270,9.445040700,-0.092177100,0.054566570,0.016340610
1640844683.226830,-0.296119120,-0.189013530,10.763977050,0.018478930,-0.049245360,0.010986630
1640844683.227200,-0.395388420,-0.119108030,9.768244740,0.178338630,-0.021474070,-0.016170740
1640844683.231740,-0.208508690,-0.033860810,9.173310280,0.168438240,-0.076809530,-0.033903130
1640844683.232100,-0.408857880,0.497627740,9.726783750,-0.004263220,0.031994290,0.002695620
1640844683.236760,0.132292110,0.614040970,9.233836170,-0.136178750,0.084134940,0.010779500
1640844683.237239,0.115538720,0.278968960,10.763565060,-0.017991660,0.008797650,-0.009410080
1640844683.241890,-0.132196170,0.616997600,10.510026930,0.165250940,-0.014257430,-0.025951870
1640844683.242650,-0.011288650,0.655979220,9.330614090,0.157970200,-0.141462700,-0.031162800
1640844683.246840,-0.414006770,0.651500400,9.603140830,-0.026808680,-0.060206660,0.020803510
1640844683.247350,-0.155690180,0.584699990,8.978165630,-0.163258610,0.072939700,0.033274300
1640844683.251809,0.029647270,0.095465660,10.234562870,-0.062315160,0.020284950,0.001585480
1640844683.252179,-0.121586170,0.260789540,10.687692640,0.106915830,0.038711730,-0.020624700
1640844683.257180,0.143110750,0.564347740,9.557205200,0.092914690,-0.080445420,-0.040096040
1640844683.258390,-0.140661450,0.467792000,9.939192770,-0.065784150,-0.085759150,0.012256210
1640844683.261920,0.006101690,0.551331100,8.879765510,-0.178797540,0.036354370,0.026248400
1640844683.262480,0.218037110,0.166668860,9.477710720,-0.095158820,0.024266540,0.014503300
1640844683.266739,-0.078517770,-0.015599020,10.590495110,0.074592230,0.068254770,-0.012837350
1640844683.267160,0.167178820,0.248868530,9.526954650,0.095710170,-0.019031760,-0.039447840
1640844683.271880,-0.204717460,-0.093342030,10.261520390,-0.022995480,-0.085271900,-0.002555550
1640844683.272620,-0.463926700,-0.204531550,9.373350140,-0.105673080,0.014618040,0.029577310
1640844683.278129,-0.209817710,-0.266605560,9.072138790,-0.052255390,-0.046312810,-0.001806020
1640844683.278859,-0.259660780,-0.082400690,10.011959080,0.042757400,0.050607330,-0.019276150
1640844683.282970,0.159160450,0.432387800,9.326594350,0.048446660,0.083489720,-0.031507020
1640844683.283380,0.144140390,0.303030460,10.418864250,0.001348560,-0.023166830,-0.019620360
1640844683.287380,-0.258517180,0.025465160,10.323445320,-0.002780560,-0.007595120,0.012759860
1640844683.287979,-0.084470260,-0.182941210,9.002123830,0.061538820,-0.112210210,0.005662440
1640844683.291859,-0.493960770,-0.267188010,9.846437450,0.099445880,-0.056660180,0.007686020
1640844683.292400,-0.220972930,0.076016080,8.902898790,0.039933630,0.089229650,0.002844630
1640844683.296800,-0.008535200,0.214984920,9.946197510,-0.011619930,0.020113590,-0.011754040
1640844683.297180,-0.212086870,0.253797110,10.922516820,-0.000479820,0.054660440,-0.008070470
1640844683.301839,0.149033230,0.448634090,9.468949320,0.079454470,-0.063174960,-0.028112530
1640844683.302970,-0.248566780,0.670420410,9.919192310,0.102522970,-0.146023930,-0.025343900
1640844683.307080,-0.195986450,0.896707360,8.801919940,-0.012703240,0.032262500,0.005422530
1640844683.307560,-0.088952380,0.665525620,9.518104550,-0.072553760,0.008037690,0.008425120
1640844683.311900,-0.493509500,0.263678550,11.244632720,-0.007091460,0.035810470,0.006616120
1640844683.312280,-0.071537700,0.155742290,9.720211030,0.098741050,-0.040152670,-0.011330840
1640844683.316800,-0.143294440,0.370076810,9.864940640,0.077471140,-0.157243010,-0.015744570
1640844683.317669,-0.033427720,0.582266810,8.987434390,-0.106389810,0.058884910,0.015242400
1640844683.321790,0.352959510,0.401813150,9.057910920,-0.153629480,0.037322940,0.015278160
1640844683.323230,-0.001590090,0.234150650,10.967652320,-0.018484890,0.006377700,-0.014586750
1640844683.326850,0.211332460,0.317603200,9.773935320,0.093917550,-0.003935400,-0.033377110
1640844683.328440,0.070258700,0.421751710,9.843231200,0.051455200,-0.128659590,-0.026749080
1640844683.331780,-0.463858100,0.436310740,9.816218380,-0.123524690,0.028847160,0.007052720
1640844683.332160,-0.065158130,0.148519500,8.863471980,-0.161188840,0.003303590,0.024746360
1640844683.336809,-0.281566560,-0.119038780,10.365005490,-0.002133850,-0.003989040,0.007490820
1640844683.337139,-0.051957860,0.104725880,9.625130650,0.081869970,0.070896740,-0.019951160
1640844683.341879,0.321654950,0.314075770,9.502808570,0.020949540,-0.056049230,-0.004957620
1640844683.342599,-0.051304120,0.226059690,10.147397990,-0.127480940,0.051186980,0.004744530
1640844683.346850,0.353855520,-0.183845460,9.184533120,-0.125283020,0.030668080,-0.003191830
1640844683.347329,-0.118664940,-0.514408590,10.338165280,0.089199840,-0.037446620,-0.004413720
1640844683.351760,-0.399568770,-0.290828970,9.700851440,0.160402060,-0.008192660,-0.033736230
1640844683.352180,-0.086766190,0.003770900,9.045916560,0.041273230,-0.055888300,0.001521410
1640844683.356840,-0.539256630,0.033929840,10.200387000,-0.093398990,0.068576630,0.009198490
1640844683.357230,-0.123934050,0.038896850,9.646158220,-0.075480340,0.069309780,-0.015589600
1640844683.361750,-0.148915570,0.201173780,10.317896840,0.126852110,-0.059364740,-0.009590390
1640844683.362130,-0.224402380,0.704275670,9.732081410,0.164592270,-0.011000040,-0.031849750
1640844683.366870,0.291590060,1.041323660,8.884139060,-0.014232100,-0.017361340,0.006864960
1640844683.367270,-0.320142210,0.787778380,10.549263950,-0.128212590,0.040404500,0.041730700
1640844683.371770,-0.125049100,0.185685040,9.903334620,-0.056684020,0.029999020,-0.014697020
1640844683.372680,-0.171772260,-0.015787110,10.175092700,0.150227590,-0.100103040,-0.024366380
1640844683.377410,-0.600398120,0.301120490,10.018631940,0.141869490,-0.029900670,-0.021883850
1640844683.378000,-0.003530400,0.371214180,8.742469790,-0.088791550,-0.010791420,-0.005593900
1640844683.381860,-0.136742980,0.380075420,10.054740910,-0.179287810,0.036464630,0.038115680
1640844683.382880,0.076716680,0.268129560,10.049289700,-0.069425990,0.102019310,-0.009459260
1640844683.386880,0.289043610,0.495304580,10.192714690,0.083157420,-0.057473780,-0.039754810
1640844683.387320,-0.328630120,0.937631730,10.475596430,0.081971290,-0.084149840,-0.012026730
1640844683.391880,-0.061633630,0.663426640,8.814740180,-0.102843350,-0.049586590,-0.009810930
1640844683.392510,-0.139140670,0.488647340,9.422990800,-0.170969930,-0.008727610,0.036796920
1640844683.396790,-0.270086590,0.163547610,9.977799420,-0.075054160,0.115114440,0.025202330
1640844683.397509,0.245856910,-0.009645210,9.827335360,0.027154390,0.030833480,-0.008480250
1640844683.401800,-0.120005850,0.324295970,10.586081500,0.021331010,-0.052256890,0.002443790
1640844683.402180,0.051213880,0.085660960,9.228370670,-0.110162800,-0.017604230,0.003355740
1640844683.406849,0.220119340,-0.271807970,9.162451740,-0.129277970,-0.020851190,0.010803340
1640844683.407280,-0.069488610,-0.137254450,9.791949270,-0.026613470,0.104843070,-0.005927680
1640844683.411759,0.204043920,-0.015053020,9.672601700,0.026619440,0.047892340,-0.029458110
1640844683.412180,-0.064867060,0.299239220,10.450419430,-0.005273520,-0.026361640,0.004489720
1640844683.416800,-0.295468420,0.216325400,9.732500080,-0.069668900,0.015109780,0.014357270
1640844683.417189,-0.286115590,-0.299739240,9.549606320,-0.038208070,-0.065161290,0.017760690
1640844683.422080,-0.544411360,-0.137548630,9.555279730,0.073136400,0.032322110,0.009013710
1640844683.423590,-0.043476070,0.171041410,8.962457660,0.057260700,0.061191630,-0.014628470
1640844683.427820,0.105079990,0.534903230,10.086235050,-0.044740740,0.057163830,-0.002998110
1640844683.428210,0.147471930,0.709272620,10.001534460,-0.122573980,0.089924020,0.009767710
1640844683.431810,0.247070700,0.010656300,10.205513950,-0.014227630,-0.027944150,-0.007076560
1640844683.432230,-0.407921460,-0.131869580,10.373895650,0.166347590,-0.056885180,-0.010754170
1640844683.436770,-0.379439890,0.017975360,8.779226300,0.147227960,-0.062094630,-0.014840070
1640844683.438259,-0.486126810,0.011529720,9.371298790,-0.036635990,-0.013336540,0.006708500
1640844683.441810,-0.422605280,0.330222010,9.683099750,-0.158290580,0.126931070,0.022333860
1640844683.442299,-0.016254700,0.186629070,10.375916480,-0.052562360,0.045962630,-0.013476610
1640844683.447199,-0.237528320,0.400725100,11.087646480,0.135478390,-0.032523270,-0.035235290
1640844683.447739,0.024622720,1.020986910,9.166786190,0.136768820,-0.088331110,-0.031848260
1640844683.451750,-0.013561060,0.932820020,9.279988290,-0.051860520,-0.060623880,0.012432040
1640844683.452289,-0.150548070,0.830593820,9.691997530,-0.189834800,0.092558550,0.035719570
1640844683.456960,0.087596680,0.392441030,9.904488560,-0.086031840,0.034628810,0.025081630
1640844683.457389,-0.245564940,-0.048968180,10.999973300,0.108006600,-0.048957770,-0.007840990
1640844683.462040,-0.075121920,0.307878820,9.282498360,0.103816400,-0.036339460,-0.022149090
1640844683.462730,0.008520910,0.215722690,9.325227740,-0.085823240,-0.052163010,0.017017130
1640844683.466760,-0.203517330,-0.022559230,9.981201170,-0.191405420,0.089646880,0.029383600
1640844683.467150,0.167321790,0.068776900,9.562742230,-0.091101230,0.017941000,-0.003516670
1640844683.472100,0.035919230,0.130188540,10.487185480,0.067219130,-0.047856570,-0.023186200
1640844683.473450,0.047327000,0.423972460,9.516775130,0.055697570,0.033287710,-0.022386010
1640844683.476869,0.049186710,0.418625350,9.480525970,-0.061143950,-0.021022560,0.008901950
1640844683.478930,-0.463604450,-0.052382890,10.456657410,-0.101065640,-0.000268220,0.050739960
1640844683.481819,-0.069109040,-0.197162760,9.038273810,-0.015687940,0.002793970,0.036095080
1640844683.482420,-0.041830510,-0.109287740,9.899394040,0.075955700,-0.016014280,0.010535120
1640844683.486810,-0.025220070,0.083365090,9.800790790,0.024631620,0.113491710,0.008903440
1640844683.487180,0.419798310,0.143443120,9.341497420,-0.053438550,0.034070010,-0.000786780
1640844683.491850,0.000765850,-0.062031570,10.585869790,-0.028641520,0.009784100,0.002706050
1640844683.493189,0.046185490,-0.070571190,9.342371940,0.056673590,0.007510190,-0.002263490
1640844683.497210,-0.159107970,0.071524280,9.617136000,0.109611450,-0.091049080,-0.005307790
1640844683.497609,-0.651809220,0.102537020,9.959638600,0.032329560,0.056576740,0.021244590
1640844683.501770,-0.223539100,-0.087289900,9.163373950,-0.017595290,0.057221960,0.019358100
1640844683.502169,-0.585280540,-0.180698350,10.834934230,0.060927870,0.013679270,0.007991490
1640844683.507130,-0.391203310,0.081243660,9.754796030,0.121793170,0.029048330,-0.005419550
1640844683.507599,0.111116540,0.617653850,9.162642480,0.090236970,-0.109592080,-0.007385020
1640844683.512689,0.003790920,0.930766580,9.743124960,-0.043377280,0.069318720,0.016090270
1640844683.513320,0.484407690,0.597472010,9.429161070,-0.072556730,0.121411680,0.009144840
1640844683.516749,-0.052063900,0.269449060,11.297235490,0.105775900,-0.022149080,-0.007325410
1640844683.517150,-0.398822490,0.311155830,10.335935590,0.183825190,-0.073464220,-0.021658840
1640844683.521809,-0.142455320,0.440574590,8.651104930,0.062891850,-0.154072050,0.015735630
1640844683.522750,-0.673073650,0.448528620,9.571495060,-0.118821860,0.027687850,0.048355750
1640844683.526950,-0.154842870,0.118741270,9.280938150,-0.129649040,0.159849210,0.018256900
1640844683.527540,-0.044363640,0.157129320,10.816892620,0.085571420,-0.000242890,-0.016599890
1640844683.531960,-0.249076430,0.635905860,10.918095590,0.150509180,-0.025644900,-0.047144290
1640844683.532320,0.261158560,0.934040070,8.989973070,-0.016245250,-0.091847780,-0.010700520
1640844683.536759,-0.180256380,0.933599290,9.815286640,-0.178036090,-0.068001460,0.038343670
1640844683.537250,0.112126340,0.419683750,9.204080580,-0.166331250,0.110702230,0.034160910
1640844683.542280,0.427934890,0.065692370,9.741684910,0.047095120,0.043748310,0.011557340
1640844683.543120,-0.214980590,0.239077670,11.024313930,0.144007820,0.016745930,-0.003339350
1640844683.546810,0.105226500,0.110444200,9.431947710,-0.027045610,-0.023634740,0.012424590
1640844683.547259,-0.235647890,-0.036945680,9.626952170,-0.173686440,-0.103163730,0.048905610
1640844683.551760,-0.248318870,-0.269468010,9.248054500,-0.140793610,0.066778050,0.008621810
1640844683.552230,0.279858890,-0.117851670,9.125043870,0.029015550,0.092545160,-0.014597180
1640844683.557500,-0.194466560,0.468878600,10.751358990,0.106914340,0.049108270,-0.028692190
1640844683.558920,-0.026639610,0.512643690,9.947161670,-0.041328370,0.021059810,-0.021003190
1640844683.562729,-0.264453890,0.265104620,9.941935540,-0.111241650,-0.105261800,0.036340960
1640844683.563120,-0.717120170,-0.238920170,9.725970270,-0.012172760,-0.030486290,0.021602210
1640844683.566779,-0.269174220,-0.402444960,8.818078040,0.104941440,0.007359680,-0.001677870
1640844683.567180,-0.379798500,0.137135740,9.886079790,0.105403380,0.019088390,0.009438400
1640844683.571980,0.183525380,0.301867990,9.644346240,-0.089967260,0.124245880,0.000293550
1640844683.573030,0.549470070,0.100657020,10.272968290,-0.127264860,0.029283760,0.022527580
1640844683.576890,-0.097180050,-0.067700590,10.900224690,0.068373980,-0.030180820,0.003132220
1640844683.577390,-0.000944740,-0.052984440,9.180738450,0.183011610,-0.134985120,-0.030978020
1640844683.581709,-0.336885960,0.327476110,9.024127010,0.107766710,-0.087048110,0.010471050
1640844683.582180,-0.559018850,0.382201140,9.258174900,-0.087814030,0.119487940,0.007325410
1640844683.586850,-0.317332480,0.167905200,10.346404080,-0.106604420,0.061139470,0.010824200
1640844683.587260,-0.744331000,0.315038920,11.300280570,0.086434190,-0.053822990,0.006681680
1640844683.591970,-0.361942650,0.533212360,9.578710560,0.153462590,-0.133164240,-0.022032860
1640844683.592810,-0.072215650,0.948725100,9.020660400,0.027547780,-0.088462250,0.013884900
1640844683.596779,-0.128628920,1.004797340,9.471873280,-0.133523340,0.086344800,0.027646130
1640844683.597180,0.469887610,0.619151000,9.952531810,-0.154253830,0.059317040,0.014142690
1640844683.601740,0.247885530,0.537854140,11.034429550,0.026813150,-0.046627230,0.011047720
1640844683.602200,0.086741080,0.456254240,9.984076500,0.097072120,-0.117135030,-0.035533310
1640844683.607370,0.135878710,0.443520990,9.109076500,-0.043141850,-0.116387010,-0.005406140
1640844683.608709,-0.429729130,0.296564820,9.570060730,-0.163377840,0.030031800,0.039526820
1640844683.612350,-0.214868660,-0.067131660,9.732722280,-0.151182760,0.031742460,0.014831130
1640844683.612880,-0.176529090,0.190631180,10.373818400,-0.013819340,-0.024715070,0.009907780
1640844683.616730,-0.256760240,0.546037440,10.037464140,0.011056660,-0.042568150,-0.006239120
1640844683.617200,0.151733170,0.544959430,9.364700320,-0.109221050,-0.046506520,-0.000284610
1640844683.621980,-0.132577720,0.521835150,9.735603330,-0.154194220,0.006841120,0.036787980
1640844683.623220,-0.038917340,0.023197340,9.714156150,-0.089432280,-0.005546210,0.015361610
1640844683.626920,0.087322290,-0.056636420,10.044106480,0.012649600,-0.050666930,0.008384880
1640844683.627440,-0.080494230,0.163314450,9.840308190,-0.002455710,-0.017392640,0.022268300
1640844683.631739,0.336031380,-0.082122850,9.289523120,-0.126536160,0.006371740,0.013503430
1640844683.632190,0.157755880,-0.162685740,9.947220800,-0.131447630,0.057813530,0.025828190
1640844683.636780,0.112368930,-0.216070260,9.737974170,-0.010487440,0.022575260,0.015632810
1640844683.637300,0.083018130,-0.148420140,9.745271680,0.060080000,-0.070688130,-0.019106270
1640844683.641830,-0.325301650,0.312677650,9.589174270,-0.006204840,-0.019606950,-0.003235040
1640844683.642370,-0.411920100,0.098002520,9.459132190,-0.105194750,0.008085370,0.008387860
1640844683.646730,-0.783570890,-0.342325720,10.473875050,-0.043384730,-0.017812850,-0.009520350
1640844683.647199,-0.694140490,-0.220187870,9.792898180,0.105866800,-0.016196070,-0.011093920
1640844683.651780,-0.334310590,0.041656990,9.580094340,0.126136840,-0.074127310,0.007428230
1640844683.652200,-0.181548090,0.436479540,9.641983030,-0.024867060,0.014875830,0.035189090
1640844683.657090,0.395351560,0.546058710,9.345611570,-0.129526870,0.042815510,0.047138340
1640844683.658350,0.367089240,0.237306300,10.560091970,-0.033524640,-0.012637670,0.013825300
1640844683.661830,0.211365100,0.287526130,10.182650570,0.138162090,-0.021220740,-0.020384790
1640844683.662520,0.159032300,0.561011790,9.564066890,0.141574430,-0.129280970,-0.018826120
1640844683.666800,-0.460820560,0.668984470,9.869912150,-0.041550390,-0.055627520,0.010183450
1640844683.667209,-0.357596610,0.615941290,9.040508270,-0.184786320,0.013773150,0.036533180
1640844683.671759,-0.496572610,0.169312640,10.369501110,-0.085525210,-0.016850230,0.009210410
1640844683.672220,-0.719141960,0.140295890,10.720527650,0.116683560,0.009714070,-0.022950770
1640844683.676910,-0.225376960,0.547287760,9.618682860,0.120910990,-0.114701670,-0.011929870
1640844683.677569,-0.280594170,0.767291780,9.914164540,-0.077006230,-0.086039300,0.028942530
1640844683.681779,0.301655770,0.745882690,9.049514770,-0.254076750,0.047864030,0.041756050
1640844683.682150,0.678675950,0.521683390,9.829964640,-0.157859940,0.024271010,0.018246470
1640844683.686830,0.318023710,0.239734650,10.957963940,0.059969720,0.024226310,-0.031261150
1640844683.687840,0.396992920,0.405911300,9.706390380,0.103133920,-0.068096820,-0.028666860
1640844683.691820,-0.218752400,0.288836180,9.947398190,-0.057683900,-0.158108770,0.014562910
1640844683.692299,-0.438335390,-0.070285740,9.238291740,-0.228242590,-0.004555290,0.040300190
1640844683.696730,0.030700230,-0.193196910,8.825753210,-0.169251860,0.038121650,0.040329990
1640844683.697170,-0.293764710,-0.137077610,10.592409130,0.020197030,0.088740890,-0.012516980
1640844683.701860,0.161797460,0.373953220,9.932015420,0.043371320,0.050336120,-0.033189360
1640844683.702540,0.087381560,0.534785990,10.013781550,-0.054438420,-0.096717490,0.004328790
1640844683.707000,-0.283752440,0.027627020,9.877061840,-0.134229630,-0.038383900,0.017809860
1640844683.707379,0.105251330,-0.197992560,8.822677610,-0.057841840,-0.013339520,0.013519830
1640844683.711730,-0.296991970,-0.141790180,10.004995350,0.071729720,0.003384050,-0.003643330
1640844683.712159,-0.019596310,0.085403270,9.542634960,0.018844010,0.095967950,-0.016979880
1640844683.716719,0.133514360,0.206197190,9.828429220,-0.078210230,-0.000801680,0.007902090
1640844683.717190,-0.293581190,-0.252501820,10.500017170,-0.054855650,0.013440850,0.014688080
1640844683.721750,-0.068982610,-0.375309320,9.343392370,0.066219270,-0.057119130,0.001294910
1640844683.724570,-0.315549460,0.014180470,9.408330920,0.137712080,-0.082257400,-0.002564490
1640844683.726840,-0.256914710,0.156562080,9.245152470,-0.004974010,0.092822310,-0.018221140
1640844683.727249,0.028276120,0.369845870,9.811194420,-0.092387180,0.063136230,-0.001564620
1640844683.731730,-0.535753190,0.096425190,11.168998720,0.005707140,0.002901260,0.003229080
1640844683.732169,-0.276414570,-0.123721130,9.812411310,0.158429150,-0.113087890,-0.017121440
1640844683.736760,-0.309954640,0.501001300,9.169632910,0.168892740,-0.142595190,0.003877280
1640844683.737180,-0.415353750,0.594603600,9.266605380,-0.035645070,0.066694620,0.025728340
1640844683.741890,0.290009050,0.533586620,9.438126560,-0.154064580,0.085717420,0.025701520
1640844683.742430,0.056415700,0.550495560,11.035271640,-0.010833150,0.036361810,0.001232330
1640844683.746760,0.215559450,0.417790710,10.386707310,0.122492020,-0.044697520,-0.033468010
1640844683.747190,0.240772310,0.810101750,9.370506290,0.106509050,-0.155968960,-0.009188060
1640844683.751789,-0.303739340,0.696017150,9.421404840,-0.077068810,-0.024232270,0.014506280
1640844683.752230,0.029184670,0.204033320,9.106085780,-0.171104090,0.081481050,0.029879810
1640844683.757419,-0.312163740,0.117162350,10.600191120,-0.020419060,0.022919480,0.010426340
1640844683.758220,-0.358138290,0.171688440,10.698225980,0.076755880,-0.013534730,-0.019153960
1640844683.761860,0.073745580,0.530794140,9.296541210,0.013259050,-0.074063240,0.007474420
1640844683.762250,-0.251894830,0.656396750,9.559268950,-0.120149570,-0.031833350,0.026902560
1640844683.766820,0.229933600,0.357449530,9.055526730,-0.179056820,0.096350920,0.029273330
1640844683.767200,0.276841220,0.232783960,9.919972420,-0.027517980,0.039006770,0.015804170
1640844683.771760,-0.101318210,0.265632630,10.810452460,0.072680410,-0.002796950,-0.018554930
1640844683.772159,0.222835560,0.230251760,9.578314780,-0.011824070,-0.051014130,-0.003594160
1640844683.777779,-0.249379410,0.019155660,9.661993030,-0.100904710,-0.035762790,0.016286970
1640844683.778309,-0.241868940,-0.283416810,9.419640540,-0.123529150,0.067077580,0.015793740
1640844683.781829,0.013250690,-0.322900560,9.415735240,-0.000157950,0.031559180,0.016748910
1640844683.782990,-0.196292760,0.042564590,10.062297820,0.073026120,0.028066340,-0.000585620
1640844683.786870,0.213192970,0.267863330,9.571532250,-0.030356640,0.045973060,0.012479720
1640844683.787259,-0.180135060,0.164400730,10.179821010,-0.082574780,-0.011503690,0.032225240
1640844683.791870,-0.411356630,-0.156164050,10.070986750,-0.026012960,-0.022201240,-0.000588600
1640844683.792490,-0.300346340,-0.200550970,9.396473880,0.103136900,-0.048126280,-0.018590690
1640844683.796739,-0.490427520,0.251844730,9.531039240,0.104211270,-0.020253660,-0.019693370
1640844683.797180,-0.036370110,0.542567490,9.274737360,-0.070288770,0.092804420,0.009328130
1640844683.801770,-0.048976920,0.193380220,10.376109120,-0.103640580,0.052957240,0.042966020
1640844683.802270,-0.130667580,-0.055204860,10.614336010,0.064571190,-0.010313090,0.012612340
1640844683.807050,0.115950200,0.045556030,9.560077670,0.172510740,-0.100836170,-0.006254020
1640844683.807900,-0.020955150,0.362241630,9.223832130,0.092265010,-0.033472480,0.011958180
1640844683.811849,-0.009830550,0.668816330,9.357384680,-0.128485280,0.095619260,0.010623040
1640844683.812180,-0.112680720,0.468713460,10.467909810,-0.146402420,0.039705630,0.018422310
1640844683.816759,-0.478174920,0.118863050,10.878573420,0.064536920,-0.040146710,-0.012740490
1640844683.817200,-0.355453820,0.321710800,9.675786970,0.197818860,-0.109092880,-0.044746690
1640844683.822379,-0.554598390,0.575899300,9.567122460,0.085946920,-0.057762860,0.008484720
1640844683.823190,-0.305358770,0.671298380,9.260911940,-0.148288880,0.058789540,0.048349790
1640844683.826929,0.175612600,0.583401500,9.825246810,-0.212325160,0.052089990,0.047053390
1640844683.827510,0.314714910,0.314011990,10.549379350,-0.025032460,0.051838170,0.020951030
1640844683.831790,0.526453140,0.528612670,9.937840460,0.120843960,-0.017754740,-0.039866570
1640844683.832229,0.079631630,0.611687600,10.009746550,0.052548940,-0.083138050,-0.015908480
1640844683.836740,-0.271372020,0.247279510,9.542775150,-0.119604180,-0.032545630,0.029291210
1640844683.837210,-0.258418950,0.016993130,9.276865010,-0.172936920,-0.023992360,0.017249590
1640844683.841850,-0.458767030,-0.242084520,10.104402540,-0.042447440,0.032509860,0.025244060
1640844683.842399,-0.058388900,-0.052282240,9.709821700,0.068902980,0.075170410,-0.004845860
1640844683.847080,-0.028845860,0.317066730,10.108440400,0.016297400,-0.004208090,-0.010339920
1640844683.847750,-0.094072600,0.129204750,10.080298420,-0.081485510,0.000429150,0.037561360
1640844683.851780,0.199183080,0.059373490,9.174667360,-0.080862630,-0.039729480,0.019328290
1640844683.852219,-0.146635550,0.011932160,9.890398030,0.016500050,-0.041125710,0.007058680
1640844683.857169,0.049553530,0.095259840,9.356779100,0.055292250,0.059214240,0.002275410
1640844683.857960,-0.013506580,0.239557330,9.877908710,0.006313620,0.035507980,-0.019064550
1640844683.861820,-0.424625070,-0.150714080,10.795267110,-0.030343230,0.027307870,0.009910760
1640844683.862740,-0.162186980,-0.282621350,9.519842150,0.037270790,-0.058002770,0.017337500
1640844683.866740,-0.402201710,-0.088846030,9.584251400,0.092954930,-0.108169030,0.002595780
1640844683.867210,-0.117951270,0.137267520,9.035237310,0.023512540,0.069601830,0.031781200
1640844683.871750,0.103025530,0.283049640,9.578961370,-0.028806930,0.082218660,0.009609760
1640844683.872210,-0.170086920,0.147048230,11.189956670,0.009672340,0.044777990,-0.011198220
1640844683.877780,0.047442310,0.108737850,10.147959710,0.113478310,-0.031462310,-0.009226800
1640844683.878300,-0.295421480,0.407344100,9.855896000,0.142751630,-0.179579870,-0.016829370
1640844683.881790,-0.382199050,0.616948310,9.216311450,-0.009974840,-0.006182490,0.014466050
1640844683.882249,-0.014412340,0.638011040,8.891215320,-0.108256950,0.070272390,0.037562850
1640844683.886780,-0.235491530,0.357648130,10.915902140,-0.012472270,0.074961770,0.015257300
1640844683.887329,-0.000204150,0.352848710,10.550710680,0.112125290,0.036115950,-0.002895300
1640844683.891860,0.071295160,0.785758140,9.821887970,0.112922500,-0.184045730,-0.005656480
1640844683.892480,-0.196410390,0.755806510,9.571871760,-0.092695660,-0.053113700,0.017513330
1640844683.897110,0.212911070,0.480984720,8.689012530,-0.181779250,0.097541500,0.029791890
1640844683.897640,-0.265853350,0.106529030,10.831601140,-0.007291140,0.037348270,-0.002421440
1640844683.901770,-0.312254400,0.159970400,10.830551150,0.104163610,-0.000929830,-0.027455400
1640844683.902200,-0.052606420,0.520720960,9.280289650,0.064049670,-0.150913020,0.007723270
1640844683.907209,-0.443287940,0.458279850,9.664147380,-0.132690370,-0.055991120,0.029306110
1640844683.907800,0.252184810,0.370351020,8.701109890,-0.226518530,0.137528780,0.035180150
1640844683.912330,0.317831010,0.174757640,10.120585440,-0.026494270,0.056889650,0.022968650
1640844683.913770,0.151183020,0.142532840,11.042100910,0.111651420,0.030836460,-0.014859440
1640844683.916760,0.464885770,0.525391760,9.311641690,0.036403540,-0.066009170,0.000342730
1640844683.917220,-0.313525140,0.241429540,9.925309180,-0.125914810,-0.098638240,0.025291740
1640844683.921769,-0.317492070,-0.224733400,9.168957710,-0.192064050,0.060376530,0.012183190
1640844683.922240,-0.260049940,-0.383203570,9.383174900,0.014090540,0.026081500,-0.003172460
1640844683.926980,-0.530246500,-0.213500320,10.558361050,0.143051150,0.020870570,-0.031106180
1640844683.927820,0.268873480,0.338689600,9.165466310,0.010567900,0.065340100,-0.009363890
1640844683.931759,-0.078550490,0.338506880,10.333432200,-0.114470730,-0.002387170,0.035536290
1640844683.932230,-0.120956970,-0.142517180,10.241471290,-0.101915000,0.022722780,0.027067960
1640844683.936730,0.185050520,-0.224441530,9.052555080,0.099352010,-0.048573320,-0.009441380
1640844683.937229,-0.309401270,0.118922080,9.889955520,0.188863250,-0.010770560,-0.012457370
1640844683.941959,0.028400780,0.457606550,9.198865890,-0.002191960,0.090911980,-0.007171930
1640844683.942760,-0.126988780,0.467672680,10.260062220,-0.127556890,0.002637510,0.026246900
1640844683.947199,-0.320060400,0.066248800,10.824754710,-0.066874940,0.032976270,0.017403070
1640844683.947830,-0.013560220,0.019734970,9.550773620,0.134818260,-0.032474100,-0.015079980
1640844683.951740,-0.417327610,0.499540810,9.975164410,0.195331870,-0.073011230,-0.006859000
1640844683.952210,-0.128383280,0.784143330,9.044178010,-0.042265660,0.069028150,0.014314060
1640844683.957140,0.216606590,0.678060410,9.426321980,-0.190232690,0.036565960,0.035493080
1640844683.958099,-0.071632140,0.307075950,11.010014530,-0.072474780,0.078606610,0.016398730
1640844683.963120,0.128009390,0.190987410,10.108815190,0.128386910,0.001557170,-0.037576260
1640844683.963860,-0.321627320,0.437207280,10.210477830,0.161132230,-0.150775920,-0.020949540
1640844683.966780,-0.487802830,0.554205000,9.297551160,-0.067326430,-0.007189810,0.018186870
1640844683.967190,-0.043538920,0.326666180,8.692303660,-0.213982150,0.039328630,0.034523000
1640844683.971740,-0.176748810,0.185326100,10.563557620,-0.097124280,0.089512760,0.039234760
1640844683.972190,0.277468620,0.327980850,10.135158540,0.064539910,0.105974090,-0.014540560
1640844683.976970,0.364616270,0.590308900,10.108959200,0.079648190,-0.074392560,-0.024144350
1640844683.977680,-0.134816360,0.684652690,10.090489390,-0.089421880,-0.010611120,0.019671020
1640844683.981760,0.004038950,0.140513180,8.984558110,-0.182242660,-0.001426040,0.020907820
1640844683.982250,-0.370960800,-0.255791370,9.954750060,-0.048227610,-0.032727420,0.023753940
1640844683.986830,-0.266941160,-0.095439030,9.494261740,0.072723630,0.090782350,-0.005489590
1640844683.987249,0.016580740,-0.026661180,9.650984760,0.027161830,0.045526030,-0.006395580
1640844683.992230,-0.295589180,0.106649830,10.607097630,-0.082969670,0.047814850,0.024266540
1640844683.993440,0.010507370,-0.116464740,9.505623820,-0.105722230,0.002214310,0.006763640
1640844683.996739,-0.070135250,-0.302571890,9.735716820,0.032228240,-0.072085860,0.008665030
1640844683.997220,-0.151287140,0.100556220,9.396653180,0.104962310,0.060050200,-0.002387170
1640844684.001760,0.032754340,0.195540790,9.470152850,0.031760330,0.041757520,-0.010615590
1640844684.002230,-0.244158600,0.125551090,10.514836310,-0.043576960,0.034378470,0.011383000
1640844684.006909,-0.104511450,0.082627910,9.689471240,-0.028286870,0.034400820,-0.008678440
1640844684.008289,-0.255655710,-0.191153320,10.064729690,0.093033900,-0.073704110,0.000533460
1640844684.012460,-0.387402770,0.095347240,9.594349860,0.142212210,-0.009511410,0.008168820
1640844684.013170,-0.027716040,0.264095840,8.937549590,0.042381880,0.020676850,0.004799660
1640844684.016790,-0.167070120,0.179762720,10.256524090,-0.040182480,0.070184470,0.029246510
1640844684.017200,-0.060464460,0.187632200,10.056562420,-0.002275410,0.079050660,0.002339480
1640844684.021920,-0.153411900,0.069987040,10.432009700,0.135627400,-0.105687960,-0.024026630
1640844684.022820,-0.498353960,0.366160330,9.903952600,0.159072880,-0.085875390,-0.010897220
1640844684.026880,-0.139213320,0.622882780,8.569243430,0.025776030,-0.037273770,-0.004172330
1640844684.027410,-0.266162780,0.296534570,10.114926340,-0.055371220,0.071477880,0.028389690
1640844684.031760,-0.161637350,0.289853270,10.385170940,0.012770300,0.128173830,0.025148690
1640844684.032169,0.008070650,0.375000000,10.524250030,0.136500600,-0.105182830,-0.008109210
1640844684.036800,-0.206660900,0.622937620,10.107206340,0.108072160,-0.105851900,0.016531350
1640844684.037190,0.251829710,0.892885390,8.242001530,-0.045835960,-0.026918950,0.021238620
1640844684.042090,0.078942240,0.548584880,9.829642300,-0.105734150,0.061157350,0.023639200
1640844684.042830,-0.110466200,0.348976110,10.559572220,-0.010803340,0.118355450,0.007137660
1640844684.046800,0.027610700,0.414660840,10.249380110,0.111469630,-0.080697240,-0.032326580
1640844684.047289,-0.572268310,0.406573210,10.673357960,0.062020120,-0.116534540,-0.008170310
1640844684.051730,-0.375506310,0.470768570,8.607522010,-0.091187660,-0.035010280,0.025765600
1640844684.052270,-0.179996160,0.178043070,9.113786700,-0.127962220,-0.016701220,0.037306540
1640844684.056800,-0.014114390,0.112474960,9.980812070,-0.029857460,0.159694270,0.032092630
1640844684.057220,0.536872570,0.407884090,9.846875190,0.060181320,0.060702860,-0.000204150
1640844684.061849,0.260886190,0.403730840,11.091221810,0.023122130,-0.061962010,0.007045270
1640844684.063340,0.070866910,0.232439890,9.559436800,-0.065626230,-0.037764020,0.031459340
1640844684.066759,0.060142960,-0.077375090,8.874835970,-0.064668070,-0.093001130,0.027030710
1640844684.067250,-0.442817450,-0.248424710,9.728963850,0.002801420,0.065119560,0.025989120
1640844684.071750,0.029549590,0.038123620,8.921339990,0.045716770,0.105129180,-0.001285970
1640844684.072170,-0.033574610,0.244579140,10.427795410,0.009979310,0.021566450,-0.005449360
1640844684.076880,-0.155243260,0.252463010,10.325090410,-0.062163170,0.075028830,0.022825590
1640844684.077479,0.065563190,0.051037890,9.487752910,-0.020594890,-0.065194080,0.011245910
1640844684.081780,-0.458127440,-0.051711940,10.078504560,0.071455540,-0.041393930,0.000619890
1640844684.082300,-0.163226280,0.107479430,8.644614220,0.075267260,0.045304010,-0.012452900
1640844684.087040,-0.041551340,0.217145930,9.635159490,0.021083650,0.027790670,-0.009326640
1640844684.087890,-0.283602890,0.155003380,10.580645560,-0.038769830,0.131009530,0.011083480
1640844684.092090,0.022927500,-0.056656320,9.913208010,0.022801760,-0.019480280,0.016798080
1640844684.093459,-0.341370140,-0.154551970,10.407091140,0.138413920,-0.091116140,0.002083180
1640844684.097090,-0.163627700,0.169171290,8.895953180,0.107817360,0.016906860,-0.015483800
1640844684.097519,0.125651780,0.532831130,9.181918140,-0.004166360,0.006537140,0.013636060
1640844684.101810,-0.060375310,0.678309860,10.324545860,-0.092068320,0.152576000,0.008486210
1640844684.102759,0.254575490,0.599202630,10.112312320,-0.031737980,0.051322580,-0.010506810
1640844684.106720,-0.219900280,0.547173500,10.912158970,0.134959830,-0.092385720,-0.013080240
1640844684.107230,-0.596761050,0.691013570,9.550811770,0.115908680,-0.071536010,-0.025808810
1640844684.112350,-0.426492270,0.579912360,8.635973930,-0.035455820,-0.079861290,0.025463100
1640844684.113459,-0.672806500,0.337261380,9.848773000,-0.116555390,0.090786810,0.026799740
1640844684.118260,-0.027416970,0.234972970,9.823562620,-0.079856810,0.137713570,-0.003889200
1640844684.118759,0.236086670,0.349485190,10.865108490,0.058327620,-0.018405920,-0.000725690
1640844684.121780,0.090013940,0.627261880,10.346026420,0.045767430,-0.017988680,-0.038917370
1640844684.122920,0.514012460,0.680043160,8.737103460,-0.099776690,-0.069016220,0.000242890
1640844684.126780,-0.121185200,0.380427150,9.803474430,-0.125820930,0.017529730,0.028546160
1640844684.127270,-0.133763630,0.038065290,9.558298110,-0.053307410,0.066730390,-0.017802420
1640844684.131760,-0.126181780,0.018962610,9.978230480,0.063203280,-0.032550100,-0.002241130
1640844684.132190,-0.525238570,0.239037160,10.290241240,0.031152370,0.022180380,-0.016677380
1640844684.136770,-0.014727220,0.154907990,9.213523860,-0.126975790,0.038594010,-0.010271370
1640844684.137270,-0.328615070,-0.003226850,10.251103400,-0.094437610,0.009173160,0.026635830
1640844684.142000,-0.192332240,-0.145446420,9.666858670,0.028277940,0.024205450,-0.018818680
1640844684.143030,0.231147380,0.035527690,9.242831230,0.084760790,-0.031054020,-0.020274520
1640844684.147640,-0.160958450,0.290595350,9.994478230,0.024335090,0.057725610,-0.002980230
1640844684.148660,0.090514620,-0.067334610,9.614298820,-0.089506810,0.055286300,-0.027893490
1640844684.151780,-0.233652730,-0.202810090,10.389704700,-0.015284120,-0.045773390,-0.013062360
1640844684.152230,-0.383434060,-0.253310590,9.720397000,0.105007010,-0.011543930,-0.022245950
1640844684.156839,0.026822540,-0.285449830,9.071174620,0.123582800,-0.027373440,-0.024339560
1640844684.157270,-0.219064090,0.027380950,9.915802000,0.057061020,0.064598030,-0.016996270
1640844684.161909,0.348369780,-0.311480520,9.397733690,-0.014233590,0.123946380,-0.063635410
1640844684.162639,0.454975580,-0.666588010,10.332605360,0.097972150,0.032939020,-0.117793690
1640844684.166890,0.218870160,-0.542376640,10.141469960,0.250235230,0.047540670,-0.172777520
1640844684.168330,0.472721040,-0.279685500,9.030360220,0.228665810,-0.030477350,-0.194162160
1640844684.171800,-0.081793520,0.219637270,9.748352050,0.076590470,0.024425980,-0.150485350
1640844684.172590,-0.100180010,0.329485120,9.360843660,-0.007258360,0.142750130,-0.122605250
1640844684.177240,-0.186978580,0.172201960,10.369549750,0.116136640,0.047193460,-0.133289370
1640844684.178419,-0.567006830,0.442299750,10.671753880,0.285051760,0.059628490,-0.136223450
1640844684.181769,0.020601000,0.719943880,9.129629140,0.247660320,0.014762580,-0.133638100
1640844684.182550,-0.023717200,0.853597820,9.643806460,0.077880930,0.075657670,-0.109203160
1640844684.189070,0.263175640,0.736842870,9.635539050,-0.042998790,0.206175460,-0.130034950
1640844684.189900,0.649376090,0.437881470,9.829773900,0.060957670,0.119948390,-0.175829250
1640844684.191769,0.060117260,0.247966260,10.887821200,0.249205570,0.040879850,-0.227254640
1640844684.192469,-0.037552270,0.433142130,9.522623060,0.217713460,0.030504170,-0.218108330
1640844684.196790,-0.200887860,0.498407750,8.931934360,0.046317280,0.002877410,-0.160966830
1640844684.197340,-0.568081800,0.327829330,9.860836030,-0.077909240,0.151371960,-0.139532980
1640844684.202350,0.094126200,0.428983810,9.220835690,-0.014242530,0.222186770,-0.138559950
1640844684.202880,-0.051280510,0.676170710,10.765233040,0.139279660,0.103440880,-0.156897320
1640844684.206820,-0.126750410,0.814048950,10.704576490,0.119097550,0.121264170,-0.151801120
1640844684.207300,0.117282570,0.709139650,9.047068600,0.028952950,0.022611020,-0.122593340
1640844684.211779,-0.277572420,0.238262370,9.786887170,-0.028847160,0.039269030,-0.127252950
1640844684.212180,0.094788370,0.072437690,8.848684310,-0.006257000,0.237511100,-0.152957450
1640844684.216730,0.201736150,0.128529250,9.703681950,0.075525040,0.128523980,-0.190465140
1640844684.217300,-0.072526510,0.210095450,10.815756800,0.050719080,0.155480220,-0.200358080
1640844684.221789,0.076959460,0.183748660,9.437883380,0.001724060,0.103585430,-0.185547740
1640844684.222260,-0.431995000,-0.103628140,10.106121060,0.026059160,-0.020277500,-0.167577000
1640844684.226830,-0.688029940,-0.001277940,9.457100870,0.060680510,0.109769400,-0.173938290
1640844684.227270,-0.312710610,0.399462970,8.760404590,0.046406690,0.092069800,-0.166323780
1640844684.231750,-0.490085600,0.574502470,10.438865660,-0.012889500,0.165997460,-0.161457030
1640844684.232210,-0.222574260,0.487323250,10.254815100,-0.037057700,0.182279960,-0.155171750
1640844684.236780,-0.026174230,0.163752080,10.417739870,0.089852530,0.005838280,-0.143672560
1640844684.237300,-0.436915100,0.105023850,10.376022340,0.150731210,-0.002388660,-0.152264550
1640844684.241840,0.008124450,0.288695310,8.516061780,0.055582830,0.029629470,-0.141584890
1640844684.243909,0.031853450,0.432256130,9.321536060,-0.071652220,0.110150870,-0.122313210
1640844684.246909,-0.016148810,0.471139130,10.237266540,-0.109036290,0.224509840,-0.142897680
1640844684.247280,0.148593020,0.406229410,10.509823800,0.034813580,0.078873340,-0.167723010
1640844684.251780,-0.486709090,0.681935130,10.951343540,0.142087040,-0.079561780,-0.195221570
1640844684.252230,-0.657650890,0.999403660,9.083149910,0.013333560,-0.030547380,-0.161978570
1640844684.256800,-0.593973340,0.892138360,8.866456990,-0.149597230,0.029176480,-0.111210360
1640844684.257210,-0.933623430,0.649582860,10.470259670,-0.158154980,0.138513740,-0.108833610
1640844684.261850,-0.318807450,0.462516160,10.164427760,-0.027012820,0.082202240,-0.116249910
1640844684.262960,-0.029925080,0.607089580,10.413440700,0.058460240,-0.031705200,-0.126129390
1640844684.266880,0.150473390,0.634724260,9.793336870,-0.065487630,0.048440690,-0.111703580
1640844684.267400,0.678593160,0.393434790,9.105513570,-0.200758870,0.061766810,-0.084704170
1640844684.271839,0.323516730,0.125449120,10.264163020,-0.150641800,0.049994900,-0.105899590
1640844684.272430,0.302096370,-0.001973020,9.894128800,-0.060498710,0.059689590,-0.126324610
1640844684.276990,0.163350920,0.148777310,9.621587750,-0.003747640,-0.023239850,-0.128892080
1640844684.277350,-0.645677510,0.161147250,10.169120790,-0.084917250,0.030119720,-0.135910530
1640844684.281730,-0.691128490,0.098264020,9.493756290,-0.175704080,0.035084780,-0.104878850
1640844684.282230,-0.929741560,0.204609750,9.934667590,-0.115941460,-0.038075450,-0.097559400
1640844684.286820,-0.904980120,0.477174820,9.837577820,-0.073866550,0.031618770,-0.114804510
1640844684.287259,-0.139799510,0.896325050,9.200875280,-0.101517150,0.039732450,-0.082714860
1640844684.292019,-0.319304440,0.776841880,10.558953290,-0.138473500,0.064747020,-0.084671370
1640844684.292650,0.129143570,0.376264690,10.169456480,-0.150081550,0.019693370,-0.090172910
1640844684.296739,0.314138740,0.145445620,9.782825470,-0.041782860,-0.082863870,-0.069804510
1640844684.297240,-0.039914940,-0.022950130,9.852159500,-0.047445300,-0.033551450,-0.078897180
1640844684.301839,0.414994870,0.071555410,9.038535120,-0.156867520,0.027613350,-0.055660310
1640844684.303550,-0.173407660,-0.010466010,10.502977370,-0.181023780,0.042718650,-0.061333180
1640844684.306800,-0.427370460,-0.090777450,10.658678050,-0.141236190,0.017386680,-0.103381290
1640844684.307260,-0.484125490,0.450241980,9.901471140,-0.041544440,-0.120723260,-0.085385140
1640844684.312260,-1.182626250,1.044503090,9.973244670,-0.087766360,-0.137951970,-0.077123950
1640844684.312850,-0.542193710,1.407699470,8.667159080,-0.289970640,-0.006380680,-0.035834320
1640844684.316720,-0.486795540,1.248834850,10.003131870,-0.287885990,0.050035130,-0.007286670
1640844684.317260,-0.506248000,0.611136140,11.374144550,-0.143677010,0.042612850,-0.046817960
1640844684.321760,0.119081860,0.493057490,10.264641760,-0.034971540,-0.120456530,-0.038543350
1640844684.322250,-0.224034440,0.433336680,10.115373610,-0.118495510,-0.215664510,-0.014971200
1640844684.326840,0.323840080,0.149730130,8.568919180,-0.363421530,-0.024266540,0.002203880
1640844684.327560,0.633384820,-0.053777060,8.952177050,-0.369557740,0.036011640,0.021339950
1640844684.331720,0.211331590,-0.293051270,10.832674030,-0.174607350,0.062336040,-0.039277970
1640844684.332199,0.480936560,0.214140740,10.272094730,-0.070203850,-0.053913900,-0.061178210
1640844684.336750,-0.322368770,0.675160650,10.422128680,-0.158500690,-0.197537240,0.000034270
1640844684.337319,-0.825722810,0.494263170,9.540397640,-0.363902840,-0.104324530,0.025123360
1640844684.342680,-0.630584900,0.439069030,8.883558270,-0.352650880,-0.072391340,0.035919250
1640844684.343910,-1.052933690,0.337442100,10.227182390,-0.171056360,-0.009886920,0.025248530
1640844684.346799,-0.262170730,0.652335760,9.581577300,-0.117048640,0.010672210,-0.007493790
1640844684.347329,-0.010299340,1.063961740,10.184865000,-0.240427290,-0.071962190,0.041684510
1640844684.351760,-0.029348310,0.507526870,10.266963010,-0.395669040,-0.047878920,0.055786970
1640844684.352219,0.492471610,0.024607450,9.524993900,-0.319127740,-0.130775570,0.046661500
1640844684.356779,0.182585840,-0.190251170,9.849364280,-0.134265420,-0.094184290,0.028663880
1640844684.357309,0.297055130,-0.174082740,9.172164920,-0.138655320,-0.022780900,0.014615060
1640844684.361780,0.062100120,0.156191170,10.075594900,-0.277389590,-0.046969950,0.047437850
1640844684.362259,-0.531573590,-0.064955410,10.543402670,-0.380782780,-0.036311150,0.072589520
1640844684.366799,-0.536855580,-0.170107740,10.010107990,-0.275348130,-0.180900110,0.056207180
1640844684.367270,-0.986398940,0.339232710,9.980138780,-0.119116900,-0.174793620,0.049236420
1640844684.371770,-0.652337130,0.910496180,8.815165520,-0.187481940,-0.050328680,0.044167040
1640844684.372269,-0.416532490,1.450842500,9.931199070,-0.356818800,-0.040429840,0.075449070
1640844684.377560,-0.341349960,1.403820750,10.798758510,-0.463874730,0.015540420,0.090226550
1640844684.378389,0.182951750,0.978893520,10.201946260,-0.335653190,-0.154978080,0.075377550
1640844684.381739,-0.120927100,0.910834670,10.483373640,-0.182667390,-0.239534710,0.074611610
1640844684.382239,-0.002303590,0.695948000,8.823113440,-0.271962580,-0.115029510,0.091573590
1640844684.386799,0.072209710,0.390054610,9.371781350,-0.432768520,-0.127632930,0.121219470
1640844684.387310,-0.282818560,0.167669950,10.709212300,-0.511838560,-0.000901520,0.121276100
1640844684.392310,0.140620400,0.026754330,9.929723740,-0.419406590,-0.092361870,0.113037210
1640844684.393360,-0.223073040,0.394556610,10.684629440,-0.288955870,-0.234025750,0.100530710
1640844684.396770,-0.332649530,0.764638840,9.624352460,-0.383523140,-0.105078520,0.094556820
1640844684.397199,-0.141012970,0.755985620,9.023696900,-0.479325740,-0.151260200,0.123651340
1640844684.401710,-0.710327630,0.588507000,10.768365860,-0.489668640,-0.116542000,0.126004230
1640844684.402249,-0.238703770,0.613978090,9.629066470,-0.432242450,-0.079090890,0.129915790
1640844684.408439,-0.071991250,0.789296270,10.070002560,-0.388789210,-0.209040940,0.159081830
1640844684.409500,-0.055335270,0.722541630,10.087906840,-0.502717490,-0.049790750,0.185203570
1640844684.411810,0.641035970,0.356424630,9.185161590,-0.535419640,-0.062818830,0.190603780
1640844684.412210,0.221778270,-0.091246190,10.619737630,-0.442583950,-0.129200560,0.175280900
1640844684.416730,0.359535690,0.014101370,9.563160900,-0.402922930,-0.093221670,0.146478410
1640844684.417230,0.233559430,0.052679560,9.429868700,-0.442183020,-0.165551920,0.163918750
1640844684.421939,-0.380833540,-0.154196550,10.009464260,-0.540265620,-0.074674200,0.158053680
1640844684.422880,-0.389688520,-0.173890290,9.601929660,-0.492800830,-0.086840990,0.150980100
1640844684.426810,-0.638521610,-0.190320270,10.222550390,-0.360976160,-0.143794700,0.150017440
1640844684.427340,-0.536517260,0.374793200,9.697875980,-0.385330650,-0.099027160,0.160464640
1640844684.431769,-0.275766220,0.810714840,9.595115660,-0.492371710,-0.109086950,0.204700280
1640844684.432200,-0.148565010,0.561466930,10.110076900,-0.573493660,-0.025784970,0.228878890
1640844684.436710,0.125338850,0.359968570,10.183529850,-0.463005930,-0.083796680,0.224545640
1640844684.438390,0.141790000,0.254731740,10.029494290,-0.293832960,-0.167378770,0.205796940
1640844684.442459,0.329399820,0.303722110,9.166565900,-0.385098250,-0.140324230,0.205908760
1640844684.442880,0.201837480,0.249876540,9.453124050,-0.532129470,-0.060133640,0.235402580
1640844684.446810,-0.107482630,-0.380582870,10.300509450,-0.553333820,-0.010228160,0.209286850
1640844684.447300,-0.452482040,-0.559246300,10.820605280,-0.380458030,-0.157430800,0.182424520
1640844684.451740,-0.720051710,-0.017663500,9.977898600,-0.256475840,-0.212058450,0.177806630
1640844684.452280,-0.564605120,0.577097830,9.023291590,-0.429107310,-0.149270920,0.184713350
1640844684.456790,-0.466675700,1.260876060,9.600536350,-0.632274270,-0.048574820,0.242905350
1640844684.457310,-0.303073290,1.210559490,10.351629260,-0.642979150,-0.002717970,0.248321940
1640844684.461730,0.047356180,0.928673800,10.806664470,-0.426705240,-0.148752380,0.231769710
1640844684.462220,-0.033984440,1.195619700,10.253787040,-0.295798510,-0.202360760,0.244686010
1640844684.466740,0.038971560,0.913398800,9.324808120,-0.470221040,-0.188548880,0.269712510
1640844684.467290,0.123969770,0.588620900,9.461815830,-0.692483900,-0.096733890,0.306792650
1640844684.471750,0.128474320,0.137399060,9.762800220,-0.703843000,-0.017367310,0.282461940
1640844684.472260,0.389376370,-0.282437830,10.308543210,-0.517320630,-0.082583730,0.229685050
1640844684.477020,0.128693510,0.230755730,10.283467290,-0.391641350,-0.099018230,0.213360830
1640844684.477399,-0.206063690,0.505420920,9.673287390,-0.539051120,-0.167542730,0.235238700
1640844684.481770,-0.528608440,0.388988790,9.915925030,-0.697845340,-0.187559470,0.277064800
1640844684.482349,-0.639407750,0.386825620,9.422201160,-0.681115810,-0.097195830,0.272387330
1640844684.487540,-0.452447740,0.250762220,9.879920960,-0.519132610,-0.099159780,0.268647070
1640844684.488839,-0.417924340,0.578925550,10.575839040,-0.443253010,-0.060451040,0.288695100
1640844684.491770,0.005664840,0.700310410,9.650847430,-0.578816350,-0.089603680,0.315913650
1640844684.493850,0.167898680,0.083022680,10.242508890,-0.659169320,-0.162081450,0.349654350
1640844684.496750,0.360571710,-0.083872070,9.590757370,-0.600695790,-0.077193990,0.331324430
1640844684.497300,0.724561690,-0.187756460,9.142324450,-0.507971640,-0.104311130,0.297953280
1640844684.501789,0.335985990,-0.077370040,10.202095030,-0.482748480,-0.035978850,0.297096400
1640844684.502590,0.311279240,0.010653950,9.716883660,-0.595507200,-0.012743480,0.272369440
1640844684.506739,-0.405943810,-0.445337240,10.732805250,-0.573122500,-0.176706950,0.297179820
1640844684.507239,-0.912644510,-0.344286920,9.997172360,-0.463019370,-0.190345960,0.298981400
1640844684.511720,-0.898121830,-0.006316890,9.022733690,-0.437372980,-0.174239290,0.292338430
1640844684.512200,-1.040683870,0.400872290,9.684790610,-0.518649880,-0.052155560,0.336399670
1640844684.516710,-0.504442810,0.630670490,10.046156880,-0.615622160,0.014442210,0.330177010
1640844684.518119,-0.230159030,0.486304940,10.978040700,-0.543703200,-0.093355800,0.327786890
1640844684.521860,0.078155350,0.665949110,10.317267420,-0.419609310,-0.192350160,0.333614650
1640844684.522519,0.526719810,0.816048380,9.224697110,-0.456464350,-0.208297400,0.330889310
1640844684.527360,0.358085870,0.546146630,9.517738340,-0.594985600,-0.057280080,0.358383480
1640844684.528679,0.416329920,0.113518450,9.828576090,-0.626462760,-0.018048290,0.356724860
1640844684.531809,-0.098928500,-0.302253930,11.234294890,-0.495904680,-0.126585380,0.330409410
1640844684.532260,-0.377583350,-0.157178090,10.179652210,-0.401663840,-0.181467860,0.325502490
1640844684.536780,-0.456659440,0.423617840,9.252730370,-0.517630760,-0.249531890,0.326944980
1640844684.537299,-0.788686630,0.646129610,9.627511020,-0.684474530,-0.058531770,0.357298610
1640844684.541920,-0.340402930,0.688716410,9.543456080,-0.683584930,-0.010393560,0.346514640
1640844684.542870,-0.452399910,0.788891320,11.252133370,-0.504818620,-0.138676180,0.321887430
1640844684.546720,-0.338716750,1.045903330,10.472424510,-0.440284670,-0.133591910,0.344637040
1640844684.547230,0.108664130,1.052581310,9.422906880,-0.574229780,-0.244833560,0.380888640
1640844684.551800,-0.200143040,0.565587520,10.120314600,-0.718815740,-0.127302140,0.411734070
1640844684.552280,0.570911050,0.089272450,8.955753330,-0.698594870,-0.018467010,0.407116170
1640844684.556749,0.651213770,-0.223768460,10.276979450,-0.535449560,-0.077837720,0.374062450
1640844684.557299,0.415089040,-0.092276420,10.496131900,-0.490625290,-0.015150010,0.370468260
1640844684.561930,0.580072280,-0.109822450,9.570149420,-0.589984770,-0.148880530,0.387100930
1640844684.562850,-0.440964160,-0.373400210,10.593683240,-0.665007590,-0.199389490,0.401809840
1640844684.569080,-0.491795840,-0.274902640,8.978195190,-0.618007900,-0.090011980,0.378789070
1640844684.569540,-0.514876130,-0.105008970,9.492445950,-0.509014790,-0.130991670,0.346344710
1640844684.571770,-0.990714130,0.405732450,10.551062580,-0.508405330,0.029961770,0.354996380
1640844684.572240,-0.339060960,0.606119930,9.776104930,-0.581428530,-0.082114350,0.378458290
1640844684.576769,-0.563728210,0.240582390,11.044387820,-0.585107620,-0.179913670,0.409941460
1640844684.577309,-0.041401940,0.329555570,9.335734370,-0.537110920,-0.088092710,0.411595490
1640844684.581840,0.511898990,0.125734570,9.228048320,-0.489254360,-0.137527330,0.418512580
1640844684.582720,0.413501350,-0.025417510,10.122480390,-0.536826430,0.031515970,0.409895240
1640844684.586789,0.840591370,-0.138243710,9.754760740,-0.568200770,0.006863480,0.401735400
1640844684.587309,0.198361560,-0.728804230,11.256731030,-0.480942520,-0.149939950,0.391028880
1640844684.592049,-0.365837100,-0.571232200,10.059612270,-0.427846700,-0.190889870,0.365322920
1640844684.592840,-0.437391040,-0.158086020,8.840318680,-0.434836800,-0.220261510,0.384354680
1640844684.596710,-1.075771570,0.136574830,9.914156910,-0.550317880,-0.007908050,0.394021030
1640844684.597319,-0.778075460,0.721853260,9.979178430,-0.583805200,0.018057230,0.393164250
1640844684.602860,-0.693838120,0.912991290,11.104230880,-0.478383990,-0.134459170,0.402201800
1640844684.603430,-0.489619850,1.231002450,10.392786030,-0.450234170,-0.143128660,0.404034640
1640844684.607540,0.214846250,1.528357980,9.005437850,-0.522631590,-0.186042520,0.429776400
1640844684.608620,-0.002459820,0.892458980,10.229351040,-0.615331710,-0.055588790,0.441770320
1640844684.611739,0.459032000,0.282715350,9.908582690,-0.612048980,-0.021764650,0.429578240
1640844684.612249,0.343365460,-0.362011190,10.692269330,-0.450193880,-0.143609940,0.421385440
1640844684.616730,-0.015038180,-0.558948990,10.545141220,-0.434748920,-0.142322510,0.407222000
1640844684.617309,0.255179050,-0.245364520,8.931988720,-0.572496830,-0.147536430,0.437144990
1640844684.621750,-0.268090460,-0.246444880,9.949942590,-0.667531910,-0.080640610,0.436821670
1640844684.622269,-0.101546780,-0.108164440,9.817234990,-0.627039490,-0.001960990,0.398397510
1640844684.626799,-0.136225240,0.392684100,10.187428470,-0.432637330,-0.100265450,0.381919740
1640844684.627300,-0.673433480,0.904026270,10.734303470,-0.443775950,-0.141064840,0.389292870
1640844684.631820,-0.247664700,1.098152760,9.339505200,-0.606174830,-0.153514760,0.436787370
1640844684.632500,-0.524127360,0.670560000,9.940537450,-0.660588090,-0.106000940,0.464171230
1640844684.636710,-0.220897610,0.046256960,9.964849470,-0.562133010,-0.021690130,0.442908790
1640844684.637220,0.362265770,-0.108309870,9.674427990,-0.414545860,-0.074674190,0.436997470
1640844684.642010,0.279963400,-0.215394960,10.254838940,-0.447814200,-0.051647420,0.444708790
1640844684.643960,0.670517800,-0.557523010,9.788804050,-0.591315390,-0.048519680,0.455197780
1640844684.647169,0.256549300,-0.895753030,10.184147830,-0.564928410,-0.110888500,0.439734820
1640844684.648020,0.020330140,-0.839410420,9.805848120,-0.447498320,-0.124165440,0.388450950
1640844684.651739,-0.043089790,-0.303893360,9.427020070,-0.375793930,-0.098040720,0.381518960
1640844684.652300,-0.637880620,0.350304570,10.076313020,-0.447464020,-0.023102760,0.393821300
1640844684.656989,-0.622933630,0.430367980,10.412952420,-0.555624130,-0.056189310,0.418001470
1640844684.658160,-0.878444790,0.285094980,10.768040660,-0.464248720,-0.132121190,0.448721740
1640844684.661739,-0.677644430,0.366222980,9.791913990,-0.331342220,-0.151744500,0.437827410
1640844684.662580,-0.166478310,0.572784600,9.327229500,-0.359942050,-0.105242440,0.445792140
1640844684.666810,0.103603360,0.814184070,9.636863710,-0.517247680,0.013786560,0.460538330
1640844684.667290,0.677141490,0.434848900,10.169104580,-0.604960440,0.025960810,0.447976680
1640844684.671759,0.560532390,-0.064733560,11.282610890,-0.455066620,-0.076261190,0.417503770
1640844684.672400,0.263543930,-0.042318620,10.314033510,-0.308965180,-0.177188260,0.385879040
1640844684.676770,-0.081829970,-0.057732250,9.515948300,-0.366319810,-0.210262860,0.402091530
1640844684.677280,-0.730378810,0.039132650,9.746434210,-0.525902270,-0.060309480,0.434400230
1640844684.681959,-0.682494100,0.058274650,9.686196330,-0.594890120,-0.023758420,0.438898860
1640844684.682710,-0.668972730,0.049437730,10.769048690,-0.467969570,-0.080770280,0.437678460
1640844684.686879,-0.485216740,0.600938380,10.316493030,-0.343519480,-0.074130310,0.407347170
1640844684.687640,-0.027736800,0.971654710,9.637807850,-0.427927170,-0.124721240,0.428105890
1640844684.692109,-0.178255330,0.815174640,10.372118000,-0.554229380,-0.100147750,0.458301660
1640844684.693220,0.193896320,0.471937750,9.659010890,-0.568254410,-0.074589260,0.444237890
1640844684.696770,0.454166440,-0.009013280,10.042763710,-0.447447690,-0.116103900,0.439260990
1640844684.697280,0.136028800,-0.356473360,10.515977860,-0.350517090,-0.035296390,0.425887200
1640844684.701750,0.294494030,-0.504325990,9.638449670,-0.406070110,-0.075840970,0.423570040
1640844684.702289,-0.186309170,-0.840290670,10.434760090,-0.461565050,-0.162342240,0.454449710
1640844684.706720,-0.223332510,-0.817524910,9.396700860,-0.455477890,-0.078384600,0.440044760
1640844684.707300,-0.008321260,-0.446370390,9.300811770,-0.400182660,-0.100523260,0.422246840
1640844684.711769,-0.589563070,-0.019945780,10.762840270,-0.357340340,-0.025346880,0.415405690
1640844684.712270,-0.340731170,0.372094660,9.881205560,-0.394037400,-0.054973370,0.392058490
1640844684.716689,-0.517340180,0.308671620,10.628459930,-0.372271330,-0.191144650,0.408089250
1640844684.717290,-0.701440990,0.216329020,10.222743030,-0.317846270,-0.123767550,0.423169140
1640844684.722479,0.062769320,0.235497120,8.859077450,-0.318859460,-0.135791320,0.442591310
1640844684.722869,-0.087166380,0.025180920,10.342350960,-0.352840210,-0.030905010,0.469318090
1640844684.726810,0.358923490,-0.282822070,10.047883990,-0.378564030,0.035694240,0.439250500
1640844684.727409,0.568747700,-0.563849810,10.524664880,-0.290735070,-0.138759630,0.423917260
1640844684.731740,-0.079502830,-0.359300170,10.800155640,-0.235219330,-0.161288720,0.408276980
1640844684.732260,0.250974660,0.107819450,8.750362400,-0.330068170,-0.153940920,0.396910340
1640844684.736780,-0.356214110,0.342636350,10.038967130,-0.408786570,-0.111129880,0.420220230
1640844684.737390,-0.799677490,0.251104590,10.700407030,-0.381642580,0.008143490,0.400041070
1640844684.742290,-0.547102750,0.157485220,10.360011100,-0.227917730,-0.152154280,0.390711430
1640844684.744340,-1.118016000,0.361410140,11.098675730,-0.152328610,-0.224711030,0.413863450
1640844684.746729,-0.378461630,0.502364990,8.999887470,-0.307652410,-0.108698030,0.440262320
1640844684.747280,0.187860090,0.461086810,9.438512800,-0.455923440,-0.091981910,0.467901020
1640844684.751740,0.323330520,0.234422430,10.648320200,-0.413619040,0.028941040,0.457894860
1640844684.752319,1.075251580,0.007513740,10.050016400,-0.251826730,-0.042806580,0.390175040
1640844684.756770,0.612121160,0.187155920,11.036112790,-0.162313910,-0.200918360,0.387828110
1640844684.757300,0.075320940,0.153783170,9.977800370,-0.306861130,-0.167584450,0.399550860
1640844684.762159,0.111549000,-0.217851000,8.902061460,-0.436073600,-0.170011830,0.436472950
1640844684.762800,-0.656482460,-0.447725360,10.223149300,-0.358696280,-0.045169890,0.425559310
1640844684.766800,-0.530347530,-0.413324530,10.020364760,-0.220414980,0.008296960,0.386896700
1640844684.767480,-0.451353670,0.022861790,10.624348640,-0.179415970,-0.131987080,0.405548600
1640844684.771750,-0.700653020,0.186773240,10.611949920,-0.286117290,-0.122040530,0.410160510
1640844684.772260,0.011259550,-0.056636080,9.203007700,-0.358101810,-0.134469610,0.409454170
1640844684.777200,0.000562810,-0.004916340,9.893963810,-0.264333220,-0.098487750,0.409378200
1640844684.778210,0.206485090,0.049513570,9.824834820,-0.185172260,-0.025033950,0.380907980
1640844684.781750,0.770841540,0.199580760,9.850914960,-0.215005920,-0.087058560,0.388886120
1640844684.782240,0.173278530,0.016203440,10.952396390,-0.254537220,-0.050881510,0.431433410
1640844684.786850,0.094329480,-0.670197730,10.164916990,-0.242711620,-0.131718810,0.402921530
1640844684.787360,-0.234680490,-0.656602080,9.996306420,-0.127045810,-0.227524380,0.403267230
1640844684.791819,-0.559630040,-0.270219620,9.340071680,-0.124593090,-0.090032820,0.390289750
1640844684.792310,-0.094485240,0.071899580,9.107526780,-0.256358180,-0.012601910,0.378444850
1640844684.796739,-0.354251920,0.468243330,10.983915330,-0.295381340,0.009018180,0.403682980
1640844684.797299,-0.316264240,0.294796230,10.969180110,-0.202639400,-0.082376610,0.382143290
1640844684.801810,-0.187376250,0.279821070,10.484463690,-0.075414790,-0.253923330,0.372535050
1640844684.802300,-0.556607660,0.549341320,9.836581230,-0.084240750,-0.191615580,0.403869300
1640844684.807160,-0.156574100,0.290514590,9.003831860,-0.248032850,-0.070457160,0.407765900
1640844684.808780,-0.018285060,0.093805030,10.377155300,-0.307302240,-0.017550590,0.436154100
1640844684.812199,-0.004412550,-0.051650860,10.941724780,-0.193151880,-0.035147380,0.418622880
1640844684.812850,0.432947130,-0.048640840,10.226819990,-0.098961600,-0.183950350,0.382503870
1640844684.816769,0.260155920,0.444820520,10.014225010,-0.146430750,-0.150398910,0.401359830
1640844684.817319,0.113576610,0.366471620,9.554145810,-0.289557900,-0.063337390,0.400719110
1640844684.821920,0.016246720,0.091756220,10.266761780,-0.312909570,-0.090187790,0.382918210
1640844684.822919,-0.428755760,0.119279120,10.758466720,-0.165066090,-0.099426490,0.374476580
1640844684.826810,-0.361156280,0.137566610,9.978178020,-0.104409460,-0.160774600,0.346648690
1640844684.827510,-0.409804700,0.360927080,9.979178430,-0.204387350,-0.139518110,0.382109050
1640844684.831730,-0.516928610,0.149977220,10.023549080,-0.292655920,-0.049231950,0.416240190
1640844684.832280,-0.056047850,-0.300323690,10.136032100,-0.251589720,-0.094325840,0.403441580
1640844684.836740,0.135363970,-0.266556530,10.364229200,-0.114631660,-0.107814370,0.399225980
1640844684.837309,0.478439960,-0.124916230,9.644588470,-0.103430460,-0.065214930,0.384600460
1640844684.841879,0.651262880,-0.142140670,9.963356970,-0.225591670,-0.058500470,0.371985170
1640844684.842599,0.136358290,-0.396060260,10.687523840,-0.241334780,-0.069817910,0.387564300
1640844684.847319,0.120776210,-0.752854470,10.030717850,-0.117370490,-0.153487910,0.364524130
1640844684.848110,-0.285969410,-0.605881330,10.112528800,0.000435110,-0.172576310,0.348874930
1640844684.851719,-0.614960970,-0.293047430,9.792344090,-0.049625340,-0.065898900,0.366458330
1640844684.854339,-0.409266020,-0.130259380,9.670558930,-0.177365540,-0.065436960,0.369362560
1640844684.856779,-0.509082850,-0.190374330,10.647592540,-0.165575740,-0.042012340,0.374008720
1640844684.857319,-0.210519750,-0.151764940,10.205536840,-0.013487040,-0.078068690,0.369773860
1640844684.861739,0.023594600,0.186395660,10.007420540,0.061036650,-0.189284980,0.359705120
1640844684.862300,0.018379910,0.275519970,9.930929180,-0.037622450,-0.094780320,0.378766660
1640844684.866680,0.264893350,-0.107258500,9.723705290,-0.136977450,-0.034967060,0.381591950
1640844684.867280,-0.024559560,-0.597871180,10.903989790,-0.044396520,-0.091958050,0.363163650
1640844684.871770,-0.342788960,-0.706427810,10.667911530,0.102573630,-0.146529060,0.353848930
1640844684.872360,-0.046376110,-0.187323600,9.267106060,0.089819750,-0.214864360,0.351536270
1640844684.877110,-0.339322920,0.163990050,9.863757130,-0.069580990,-0.092215850,0.369897570
1640844684.877810,-0.086059200,0.181739750,9.956239700,-0.145994140,0.008428100,0.374896820
1640844684.881929,-0.073932980,0.211160510,10.803237920,0.001320240,-0.087964560,0.344646040
1640844684.883220,-0.395521700,0.291178580,11.203902240,0.147557270,-0.172656790,0.330905620
1640844684.889590,-0.122355420,0.631326740,9.612919810,0.075098870,-0.197693750,0.348220830
1640844684.890179,-0.272650870,0.686818780,9.761865620,-0.102721160,-0.169636280,0.378508870
1640844684.891739,-0.132229910,0.158955370,10.157308580,-0.168967250,-0.021554530,0.380049650
1640844684.892269,0.193474110,-0.188576400,10.287494660,-0.004085900,-0.054264070,0.361511110
1640844684.896720,0.019726660,-0.183614790,11.047384260,0.149773080,-0.156949460,0.329434900
1640844684.897310,0.125272940,-0.027963390,10.105382920,0.060226030,-0.144964500,0.342749150
1640844684.901729,0.235445010,0.110732800,9.367242810,-0.117778780,-0.172218700,0.371585790
1640844684.902320,0.118595760,-0.166186300,10.049226760,-0.159062460,-0.069548200,0.364246960
1640844684.906750,0.306743560,-0.358143480,10.067507740,0.005921720,0.014497340,0.337859990
1640844684.907290,0.071700920,0.043259470,10.781253810,0.174115600,-0.125913340,0.293478400
1640844684.911729,-0.429365280,0.357584450,10.845635410,0.063914080,-0.172621060,0.309042690
1640844684.912259,-0.192213710,0.347469240,9.146502490,-0.136670490,-0.166264190,0.355635580
1640844684.916780,-0.341573950,-0.116364760,9.737345700,-0.111083700,-0.084109610,0.354357060
1640844684.917480,-0.167517330,-0.331089410,10.192321780,0.065061460,0.028416510,0.332254170
1640844684.921860,0.405948130,0.048340690,9.977519990,0.176847010,-0.073245190,0.322970810
1640844684.923489,0.238783240,0.131784280,10.750068660,0.041194260,-0.083474810,0.341258970
1640844684.927160,0.345926910,-0.266279430,9.979635240,-0.114448380,-0.055943440,0.353600080
1640844684.928259,-0.174634400,-0.877340320,10.249468800,0.018580260,-0.172780500,0.335662160
1640844684.931739,-0.567116080,-1.119514230,10.084724430,0.228552540,-0.165015460,0.285081600
1640844684.932260,-0.348103730,-0.568560660,8.968773840,0.232991590,-0.094001000,0.265909730
1640844684.936740,-0.408602600,0.078443880,10.225158690,0.042909380,-0.039134920,0.306957960
1640844684.937280,-0.208112690,0.090762330,10.887169840,-0.094455490,0.040563940,0.329783560
1640844684.941759,0.011389260,-0.106442350,10.746184350,0.092563030,-0.137569030,0.315724310
1640844684.942440,-0.184635920,0.061184250,10.624726300,0.331963690,-0.231598360,0.300697980
1640844684.946750,0.115906960,0.459912690,8.732247350,0.262084600,-0.100639470,0.299157200
1640844684.947310,0.129734100,0.520146070,9.442804340,0.025267900,-0.083531450,0.316126670
1640844684.951860,-0.025907230,0.126474340,10.957699780,-0.067815180,0.042721630,0.333803890
1640844684.952400,0.119965200,-0.397728710,10.733781810,0.134433810,-0.089509790,0.281435280
1640844684.956740,-0.318993900,-0.308530810,11.139355660,0.341463180,-0.259739220,0.249680950
1640844684.957300,-0.463362100,0.157600980,9.586500170,0.241246860,-0.131261350,0.277085600
1640844684.961880,-0.282310160,0.175826580,8.983049390,-0.002284350,-0.121733550,0.305965540
1640844684.962620,-0.324442540,0.217877490,10.617321970,-0.055000190,-0.016430020,0.320875670
1640844684.967049,0.218797970,0.211407150,10.296871190,0.104208280,0.016111130,0.281213190
1640844684.967729,0.329682050,0.221353110,10.888023380,0.291585920,-0.167746830,0.245654600
1640844684.971710,-0.120131460,0.632670400,10.864464760,0.234287980,-0.150585190,0.250276920
1640844684.972290,0.071621980,0.426136880,9.045051570,0.004108250,-0.153192890,0.296510760
1640844684.976950,-0.188880910,-0.217843730,10.056023600,-0.038829450,-0.144699220,0.320960670
1640844684.977360,-0.077789340,-0.361529500,10.018877030,0.115473580,0.022819640,0.282388930
1640844684.981710,0.346854870,-0.421763270,9.924960140,0.262542160,-0.046662990,0.261791140
1640844684.982370,0.027461550,-0.156419370,11.115766530,0.214305520,-0.095736980,0.270277290
1640844684.986760,0.104927830,-0.020698080,9.818072320,0.039283920,-0.071509180,0.282587050
1640844684.987310,0.035577490,-0.442436430,9.880016330,0.024272500,-0.182689740,0.291608300
1640844684.991730,-0.413822050,-0.372936130,10.331456180,0.184078510,-0.079812120,0.264614820
1640844684.992540,-0.118203660,-0.154566050,9.312189100,0.286164880,-0.062187020,0.229045790
1640844684.996729,-0.320051550,0.082339900,10.487160680,0.219295930,-0.104390080,0.242860630
1640844684.997500,-0.394949140,0.166721140,10.398341180,0.092297790,-0.027252730,0.269053850
1640844685.002420,-0.053308240,-0.335782410,9.979775430,0.109767910,-0.138519720,0.286063550
1640844685.003070,-0.350628320,-0.363961340,10.682958600,0.272932620,-0.169755500,0.287199020
1640844685.007069,0.098203790,-0.029501640,9.258561130,0.309059020,-0.081504870,0.263012950
1640844685.007680,0.378393110,-0.014582380,9.750001910,0.193752320,-0.083567210,0.270777970
1640844685.011780,0.009560890,-0.058767650,11.029560090,0.123974700,0.006502870,0.270715360
1640844685.012280,0.177012880,-0.226999100,10.379573820,0.192473830,-0.107139350,0.245183720
1640844685.016749,-0.345843880,-0.260708090,10.732127190,0.326061250,-0.271678000,0.250671800
1640844685.017390,-0.592732070,0.173828470,9.426612850,0.302404200,-0.155885520,0.248353210
1640844685.021780,-0.314030530,0.305881230,8.982060430,0.168992590,-0.085730850,0.270164040
1640844685.022320,-0.637881280,0.311528860,11.009552000,0.101976110,-0.033321980,0.280003280
1640844685.026739,-0.177464470,0.435601650,10.645094870,0.187323970,-0.050204980,0.260071430
1640844685.027360,0.145203830,0.390419130,10.586436270,0.290258230,-0.210878270,0.257705180
1640844685.031770,-0.030324600,0.669017730,10.315780640,0.248216120,-0.156307240,0.261622670
1640844685.032320,0.431234330,0.475631590,8.968292240,0.107994680,-0.081728410,0.279788670
1640844685.036769,0.246903140,-0.185936050,10.443576810,0.095067920,-0.084647530,0.284372270
1640844685.037360,-0.123928260,-0.362117020,10.983290670,0.218620940,-0.057417160,0.262577830
1640844685.042090,0.125499000,-0.469772340,10.052701950,0.298182670,-0.188319400,0.250661370
1640844685.042650,-0.345128690,-0.322046910,10.215570450,0.222760450,-0.192686930,0.261004270
1640844685.047160,-0.153766710,-0.066610680,9.203639030,0.092060850,-0.042022760,0.281369630
1640844685.048130,0.170848670,-0.219950320,9.829847340,0.101675120,-0.037172440,0.276072320
1640844685.051710,-0.180746810,0.039400370,11.228801730,0.244520620,-0.078354780,0.244714330
1640844685.052310,0.162533400,0.310619770,10.039100650,0.298662510,-0.144757350,0.241152940
1640844685.056790,-0.069609370,0.136011110,10.123454090,0.233034790,-0.193554180,0.244340330
1640844685.057380,-0.444738810,-0.061295980,9.986301420,0.155456380,-0.083130600,0.262652340
1640844685.062060,-0.040981200,-0.424966960,9.392035480,0.189289440,-0.078867360,0.268913780
1640844685.062790,-0.304694210,-0.560278830,10.644601820,0.295233760,-0.116278250,0.254929070
1640844685.066769,0.048716710,-0.257294450,9.894462590,0.291150840,-0.065812480,0.254203410
1640844685.067319,0.319128810,-0.389048460,9.976716040,0.228525740,-0.106772800,0.260803160
1640844685.071760,-0.199714880,-0.605120960,10.821177480,0.243729380,-0.096951430,0.241471830
1640844685.072280,-0.042478560,-0.590483960,9.719608310,0.317426000,-0.136938710,0.228509280
1640844685.076840,-0.305049990,-0.429711580,10.096636770,0.374627200,-0.196233420,0.224301260
1640844685.077380,-0.608661830,-0.024856410,10.073636050,0.317442420,-0.100925570,0.240573330
1640844685.082379,-0.159086790,0.213316340,9.648139950,0.235167190,-0.107546170,0.265714560
1640844685.083089,-0.545250830,0.094585370,11.145376210,0.269953940,-0.109423700,0.278364060
1640844685.087880,-0.307107540,0.100941910,10.418701170,0.359664890,-0.121231390,0.251275330
1640844685.088410,0.045740100,0.393770780,9.861229900,0.393913780,-0.213715460,0.251022040
1640844685.091930,-0.151163680,0.533006130,9.994998930,0.297656690,-0.148639080,0.260412720
1640844685.093200,0.468087050,0.485255330,9.262550350,0.162343700,-0.072248290,0.277556480
1640844685.096799,0.346764770,-0.035354540,10.754714970,0.230492700,-0.074671210,0.270493360
1640844685.097339,-0.202281150,-0.566478190,11.385113720,0.400435980,-0.141315180,0.228928070
1640844685.101729,-0.187176970,-0.418320540,10.050050740,0.453801540,-0.265789030,0.232933510
1640844685.102340,-0.757161080,-0.213690180,9.960983280,0.300452140,-0.257298380,0.268134470
1640844685.106750,-0.587983910,-0.162591160,9.369842530,0.131873770,-0.087431060,0.289323900
1640844685.107329,-0.082570750,0.062061530,9.916764260,0.190299750,-0.081989180,0.275616380
1640844685.111760,0.014290360,0.144967470,11.095671650,0.385661480,-0.074462610,0.238789650
1640844685.112330,0.495034280,0.599275350,10.350908280,0.424529700,-0.130245130,0.214782390
1640844685.116760,0.305455300,0.872455240,10.337167740,0.285230610,-0.237339740,0.268404220
1640844685.117290,-0.008795590,0.246576290,9.961562160,0.144377350,-0.183248530,0.298985870
1640844685.122599,0.191560600,-0.317848770,9.170847890,0.219519420,-0.133945020,0.295412510
1640844685.123319,-0.119551030,-0.712277650,10.233290670,0.418078930,-0.107485080,0.261318680
1640844685.127679,-0.161989700,-0.716266690,10.331089020,0.436797800,-0.072675970,0.245255260
1640844685.129510,-0.024709550,-0.388106640,10.024231910,0.281268390,-0.165429710,0.262442230
1640844685.131680,-0.412930280,-0.654512880,10.636367800,0.194528700,-0.155226900,0.270949300
1640844685.132340,-0.233706210,-0.629525480,9.926832200,0.287729530,-0.150196270,0.255084040
1640844685.136740,-0.149446370,-0.153476850,9.774330140,0.462248920,-0.196264700,0.232844050
1640844685.137320,-0.257090990,0.268931420,10.053348540,0.435602690,-0.101609530,0.215733050
1640844685.142020,0.249135540,0.548282380,9.609579090,0.279960070,-0.087794660,0.258719950
1640844685.142439,-0.178068530,0.004130180,11.011011120,0.277857480,-0.136634710,0.287367490
1640844685.146760,-0.146960940,-0.586483540,10.486172680,0.418296520,-0.206701470,0.282077490
1640844685.147339,0.188236710,-0.501952110,9.230652810,0.540650070,-0.253485200,0.279112220
1640844685.151680,-0.147048560,-0.375900480,9.775109290,0.438247650,-0.099530830,0.267143580
1640844685.152289,0.287983920,-0.377968850,9.731287960,0.254006710,-0.027088830,0.268353520
1640844685.156760,-0.096483880,-0.394127190,10.998540880,0.308665630,-0.135348750,0.255420800
1640844685.157980,-0.477108090,-0.589766680,11.031992910,0.490680400,-0.250211390,0.224433880
1640844685.161780,-0.281735120,-0.126953740,9.205551150,0.579168020,-0.281949400,0.230325800
1640844685.162480,-0.922253370,0.345873270,9.847216610,0.457926180,-0.222678530,0.251491430
1640844685.166770,-0.458251830,0.247808520,9.864314080,0.263465940,-0.070026520,0.276739900
1640844685.167460,0.034870810,0.216327890,10.377121930,0.330755140,-0.114889460,0.273148720
1640844685.171749,-0.106449280,0.195730720,11.565146450,0.502170680,-0.185616330,0.245219500
1640844685.172330,0.508804560,0.422259360,9.796324730,0.520487130,-0.224432360,0.246600810
1640844685.176829,0.375986580,0.696919980,9.535454750,0.378219870,-0.282780890,0.268721610
1640844685.177330,0.143582300,0.278578250,9.972119330,0.221251000,-0.122548670,0.281176030
1640844685.181690,0.420972020,-0.158537670,9.775913240,0.291119460,-0.099617250,0.266277730
1640844685.182289,-0.310532570,-0.252748040,11.419986720,0.489018920,-0.219106700,0.240394520
1640844685.186790,-0.468965200,-0.137571600,10.646300320,0.487604800,-0.224615680,0.252690970
1640844685.187340,-0.255027560,0.131037150,9.087495800,0.323669700,-0.259426300,0.274467470
1640844685.192200,-0.589140420,-0.111857760,10.076189040,0.208717580,-0.157603640,0.299696620
1640844685.193359,-0.099830720,-0.243040460,9.759744640,0.303335460,-0.052610040,0.281879250
1640844685.196720,0.029239430,0.131628360,10.455204010,0.469812840,-0.207482310,0.241246860
1640844685.197320,-0.084461020,0.406207620,10.860821720,0.424526690,-0.210221160,0.256879720
1640844685.201779,0.471510500,0.445574100,9.326490400,0.258846670,-0.189903380,0.287892010
1640844685.202459,0.170160530,-0.173092510,10.237459180,0.250965360,-0.169529020,0.294056560
1640844685.206960,0.144515900,-0.672562540,10.279592510,0.409194890,-0.113515580,0.290794730
1640844685.208930,0.396257310,-0.517568110,9.641372680,0.511977140,-0.195494290,0.271302460
1640844685.211740,-0.107013250,-0.525948820,10.449922560,0.404937650,-0.171694190,0.297798310
1640844685.212319,-0.080196970,-0.629790600,9.775387760,0.265324120,-0.129851700,0.317157830
1640844685.216730,-0.394165190,-0.841075900,10.115551950,0.340543750,-0.204902930,0.277067720
1640844685.217320,-0.650675000,-0.815296170,10.298232080,0.498437910,-0.189259650,0.245359570
1640844685.221750,-0.231346250,-0.095987410,9.223536490,0.544291730,-0.166557740,0.228409500
1640844685.222610,-0.593976020,0.310638490,10.417804720,0.409521220,-0.172692570,0.248174410
1640844685.226820,-0.271723690,0.209934290,10.268081670,0.294643670,-0.128361580,0.306695730
1640844685.227340,-0.159058680,-0.164427970,10.204043390,0.417824180,-0.227983330,0.299674330
1640844685.231730,-0.336647510,-0.518515470,10.543248180,0.594723400,-0.254833760,0.271423250
1640844685.232319,0.239621220,-0.100114400,8.952158930,0.583718780,-0.192661580,0.282619920
1640844685.236690,0.102115300,0.176600160,9.813084600,0.382526310,-0.190876450,0.283803080
1640844685.237380,0.347359750,-0.172512740,10.383165360,0.240996480,-0.066192460,0.298421110
1640844685.241760,0.235127570,-0.437105690,10.684454920,0.428660300,-0.178609820,0.277575940
1640844685.242730,-0.555723670,-0.618072990,11.301919940,0.663691820,-0.360401000,0.236572360
1640844685.247069,-0.552162650,-0.217101400,9.076716420,0.620205820,-0.304041800,0.254821870
1640844685.247640,-0.754129830,0.263423200,9.038425450,0.382770660,-0.272990850,0.286561280
1640844685.251730,-0.774582680,0.060761090,10.484768870,0.221268830,-0.072836880,0.301159920
1640844685.252329,-0.143793810,0.074949470,10.452810290,0.395740660,-0.134129870,0.285276830
1640844685.256800,-0.223161770,0.251568970,11.402704240,0.655244350,-0.343890580,0.255452160
1640844685.257340,0.023041150,0.735937480,9.976283070,0.569708700,-0.256960180,0.262984720
1640844685.261700,0.281923860,1.048513170,8.956325530,0.294083390,-0.291527810,0.321090250
1640844685.262349,-0.207698460,0.409738990,10.519652370,0.166286540,-0.220680250,0.329281390
1640844685.266749,0.301647040,-0.068567700,9.750060080,0.336395290,-0.148926710,0.297626940
1640844685.267310,0.195491360,-0.292779830,10.396309850,0.583218160,-0.284490050,0.265979830
1640844685.271770,-0.334567070,-0.280844870,10.870120050,0.528162720,-0.238488660,0.275900960
1640844685.272349,0.033646120,-0.155949890,9.113323210,0.276556670,-0.260147450,0.322234720
1640844685.276759,-0.508895700,-0.750127260,10.269716260,0.193899900,-0.308601590,0.331828060
1640844685.277380,-0.342584820,-0.767390910,9.964708330,0.363224800,-0.180514170,0.298409190
1640844685.282169,0.061791520,-0.276912390,9.621101380,0.554198210,-0.234517480,0.264449510
1640844685.282699,-0.360107270,0.114182840,10.906100270,0.493121210,-0.236800340,0.262469140
1640844685.287310,0.104366860,0.468143140,9.749468800,0.281606670,-0.205554110,0.309249820
1640844685.289019,-0.030750460,-0.041049410,10.122903820,0.254674320,-0.318658440,0.325447410
1640844685.292090,-0.250888230,-0.362430390,10.181598660,0.439538150,-0.271077510,0.321576090
1640844685.293429,0.232408020,-0.112539070,9.033130650,0.542415800,-0.239941520,0.311416450
1640844685.296730,-0.143370510,-0.289013500,10.365587230,0.466723770,-0.215928290,0.317850740
1640844685.297320,-0.023725180,-0.329344720,10.346633910,0.303184990,-0.153464090,0.317657020
1640844685.301750,-0.050907590,-0.562127230,10.385422710,0.320000980,-0.294996860,0.298245340
1640844685.302420,-0.546928470,-0.662675320,10.606609340,0.478950200,-0.356128810,0.276416570
1640844685.306759,-0.211161660,0.027466830,8.855339050,0.509572210,-0.291171730,0.272803100
1640844685.307380,-0.496393290,0.085907960,9.949404720,0.406405360,-0.237755480,0.291322170
1640844685.311710,-0.496488300,-0.021118490,10.747121810,0.328616830,-0.159378350,0.309005410
1640844685.312280,-0.221381010,0.095410500,10.630554200,0.396157830,-0.306791100,0.305059550
1640844685.316720,-0.477048070,0.092110220,10.855050090,0.491580460,-0.389877020,0.323414830
1640844685.317330,0.149895880,0.575231190,8.772686960,0.415039120,-0.291268620,0.332442020
1640844685.322320,0.288431140,0.536249700,9.373604770,0.292210370,-0.230658080,0.334817260
1640844685.324630,0.264964430,0.023764350,10.753750800,0.304457580,-0.129921750,0.319311020
1640844685.327129,0.424776550,-0.103235140,10.526696210,0.424428280,-0.247173060,0.299410520
1640844685.328169,-0.240008950,-0.316727970,11.081881520,0.476242660,-0.432098000,0.303627640
1640844685.331720,-0.439065220,-0.374696790,9.405074120,0.369842440,-0.344142380,0.335992900
1640844685.332360,-0.386368450,-0.563433950,8.791909220,0.277675750,-0.292874930,0.340116110
1640844685.336760,-0.643343690,-0.821464540,10.399898530,0.348103110,-0.173044250,0.331649180
1640844685.337350,-0.005165260,-0.464887830,9.976629260,0.457140890,-0.173205140,0.300663710
1640844685.341740,0.018360740,-0.108373390,10.721211430,0.472721520,-0.328426150,0.300100510
1640844685.342310,-0.100230080,0.051594260,10.392568590,0.384014870,-0.300851490,0.347425040
1640844685.346720,0.176811830,-0.045829000,9.273499490,0.326909180,-0.339461950,0.349986610
1640844685.347350,-0.085895380,-0.244563680,9.971936230,0.411066440,-0.297844410,0.339677930
1640844685.351750,0.164191650,-0.061490120,9.540020940,0.469593790,-0.178343060,0.314049450
1640844685.352290,0.342781840,0.121105020,9.931860920,0.416144790,-0.223177700,0.319217180
1640844685.356920,-0.173322040,-0.270812690,11.148433690,0.367766680,-0.230945690,0.358434080
1640844685.358610,-0.026365910,-0.592568520,10.011222840,0.404930140,-0.323109330,0.335747000
1640844685.362069,-0.315472010,-0.687931540,9.758606910,0.491890370,-0.403152440,0.327885150
1640844685.362890,-0.269579080,-0.500738380,9.152962680,0.476916220,-0.210340370,0.326512810
1640844685.367210,-0.000715320,-0.363498600,9.506580350,0.384917910,-0.137428980,0.297822120
1640844685.368100,-0.537520470,-0.333811070,11.497432710,0.400754900,-0.231024650,0.323024450
1640844685.371790,-0.382560430,-0.177753300,10.546848300,0.484490450,-0.363203970,0.318752290
1640844685.372340,-0.371031250,0.104184280,9.644864080,0.503824770,-0.446009730,0.317353070
1640844685.376730,-0.501478020,0.516418220,9.424265860,0.430338170,-0.267778340,0.351965460
1640844685.377339,-0.066464570,0.524880950,9.462919240,0.325596360,-0.161609050,0.350759920
1640844685.381700,-0.021831970,0.291263910,11.100360870,0.365625380,-0.224529250,0.348419010
1640844685.382380,0.157324300,0.256897150,10.883053780,0.466407900,-0.289012550,0.355479210
1640844685.386770,0.226198210,0.130086380,9.904397960,0.457933600,-0.416439860,0.339996870
1640844685.387460,-0.060124070,0.022866020,9.563525200,0.369045230,-0.337551590,0.369989930
1640844685.391739,-0.140574840,-0.291264300,9.353735920,0.292164180,-0.223608340,0.362400800
1640844685.392370,-0.345385760,-0.590779010,10.545745850,0.352476600,-0.283364950,0.326074690
1640844685.396720,-0.504754900,-0.371460680,10.793954850,0.466588230,-0.296187460,0.332465860
1640844685.397339,-0.444934370,-0.068707480,10.014442440,0.428029950,-0.388938280,0.328451480
1640844685.402629,-0.436659430,0.235327710,9.804461480,0.307166580,-0.369854360,0.358191190
1640844685.403829,-0.148135470,0.293915660,9.432021140,0.245389390,-0.246869070,0.379870890
1640844685.407160,0.186324460,0.102684150,9.988259320,0.343062010,-0.248284670,0.360420380
1640844685.408680,0.258199720,0.085426580,10.766486170,0.472560550,-0.277167560,0.363668800
1640844685.411690,0.340348450,0.054202460,10.132504460,0.414525030,-0.327190850,0.362019300
1640844685.412320,0.248663780,-0.282307330,9.892107010,0.294891030,-0.373174280,0.379176440
1640844685.416730,-0.026625170,-0.729914960,9.795908930,0.283536340,-0.273846150,0.374122050
1640844685.417369,0.001478340,-0.864978430,9.414698600,0.390124410,-0.293220640,0.328457360
1640844685.421769,-0.201123630,-0.465312750,10.043154720,0.475999710,-0.300844040,0.319582220
1640844685.422340,-0.307234590,-0.072584260,10.030421260,0.360916640,-0.235451800,0.338232580
1640844685.426740,-0.422938080,-0.134462940,10.312730790,0.282315910,-0.333243640,0.355747340
1640844685.427340,-0.757388530,-0.226030750,10.644793510,0.368647370,-0.369533900,0.345605610
1640844685.431749,-0.424514380,-0.039471650,9.369688030,0.456190170,-0.357139200,0.328140020
1640844685.432330,-0.130398810,0.300035270,9.529718400,0.441971510,-0.310237740,0.336974920
1640844685.436699,-0.058964370,0.440936920,10.436656000,0.294657140,-0.164417950,0.352819350
1640844685.437320,0.430354950,0.009578000,10.394384380,0.260508060,-0.279282060,0.362257750
1640844685.441840,0.247475970,-0.274306800,10.836879730,0.413648840,-0.402297170,0.366284010
1640844685.443869,0.261207280,-0.129463880,9.544972420,0.457838240,-0.344428480,0.346523610
1640844685.447049,0.321666030,-0.010247390,9.090182300,0.362721150,-0.318878980,0.368751650
1640844685.447670,-0.280596790,0.001991670,10.518893240,0.232493910,-0.222319410,0.365002480
1640844685.451720,-0.146112680,-0.141765040,10.356026650,0.243204880,-0.257188080,0.341397610
1640844685.452340,-0.405887280,-0.233941290,10.579051020,0.417745200,-0.390446280,0.328412710
1640844685.457000,-0.833962080,0.216083410,10.189880370,0.434987310,-0.365859360,0.314731960
1640844685.457840,-0.377801000,0.394128950,8.967257500,0.280404120,-0.326727330,0.363817810
1640844685.461769,-0.414875750,0.066256050,10.216939930,0.208935170,-0.271900030,0.385135470
1640844685.462489,0.008315610,-0.011720860,10.348731040,0.260655580,-0.223341610,0.363810390
1640844685.466740,0.716045200,-0.160394680,9.953216550,0.384749530,-0.304372640,0.364832640
1640844685.467399,0.553510610,-0.079737880,10.397827150,0.376567240,-0.282977550,0.351616770
1640844685.472040,0.774055840,-0.112440060,9.503673550,0.247673720,-0.256712760,0.379073680
1640844685.473290,0.424192520,-0.710821210,10.130239490,0.242300360,-0.302506980,0.399658110
1640844685.476760,-0.054565810,-0.923281070,10.136123660,0.339071510,-0.275392860,0.358246270
1640844685.477340,-0.068457850,-0.819790900,9.482085230,0.422333210,-0.292339920,0.343750420
1640844685.481789,-0.606531860,-0.553083900,10.185569760,0.388044120,-0.247126860,0.341157670
1640844685.483290,-0.686470750,-0.278317570,9.957538600,0.253690810,-0.210334410,0.347949620
1640844685.486850,-0.686282630,-0.334730740,10.323220250,0.306838750,-0.319632920,0.366047020
1640844685.487399,-0.647480670,-0.197473030,10.133670810,0.420799910,-0.330191940,0.347730610
1640844685.491979,0.057575220,0.179944750,9.049898150,0.432790910,-0.266744200,0.354057640
1640844685.492760,0.054724450,0.137021740,10.270797730,0.363908710,-0.216852160,0.379321010
1640844685.496719,0.319421650,-0.131659950,10.390354160,0.288106560,-0.167079310,0.371609690
1640844685.497370,0.437685910,-0.473269460,10.458783150,0.386999610,-0.334557980,0.374509480
1640844685.501700,0.075137530,-0.518404070,10.225931170,0.472365380,-0.379772570,0.362980430
1640844685.502380,0.274046960,-0.340180070,8.690474510,0.392133060,-0.272239800,0.352278440
1640844685.506960,-0.183373870,-0.255388920,10.065752980,0.315664740,-0.226497680,0.360840590
1640844685.507979,-0.500576790,-0.250938300,10.837325100,0.298640130,-0.169014950,0.346623390
1640844685.511740,-0.361441820,-0.121316030,10.344592090,0.402887170,-0.334189800,0.335897510
1640844685.512359,-0.804899810,0.388565570,10.643807410,0.449113640,-0.402024480,0.345766540
1640844685.516739,-0.381204340,0.654873190,8.976192470,0.309529960,-0.246487600,0.360661800
1640844685.517380,-0.017824710,0.442151900,9.494694710,0.246684280,-0.238859700,0.386881860
1640844685.522240,-0.105645740,0.106428820,11.055618290,0.318785040,-0.171218810,0.365509120
1640844685.523010,0.634487750,-0.058548100,9.907736780,0.403189720,-0.249975950,0.355942580
1640844685.527119,0.505090950,-0.035137350,10.347960470,0.392469820,-0.381469820,0.388593970
1640844685.527710,0.422694590,-0.245754470,9.638839720,0.236636430,-0.213176060,0.388319820
1640844685.531760,0.610207620,-0.658285500,9.166789050,0.221225660,-0.221033420,0.382573930
1640844685.532510,-0.089662550,-0.836602510,10.673820500,0.364865420,-0.231535760,0.360973270
1640844685.536690,-0.117470630,-0.586742940,9.922349930,0.418382970,-0.202439760,0.313217970
1640844685.537320,-0.396769340,-0.243462340,10.160284040,0.367948440,-0.313091280,0.355960490
1640844685.541790,-0.909246210,-0.279531150,10.318652150,0.269052420,-0.262862440,0.368532570
1640844685.542670,-0.253704760,-0.364408700,9.055475230,0.284737350,-0.222559300,0.362347100
1640844685.546690,-0.080174950,-0.136336850,9.959620480,0.412716030,-0.188681530,0.359052480
1640844685.547350,0.283331160,0.232065930,9.988176350,0.409668770,-0.119581830,0.347562190
1640844685.551700,0.852893410,0.293114300,9.969128610,0.316067040,-0.200018330,0.381951030
1640844685.553000,0.366607340,-0.107450490,10.655316350,0.282917950,-0.201466720,0.383949340
1640844685.557030,0.345142130,-0.559083160,9.572858810,0.347124040,-0.263427230,0.357565280
1640844685.558080,-0.026639640,-0.599302890,9.716900830,0.454492930,-0.279013900,0.352752300
1640844685.561780,-0.517632660,-0.399990470,9.673330310,0.386904240,-0.159552710,0.339697360
1640844685.562379,-0.174507320,-0.230886340,9.709873200,0.265903800,-0.150303560,0.362341170
1640844685.566890,-0.629720330,-0.298969000,11.246623040,0.287841320,-0.127157610,0.372159540
1640844685.568100,-0.509342430,-0.290879190,10.541513440,0.383807810,-0.227293400,0.333461170
1640844685.571720,-0.258953930,0.070673290,9.815783500,0.466412400,-0.326006170,0.351624280
1640844685.572399,-0.326094330,0.405267210,9.463778500,0.365467430,-0.182601840,0.354661080
1640844685.576720,0.386064800,0.493115250,9.176374440,0.201380250,-0.120607030,0.372548400
1640844685.577380,0.339063640,0.378322040,10.949753760,0.228212800,-0.106044140,0.390091630
1640844685.581760,0.309928240,0.003210360,10.886085510,0.357531070,-0.179271440,0.340174200
1640844685.582389,0.452363010,0.099268410,9.920035360,0.418333770,-0.316043260,0.351731510
1640844685.586809,-0.243387540,0.124834170,9.937191010,0.308455530,-0.248368100,0.377881530
1640844685.587520,-0.074904770,-0.434541700,9.054410930,0.162933780,-0.135613980,0.382138790
1640844685.591879,-0.124355820,-0.512047350,10.126206400,0.235641050,-0.141258540,0.376744600
1640844685.592370,-0.344264180,-0.483628210,10.858471870,0.345577330,-0.113965590,0.336655970
1640844685.596720,0.240424350,-0.316495720,9.784672740,0.347542850,-0.200352100,0.325110640
1640844685.597360,-0.219542210,0.043221670,10.228541370,0.283344090,-0.217032480,0.351809000
1640844685.602200,-0.174405040,-0.367553090,9.698335650,0.214241470,-0.155411710,0.370192590
1640844685.603099,0.094984760,-0.470994740,9.440263750,0.307817850,-0.172275350,0.373353120
1640844685.608219,-0.250883040,-0.209832440,10.455540660,0.388355580,-0.174221400,0.357092950
1640844685.609730,0.424628560,-0.124453720,9.484372140,0.305509600,-0.093926490,0.350093840
1640844685.611699,0.350232480,0.029376360,10.086508750,0.228783530,-0.124375540,0.364890780
1640844685.614230,-0.001035460,-0.514653860,10.759172440,0.274574850,-0.116016010,0.355367420
1640844685.616760,0.114069030,-0.690496330,9.728515620,0.409990610,-0.202871900,0.339976010
1640844685.617360,-0.294172440,-0.294314090,9.657421110,0.427395160,-0.262813360,0.353929490
1640844685.621960,-0.191005020,-0.505621850,9.368734360,0.272624220,-0.058354440,0.354328840
1640844685.623279,-0.155140100,-0.557106440,10.151288030,0.244881200,-0.059920550,0.358778240
1640844685.626770,-0.629658580,-0.748502850,11.445233350,0.392109220,-0.149601710,0.339131060
1640844685.627400,-0.238705770,-0.549150940,9.969058990,0.491264550,-0.229927930,0.332950120
1640844685.631680,-0.118498650,0.254850890,9.212853430,0.419247240,-0.260227920,0.349609580
1640844685.632340,-0.156839130,0.381575410,9.665316580,0.213585810,-0.046119100,0.376217070
1640844685.636700,0.331485750,0.269504400,10.016017910,0.207266210,-0.048224630,0.370487570
1640844685.637410,0.114434630,0.046333570,11.256891250,0.414890110,-0.165414850,0.349296720
1640844685.641820,0.009437250,0.098357840,10.549869540,0.498457340,-0.192238420,0.328850840
1640844685.642449,0.093168680,0.493172620,9.285010340,0.352661400,-0.270864460,0.366677400
1640844685.646819,-0.334196780,0.053785310,9.741999630,0.142899170,-0.137409570,0.395944740
1640844685.647450,0.135007600,-0.452557680,9.650756840,0.175444780,-0.016485160,0.383941860
1640844685.651749,0.028383680,-0.568793240,10.838649750,0.431214360,-0.115162150,0.346568320
1640844685.652350,-0.330330190,-0.387990860,11.111289980,0.494764800,-0.192996890,0.323675600
1640844685.657140,0.164989640,0.166518260,9.190370560,0.294753970,-0.240074140,0.354060590
1640844685.657960,-0.065086330,0.010502960,9.573326110,0.105725250,-0.144661960,0.377541780
1640844685.661749,0.237622530,-0.293803360,9.730313300,0.167633590,0.018714370,0.372324880
1640844685.662340,0.500036180,-0.232011910,10.185785290,0.446608660,-0.067287680,0.344491030
1640844685.666730,0.070446280,-0.122235720,11.150646210,0.501622200,-0.151896460,0.341017540
1640844685.667369,0.346617130,0.062128010,9.429286960,0.289976630,-0.144182150,0.383645300
1640844685.671749,-0.004501090,-0.409788040,9.640318870,0.137741880,-0.158585610,0.390464100
1640844685.672680,-0.145040960,-0.997908120,10.009212490,0.230714720,-0.020432470,0.365924890
1640844685.676700,0.230678830,-0.850695190,9.399938580,0.489789310,-0.039084260,0.330191910
1640844685.677369,-0.204806450,-0.461361050,10.814863200,0.508065580,-0.117720690,0.299371810
1640844685.682299,0.046460070,0.055333740,9.804531100,0.267535480,-0.044760110,0.349745180
1640844685.683290,-0.192530360,-0.206645000,9.947250370,0.177508590,-0.149859490,0.381946590
1640844685.687199,-0.606668890,-0.741872310,10.651044850,0.327259360,-0.115288820,0.355069400
1640844685.687960,-0.154234710,-0.368618070,9.041177750,0.548374830,-0.073364390,0.333835240
1640844685.692220,-0.357567670,0.161050650,10.166662220,0.507383170,-0.131244960,0.346511630
1640844685.693760,0.015090660,0.418234200,10.062395100,0.219741460,0.017079710,0.372304050
1640844685.696720,0.387106000,0.293721320,9.941952710,0.138938430,-0.080719600,0.383660200
1640844685.697360,-0.094742170,-0.315774350,11.408993720,0.351689820,-0.135047780,0.344309300
1640844685.701690,0.062299870,-0.189857210,9.618309970,0.553585530,-0.107570010,0.312678520
1640844685.702459,-0.080273490,0.189296570,9.407867430,0.475676360,-0.228966800,0.335477320
1640844685.706770,-0.353869710,0.195438580,10.114981650,0.165699420,-0.025193400,0.377996330
1640844685.707360,0.183792460,0.014249150,9.492746350,0.085254020,0.016050040,0.386613610
1640844685.711750,-0.179686340,-0.473584920,11.649044990,0.347647100,-0.142121320,0.342415300
1640844685.712390,-0.374580770,-0.068654690,10.756310460,0.534795340,-0.115408030,0.310221310
1640844685.716709,0.004313460,0.496659580,8.904474260,0.401040940,-0.239844620,0.333648950
1640844685.717430,-0.419017400,0.363250320,10.058570860,0.111961370,-0.097917020,0.385297830
1640844685.721820,0.224090550,0.235051800,9.244839670,0.055600710,0.065204520,0.376074080
1640844685.722430,0.486375660,-0.156453480,10.604604720,0.297969670,-0.071351250,0.343135000
1640844685.727069,0.079880770,-0.054248260,11.389280320,0.473614130,-0.085228700,0.327262370
1640844685.727589,0.387747650,0.182782640,9.167150500,0.342217180,-0.145059850,0.339683950
1640844685.731740,-0.175346660,-0.446645740,10.046997070,0.128577650,-0.177066070,0.395856860
1640844685.732360,-0.350078050,-0.744078870,9.721738820,0.129067910,-0.012061000,0.388509040
1640844685.736729,0.198705460,-0.843303200,9.309243200,0.305800200,-0.056299580,0.333847170
1640844685.737390,-0.092301980,-0.475107970,10.878357890,0.418126640,-0.008712710,0.319597210
1640844685.741760,0.065465230,0.147251170,10.060087200,0.302048060,-0.008957090,0.323164490
1640844685.742380,-0.001838850,-0.138699950,10.358263970,0.168347330,-0.173319880,0.363945930
1640844685.746690,-0.432877480,-0.257614280,10.188118930,0.219699740,-0.124172870,0.388003890
1640844685.747380,0.035550020,-0.179153350,8.733803750,0.346757470,-0.096020120,0.357593690
1640844685.751740,-0.032858630,-0.142264310,9.966276170,0.365816090,-0.025771560,0.348974850
1640844685.752390,0.008058000,0.052774590,10.304251670,0.273814800,0.063009560,0.350032840
1640844685.756719,0.327743740,-0.355220940,10.500034330,0.219127540,-0.081540650,0.351820830
1640844685.757429,-0.166774650,-0.612243240,10.942456250,0.305472340,-0.139407840,0.363344010
1640844685.762149,-0.054114460,-0.314388070,9.019905090,0.364366230,-0.150600090,0.341662760
1640844685.762760,-0.112729270,-0.213908110,9.342700960,0.298008380,-0.082826610,0.344255660
1640844685.767269,-0.361850260,-0.049488640,10.202221870,0.224521800,0.046221910,0.346015420
1640844685.768360,-0.098449690,-0.143758620,10.367004390,0.251780480,-0.028745830,0.326107440
1640844685.771860,-0.388135370,-0.164908990,11.278059010,0.357128680,-0.147564720,0.327152010
1640844685.772490,-0.303259190,0.420617730,9.780440330,0.342336360,-0.160761210,0.332507580
1640844685.776749,0.055760040,0.553737520,9.099798200,0.190222250,-0.132650140,0.366041090
1640844685.777439,0.076810780,0.368764850,10.006208420,0.140309300,0.025822220,0.383794280
1640844685.781720,0.339469820,0.160069900,10.290658950,0.238157790,0.033110370,0.341460080
1640844685.782440,0.324989440,0.049718580,11.049442290,0.323134690,-0.124681020,0.333182510
1640844685.786790,0.161958750,0.227309150,10.213338850,0.278356730,-0.150936890,0.347065990
1640844685.789610,0.241683100,0.048500050,9.027915000,0.107692200,-0.110872110,0.345402990
1640844685.791679,-0.028176060,-0.249712050,9.944972040,0.071677570,0.000208620,0.364254420
1640844685.792320,-0.200840180,-0.456975640,10.434998510,0.227725510,0.019395350,0.339466360
1640844685.796710,-0.146564440,-0.350262280,10.496511460,0.323069100,-0.103618230,0.313434000
1640844685.797430,-0.212311180,0.108669590,10.165825840,0.241136550,-0.125712140,0.340576440
1640844685.802709,-0.076466790,0.101948920,9.414513590,0.060999400,-0.033454600,0.350937340
1640844685.803530,0.179933190,-0.090868780,9.770141600,0.049170860,-0.001189110,0.367614690
1640844685.807150,0.120313110,-0.171798100,10.520911220,0.239242630,-0.006769600,0.350075990
1640844685.807770,0.283355650,-0.172958730,10.189558980,0.308133690,-0.063569840,0.316876170
1640844685.811710,0.229472090,-0.048790700,9.955613140,0.224845130,-0.095035140,0.361397890
1640844685.812389,-0.163540470,-0.437524080,10.111082080,0.103034090,-0.032220780,0.359521840
1640844685.816740,-0.038759100,-0.819707930,9.724414830,0.100590310,-0.039051470,0.339721170
1640844685.817390,-0.143854930,-0.680122140,9.970983510,0.273725390,-0.050088770,0.325498010
1640844685.822110,-0.106837510,-0.316629230,9.971779820,0.303357840,-0.006608670,0.305067000
1640844685.822780,0.101561230,0.118529200,9.808691980,0.178900380,-0.016756360,0.332061950
1640844685.826750,-0.273488220,0.061021090,10.625020980,0.105594110,-0.048601640,0.348429440
1640844685.827370,-0.160981740,-0.316355380,10.224458690,0.171665860,-0.070530180,0.327153500
1640844685.831740,-0.164733740,-0.236472030,9.839620590,0.342558320,-0.095331680,0.328461830
1640844685.832399,-0.413779500,0.078308030,10.140100480,0.317359030,-0.077462210,0.317052100
1640844685.836730,0.165068180,0.128689140,9.455451010,0.106616330,0.005038080,0.352099600
1640844685.837610,0.044031010,-0.189762640,10.578356740,0.088708110,-0.009527800,0.350849330
1640844685.841790,-0.128067750,-0.568517330,11.094472890,0.225801780,-0.065955520,0.313244790
1640844685.843089,0.123075540,-0.348016920,9.641389850,0.357617500,-0.139758020,0.307980210
1640844685.846989,-0.277675420,0.106794910,9.888489720,0.282831580,-0.149175550,0.325466720
1640844685.849390,-0.083560270,0.326251150,9.644019130,0.043192510,0.029313570,0.347612830
1640844685.851660,0.091820760,0.147113610,10.161877630,0.024661420,-0.005227330,0.352153210
1640844685.852399,-0.223600490,-0.190738660,11.549351690,0.243750180,-0.071981530,0.314342950
1640844685.856720,-0.058496990,-0.013619760,10.169013980,0.367763670,-0.096620630,0.295557110
1640844685.857360,-0.084043690,0.451862220,9.521569250,0.248622920,-0.194470630,0.330126370
1640844685.861729,-0.326045660,0.356097100,9.952137950,-0.023952130,-0.038547820,0.366112590
1640844685.862560,0.380220560,0.078746640,9.247992520,-0.051702570,0.042712690,0.362986330
1640844685.866750,0.320146200,-0.214283660,10.956753730,0.207071050,-0.032661860,0.323890180
1640844685.867360,0.117116090,-0.117173030,11.010861400,0.325700580,-0.028359890,0.297085910
1640844685.871760,0.335807350,0.098739710,9.535568240,0.201916720,-0.148670390,0.334061740
1640844685.872350,-0.358040780,-0.375252990,10.409319880,0.009419020,-0.136983390,0.370375780
1640844685.876700,-0.242667080,-0.688643460,9.505055430,-0.002071260,0.005352500,0.354644690
1640844685.877380,0.045968390,-0.766126280,9.801116940,0.213637980,-0.052899130,0.307795490
1640844685.881749,-0.272210390,-0.496079390,10.972484590,0.309024750,-0.006215270,0.276011230
1640844685.883390,0.292321090,0.060124450,9.585908890,0.180701930,-0.014455620,0.296486910
1640844685.890339,0.020138860,-0.200143640,10.657997130,0.062206400,-0.116504730,0.333015650
1640844685.890940,-0.153794530,-0.336305710,10.215969090,0.093616570,-0.064624850,0.341492890
1640844685.891759,0.356852770,-0.268318090,9.036431310,0.248962640,-0.111465150,0.321146850
1640844685.892380,-0.110035780,-0.294908580,10.423901560,0.290739570,-0.006452200,0.312490760
1640844685.896730,0.026430340,-0.169066270,10.016148570,0.170683860,0.059428810,0.321158770
1640844685.897359,-0.061955820,-0.645031690,10.711598400,0.159506480,-0.106184180,0.340813340
1640844685.901759,-0.518544790,-0.829606290,10.785708430,0.219714630,-0.142276290,0.326359300
1640844685.902380,0.144734890,-0.215442780,8.597880360,0.260838870,-0.111269970,0.314438370
1640844685.906710,-0.075729580,-0.094779730,10.026573180,0.213486000,-0.009103120,0.308127730
1640844685.907390,0.003430900,0.046538230,10.574986460,0.145065780,0.108233120,0.303199920
1640844685.911739,0.268113110,0.047767120,10.600409510,0.225545500,-0.072249780,0.301808180
1640844685.912380,-0.311362060,0.033352800,11.237789150,0.290927380,-0.194859550,0.299066360
1640844685.916740,0.063128570,0.404961350,8.723949430,0.217732830,-0.125974420,0.327241450
1640844685.917420,-0.117495390,0.202152700,9.491703990,0.125730010,-0.070498880,0.343254180
1640844685.922170,-0.263655510,-0.152358490,10.839254380,0.128309440,0.082974140,0.337444280
1640844685.923740,0.351381960,-0.143220540,10.118195530,0.235706600,-0.012518470,0.310352530
1640844685.926869,0.115898960,-0.065441230,11.301279070,0.285086070,-0.149469080,0.304849480
1640844685.927460,0.427119370,0.277200730,9.488247870,0.144368410,-0.029560930,0.329561620
1640844685.931820,0.667782310,0.192339730,8.974989890,0.033792850,-0.067074600,0.332295890
1640844685.932410,0.166301150,-0.365561720,10.892757420,0.118194540,0.034917890,0.329677790
1640844685.936950,0.226904410,-0.413395320,9.935275080,0.288833680,0.031133000,0.291758780
1640844685.937940,-0.203405290,-0.135919960,10.745748520,0.294764430,-0.189004870,0.299833710
1640844685.941749,-0.676476840,0.020882490,10.325173380,0.095188630,-0.058227780,0.349474040
1640844685.942449,-0.157386390,-0.032467380,8.628861430,-0.030164420,-0.032506890,0.348424910
1640844685.946730,-0.323603900,-0.297993120,10.668910980,0.109989950,-0.002813340,0.352677730
1640844685.947440,0.106974040,-0.069711980,10.215684890,0.293634920,0.099104660,0.327737690
1640844685.951720,0.661878410,0.180385500,9.940536500,0.274299110,-0.087952610,0.310330120
1640844685.953159,0.232105460,0.091090940,10.987179760,0.086964670,-0.058265030,0.353005530
1640844685.956780,0.449577540,-0.284345000,9.169903760,0.006163120,-0.007107850,0.333426980
1640844685.957389,0.171944230,-0.848363700,9.998470310,0.161092030,-0.115107010,0.311948420
1640844685.961900,-0.417156460,-0.663233280,10.406159400,0.330473570,0.009867550,0.300608610
1640844685.963029,0.018424220,-0.075572460,9.237873080,0.249898480,-0.039164730,0.294120610
1640844685.967150,-0.311027080,-0.049037430,10.885802270,0.056107350,-0.026422740,0.349995550
1640844685.967900,-0.237800510,-0.171369880,10.523733140,0.031445920,0.065991280,0.333178040
1640844685.971710,0.167649460,-0.231431750,10.182917590,0.208778720,-0.089138760,0.293386070
1640844685.972339,-0.209286020,0.148411930,10.626350400,0.342878760,-0.074124350,0.319315580
1640844685.976780,0.266201140,0.529961940,9.034707070,0.198781520,-0.014722350,0.317776260
1640844685.977380,0.479188740,0.329025780,9.966876980,0.009381770,-0.005224350,0.352667270
1640844685.981720,0.143409920,-0.118971410,11.067934040,0.053204600,0.075724730,0.364229080
1640844685.982420,0.363352240,-0.343274560,10.367416380,0.235828800,-0.054654490,0.304874780
1640844685.987100,-0.110685790,-0.179544060,10.706072810,0.296428860,-0.136104270,0.326819780
1640844685.988150,-0.240168010,0.163410500,9.302308080,0.141876980,-0.046616800,0.348299800
1640844685.991809,0.016334540,-0.024612550,9.217015270,-0.038000950,-0.001040100,0.349275800
1640844685.992400,-0.158368750,-0.132805290,10.594658850,0.038562720,0.080494580,0.342769950
1640844685.996750,0.020109360,-0.059617140,10.481163980,0.216403600,-0.003035370,0.288350880
1640844685.997409,0.074143940,-0.008057530,10.644308090,0.258102950,-0.111709530,0.300003560
1640844686.002159,-0.235112150,0.091015560,10.161640170,0.143122690,-0.047522780,0.352683690
1640844686.002869,-0.051035830,-0.357328120,9.487075810,0.020450360,-0.061431530,0.365609020
1640844686.006860,0.151423840,-0.566467940,9.962916370,0.073161730,-0.005443390,0.365798260
1640844686.008060,0.413319650,-0.287837830,9.745038990,0.203903050,0.066411500,0.337185000
1640844686.011700,0.764936210,-0.084633210,10.067859650,0.188337300,0.033566360,0.309625270
1640844686.012380,0.381478070,0.010994490,10.856584550,0.115589820,0.013828280,0.342190330
1640844686.016739,0.122260270,-0.264674750,10.110380170,0.090450060,-0.066785510,0.326010610
1640844686.017419,-0.201398370,-0.500372110,10.106956480,0.154890150,-0.121979440,0.328037230
1640844686.022440,-0.653624480,-0.245605130,9.884798050,0.226266710,-0.015719240,0.318042930
1640844686.023409,-0.461766960,-0.130361960,9.517285350,0.152409050,0.014242530,0.302198560
1640844686.026729,-0.421876610,-0.143724220,10.874784470,0.103087740,0.039060430,0.344479080
1640844686.027420,-0.247204170,-0.189156430,10.709342960,0.155526400,0.015908480,0.330419870
1640844686.031690,0.166524890,-0.189763400,10.129967690,0.221663730,-0.135777890,0.330045850
1640844686.032379,0.297016890,0.402930560,9.842116360,0.203777860,-0.060978540,0.359739300
1640844686.036710,0.642410990,0.470647630,9.352671620,0.063176450,0.041940800,0.345942320
1640844686.037429,0.761108340,0.305738300,10.610342980,0.010921060,0.043164200,0.357599620
1640844686.041849,0.301743180,-0.005706250,11.334093090,0.171335070,0.013206900,0.330491360
1640844686.042510,0.191789600,-0.275424210,10.145004270,0.265188490,-0.132675450,0.287325620
1640844686.046700,-0.148294400,0.135429380,9.635373120,0.172357260,-0.114783670,0.329893830
1640844686.048480,-0.484009270,-0.073240340,9.562151910,-0.012201070,0.051443290,0.356340470
1640844686.051720,-0.157382070,-0.474592980,9.907147410,-0.023141500,0.055983660,0.345285210
