# timestamp,accel_x,accel_y,accel_z,gyro_x,gyro_y,gyro_z
1640789688.725510,-0.350204050,0.149874780,10.142053600,0.034545360,0.058536240,-0.007762020
1640789688.727780,0.095137450,0.163490300,9.201516150,0.014880300,0.003916030,0.007736680
1640789688.730720,-0.326451600,-0.090844890,10.693735120,0.079579660,-0.013989210,0.005993250
1640789688.732890,-0.116307740,0.244934040,9.513646130,0.081378220,0.035060950,-0.012658540
1640789688.735290,-0.034363910,0.528363410,9.585279460,0.039792070,-0.047607730,-0.021265450
1640789688.740170,-0.447295520,0.392480850,10.353774070,0.011731680,0.053554780,-0.019180770
1640789688.740830,-0.122049470,0.600061300,9.251025200,0.030966100,-0.005751850,-0.011213120
1640789688.742630,-0.352732930,0.599706770,10.199176790,0.074587770,-0.072278080,0.000156460
1640789688.745640,-0.029827600,0.487524360,9.215473180,0.017803910,0.038197640,0.016646090
1640789688.747710,0.373212430,0.319428860,9.384974480,0.006783010,0.041046750,0.009152290
1640789688.750300,0.006821550,0.006092210,10.798623090,0.039976840,0.092180070,-0.011149050
1640789688.753180,0.302777500,0.008849020,9.843269350,0.042054060,-0.033363700,-0.031507020
1640789688.756180,0.067340800,0.069247930,10.031347270,0.038485230,-0.074128790,-0.034095340
1640789688.757640,-0.084047430,-0.138045580,9.272525790,0.002498930,0.071313980,-0.026489800
1640789688.760340,-0.051078750,-0.109921910,9.552837370,0.041338800,0.040085610,-0.022032860
1640789688.763180,-0.434247310,0.095712550,10.188261990,0.086593640,0.053621830,-0.011760000
1640789688.766670,0.003824130,0.041253690,9.308935170,0.052294150,0.010246040,-0.024148830
1640789688.767660,-0.195419610,0.333605290,10.167053220,0.046035660,0.013105570,-0.007736680
1640789688.770670,-0.221929880,0.428168710,9.602467540,0.035691270,0.052618980,-0.031897420
1640789688.775320,-0.074287180,0.564702630,9.870121960,0.015509130,-0.042235850,-0.026057660
1640789688.775970,-0.285504070,0.855255420,10.037742610,0.023688380,0.073781610,-0.030694910
1640789688.779180,-0.154610430,0.538073780,9.567635540,0.017143790,0.021019580,-0.030900540
1640789688.780320,-0.440364720,0.724234760,10.508171080,0.043106080,-0.024369360,0.018635390
1640789688.783770,-0.248536970,0.596029100,9.139943120,-0.002893810,0.007838010,0.001858170
1640789688.785280,0.150122910,0.065108770,9.510702130,-0.053934760,-0.025275350,0.022464990
1640789688.788160,0.199116070,0.021967230,10.004184720,0.012056530,0.152042540,0.013048950
1640789688.790290,0.543892030,-0.249880300,9.688219070,0.047421450,0.067479900,-0.058412550
1640789688.793140,0.220246330,0.228232680,10.922518730,0.008286540,-0.017778580,-0.033894180
1640789688.795660,0.153938640,0.470571310,9.285885810,-0.071877260,0.029045350,-0.041773920
1640789688.797600,-0.000616420,-0.054957550,9.477475170,-0.063982610,-0.032494960,-0.018037860
1640789688.800710,-0.549034890,0.309589620,9.887992860,0.052942350,0.110712670,-0.004585090
1640789688.803760,-0.432887020,0.346875190,9.092515950,0.072857760,0.040774050,-0.026787820
1640789688.807140,-0.596916790,0.339702960,10.523104670,-0.023253260,-0.010894240,0.013305250
1640789688.809380,-0.459321350,0.312810540,9.571019170,-0.056724260,0.099067400,-0.012426080
1640789688.812040,-0.160922500,-0.007092190,9.836767200,-0.017575920,-0.025096540,-0.049629810
1640789688.812930,-0.336484400,0.518408950,10.546180730,0.024856630,0.035364930,-0.038106740
1640789688.816720,0.124103180,0.669993640,9.007571220,-0.026951730,0.059096530,-0.059297690
1640789688.817630,-0.079191130,0.439448390,10.331557270,-0.067451600,-0.010322040,-0.015130640
1640789688.820320,-0.129835220,0.615393700,9.733806610,-0.035762780,0.064207610,0.017043940
1640789688.822920,0.183955280,0.251581820,9.268360140,-0.021593270,-0.032852590,0.008173290
1640789688.825240,-0.036296110,0.228340890,10.382357600,-0.030808150,0.028486550,0.026820600
1640789688.827720,0.230840100,0.076273540,9.331886290,-0.033599140,0.122828800,-0.021417440
1640789688.830760,0.151711140,-0.162401350,10.289780620,-0.046086320,0.011770430,-0.054571030
1640789688.832830,-0.052255120,0.243229420,10.279248240,-0.037759540,0.047284370,-0.049811600
1640789688.840430,0.087846530,0.134558890,9.103828430,-0.065730510,0.030744080,-0.060018900
1640789688.842830,-0.399929290,-0.021542690,10.164113040,-0.037218620,0.014597180,-0.027409200
1640789688.844370,-0.474654320,0.197860630,9.438240050,0.023722650,0.060166420,-0.007100400
1640789688.845960,-0.277217060,0.127992750,9.359126090,-0.011700390,0.017091640,-0.003869830
1640789688.846770,-0.524524990,0.216414330,10.438694000,-0.046603390,0.049810110,0.015233460
1640789688.847650,-0.191693250,0.165665420,9.669965740,-0.035595890,0.056530540,-0.007312000
1640789688.850840,-0.134247910,0.214819650,10.145564080,-0.017575920,-0.013597310,-0.043515860
1640789688.852690,-0.092503970,0.570597170,9.956708910,-0.021362300,0.036761170,-0.037887690
1640789688.855500,0.187986970,0.545481920,9.217617990,-0.064528000,0.062312180,-0.039783110
1640789688.858060,-0.158387350,0.489114640,10.249699590,-0.053283580,0.010590250,-0.016836820
1640789688.860570,-0.072667710,0.535212990,9.684506420,-0.030188260,0.011341270,0.015355640
1640789688.862920,0.111886650,0.204289910,9.364776610,-0.048190360,0.011341270,0.011797250
1640789688.865430,-0.058199620,-0.027949530,10.261732100,-0.038424130,0.062537180,0.009475650
1640789688.867660,0.077152210,-0.155960570,9.836786270,-0.023858250,0.109352190,-0.017869470
1640789688.870730,-0.015257070,-0.132045660,9.976694110,-0.031593430,-0.019367040,-0.058780610
1640789688.873850,-0.144251760,0.123279650,9.855207440,-0.056789820,0.007112320,-0.039044030
1640789688.877480,-0.040309980,0.122910370,8.964802740,-0.069014730,0.073440380,-0.033715370
1640789688.879620,-0.447005210,-0.130686400,10.154220580,0.006842610,0.020852690,-0.014321510
1640789688.880310,-0.506570220,0.116767820,9.947301860,0.047181540,0.040088590,-0.002180040
1640789688.883920,-0.179854900,0.204779300,9.289208410,0.002901260,0.003232060,-0.000569220
1640789688.886060,-0.525442600,0.027067360,10.637653350,-0.035598890,0.029513240,0.004464390
1640789688.887850,-0.194003460,0.241331880,9.625555990,-0.034582630,0.063499810,-0.019893050
1640789688.890520,-0.085203960,0.298706140,9.883384700,0.011582670,-0.059379640,-0.039967890
1640789688.894390,-0.139214770,0.510627330,10.079473500,-0.008943680,0.051131840,-0.019583110
1640789688.896120,0.180428460,0.654182970,9.015681270,-0.039233270,0.059328980,-0.013756750
1640789688.898140,-0.345571910,0.387722050,10.723084450,-0.025708980,-0.047080220,0.017832220
1640789688.900490,-0.133092610,0.501033960,9.602377890,-0.037163500,0.019074970,0.021830200
1640789688.902920,0.133223500,0.136002560,9.332407000,-0.025808810,-0.024691220,0.009544190
1640789688.905760,-0.289457440,-0.178273800,10.765816690,-0.003390010,0.079047670,-0.000593070
1640789688.912350,0.208278860,0.027868570,9.260668750,-0.010965770,0.070039930,-0.047472130
1640789688.914150,0.036166730,-0.047076750,10.176227570,-0.026915970,-0.059469040,-0.048138200
1640789688.914990,-0.080776220,0.051691220,9.716656680,-0.051015620,0.080117590,-0.022120770
1640789688.915410,0.081125830,-0.025244100,9.044805530,-0.002323090,0.013579430,-0.016322730
1640789688.917730,-0.609421010,-0.135488600,10.581796650,0.059211270,-0.025363270,0.007773940
1640789688.920550,-0.272189350,0.260314610,9.031685830,0.030666590,0.054660450,0.020827350
1640789688.922860,-0.397321310,0.178682730,9.962427140,-0.027513510,-0.023134050,0.011701880
1640789688.926340,-0.720090390,0.204643430,10.707285880,-0.037871300,0.058561560,-0.001493100
1640789688.927750,-0.187492420,0.476344440,9.273285870,0.012263660,-0.034189220,-0.029981140
1640789688.931380,-0.405521360,0.618184750,10.344576840,0.022035840,-0.080797080,-0.037653740
1640789688.933540,0.058361660,0.888554220,9.141056060,-0.060352690,0.087744000,-0.003024940
1640789688.935330,0.326419350,0.519911470,9.705190660,-0.048938400,0.029802330,0.015513600
1640789688.937730,-0.161317840,0.239627480,11.035711290,0.016236310,0.002834200,0.024636100
1640789688.940490,0.362710300,0.349215950,9.295776370,0.008578600,-0.060810150,0.024572020
1640789688.943090,0.114491250,0.024421890,9.913852690,-0.045636300,-0.042624780,0.019304450
1640789688.945330,-0.056311960,-0.133243670,9.725798610,-0.074890260,0.113932790,-0.003366170
1640789688.948080,0.030855640,-0.048663180,9.858171460,-0.024393200,0.012120600,-0.041148070
1640789688.950320,-0.391757850,0.084048050,10.270420070,0.007027390,-0.028255590,-0.050771250
1640789688.952950,-0.085366210,0.333249810,8.920962330,-0.040908150,-0.010801850,-0.024947520
1640789688.958820,-0.432845120,0.180412690,9.763062480,-0.031180680,0.028367350,0.010532140
1640789688.960190,-0.592468800,0.076345790,9.911280630,-0.008244810,0.008726120,0.015993420
1640789688.960730,-0.242198020,0.053331140,9.774491310,0.025641920,-0.029802320,0.032985210
1640789688.962840,-0.340233330,0.067899010,10.060870170,0.032348930,0.022011990,0.007401410
1640789688.965820,-0.200014890,0.128273500,9.954473500,-0.020085280,-0.006222730,-0.016893450
1640789688.967830,-0.069736260,0.422181430,9.939471240,-0.036956370,-0.034086410,-0.022038820
1640789688.972000,0.043522930,0.426295550,9.475870130,-0.036765630,-0.012914840,-0.035722550
1640789688.972770,0.269829150,0.365928740,9.727265360,-0.006131830,0.003495810,-0.005948540
1640789688.975530,0.056879340,0.533623100,9.994997980,0.035136930,0.048436220,0.008158380
1640789688.978080,0.002143390,0.351515410,9.978003500,-0.021623080,-0.052534040,0.011809170
1640789688.980900,-0.111342410,0.351844880,10.200315480,-0.061206530,-0.042700770,0.034856800
1640789688.982930,-0.188981740,0.102809560,9.457745550,-0.042968990,0.005771220,0.000438090
1640789688.985300,-0.264880540,-0.159611720,10.015307430,0.002647940,-0.023305420,-0.022722780
1640789688.987780,-0.273364870,0.198951440,9.741523740,0.033572320,0.050681840,-0.023250280
1640789688.990390,-0.094587150,0.056983850,9.260559080,-0.031007830,-0.028750300,-0.031565130
1640789688.992770,-0.109982580,-0.018608660,10.077856060,-0.044688580,-0.001212950,0.019127130
1640789688.995370,-0.104974210,-0.074680690,9.279759410,0.010493400,0.047059360,0.018648800
1640789688.997850,-0.203747440,-0.250343080,10.116680150,0.059810280,-0.095637130,0.018657750
1640789689.001320,-0.257200810,0.247106520,9.943882940,0.039421030,0.011074540,0.029510260
1640789689.007660,-0.028721100,0.187758400,9.121171950,-0.021749740,-0.001162290,-0.013284390
1640789689.008530,-0.397625150,0.284419600,10.829006200,-0.018882750,-0.014835600,-0.015233460
1640789689.010050,-0.287773220,0.778377770,9.552109720,0.023841860,-0.007265810,-0.019755960
1640789689.012830,-0.064022930,0.560341000,9.545072560,0.007173420,-0.125001340,-0.003014500
1640789689.013620,-0.101959050,0.559955540,9.974832530,0.000609460,0.064209110,0.032983720
1640789689.015890,0.220319120,0.294356520,9.183258060,0.006702540,0.050944090,0.021407010
1640789689.017730,0.009249970,0.048153730,10.950788500,0.009131430,-0.056257850,0.024284420
1640789689.020240,0.073219250,0.348622380,9.822891240,-0.020958480,0.022406870,0.016869610
1640789689.023320,0.100412550,-0.002570360,9.445133210,-0.051300230,-0.087699290,0.000099840
1640789689.025210,-0.342782440,0.003259970,10.336938860,-0.003136690,0.003543500,0.003704430
1640789689.027640,-0.135971110,0.313851060,8.720201490,0.016275050,0.031641130,-0.018557910
1640789689.030770,-0.239693330,0.223679440,9.985639570,-0.009804960,-0.052998970,0.012336670
1640789689.033130,-0.331243280,0.342820530,9.990495680,-0.025802850,0.085322570,0.049553810
1640789689.035360,-0.104185310,0.115053710,9.357025150,-0.010310110,-0.042603910,0.029005110
1640789689.037840,-0.414728130,0.080179070,10.672287940,0.028096150,-0.079752500,0.034691400
1640789689.040420,-0.107531710,0.257607010,9.097969060,0.015091900,0.032100090,0.015418230
1640789689.044200,0.069020630,0.150697230,9.611690520,-0.026121740,-0.026288630,-0.003793840
1640789689.045900,-0.189187300,0.245575120,10.557378770,-0.012779240,0.076870620,-0.009438400
1640789689.047810,0.257712600,0.384843770,9.276792530,0.002709030,-0.018835070,-0.014188890
1640789689.053770,-0.019989180,0.235950110,10.325133320,0.008936230,-0.089053820,0.017280880
1640789689.054760,-0.087030250,0.155695710,9.431000710,0.013698640,0.045110290,0.033545500
1640789689.055640,0.010606950,-0.028012740,9.353346820,0.016158820,-0.020891430,0.034441050
1640789689.057950,-0.424963800,-0.007587960,10.617623330,0.022213160,0.002470610,0.028215350
1640789689.060360,-0.202335000,0.249754820,9.532159810,-0.009827320,0.012359020,0.002266470
1640789689.063240,-0.382821440,0.403816010,10.169487000,-0.021584330,-0.063328460,-0.005303320
1640789689.066240,-0.602033080,0.535642150,10.162350650,-0.002293290,-0.015422700,-0.009435410
1640789689.067860,-0.044958400,0.735930320,8.997276310,-0.018964710,-0.039252640,0.010050830
1640789689.070640,-0.080016360,0.523859860,9.888157840,-0.011141600,0.026056170,0.038887560
1640789689.074990,0.097290840,0.223848250,9.833579060,0.010299680,0.068570680,0.048120330
1640789689.076100,0.230232050,0.104775670,9.914983750,0.019218030,-0.061915830,0.046549740
1640789689.077880,0.077833920,-0.141726480,10.118571280,0.010196870,-0.063683090,0.032064320
1640789689.081150,0.277249460,-0.232320700,9.300086020,-0.035893920,0.025248530,0.007981060
1640789689.084280,0.023053900,-0.082687040,9.961336140,-0.017182530,0.042107700,-0.021147730
1640789689.085620,-0.231823090,0.053442870,10.275237080,0.019629300,0.007352230,-0.034698850
1640789689.087900,-0.063260110,0.416482420,9.346548080,0.008514520,-0.032679740,-0.007995960
1640789689.090690,-0.354078560,0.342610330,9.615349770,-0.000941750,-0.018428270,0.021988150
1640789689.093050,-0.443319800,0.072794200,9.874395370,0.013162190,0.010402500,0.044789910
1640789689.095430,-0.282291170,0.211680500,9.588148120,0.049442050,0.012317300,0.044424830
1640789689.098110,-0.302637640,0.163365860,10.298141480,0.029852990,-0.004535910,0.018082560
1640789689.100600,-0.212381320,0.219234200,10.226796150,-0.016008320,0.041444600,0.011931360
1640789689.102780,-0.208128990,0.373348530,9.796198840,0.010119380,-0.056439630,-0.000955160
1640789689.105700,-0.281869440,0.472222630,9.876317020,0.002177060,-0.079782310,-0.001707670
1640789689.108600,0.177185910,0.781764860,8.751029010,-0.030525030,0.025761130,0.034809120
1640789689.110350,0.226196740,0.410018270,9.710829730,-0.021353370,0.044094020,0.035513930
1640789689.112830,0.085205380,0.106648130,10.698153500,0.016863650,0.053095820,0.030000510
1640789689.115360,0.264226410,0.173200230,9.804836270,0.049227470,-0.053824480,0.020511450
1640789689.117770,-0.062612480,-0.080418150,10.274176600,-0.012974440,-0.080372390,-0.000560280
1640789689.120830,-0.053107570,-0.064475980,9.279589650,-0.065368410,0.063407410,0.006806850
1640789689.122800,-0.241625400,-0.151338250,9.595348360,0.004673000,0.011023880,-0.021277370
1640789689.125750,-0.470604840,-0.111162850,10.072091100,0.052632400,0.019750000,-0.022196770
1640789689.127730,-0.121063010,0.220260770,8.973762510,0.046072910,0.004354120,0.004176800
1640789689.130630,-0.397525070,-0.013759080,10.053931240,0.015364590,-0.016234820,0.016893440
1640789689.132680,-0.375323770,-0.126619230,9.961448670,0.012594460,0.005854670,0.026656690
1640789689.136090,-0.111700680,0.108182840,9.677871700,0.073468690,-0.060339280,0.017900770
1640789689.137780,-0.212947580,0.120347430,10.215343480,0.052900610,0.045342750,-0.007984040
1640789689.141530,-0.046343230,0.531268950,9.864308360,0.017747280,0.035242730,-0.014770030
1640789689.142700,-0.298171430,0.654644310,10.303734780,0.026829540,-0.065256660,-0.006860490
1640789689.145270,-0.180434270,0.701352420,9.392461780,-0.000318880,-0.060531490,-0.004452470
1640789689.147630,0.144784910,0.788959150,9.063603400,-0.003111360,-0.011418760,0.013497470
1640789689.150600,-0.028478520,0.311223690,10.117479320,0.027015810,0.098091370,0.002728400
1640789689.152770,0.153758080,-0.011246060,10.224649430,0.042150920,0.019538400,-0.022575260
1640789689.155290,0.040212000,-0.044012820,10.453798290,0.055994100,-0.050185630,-0.021725900
1640789689.157770,-0.089255970,-0.225399730,9.502463340,-0.009366870,-0.020988290,-0.038954620
1640789689.162650,-0.195621330,-0.264145970,9.384205820,-0.019678470,-0.044713910,-0.010794400
1640789689.165890,-0.540876510,-0.094108860,9.493496890,0.043858590,0.040841100,-0.015379490
1640789689.166310,-0.269431230,-0.041776350,9.134049420,0.059320030,-0.011120740,-0.019188230
1640789689.167720,-0.397264690,0.308783770,10.216627120,0.066424910,0.010791420,0.010067230
1640789689.170890,-0.327823160,0.329335300,9.816042900,0.037479400,0.029525170,-0.021991130
1640789689.172700,-0.206945230,0.360883500,10.362538340,0.017499930,-0.116549430,-0.021244590
1640789689.175730,-0.187662290,0.685156640,9.957366940,0.033149130,0.005829330,-0.028412040
1640789689.177880,0.227706090,0.526727320,9.144808770,0.010637940,0.017763670,-0.045856840
1640789689.180260,-0.128090830,0.711961930,10.647707940,0.031512980,0.010104480,-0.006540120
1640789689.182670,-0.051512510,0.771254660,9.492568020,0.007183850,0.005310770,-0.025416910
1640789689.185570,0.054476750,0.339000280,9.775522230,-0.026851900,-0.139781850,0.003914540
1640789689.187700,-0.180165650,0.324258920,9.991221430,-0.010970230,0.049358610,0.007809700
1640789689.190700,0.177963320,-0.089617100,9.250693320,-0.004251300,0.038488210,-0.043316190
1640789689.197530,-0.199361320,-0.161785660,11.006860730,0.017842650,-0.028957430,-0.029864910
1640789689.198240,-0.180527000,0.035569260,9.609588620,0.022068620,0.017054380,-0.045189260
1640789689.198610,-0.115458580,-0.156692980,9.352134700,-0.024323170,-0.114339600,-0.026783350
1640789689.201170,-0.587804080,0.248772610,9.948067670,-0.014010070,0.002835690,0.006413460
1640789689.204260,-0.170682530,0.296312630,8.550110820,-0.002753730,0.010828670,-0.015643240
1640789689.205280,-0.293788310,0.264106960,10.475582120,0.024607780,-0.038893510,0.005488100
1640789689.207890,-0.169008870,0.656793770,10.000460620,0.029309100,0.086581710,-0.017488000
1640789689.212290,0.247781160,0.479977580,9.830913540,-0.011731680,-0.074464080,-0.041034810
1640789689.213910,-0.060264070,0.534142910,10.888336180,-0.043645500,-0.042381880,-0.014206770
1640789689.215320,0.328353380,0.444508340,8.840107920,-0.033125280,0.027266150,-0.028696660
1640789689.221470,0.121817080,0.074715520,10.056248660,-0.006701050,-0.051307680,-0.028461220
1640789689.221980,-0.293447490,0.335346190,10.043327330,0.012210010,0.044959780,-0.013712050
1640789689.222650,0.089792900,0.146974060,9.087106700,-0.034672020,-0.046414140,-0.034838910
1640789689.225300,-0.387933370,0.075020360,10.732133870,-0.060215590,-0.026148560,-0.003799800
1640789689.228190,-0.231995780,0.176357760,9.566947940,-0.034061080,0.063197310,-0.024765730
1640789689.230330,-0.091004070,0.051516720,9.907804490,-0.001104180,-0.047840180,-0.034916400
1640789689.232820,-0.381690830,0.285116970,10.263969420,0.006225710,0.005926190,-0.013232230
1640789689.235370,0.081887390,0.293947580,8.688611030,-0.030596550,0.005762280,-0.020867590
1640789689.239010,-0.232918230,0.143563490,10.076057430,-0.036111470,-0.048704450,0.016024710
1640789689.240920,-0.224629580,0.233030270,9.673092840,-0.010706480,0.034022330,0.004589560
1640789689.243690,0.197689940,0.173107860,9.413149830,-0.010694560,-0.027237840,-0.022967160
1640789689.245250,-0.175604050,0.219700690,10.678606990,-0.005269050,0.020885470,-0.010047850
1640789689.247640,0.193443120,0.331734450,9.582428930,-0.020749870,0.046813500,-0.039348020
1640789689.250610,0.124609490,0.362871350,10.105897900,-0.038875640,-0.051991650,-0.028711560
1640789689.253020,-0.100167960,0.253492440,9.918167110,-0.033450130,0.004497170,0.002934040
1640789689.255250,0.141987460,0.073878170,9.044835090,-0.004982950,0.004781780,-0.010146200
1640789689.257720,-0.350627210,-0.008223510,10.191857340,0.031889980,0.001522900,-0.006788970
1640789689.260250,-0.305164340,0.125253170,9.760988240,-0.007465480,0.017948450,-0.011286140
1640789689.262640,-0.171503990,0.251010950,9.890563010,-0.059987600,-0.011233990,-0.020794570
1640789689.265320,-0.466650810,0.196981060,10.449565890,-0.038118670,0.020022690,-0.015294550
1640789689.268090,-0.098143030,0.365918790,9.463709830,-0.000835960,0.003291670,-0.016944110
1640789689.270300,-0.103769170,0.541149440,9.486557960,0.007550420,-0.002169610,-0.005343560
1640789689.272770,-0.107613800,0.222310450,9.496834750,-0.026452540,0.023952130,0.019362570
1640789689.276490,0.054640440,-0.018689750,9.463397030,-0.009173150,0.022116310,0.009091200
1640789689.277810,-0.197025250,-0.222012450,10.049743650,0.041405860,-0.040712950,-0.000451510
1640789689.280830,-0.076944260,-0.134481860,9.926724430,0.020641090,-0.021964310,-0.007863340
1640789689.282730,0.020745390,0.021742340,9.732864380,-0.019440050,0.042471280,-0.013364850
1640789689.285280,-0.209493700,-0.098333420,10.475568770,-0.003868340,0.033222140,-0.018396970
1640789689.287760,-0.114469980,0.359168920,9.967331890,0.028328600,-0.001169740,-0.018365680
1640789689.290200,-0.073797020,0.615228470,9.274600030,0.029419370,-0.038507580,-0.007300080
1640789689.292680,-0.119725630,0.441732440,9.652347560,-0.024300820,0.004817550,0.015518070
1640789689.295270,0.029832220,0.375116110,9.514829640,0.003083050,0.075472890,0.020433960
1640789689.297720,-0.098881990,0.122764750,10.235821720,0.047558550,-0.007729230,-0.016182660
1640789689.300270,-0.177118360,0.263832660,10.434624670,0.022611030,0.013656920,-0.015935300
1640789689.302650,-0.029331530,0.430791260,9.491523740,-0.026361650,0.015342240,-0.021763150
1640789689.305420,-0.431152340,0.165519250,10.205263140,-0.049883130,-0.029994540,-0.010828670
1640789689.307670,-0.256490620,0.467654050,9.160554890,-0.004553800,0.017826260,0.007684530
1640789689.310260,-0.039714210,0.436829600,8.954524990,0.006851550,-0.012198090,0.006808340
1640789689.312720,-0.061596160,0.189008380,9.970835690,-0.018318000,0.073426980,0.037243970
1640789689.315280,0.153799380,0.076273720,9.718554500,0.016005340,0.082688040,0.009773670
1640789689.317840,-0.206575330,-0.161235020,10.835331920,0.015239420,-0.090403850,-0.023008880
1640789689.320330,-0.043300270,0.123756170,9.734828950,-0.009557610,-0.037914520,-0.007437170
1640789689.323180,0.053681510,0.121218290,9.076014520,-0.020146370,0.023131070,-0.033037370
1640789689.325300,-0.274468870,0.244043770,10.253608700,-0.035327670,0.084906820,-0.020247700
1640789689.327650,-0.016999200,0.623950060,9.638483050,0.005313750,0.063042350,-0.004331770
1640789689.330240,-0.069068290,0.455620940,9.847479820,0.009615720,-0.058986250,-0.007164480
1640789689.333070,-0.001427150,0.496818780,9.646466260,-0.021417440,0.014650820,0.023221970
1640789689.335330,0.125894190,0.260266070,9.356490140,-0.011585650,0.062106550,0.002457200
1640789689.339240,-0.173684240,0.005706960,10.465954780,-0.021283330,0.043807930,-0.028948480
1640789689.340240,-0.148921060,0.263255920,10.116468430,-0.014097990,0.028508910,-0.034736110
1640789689.342700,-0.313311760,0.159006330,9.737422940,-0.013135380,-0.027129060,-0.026713320
1640789689.345260,-0.502062560,0.209900770,9.541664120,-0.044582790,-0.022174410,-0.009845200
1640789689.347670,-0.192234530,0.479390860,8.946914670,-0.030156980,0.035078820,0.020045040
1640789689.350440,-0.018004410,0.170712780,9.437715530,-0.037702920,0.077973320,0.014138220
1640789689.352800,0.125724050,-0.007705990,10.167587280,0.009523330,0.074093040,0.008715690
1640789689.356320,0.250396190,0.019799490,10.165760040,0.056797260,0.027526920,-0.015489760
1640789689.359630,0.142984180,0.035888350,9.930502890,-0.014148660,-0.039438900,-0.033412880
1640789689.360200,0.003059920,0.132810000,9.807220460,-0.060336300,0.007553400,-0.009997190
1640789689.362670,-0.137791900,0.031044490,9.320618630,-0.034104290,0.092688220,-0.022214650
1640789689.365580,-0.401540010,0.032536250,9.980122570,0.038078420,0.016470260,-0.022086500
1640789689.367730,-0.435398040,0.448792850,9.747066500,0.068214540,0.031965970,-0.010569390
1640789689.370480,-0.255320910,0.325503710,9.213146210,-0.023265180,0.006897750,-0.015231970
1640789689.373390,-0.405210440,0.228516800,10.417348860,-0.040550530,0.016605850,0.005514920
1640789689.375250,-0.149276810,0.316167150,9.728797910,-0.002051890,0.077468160,-0.025463110
1640789689.377620,0.014257510,0.279513360,9.875928880,0.015778840,-0.027994820,-0.033707920
1640789689.380240,-0.119760700,0.560391070,10.217635150,0.002096590,0.055919600,0.000575180
1640789689.383160,0.054945560,0.457462310,8.957022670,-0.040847070,0.050203500,0.004900990
1640789689.385310,-0.342650710,0.310712040,10.248591420,-0.031365450,-0.071567300,0.039243700
1640789689.387800,-0.152746130,0.477945300,9.195039750,-0.022231040,0.045083460,0.041505690
1640789689.390230,0.215201170,-0.037788260,9.056784630,-0.026831030,0.008663530,0.020991270
1640789689.392690,-0.139322700,-0.083918540,10.921707150,0.017869470,0.108602660,-0.000923870
1640789689.395240,0.077739190,0.083866890,9.576609610,0.000166890,0.077313170,-0.056354690
1640789689.397700,-0.188984510,0.084873770,10.333815570,-0.044360760,-0.127384080,-0.040894750
1640789689.400370,-0.338807050,0.313109670,9.393432620,-0.066633520,0.044752660,-0.030912460
1640789689.402850,-0.081210110,0.030044300,8.441595080,-0.024822360,0.019657610,-0.015157460
1640789689.406440,-0.658443930,0.032137920,10.801415440,0.065839280,0.041270250,0.031042100
1640789689.407690,-0.242940800,0.316549150,9.349760060,0.038103760,0.090333830,0.026722250
1640789689.410230,-0.118189190,0.090383300,10.159152980,-0.027206540,-0.096650430,0.034491720
1640789689.412700,-0.377425190,0.211162690,10.520415310,-0.041931870,0.056035820,0.020559130
1640789689.415690,0.170817940,0.305605080,8.774765970,-0.016516450,0.005234780,-0.025248530
1640789689.417770,-0.279186340,0.468608980,10.665854450,0.016404690,-0.065959990,-0.024314230
1640789689.420350,-0.012573030,0.798228200,9.011314390,-0.031055510,0.102813550,-0.026302040
1640789689.422770,0.131574140,0.494507700,9.368344310,-0.051286810,-0.042268630,-0.002942980
1640789689.425210,-0.494181930,0.391288790,10.935713770,-0.017216800,0.022101400,0.045068560
1640789689.427710,0.103814800,0.238433990,8.894802090,-0.013512370,-0.004540380,0.022920970
1640789689.430230,-0.129658120,-0.226104500,10.532135960,0.000026820,-0.077231240,0.033654270
1640789689.432890,-0.157850160,-0.186317310,9.791620250,-0.005921720,0.122600790,-0.008234380
1640789689.435470,0.335003410,-0.197409440,9.090712550,-0.027135020,-0.015822050,-0.047364830
1640789689.437720,-0.353267280,-0.103454400,10.724495890,-0.016079840,-0.004065040,-0.029960280
1640789689.440310,0.025170000,0.149656530,8.561490060,-0.009495020,0.021836160,-0.028061870
1640789689.442700,-0.187858970,0.115005980,9.651747700,0.024607780,-0.086647260,0.015024840
1640789689.445300,-0.544318440,0.333167140,10.013624190,0.022092460,0.077192490,0.041152550
1640789689.447770,0.091760860,0.372020070,9.351383210,-0.000770390,0.044770540,0.035373870
1640789689.450230,-0.543264930,0.227760990,11.478076930,0.020173190,-0.002904240,0.034387410
1640789689.452710,-0.325963740,0.436221720,9.679645540,0.026401870,-0.020231300,-0.009742380
1640789689.455300,-0.052301030,0.665348350,9.087806700,-0.004921850,-0.115211310,-0.013636050
1640789689.457680,-0.380436990,0.629173040,9.627463340,-0.055834660,0.040706990,-0.005142390
1640789689.460250,0.242566290,0.482698950,8.794561390,-0.052197270,0.078393500,-0.009661910
1640789689.462660,0.027695300,0.165681790,10.712489130,0.037123260,0.007022920,0.000797210
1640789689.465270,0.063923480,0.125351620,10.272826190,0.044246020,0.016403200,0.004908440
1640789689.468120,0.366367550,0.054557710,9.725978850,-0.032162670,-0.059995060,0.023025270
1640789689.470310,-0.282636020,-0.384944740,10.212797160,-0.046458840,0.012692810,0.025330480
1640789689.472850,-0.027193110,-0.456300020,8.929634090,0.006832180,0.023414200,-0.002339480
1640789689.475240,-0.228193890,-0.151468690,9.432109830,0.071248400,-0.009779630,-0.011454520
1640789689.477700,-0.432797940,0.015990810,9.466862680,0.028955940,0.032311680,-0.022946300
1640789689.480490,-0.287513520,0.275394980,9.648376460,-0.017887350,-0.016357000,-0.008302930
1640789689.482690,-0.596612160,0.375964940,10.404594420,0.009876490,-0.026842950,-0.006602700
1640789689.485440,-0.211383860,0.513935270,9.777048110,0.019982450,-0.030449030,-0.010193890
1640789689.487710,-0.081628910,0.738569620,10.026832580,0.037316970,0.032214820,0.014288720
1640789689.490210,-0.242934260,0.604528610,10.061998370,0.015939770,0.027036670,0.017742810
1640789689.492700,-0.004383950,0.574848650,9.756887440,-0.012078880,-0.084182630,0.016552210
1640789689.495260,0.030005550,0.501125450,9.236222270,-0.016732520,-0.049400340,0.022457540
1640789689.497720,0.200576100,0.078815020,9.269191740,-0.042474270,-0.012737520,-0.013045970
1640789689.500590,0.125326630,0.047433150,10.183095930,0.001446900,0.076651580,-0.014767050
1640789689.504730,-0.016890460,-0.072148770,10.145664220,0.028847160,0.001195070,-0.043940540
1640789689.505470,-0.124116380,-0.151564110,10.406743050,-0.006976720,-0.078301130,-0.014923510
1640789689.507760,-0.359433710,0.093349580,9.406816480,-0.011348720,-0.017282360,0.021459160
1640789689.510220,-0.548903110,-0.196405780,9.140358920,-0.010243060,-0.067071620,0.034022330
1640789689.512940,-0.536649580,0.079651640,9.480042460,0.022870300,0.009228290,0.055059790
1640789689.515220,-0.331814830,0.259738920,9.149060250,0.044684110,0.039988750,0.010727350
1640789689.518030,-0.307188660,0.263522420,10.535618780,0.009998680,-0.043347480,-0.011323390
1640789689.520280,-0.104833860,0.784930230,10.032698630,-0.010713930,-0.000174340,-0.033214690
1640789689.522700,0.089337160,0.678417330,9.654982570,-0.042924280,-0.099740940,-0.037293140
1640789689.525210,0.080168690,0.606744470,10.229501720,-0.019063060,-0.004023310,0.011049210
1640789689.527840,0.192004770,0.553545770,9.161763190,0.032217800,0.040979690,0.015200680
1640789689.530290,-0.110375520,0.170724440,10.192793850,0.013135370,-0.089710950,0.035351510
1640789689.532770,-0.123030340,0.260640000,9.639308930,-0.031517450,-0.021894280,0.049462920
1640789689.533200,0.020414000,-0.167012110,9.097625730,-0.059993570,-0.048315540,0.006626550
1640789689.537840,-0.317132320,-0.239312080,10.652791980,-0.029541560,-0.000576670,-0.014413900
1640789689.540390,-0.131872970,0.156316910,9.545553210,0.020888450,0.047512360,-0.036451220
1640789689.542720,-0.180947810,0.140452150,10.022835730,-0.013883410,-0.090408330,-0.035068390
1640789689.545330,-0.372608510,0.468997570,9.974333760,-0.045661630,0.009644030,0.030495230
1640789689.547630,-0.240618970,0.376842020,8.824056630,-0.033453110,-0.035916270,0.043669340
1640789689.550570,-0.492125420,0.135091450,10.015778540,0.002926590,-0.106571630,0.059382630
1640789689.552800,-0.020531490,0.310009150,9.054523470,0.029370180,0.036142760,0.043489040
1640789689.555330,0.394705590,0.156914490,9.549032210,-0.020177660,0.027243800,-0.004206600
1640789689.557680,0.134804060,0.277606840,11.101596830,-0.049595550,0.054407130,-0.011117760
1640789689.560520,0.401222970,0.346927290,9.679240230,-0.033099950,-0.034815070,-0.036369270
1640789689.562780,0.087902170,0.195002970,9.827958110,-0.015456980,-0.147090850,-0.021906200
1640789689.563100,-0.245435250,0.222167720,9.177953720,0.003220140,-0.003880260,0.030691920
1640789689.568160,-0.254468950,-0.118004180,8.747361180,0.004698340,0.014962260,0.018233060
1640789689.570300,-0.644470930,-0.141919870,10.520484920,0.008326770,0.006961820,0.026099390
1640789689.572810,-0.434017270,0.093110440,10.191064830,-0.006647410,0.012408200,0.026121740
1640789689.573700,-0.248426120,0.158390890,10.058016780,-0.032395120,-0.075496740,-0.007201730
1640789689.577820,-0.278522580,0.477831900,10.146927830,-0.021927050,-0.030687450,0.010272860
1640789689.580360,0.248817220,0.627303660,8.877200130,-0.014968220,0.039303310,0.011187790
1640789689.582710,0.097189140,0.559857310,9.780122760,-0.000150500,0.005996230,0.022274260
1640789689.583060,-0.038268120,0.566243170,9.955050470,0.016333160,-0.015904010,0.039042530
1640789689.587750,0.163642320,0.483604700,9.122647290,-0.038175290,-0.064584610,0.022180380
1640789689.590180,-0.060739530,0.112642410,10.047351840,-0.060559810,-0.041937830,0.018200280
1640789689.592900,0.051182550,-0.121101070,9.873249050,-0.017029050,0.093282750,-0.006002190
1640789689.593330,-0.012404850,-0.077223670,9.961501120,0.018709900,0.015598540,-0.030322380
1640789689.597640,-0.268182520,-0.021809360,10.343545910,0.003485380,-0.044777990,-0.018851460
1640789689.600570,-0.059355110,0.012413810,8.864130020,-0.056634840,0.004623830,0.010189410
1640789689.602800,-0.379267750,-0.307894590,9.499238010,-0.014978650,-0.048469010,0.028505920
1640789689.603300,-0.573443410,-0.265628580,9.968860630,0.060367590,0.018391020,0.035376860
1640789689.607710,-0.247801440,0.125424400,9.204172130,0.056380040,0.001481180,0.010247530
1640789689.610340,-0.395137910,0.240179150,10.780022620,0.000819560,-0.016775730,0.010071690
1640789689.612710,-0.136517480,0.595356880,10.086688040,-0.043223800,0.077432390,0.003032390
1640789689.612990,0.053562490,0.844424780,9.630487440,-0.013111530,-0.090219090,0.002460180
1640789689.617820,-0.095397490,0.842482390,9.914230350,0.010880830,-0.041958680,0.021162630
1640789689.620270,0.401672660,0.933727740,8.362797740,-0.024420030,0.065681340,0.022648280
1640789689.622710,0.033474570,0.355135590,10.261066440,-0.016699740,-0.014708940,0.018759070
1640789689.623010,-0.134303670,0.074993610,10.488336560,-0.012631720,0.046747920,0.007274750
1640789689.627730,0.169115050,-0.030143590,9.489409450,-0.021888310,-0.084580470,-0.012248750
1640789689.630220,-0.356373040,-0.498845610,10.694079400,-0.018590690,-0.030876700,-0.000140070
1640789689.633060,-0.091511640,-0.353579370,9.005512240,-0.017020110,0.085775560,-0.012727080
1640789689.634290,-0.147007110,-0.257023630,9.566788670,0.014048820,-0.036866960,-0.012663010
1640789689.637880,-0.311882700,-0.120378160,9.824501040,0.001853700,0.048865380,0.017309190
1640789689.640350,0.187966810,0.100613590,8.785275460,-0.003844500,0.018262870,0.021184980
1640789689.642780,-0.429715810,0.046503710,10.755922320,0.049780310,-0.034864250,0.019130110
1640789689.643290,-0.227676290,0.290047080,9.708126070,0.037127730,0.012417140,0.006751720
1640789689.647680,-0.058422010,0.477763350,9.671722410,0.020891430,-0.035324690,-0.014400480
1640789689.650700,-0.515227140,0.390770670,10.734863280,0.017206370,0.059793890,-0.009424980
1640789689.652790,-0.067563420,0.745870650,9.251252170,-0.005452330,0.005798040,-0.018419320
1640789689.653180,-0.307674230,0.657904570,9.950928690,0.003083050,-0.098772350,0.009348990
1640789689.657720,-0.044604170,0.439886690,9.179161070,-0.023786720,0.043770670,0.017224250
1640789689.660230,0.304231380,0.294016840,9.475848200,-0.007997450,0.034403800,0.018566840
1640789689.662700,-0.131438370,-0.124014210,10.943882940,0.035983330,0.038568680,0.012655560
1640789689.663030,0.264114380,-0.148370390,9.791378970,0.011000040,-0.016619270,-0.012688340
1640789689.667790,-0.124810760,-0.211637140,10.248950000,0.010761620,-0.047479570,-0.001434980
1640789689.670300,-0.449678300,-0.239994790,9.640583040,-0.005114080,0.005681810,-0.014670190
1640789689.674550,-0.328654800,0.032749790,9.039673810,0.007514660,-0.055116420,-0.007155540
1640789689.675080,-0.493411810,0.287053670,9.356257440,0.026217110,0.035576520,-0.001288950
1640789689.677670,-0.100185160,0.301356550,9.377044680,-0.000017880,0.070221720,-0.016598410
1640789689.680230,-0.233972250,0.465458390,10.669761660,0.043243170,0.015394390,0.014664230
1640789689.683080,-0.197461110,0.420386280,10.119871140,0.050660970,-0.055001680,-0.011008980
1640789689.684470,0.109140240,0.241671090,9.668973920,0.008383390,-0.101338340,0.007082520
1640789689.688020,-0.109193680,0.251905860,9.667073250,0.006555020,0.076246260,0.004668530
1640789689.690350,-0.011492210,-0.022492920,9.759384160,0.019136070,0.044000150,-0.003756580
1640789689.692790,-0.119862680,0.251093780,10.476212500,0.044140220,-0.029620530,0.011672080
1640789689.693110,0.000781090,0.396974380,9.308563230,0.001089270,-0.027243790,-0.001938640
1640789689.697820,0.192987200,0.120712260,9.661318780,-0.031830360,-0.038918850,0.023020800
1640789689.698170,-0.026906890,0.269255010,10.065757750,0.016918780,0.105611990,0.005805490
1640789689.702780,0.088416220,0.180907190,9.858592990,0.039085750,0.012339650,-0.042213500
1640789689.703460,-0.177151200,0.310348450,10.674695970,0.020122530,-0.019750000,-0.003570320
1640789689.707800,-0.341786090,0.408336160,9.297421460,-0.009146330,0.014649330,-0.006209310
1640789689.710270,-0.534186900,0.109745810,9.602943420,-0.028379270,-0.081381220,0.011564790
1640789689.712710,-0.676394280,0.390965310,9.551224710,0.002421440,0.024352970,0.033116340
1640789689.713110,-0.184830040,0.303600640,8.771980290,-0.002084670,0.016036630,0.005252660
1640789689.718000,-0.156808600,0.110617670,10.700533870,0.002528730,0.049681960,0.018593670
1640789689.720320,0.153831530,0.313235310,9.929873470,0.016289950,0.083960580,-0.020307300
1640789689.722810,0.285040500,0.063312600,10.314997670,-0.008870660,-0.099535290,-0.029155620
1640789689.723330,0.027031410,0.184823390,10.277348520,-0.026614960,-0.000406800,0.004695360
1640789689.727790,0.146934350,0.104231310,8.779856680,-0.020895900,0.007808210,-0.017194450
1640789689.728200,-0.297649770,0.023899740,10.338211060,-0.001713630,-0.023902960,0.001126530
1640789689.732750,-0.391375180,0.416601630,9.587783810,0.003345310,0.062815850,0.004296010
1640789689.733190,-0.209030330,0.267889050,9.716400150,-0.022146110,-0.056947780,-0.004838410
1640789689.737920,-0.487312350,0.381006180,10.698497770,-0.025799870,0.020681320,0.014700000
1640789689.738730,-0.003426120,0.444796090,9.014389990,-0.026071070,0.040929020,-0.021739300
1640789689.742810,-0.137388890,0.273533370,10.355000500,-0.018273290,-0.031691790,-0.023306900
1640789689.743170,-0.327077030,0.366005360,9.994728090,-0.005024670,0.055834650,0.004158910
1640789689.747730,-0.223611920,0.129085510,9.170642850,-0.015445050,-0.082287200,-0.006745760
1640789689.748090,-0.572562400,-0.008241330,10.127286910,-0.026021900,-0.077931580,0.020231310
1640789689.752910,-0.129433660,-0.046986420,8.773568150,-0.023052100,0.038607420,0.015096370
1640789689.753630,0.112756570,-0.158675580,9.942621230,-0.016079840,0.023640690,-0.015050170
1640789689.757890,0.094011510,0.033377720,10.789986610,0.010861460,0.094625360,-0.017449260
1640789689.758360,0.540423990,0.235126840,9.685324670,-0.004127620,-0.033353270,-0.024311240
1640789689.762690,0.208058370,0.360550340,10.260363580,-0.035433470,-0.080351540,-0.009201470
1640789689.763240,0.027714210,0.324326250,9.191101070,-0.039432950,0.041547410,0.006158650
1640789689.767940,-0.284813940,0.218035100,9.546360020,-0.002391640,-0.018057230,-0.001673400
1640789689.768940,-0.771025480,0.281510080,10.361790660,0.040431320,-0.002551080,0.002580880
1640789689.773120,-0.433857380,0.267886940,9.482919690,-0.004222990,0.003121790,-0.006794930
1640789689.773780,-0.488859060,0.279380950,10.247635840,-0.047133860,0.006920100,-0.010107460
1640789689.777760,-0.426801770,0.181883650,10.198262210,-0.043192500,0.037990510,-0.012494620
1640789689.778060,0.111283030,0.284480660,9.298038480,-0.023090840,-0.017622120,-0.021182000
1640789689.783050,0.126603930,0.314644550,9.701190950,-0.004066530,0.005052980,-0.021411480
1640789689.784340,0.245881410,0.158253190,9.555210110,-0.018200270,0.047737360,0.005593900
1640789689.787810,0.096468630,0.147740620,9.831963540,-0.018674140,-0.035500530,0.005674360
1640789689.788310,-0.041188470,-0.099392220,9.979692460,-0.006301700,-0.045160950,0.007532540
1640789689.792720,0.064962330,-0.121377500,9.509108540,-0.011692940,0.044351820,0.004667040
1640789689.793030,-0.196997400,0.090465060,10.065934180,0.002056360,0.042904910,-0.014114380
1640789689.797800,-0.272776840,0.135295760,10.159850120,-0.009799000,-0.003360210,-0.029550490
1640789689.798210,-0.006572510,0.442365940,9.319899560,-0.026160480,0.000059600,-0.018587710
1640789689.802920,-0.115730800,0.286743880,9.678369520,-0.008070470,0.019192700,-0.012438000
1640789689.803600,-0.271824480,0.087187590,10.105292320,0.014230610,0.050501520,-0.014650820
1640789689.807810,-0.265087750,0.250543120,9.717949870,0.045059630,-0.028941040,-0.031490630
1640789689.808190,-0.334527940,-0.053556000,9.978238110,0.005516410,-0.032494960,-0.023436550
1640789689.812690,-0.280768330,-0.059159210,9.679462430,-0.007070600,0.046363480,-0.004789230
1640789689.813050,-0.296725600,-0.010353720,9.755014420,0.030635300,-0.013355910,-0.011332330
1640789689.817860,-0.381502870,-0.082224440,10.060657500,0.032110510,-0.026014450,0.009557600
1640789689.818510,0.049980900,0.096408210,8.983881000,0.040903690,-0.010459130,0.024662920
1640789689.822760,-0.002447720,-0.186484260,9.731003760,0.057114660,0.001771750,0.018195810
1640789689.823220,-0.008969880,-0.111857150,10.010212900,0.067022450,0.041860340,0.024163720
1640789689.827770,0.073332700,0.100339030,9.778913500,0.080676360,-0.042532380,-0.006315110
1640789689.828080,-0.114435350,-0.052842610,10.180997850,0.041107840,-0.041787330,-0.021947920
1640789689.833180,0.020483360,0.225288080,9.185224530,0.055496400,0.037810210,-0.029672680
1640789689.834670,-0.126470880,0.239530950,9.558306690,0.081117460,0.004597010,-0.048616530
1640789689.837860,-0.263824700,0.392517920,9.726691250,0.065436960,0.010633470,-0.012512510
1640789689.838790,-0.161205400,0.412609160,9.187881470,0.067488850,-0.020769240,0.018434230
1640789689.842740,-0.406013430,-0.077157010,9.861294750,0.076636670,-0.024871530,0.018917020
1640789689.843080,-0.371412460,-0.093811420,9.668582920,0.104653840,-0.011283160,0.010617080
1640789689.847790,-0.327508210,-0.061008520,9.767561910,0.115099560,-0.021001700,-0.007797780
1640789689.848620,-0.400848510,-0.030279260,10.261730190,0.048615040,0.006167590,-0.025343890
1640789689.852860,-0.320248900,0.384660690,9.838516240,0.050516430,-0.038693850,-0.015652180
1640789689.853570,-0.270861360,0.568387150,9.577983860,0.051669780,-0.072978440,-0.009141860
1640789689.861930,0.152599570,0.802033840,8.972868920,0.048710400,-0.015893580,0.021257990
1640789689.862410,0.320184590,0.832659300,9.333554270,0.063109400,0.055269900,0.029896200
1640789689.862750,0.366405790,0.505837080,10.020175930,0.049503160,0.045262280,0.004330280
1640789689.863200,0.389125080,0.434077260,10.110518460,0.056239960,-0.038908430,-0.003550950
1640789689.868190,0.129817400,0.102806210,9.873538970,0.030142070,-0.033731760,-0.021964310
1640789689.868920,-0.110598800,-0.279335950,9.488436700,0.013759730,-0.019270190,-0.033350300
1640789689.873680,-0.539853330,-0.127951490,9.525506970,0.057227910,-0.007863340,-0.041231510
1640789689.874210,-0.645579990,-0.206108060,9.069549560,0.040453670,0.002336500,-0.040945410
1640789689.877770,-0.583108130,-0.195722650,9.464131360,0.058543690,-0.028371810,-0.000818070
1640789689.878080,-0.530760170,0.040910110,9.617974280,0.074130310,0.033971670,0.015868250
1640789689.883250,-0.095741640,-0.010601830,9.690020560,0.062036520,-0.036965310,0.004293030
1640789689.884710,-0.014593620,0.416235480,10.339500430,0.073473160,-0.010600690,0.015068050
1640789689.888380,0.295407890,0.627880990,9.497732160,0.035189090,0.034368040,-0.022311510
1640789689.888820,0.109795440,0.711313430,10.239425660,0.023263690,-0.056819620,-0.014777480
1640789689.892760,-0.082926240,1.084203480,9.482402800,0.020039080,-0.005126000,-0.015617910
1640789689.893120,0.184282820,0.855186280,8.733015060,-0.001595910,-0.086976570,-0.016890460
1640789689.897840,-0.138449850,0.627472220,9.834280970,-0.004331770,0.029015540,0.021478540
1640789689.898290,0.064968500,0.197205830,9.171048160,0.014331940,0.095035140,-0.018513200
1640789689.902850,-0.065358230,-0.335885320,10.675218580,0.044527650,-0.042378900,-0.020954010
1640789689.903410,-0.234046280,-0.244343120,10.102820400,0.029909610,0.020127000,-0.027698280
1640789689.907740,-0.096251280,-0.598402320,9.154087070,-0.012663010,-0.078842030,-0.039853160
1640789689.908180,-0.675512310,-0.503524010,9.997945790,0.021190940,-0.026825070,-0.011196730
1640789689.912890,-0.335598680,-0.007930650,8.328125950,0.041942300,0.031846770,-0.035911800
1640789689.913350,-0.292232780,0.142225160,9.715002060,0.035806000,-0.048030920,-0.003916030
1640789689.917940,-0.318892060,0.588117780,9.960389140,0.039429960,0.100296740,0.015415250
1640789689.918590,0.266636640,0.577748600,9.465610500,0.038868190,-0.049911440,-0.016322730
1640789689.922770,-0.118758180,0.681787550,10.919609070,0.043606760,-0.056606530,0.004984440
1640789689.923590,0.286676140,0.800683080,8.864982600,0.009195510,0.027905410,-0.017771130
1640789689.927860,0.024634420,0.474785210,9.985257150,0.001567600,-0.061942650,-0.017337500
1640789689.928630,-0.522546590,0.532988670,9.991827960,0.006948410,0.036805880,-0.011272730
1640789689.932740,-0.167510150,0.372334180,8.797259330,-0.008702280,-0.102210040,-0.036346920
1640789689.933230,-0.564797760,0.095391630,10.317244530,-0.010614100,-0.054226820,-0.000035760
1640789689.937930,-0.163347100,0.004676620,9.037491800,-0.011384490,0.079421700,-0.018197300
1640789689.938560,0.034294030,-0.181444750,10.174459460,0.006593760,-0.034445520,-0.034001470
1640789689.942760,-0.097879310,-0.004031570,10.460051540,0.008584560,0.036565970,-0.001162290
1640789689.943130,0.397930200,0.005261920,8.851078030,-0.011201210,-0.050814460,-0.014321510
1640789689.947760,-0.161295040,0.035310850,10.146601680,0.006175040,-0.063675650,0.013226270
1640789689.948170,-0.238456400,0.235755560,8.765045170,0.011758510,0.012597440,0.019907950
1640789689.952800,-0.163870710,0.136293200,9.344800000,0.021262470,-0.078624490,-0.001931190
1640789689.953350,-0.560071110,0.286279050,10.299523350,0.023959580,0.063516200,-0.007888670
1640789689.957710,-0.140158590,0.388693810,9.374673840,0.005251170,-0.000925360,-0.045078990
1640789689.958060,-0.412156910,0.431667450,10.797452930,0.004102290,-0.084716070,-0.039231780
1640789689.962720,-0.125162930,0.541095080,9.337409020,-0.031703710,-0.001060960,-0.022073090
1640789689.963130,0.148277850,0.290267410,9.244902610,-0.026835510,-0.046820940,-0.013603270
1640789689.967940,-0.291198220,0.189415050,10.201915740,0.020414590,0.041702380,-0.006417930
1640789689.968570,0.094725590,0.249809210,9.178023340,0.006480520,-0.038586560,-0.002145770
1640789689.973920,-0.155437950,0.093797880,10.351794240,-0.015848880,-0.079354640,0.007404390
1640789689.974310,-0.136391450,-0.037286220,9.561774250,-0.033353270,0.019359590,0.003048780
1640789689.977800,0.099928800,0.035502370,9.508018490,-0.007000570,-0.030680010,-0.005453830
1640789689.978340,-0.202153800,0.159256440,10.145678520,0.012406710,0.022037320,-0.000016390
1640789689.983080,0.084980440,0.203843880,9.122151370,-0.010731820,0.001597400,0.017102060
1640789689.984580,-0.211646170,0.258171260,9.871232030,-0.001031160,-0.053906430,0.013603270
1640789689.988170,-0.365222570,0.282331650,9.408781050,-0.011736150,-0.033263870,0.004599990
1640789689.988670,-0.032640650,0.332991900,9.259721760,-0.020149350,-0.048801310,0.001949070
1640789689.993070,-0.205716540,0.311362890,10.217237470,-0.000347200,0.083239380,-0.029033420
1640789689.993750,0.077066970,0.283570260,10.009592060,-0.014017520,0.035843260,-0.032143300
1640789689.997790,-0.039225910,0.320701150,10.311489110,0.007410350,-0.050543250,-0.019428140
1640789689.998150,-0.084336630,0.161348670,9.258023260,-0.013569000,-0.041617450,-0.013902780
1640789690.002840,0.037021000,-0.027609610,9.061706540,-0.036773080,-0.039297340,0.023318820
1640789690.003420,-0.285318340,-0.073346290,9.545505520,0.007708370,0.051528210,0.005628170
1640789690.007890,-0.085959230,-0.160052120,9.824846270,-0.001055000,0.006631020,-0.026205190
1640789690.009010,-0.155975550,0.220429990,10.511127470,0.004234910,0.016428530,-0.010007620
1640789690.012680,-0.287212250,0.254275230,10.057006840,-0.009495020,0.001366440,-0.013600290
1640789690.013000,-0.375956450,0.308969260,9.887412070,-0.015921890,-0.084383790,0.015628340
1640789690.018430,-0.409311980,0.645186660,8.917577740,0.010512770,-0.035004320,0.029265880
1640789690.019120,-0.074085420,0.338217350,8.749333380,-0.026769940,0.006994610,0.022520130
1640789690.022760,-0.029373740,0.459390790,9.915656090,-0.017626580,0.103919190,0.026436150
1640789690.023660,0.102890960,0.243225020,10.134903910,0.002627070,0.023730100,-0.028294320
1640789690.027770,0.211396840,-0.004141500,10.518753050,-0.010180470,-0.078979130,-0.034990900
1640789690.028150,0.224585410,0.214983480,9.441056250,-0.012953580,0.001865630,-0.026951730
1640789690.032750,0.096472460,-0.186728510,9.323260310,-0.028303270,0.017188490,-0.020548700
1640789690.033810,-0.317090510,-0.099243470,9.911068920,-0.000137090,0.041435660,0.017167630
1640789690.037940,-0.330294910,-0.090039800,9.160663600,0.023804610,-0.016419590,0.009842220
1640789690.040090,-0.490172390,-0.328959350,9.961376190,0.013549630,-0.052700950,0.025126340
1640789690.042810,-0.531460110,0.237060800,9.626887320,0.019697840,0.041814150,0.016453860
1640789690.043310,-0.321435660,0.280144300,9.762907030,-0.026491290,-0.021675230,-0.023047630
1640789690.047760,-0.197199310,0.542872490,10.272323610,-0.034864250,0.023232400,-0.010785460
1640789690.048060,0.097454940,0.771944820,9.327354430,0.011965630,0.053842370,-0.025127830
1640789690.052810,-0.154635710,0.714348730,10.161013600,0.016190110,-0.047446790,-0.002592800
1640789690.053490,-0.188262150,1.070709590,9.312730790,-0.025509300,-0.057201090,0.036564470
1640789690.058060,0.153481470,0.463959100,8.697208400,-0.095607360,-0.061804060,0.028046970
1640789690.058620,0.008254410,-0.105020980,10.008767130,-0.064453490,0.081922120,0.005297360
1640789690.062700,0.207357720,-0.163538410,9.893436430,0.037235020,0.101149090,-0.037634370
1640789690.063050,0.082580980,-0.357735930,10.649416920,0.016975400,-0.053688880,-0.059801340
1640789690.067840,-0.002821650,-0.119467820,9.715819360,-0.062413510,-0.020711120,-0.024202460
1640789690.068580,-0.126185430,-0.306636100,8.763025280,-0.082097960,-0.022579730,-0.004725160
1640789690.073040,-0.671673120,-0.384183730,9.724802970,-0.010071700,-0.006397070,0.013290350
1640789690.074330,-0.574347140,0.198257010,9.105248450,0.065743920,0.017485020,0.003874300
1640789690.077770,-0.528571960,0.400961460,9.849195480,0.009146330,-0.028271980,-0.002716480
1640789690.078100,-0.532671630,0.630580900,10.402295110,-0.057983410,0.025753680,-0.000388920
1640789690.083110,-0.128019090,0.755654280,9.716073990,-0.055718430,-0.020357970,-0.022076070
1640789690.084630,-0.038964130,0.689637360,10.060063360,-0.026974080,-0.044128300,-0.014844540
1640789690.087910,0.176753940,0.715724290,9.358973500,0.005611780,0.026567280,-0.007732210
1640789690.088600,0.178470640,0.576206920,9.334888460,-0.043889880,-0.017029050,-0.017651920
1640789690.092770,-0.063856510,0.286664100,9.993476870,-0.073738380,-0.041553380,0.012290480
1640789690.093130,0.074120030,-0.042023970,9.425580980,-0.072726610,-0.025609140,-0.002060830
1640789690.097720,-0.005344850,-0.331514120,9.946777340,-0.042134520,-0.014086070,-0.025328990
1640789690.098090,-0.048745860,-0.385568770,10.009586330,0.005631150,0.043816870,-0.017061830
1640789690.102900,0.027469030,-0.336068570,9.436097150,-0.006121400,0.012087820,-0.023980430
1640789690.103800,-0.194395870,-0.283262430,9.893299100,-0.026562820,-0.028511890,-0.003971160
1640789690.107930,-0.317153420,-0.035872250,9.392338750,-0.027476250,-0.011374050,0.021617120
1640789690.109060,-0.428977970,0.160786790,9.209236150,-0.010347370,-0.065401200,-0.002692640
1640789690.112700,-0.510668040,0.401087280,9.883991240,0.005577500,-0.002257530,-0.013282900
1640789690.113190,-0.253093090,0.776662350,9.604997630,-0.020523370,0.080376860,-0.018905100
1640789690.117860,-0.316306560,0.797109480,10.658547400,-0.021786990,-0.032135840,-0.021220750
1640789690.118680,-0.162831740,0.801640030,10.098555560,-0.028920180,-0.039772690,0.005665420
1640789690.123780,0.270287310,0.674938560,8.649891850,-0.045040240,-0.069029620,0.014980140
1640789690.124330,0.144654100,0.121720800,9.635016440,-0.034502150,0.012147430,0.019904970
1640789690.127760,0.252364990,0.062774290,9.416850090,-0.031183660,0.099991260,-0.008894500
1640789690.128100,0.137574210,-0.142169610,10.264791490,-0.033915040,-0.082486870,-0.033405430
1640789690.132990,-0.057125100,-0.237667470,10.388064380,-0.055186460,-0.018087030,-0.022052230
1640789690.133620,0.109252190,-0.090466600,9.072382930,-0.055439770,0.004860760,-0.025823710
1640789690.138270,-0.354439380,-0.275787470,10.206466670,-0.002023580,-0.009001790,-0.012086330
1640789690.139500,-0.274959390,0.051988030,9.138514520,0.002503390,0.067214660,0.004760920
1640789690.142740,-0.167212560,0.150170100,9.081184390,-0.003485380,-0.038807090,0.009098650
1640789690.143180,-0.562139570,0.093100530,10.188826560,-0.018069150,0.021766120,0.016534330
1640789690.147850,-0.230057780,0.502905370,9.079655650,-0.032314650,-0.006520750,-0.014793870
1640789690.148610,-0.336607750,0.421399950,10.343737600,-0.018346310,-0.084044050,-0.022774930
1640789690.152960,-0.127837350,0.542382180,9.852148060,-0.025138260,0.100965810,-0.027817490
1640789690.153670,0.205108640,0.716291840,9.622531890,-0.013928120,0.009745360,-0.023792690
1640789690.157740,-0.259099040,0.434018190,10.897214890,-0.025002660,-0.016401710,0.013314190
1640789690.158110,0.252625610,0.448200290,8.551662450,-0.057835880,-0.048218670,0.019077960
1640789690.162750,0.107153880,-0.003625970,9.375362400,-0.046157850,-0.070305170,0.018602610
1640789690.163060,-0.063303460,-0.238042610,9.729708670,-0.031830370,0.126115990,-0.001144410
1640789690.167850,0.264479990,-0.060422000,9.571247100,-0.018039350,0.012296440,-0.029636920
1640789690.168760,-0.240481140,-0.234707770,11.185363770,-0.026747580,-0.012378390,-0.019252300
1640789690.173210,-0.007721490,-0.077060680,9.248666760,-0.038823490,0.023403770,-0.010436770
1640789690.174380,-0.374156420,-0.052846730,9.580882070,0.007374580,-0.070457150,0.007349250
1640789690.177770,-0.704810380,0.007915740,9.377300260,-0.002455710,0.017187000,0.009134410
1640789690.178080,-0.180264120,0.241166440,8.365882870,-0.007216630,-0.006154180,-0.008820000
1640789690.182830,-0.552838920,0.206187770,10.409495350,0.001803040,0.026883180,-0.018589200
1640789690.183560,-0.127127650,0.501952350,9.845050810,-0.015392900,0.052873790,-0.033944840
1640789690.188060,0.024506490,0.689242840,10.369503020,-0.019665060,-0.082992020,-0.029215220
1640789690.189030,-0.028684120,0.501549540,10.235242840,-0.043083730,0.011520090,0.000275670
1640789690.192720,0.421577630,0.515064600,9.000350950,-0.022687010,0.024501980,0.016152860
1640789690.193020,-0.103097080,0.315131250,10.197335240,0.002110000,-0.005243720,0.028383730
1640789690.198050,0.036205190,0.217561870,9.215861320,-0.043138860,0.002674760,0.028011200
1640789690.199510,0.122569750,0.136109640,9.508226390,-0.065952550,-0.060217090,0.011210140
1640789690.202890,-0.196055200,-0.164992750,10.077759740,-0.048601630,0.075250880,-0.021401050
1640789690.203490,0.112667540,-0.040593110,9.634680750,-0.035431980,0.034771860,-0.058841710
1640789690.207840,-0.243234350,0.139105140,10.362007140,0.002737340,0.013870000,-0.028710070
1640789690.208490,-0.227823940,0.002811820,9.361377720,-0.034734610,0.005985800,-0.009118020
1640789690.212800,-0.372584190,0.050093730,9.320296290,-0.021593270,-0.042815510,0.017549100
1640789690.213230,-0.741217850,0.126743580,9.213151930,-0.011166930,0.013357400,0.016719100
1640789690.217860,-0.355543050,0.003260820,9.237751010,-0.024157760,-0.003552440,0.004531440
1640789690.218700,-0.437210350,0.298138950,10.280919080,0.008320810,0.049014400,-0.018940870
1640789690.222760,-0.040502430,0.393007870,9.961557390,-0.026944280,0.025105480,-0.038096310
1640789690.223190,0.190285500,0.498793930,10.411513330,-0.045701870,-0.030243400,-0.016525390
1640789690.227750,0.175988720,0.438398960,9.545127870,-0.022394950,0.036972760,-0.010719900
1640789690.228070,0.245673700,0.091395280,9.453156470,0.009910760,-0.039012730,-0.012533370
1640789690.232850,-0.131690040,0.401508150,9.643902780,0.019979480,0.024265050,0.001376870
1640789690.234040,-0.089532590,0.156983390,9.158990860,-0.053191200,-0.007046760,-0.032466650
1640789690.238770,-0.242152390,0.031672670,10.336611750,-0.064894560,0.002808870,-0.018298630
1640789690.239440,-0.316741440,0.110451150,9.762366290,-0.014038380,0.071479390,-0.036922100
1640789690.242780,-0.256248890,-0.091702680,9.919232370,0.014524160,-0.050218410,-0.042541330
1640789690.243470,-0.327186700,0.141632710,9.729050640,0.018253920,0.037261850,0.003920500
1640789690.247890,-0.169123590,-0.149875880,8.819468500,-0.003716350,0.020939110,-0.003588200
1640789690.249710,-0.438196480,-0.178152830,10.208515170,0.008456410,-0.037720800,0.009284910
1640789690.252780,-0.302812550,0.132875490,9.137460710,0.016999250,0.020334120,-0.010560450
1640789690.253260,-0.138066900,0.026140870,9.676359180,0.008769330,-0.079032790,-0.049391390
1640789690.257720,-0.206261740,0.532023730,10.445256230,0.010731820,0.074087090,-0.037659700
1640789690.258040,0.164024030,0.691178320,9.340843200,-0.016693770,0.023786730,-0.041887160
1640789690.262720,0.027379290,0.441686240,10.690986630,-0.002969800,-0.055524710,0.002720950
1640789690.263060,0.191549140,0.454927650,9.171273230,0.023722650,0.070324550,0.000695880
1640789690.267900,0.077172930,-0.068891900,9.329259870,0.036352880,-0.064124170,-0.019022820
1640789690.268480,-0.467647790,0.006470730,10.256557460,0.025112930,0.011211630,-0.017473100
1640789690.272860,-0.112503390,0.108574990,8.624680520,-0.037211180,0.008979440,-0.053663550
1640789690.273210,-0.463756080,-0.025282740,10.691695210,-0.043979290,-0.027482210,-0.038626790
1640789690.277760,-0.440975100,0.269861670,9.866548540,0.011236970,0.110466790,-0.028295810
1640789690.278080,-0.078621070,0.163465400,9.259414670,0.051929060,-0.077265500,-0.021958350
1640789690.283220,-0.377644870,0.168435780,10.232926370,0.051292790,0.008606910,0.023284560
1640789690.284500,0.124454290,0.122060730,8.220661160,0.009207430,0.064495210,0.006717440
1640789690.288190,-0.182403120,-0.140553400,10.263369560,0.017389660,-0.062717500,0.002521280
1640789690.288580,-0.253775030,0.139175700,9.964488030,0.026078520,0.054226820,-0.029984120
1640789690.292730,0.314941260,0.164931010,9.033242230,0.023131070,-0.051641480,-0.062125930
1640789690.293040,-0.253066570,0.361450170,11.043396950,0.034025320,0.040136280,-0.050310790
1640789690.297810,0.090972680,0.710471750,9.074775700,0.012795630,0.091016290,-0.043259560
1640789690.298270,-0.103727270,0.387080580,9.984185220,-0.003434720,-0.106853250,-0.006230180
1640789690.302820,-0.369388700,0.337574480,9.598643300,0.029003630,0.044435260,0.005382300
1640789690.303620,0.085520480,0.078089150,8.481520650,0.040909650,0.010247530,-0.018121300
1640789690.307750,-0.650830330,-0.059303220,10.971361160,0.037863850,0.000238420,-0.035415580
1640789690.308090,-0.319720060,0.150410940,9.462602620,-0.002931060,0.052677100,-0.064262750
1640789690.313060,-0.145279790,0.073489790,9.965302470,-0.013220310,-0.079360590,-0.052188340
1640789690.313740,-0.543646340,0.352310450,10.383360860,0.015643240,0.051979730,-0.036177040
1640789690.317820,0.206846980,0.494917570,8.383184430,0.012074410,0.017233190,-0.010800360
1640789690.318360,-0.132489000,0.307653750,9.968681340,0.027757890,-0.029294200,0.012040140
1640789690.323180,0.077748220,0.308219050,9.100182530,0.025478010,0.085857510,-0.010088090
1640789690.323590,0.286026240,0.199375300,9.578864100,0.017493970,-0.039716060,-0.027881570
1640789690.327830,-0.322664890,0.177282680,10.899517060,0.004297490,-0.005754830,-0.033585720
1640789690.328770,0.197242950,0.204779650,9.229124070,-0.008516010,0.014114380,-0.063921520
1640789690.333070,-0.314678850,0.119442390,10.475255970,0.022368130,-0.017750260,-0.046718120
1640789690.334300,-0.504853010,0.284985720,9.558579440,0.028517850,0.047630070,-0.036247070
1640789690.339080,-0.274657130,0.324910190,8.960768700,-0.004237890,-0.051070750,-0.027607380
1640789690.339780,-0.699313460,0.193733860,9.974869730,-0.006495420,-0.017069280,-0.009122490
1640789690.342810,-0.113513020,0.244335580,8.962647440,-0.002872940,0.034074490,-0.031505530
1640789690.343770,-0.089671080,0.305584250,10.264203070,0.008109210,0.010822720,-0.036813330
1640789690.347780,-0.201785730,0.229719190,10.508559230,0.007998940,0.054873530,-0.032900270
1640789690.348200,0.130977990,0.348360000,9.765425680,0.009138880,-0.039049980,-0.030700870
1640789690.352830,-0.382102130,0.388532070,9.936491010,-0.003723800,-0.068993850,-0.010077650
1640789690.353410,-0.086326810,0.355056850,8.431402210,-0.038823490,-0.018088520,-0.001361970
1640789690.357720,-0.064136770,0.313033970,9.058896060,-0.025293240,0.025227670,-0.019104780
1640789690.358020,-0.211281080,0.236234100,10.044090270,-0.001910330,0.085502850,-0.039130450
1640789690.362830,0.149415360,0.449811670,10.147870060,-0.005836790,-0.014317040,-0.043459240
1640789690.363210,-0.068637950,0.292629690,10.453820230,-0.028444830,-0.052550450,-0.040289760
1640789690.368040,0.048066920,-0.041969110,9.454989430,-0.038044160,-0.011536480,-0.031062960
1640789690.368680,-0.220698040,-0.104200990,9.718155860,0.015796720,0.008372960,-0.026100880
1640789690.372890,-0.607603670,-0.208492040,9.553435330,0.036565960,-0.000926850,-0.026220090
1640789690.373380,-0.421660660,0.039017770,9.284205440,-0.004279610,-0.068150460,-0.018280740
1640789690.377860,-0.400940920,0.258461420,9.474401470,-0.034347170,0.023962560,-0.023086370
1640789690.378230,-0.215124130,0.311807250,9.839290620,-0.049914420,0.018005070,-0.026980040
1640789690.382770,-0.003614000,0.677275480,10.356977460,0.001378360,0.002028050,-0.012384360
1640789690.383220,0.104727140,0.600664140,9.798316960,0.017249580,0.002662840,-0.018887220
1640789690.388440,0.012264980,0.547789160,9.847400670,-0.004406270,-0.049433120,0.006742780
1640789690.389280,-0.225881250,0.545475420,9.321089740,-0.025981660,-0.025220220,0.012293460
1640789690.393090,-0.229627190,0.132738620,9.088377000,-0.069913280,-0.068555770,-0.006739800
1640789690.393750,-0.141172380,0.149508460,9.731117250,-0.038769830,0.017958880,-0.023739040
1640789690.397740,0.068539160,0.057954130,9.649086000,-0.008881090,0.095461300,-0.069557130
1640789690.398130,0.126050110,0.082374130,10.543075560,-0.025233630,0.011657180,-0.050455340
1640789690.402890,0.119821070,0.309286950,9.985792160,-0.037114310,0.005321200,-0.023648140
1640789690.403670,0.164286750,-0.277513650,9.120438580,-0.051845610,-0.061851740,-0.018358230
1640789690.407910,-0.250126240,-0.229398120,9.496146200,0.016289950,-0.013116000,0.004749000
1640789690.408290,-0.440492300,-0.172600980,8.947446820,0.046363470,0.037823610,-0.035950550
1640789690.412760,-0.567406300,-0.078282620,10.107473370,-0.010839100,-0.037291650,-0.028096140
1640789690.413240,-0.640960340,0.582891640,10.288175580,-0.038577620,0.033912060,-0.024357440
1640789690.418010,-0.284194800,0.549906550,9.822124480,-0.062316660,-0.029686090,-0.035797060
1640789690.418730,-0.183786000,0.887450930,10.221650120,-0.024281450,-0.017654900,0.008413200
1640789690.422690,0.217739490,0.856707630,8.894686700,0.011697410,0.054726010,-0.000593070
1640789690.422960,0.245788410,0.342738780,9.730073930,-0.000049170,-0.015284120,0.007492300
1640789690.427800,0.101302800,0.503126740,9.660002710,-0.022976100,0.017139320,0.005827840
1640789690.428170,0.202598470,-0.019226730,9.352577210,-0.085283840,-0.074446220,-0.045363610
1640789690.432740,-0.062204200,-0.167826290,10.371563910,-0.075280670,-0.004582110,-0.041906540
1640789690.433190,-0.068472330,-0.074164500,9.600443840,-0.009642540,0.090110310,-0.067570810
1640789690.437820,-0.210330050,-0.262665690,10.341210370,0.005446370,-0.019069020,-0.052286700
1640789690.438550,-0.295499030,0.190513760,9.602125170,-0.008136030,0.035828350,-0.002643470
1640789690.442730,-0.160116450,-0.063756800,8.763868330,-0.045414270,-0.019870700,0.004746020
1640789690.443130,-0.514200330,-0.225697900,10.034301760,-0.008846820,-0.010527670,0.029715900
1640789690.447780,-0.364182080,0.066735360,9.056608200,0.050117080,0.018659230,-0.026467440
1640789690.448180,-0.247106880,0.177673590,10.125014310,0.020335610,-0.046956540,-0.054663410
1640789690.452800,-0.322734240,0.733376380,10.636059760,-0.042445950,0.091737510,-0.040823220
1640789690.453360,-0.111540080,0.760786350,9.788568500,-0.066354880,-0.020426510,-0.060051680
1640789690.457760,-0.249696640,0.697318140,10.418093680,-0.026841470,-0.078968700,-0.010955330
1640789690.458200,0.169107440,0.793246570,8.254442210,0.014819210,0.036780540,0.008600950
1640789690.462710,0.284856380,0.249965250,9.221915250,-0.013484060,0.001184640,0.005307790
1640789690.463090,0.008257790,0.169628380,10.312268260,-0.031454860,0.120458010,0.006186960
1640789690.467900,0.273748340,-0.079922420,9.679937360,-0.060811640,-0.027057530,-0.044839090
1640789690.468480,-0.149555120,-0.394395410,11.100840570,-0.037732720,-0.072430070,-0.045849390
1640789690.472770,-0.145647110,-0.216399250,9.092603680,0.006619100,0.063328440,-0.065958510
1640789690.473300,-0.311781530,-0.195840630,9.288643840,0.009998680,-0.038757920,-0.057722630
1640789690.477810,-0.686068770,0.091582600,9.844743730,-0.006349380,0.077384700,0.007756050
1640789690.478270,-0.251837220,0.029653780,8.495275500,-0.013887890,0.022828580,0.005348030
1640789690.483020,-0.535298470,0.017322780,10.556846620,0.028121470,-0.058645010,0.021182000
1640789690.484350,-0.241215350,0.398486380,9.529925350,0.044146180,0.074800850,0.004635750
1640789690.488550,0.111413070,0.397918700,9.790791510,0.001737480,-0.054924180,-0.033187860
1640789690.489290,-0.280434070,0.614312710,11.059592250,-0.009782610,0.064751520,-0.025877360
1640789690.492700,0.210682440,0.768350240,8.936362270,-0.026310980,0.024624170,-0.049798190
1640789690.493010,-0.198382470,0.584873020,10.272513390,-0.015923380,-0.107625110,-0.023522970
1640789690.497740,-0.193459080,0.654864970,9.061795230,-0.008170310,0.052514670,0.002004210
1640789690.498080,0.211571740,0.236874890,8.756274220,-0.033204260,-0.026389960,-0.010792910
1640789690.502860,-0.394660710,0.060067130,10.896661760,-0.032198430,0.062367320,-0.001506510
1640789690.503680,0.113900730,-0.081322280,9.343047140,-0.026987490,0.063651790,-0.023813540
1640789690.508260,-0.158876120,-0.365699440,10.671363830,0.005637110,-0.087752920,-0.021095580
1640789690.509940,-0.504249810,-0.014486330,9.852089880,-0.001126530,0.036096570,-0.012999770
1640789690.512800,-0.119939680,-0.020308370,8.341188430,-0.040708490,-0.049830980,-0.015018880
1640789690.513190,-0.716224010,0.059164080,10.155914310,-0.022533530,-0.000616910,-0.003086030
1640789690.518590,-0.335504060,0.347748550,8.894087790,0.002160670,0.081920650,-0.018107890
1640789690.519300,-0.198408340,0.439723250,10.192538260,0.013080240,-0.066930050,-0.019133090
1640789690.522990,-0.321699830,0.705671970,10.584362030,-0.011153520,0.029832130,-0.002813340
1640789690.524290,0.521426020,0.554728690,9.065643310,-0.051955880,-0.006730850,-0.016438960
1640789690.527750,0.009379030,0.373786720,10.745265010,-0.015099350,0.019358100,-0.014121830
1640789690.528060,0.056426470,0.553737880,9.375768660,-0.015962130,0.049521030,-0.023539360
1640789690.532770,0.054105680,0.322181170,9.464411740,-0.039428480,-0.102227930,-0.024987760
1640789690.533590,-0.574362100,0.104151270,9.939229970,-0.047355890,-0.004452470,-0.012031200
1640789690.542940,-0.195249180,0.031440760,8.870299340,-0.043877960,0.016145410,-0.022841990
1640789690.543330,-0.631038730,-0.134728640,10.747848510,-0.020396720,-0.007247930,-0.010451680
1640789690.543750,-0.459175470,0.000249720,9.992806430,-0.019687410,0.047922140,0.002142790
1640789690.544010,-0.035613810,0.042842730,9.733176230,-0.013333560,-0.052836540,0.016380850
1640789690.547700,-0.428034280,0.187702720,10.104852680,-0.021061300,0.004066530,0.025367740
1640789690.548040,0.170935850,0.494835050,8.485180850,-0.059194870,-0.015738610,0.010903180
1640789690.552830,0.141653180,0.545353710,9.599982260,-0.050242250,0.004900990,-0.007897620
1640789690.553680,0.092274810,0.644583230,9.739990230,-0.039681800,0.094786290,-0.031898920
1640789690.557780,0.366713670,0.729731500,10.096198080,-0.037263340,-0.029556460,-0.035338110
1640789690.558150,-0.173123210,0.329834130,10.751477240,-0.038108230,-0.017732380,-0.016012790
1640789690.562720,0.184638020,0.029335850,9.018031120,-0.044640910,-0.011953710,-0.007623440
1640789690.563210,-0.299200510,-0.211421400,9.962284090,-0.017376250,0.018963220,-0.008088350
1640789690.567900,-0.410873920,-0.265973420,9.249736790,-0.042732070,0.058071320,-0.000843410
1640789690.570050,-0.223058600,-0.127145680,9.387509350,-0.051683190,-0.036674740,-0.010763110
1640789690.573320,-0.568444250,-0.020557860,10.224750520,-0.033378600,0.055323540,-0.016333160
1640789690.574240,-0.230111000,0.227238000,9.653573040,-0.034640730,-0.006248060,-0.015863780
1640789690.577760,-0.361509030,0.462413970,10.547567370,-0.014060740,-0.009185080,-0.004023310
1640789690.578110,-0.326564490,0.460953530,9.788534160,-0.026883190,0.042288000,0.011299550
1640789690.583110,-0.131985410,0.612864320,9.608287810,-0.033105900,-0.048616520,0.017882880
1640789690.584580,-0.378737420,0.692356590,9.719721790,-0.052317980,-0.003132220,0.009074810
1640789690.587820,0.193890050,0.615502420,8.691928860,-0.096833710,-0.014801320,-0.002357360
1640789690.590050,0.219004110,0.535565500,9.847971920,-0.076326740,0.046174230,-0.024360420
1640789690.592740,0.254017170,0.284910800,10.020096780,-0.058183080,0.116546450,-0.043167180
1640789690.593190,0.352216600,0.163021820,10.404287340,-0.045512620,-0.043325130,-0.028039520
1640789690.597760,-0.134250160,-0.099058200,10.274412160,-0.048735730,-0.023303920,-0.003281240
1640789690.598090,-0.110585000,-0.686313990,8.980871200,-0.069198000,-0.021408500,0.006009640
1640789690.603810,-0.640149530,-0.727801560,9.649751660,0.001159310,0.006012620,0.012917820
1640789690.604530,-0.799542130,-0.481117900,9.259085660,0.009633600,0.030095880,-0.019665060
1640789690.608120,-0.364173020,0.008947360,9.420543670,-0.046035640,-0.011131170,-0.019527970
1640789690.608670,-0.395353650,0.681163430,10.200963020,-0.066114970,0.080847750,-0.029414890
1640789690.612710,0.061593460,0.903571190,10.035176280,-0.065070400,0.019986930,-0.037452580
1640789690.613070,0.050438630,1.229347110,10.464358330,-0.010176000,-0.007049740,0.006312130
1640789690.617960,0.020054430,1.041564350,9.557214740,-0.008097290,-0.001542270,0.005476180
1640789690.619370,-0.059566150,0.606816230,9.570314410,-0.039845710,-0.043165690,0.032152240
1640789690.623140,-0.431698800,0.431462760,9.569935800,-0.075456510,-0.005888940,0.029352310
1640789690.623620,-0.191213580,-0.141877650,9.240841870,-0.119496900,-0.025469070,0.000497700
1640789690.627750,-0.105687390,-0.236420740,10.160877230,-0.073990230,0.053615880,-0.011104350
1640789690.628170,0.084511230,-0.176436810,9.902234080,-0.035320230,0.083419690,-0.041991470
1640789690.632800,0.202711840,-0.109904460,10.372013090,-0.062887370,-0.013446810,-0.019709770
1640789690.633370,0.059207690,0.182284380,9.705289840,-0.074270350,0.030192730,0.016987320
1640789690.640270,-0.085155830,-0.178018930,9.243099210,-0.067703420,-0.049781800,0.023844840
1640789690.640890,-0.474944620,-0.055708010,9.759799000,0.000549850,-0.007481870,0.047662850
1640789690.642700,-0.614158510,-0.006073140,8.983463290,0.016731020,0.007872280,0.015741590
1640789690.643070,-0.592580440,-0.020750180,10.123075490,-0.030727680,-0.030511620,0.004681950
1640789690.648220,-0.456842780,0.451584400,10.093108180,-0.054621700,0.103706130,-0.007727740
1640789690.649080,-0.080439000,0.467600260,9.936860080,-0.079096860,-0.026062140,-0.030766430
1640789690.652880,0.057033020,0.706866740,10.436360360,-0.036227700,-0.000311430,-0.006102030
1640789690.653610,0.407346810,0.730131450,8.826666830,-0.024077300,0.044025480,-0.005099180
1640789690.657710,0.111621360,0.340896550,10.163084030,-0.040347870,-0.048255920,0.022737680
1640789690.658030,-0.167833780,0.287796200,9.910185810,-0.043243170,0.042140480,0.027520960
1640789690.662700,-0.128724340,-0.228926050,9.404956820,-0.066371260,-0.096926100,0.007373090
1640789690.663100,-0.430018630,-0.270380970,10.674099920,-0.035418570,-0.015960630,0.023087860
1640789690.668200,-0.183257620,-0.151398060,9.228216170,-0.026555360,0.109550340,-0.007851420
1640789690.669450,-0.187533070,-0.149344820,10.175443650,-0.043420490,-0.036199380,0.005193050
1640789690.673110,-0.253421430,0.355724390,9.965122220,-0.038631260,0.092801460,0.038936730
1640789690.674780,0.046374500,0.220257340,8.800133710,-0.044284760,-0.025191900,0.025540590
1640789690.677780,-0.462033510,0.357686670,10.497535710,-0.011922420,-0.069065400,0.063633920
1640789690.678100,-0.230324980,0.413196680,8.959409710,-0.011695920,0.058077280,0.029544540
1640789690.682720,-0.184132190,-0.018954650,10.030741690,-0.023733080,-0.056765970,0.010159610
1640789690.683220,-0.434909400,0.184448380,10.848341940,-0.000859800,0.095552190,0.001189110
1640789690.687790,0.147014450,0.120626590,9.138412480,-0.020791590,0.003093480,-0.023905930
1640789690.689060,-0.125810670,0.129704010,10.558245660,-0.031767790,-0.074976680,0.026415290
1640789690.692750,0.131082880,0.218334870,8.923968320,-0.029610100,0.086478900,0.029931960
1640789690.693050,0.221319870,-0.151604940,9.340995790,0.000137090,-0.043162700,0.028306250
1640789690.697730,-0.461320670,0.153665770,10.753547670,0.020620230,0.024394690,0.050857670
1640789690.698160,-0.072846890,0.063477560,9.080542560,-0.006505850,-0.001797080,0.017878410
1640789690.702860,-0.551770270,-0.061322820,10.917992590,0.000426170,-0.087581590,0.029259930
1640789690.703500,-0.614185150,0.386664210,9.839693070,-0.006324050,0.071708860,0.029508770
1640789690.707740,-0.151063990,0.201324700,9.170553210,-0.016288460,-0.047291820,0.020883980
1640789690.708140,-0.510391060,0.427824940,10.518756870,0.018654760,0.028663870,0.050544740
1640789690.713180,0.114538270,0.672498230,8.683973310,-0.001403690,0.053802140,0.029417870
1640789690.713900,0.011457380,0.369134040,10.340749740,-0.034223500,-0.081603230,0.034180280
1640789690.718020,0.063452490,0.406193050,9.965376850,-0.036500400,0.059077150,0.020465260
1640789690.718680,0.509529830,-0.012422910,9.389050480,0.009661910,-0.012661520,-0.012785200
1640789690.722700,-0.127892120,-0.125768380,11.027564050,0.035193560,0.028960410,-0.003990530
1640789690.723070,-0.019497970,0.075888610,9.126408580,-0.013324620,0.033758580,0.000225010
1640789690.728240,-0.300036280,-0.413687260,9.922729490,-0.012813510,-0.104255970,0.032533710
1640789690.728790,-0.710480750,-0.258579160,9.690424920,0.019626320,0.029304630,0.053188200
1640789690.732730,-0.309015130,-0.068523070,8.827253340,0.041088470,-0.024220350,0.027823450
1640789690.733080,-0.645139160,0.104338130,10.885272980,0.031439950,0.021919610,0.038784740
1640789690.739060,-0.090747790,0.540654060,9.674823760,-0.009335580,0.099208940,0.015994900
1640789690.739860,-0.022679430,0.616848170,10.684720040,0.007791820,-0.060324380,0.002625590
1640789690.742750,-0.290201750,0.794975460,10.389143940,0.028756260,-0.005628170,0.020113590
1640789690.743350,0.223328350,0.829816040,8.312904360,0.006176530,-0.073982770,0.026793780
1640789690.747780,-0.194821800,0.396935370,10.029164310,-0.003659730,-0.013080240,0.037847460
1640789690.748210,-0.045928360,0.256191400,9.262349130,-0.014077130,0.111779570,0.025609140
1640789690.753910,0.035718960,0.031356050,10.282468800,0.002287330,-0.065033140,0.013180080
1640789690.755120,-0.296280680,-0.159907530,10.908204080,-0.006501380,0.012499090,0.021833180
1640789690.757730,0.227357770,-0.183127000,8.978208540,-0.018529600,-0.011943280,0.008755920
1640789690.758150,-0.339532080,-0.347907450,10.492194180,0.012904410,-0.035925210,0.028240680
1640789690.762730,-0.292406890,-0.154425080,9.094768520,0.008498130,0.070369260,0.035573550
1640789690.763080,-0.211722820,-0.194238810,9.233864780,0.041133170,-0.080896910,0.042930250
1640789690.767870,-0.684295300,-0.091634940,10.526410100,0.053714220,0.001375380,0.042001900
1640789690.768580,-0.160729930,0.245064010,9.117668150,0.030687450,0.013573470,0.037991990
1640789690.772820,-0.333435860,0.305951860,10.812068940,0.028464200,-0.055767600,0.022228060
1640789690.773290,-0.145012480,0.580003560,10.037822720,0.016851720,0.094784800,0.008237360
1640789690.777730,0.274505200,0.891925750,9.453934670,0.017315150,-0.047720970,0.002942980
1640789690.778100,-0.283565940,0.809067310,10.562178610,0.009465220,-0.022290650,0.017049910
1640789690.782750,0.184746130,0.682614620,8.630702020,-0.017721950,-0.018829110,0.014303620
1640789690.784230,-0.054368690,0.259824600,9.890124320,0.010061260,-0.067162520,0.026083000
1640789690.788440,-0.362409980,-0.086990020,10.313023570,0.013546650,0.074580310,0.019122660
1640789690.789040,0.056195710,-0.198893900,9.720952990,0.006984180,-0.015026330,0.014241040
1640789690.793040,-0.452014800,-0.490531740,11.015364650,0.030684480,-0.032462180,0.050923230
1640789690.793550,-0.081557090,-0.361816850,9.207716940,0.020371380,0.016359990,0.044953820
1640789690.797760,0.029717630,-0.038330090,9.224920270,0.019404290,-0.038985910,0.065149360
1640789690.798110,-0.286343430,0.095022270,9.670145990,0.005501510,0.063043840,0.056572260
1640789690.802830,0.159451370,0.538165810,9.101879120,0.009272990,0.013470650,0.017400090
1640789690.803390,-0.283435490,0.779534340,10.577418330,0.027810040,-0.036577880,0.006534160
1640789690.807790,-0.138033640,0.703161780,9.860990520,0.006979700,0.004518030,0.001642110
1640789690.808730,-0.032257240,0.582701270,9.924386020,0.022561850,-0.017280880,0.009003280
1640789690.812690,-0.499138980,0.249198900,10.346602440,0.034677990,0.031150880,0.024603310
1640789690.813050,-0.148870160,0.131388870,9.177295680,0.012406710,-0.023977460,0.026161970
1640789690.817980,-0.370308490,-0.019283970,9.650693890,0.003609060,-0.042966010,0.045511130
1640789690.818800,-0.206111740,-0.282716270,9.340948100,-0.012193620,0.018607080,0.033022460
1640789690.822710,-0.012671340,-0.010975410,9.936577800,0.026530030,0.001402200,0.011649730
1640789690.823030,-0.160140750,0.178824410,10.502657890,0.007733700,0.027479230,0.025242570
1640789690.827770,0.083652590,0.189780920,10.204582210,-0.013808910,-0.008046630,0.026789310
1640789690.828160,-0.171013300,0.450895460,10.297022820,0.031718610,-0.023983420,0.037823620
1640789690.832690,-0.382259730,0.531815230,9.473723410,0.009319190,-0.049850350,0.042045120
1640789690.833020,-0.150466580,0.837051990,9.032905580,-0.027622280,-0.053873650,0.042101740
1640789690.837880,-0.182164770,0.767380890,9.218302730,-0.055953860,0.082644820,0.019742550
1640789690.839720,0.087341260,0.560207960,9.884821890,-0.050665440,0.050708650,-0.009910760
1640789690.842850,0.094111960,0.609804210,10.677228930,-0.002531710,0.026857850,-0.013114510
1640789690.843280,0.171616060,0.144384340,9.887431140,-0.022788340,-0.037229060,-0.016389790
1640789690.847700,-0.016903850,-0.273831960,10.037671090,-0.023868680,-0.059092060,0.015510620
1640789690.848080,-0.368185010,-0.628340010,9.357361790,-0.002434850,0.029313570,0.023326270
1640789690.853130,-0.475319560,-0.950380330,9.269046780,0.010213260,-0.055158150,0.024640560
1640789690.853780,-0.576069300,-0.475018740,9.827383040,0.030483310,0.007383530,0.034846370
1640789690.858010,-0.324993250,-0.181512920,9.405853270,-0.008760390,0.037361680,0.005497040
1640789690.858690,-0.103505200,0.427975590,10.637094500,-0.029443210,-0.020080800,0.017361340
1640789690.862680,0.084671150,0.955407860,10.198384280,-0.004832450,0.084191580,0.013954940
1640789690.862990,0.349482570,0.821416260,9.874673840,0.013583900,-0.033493340,-0.003694000
1640789690.867810,-0.102539210,1.224359150,10.425858500,0.037497290,-0.002036990,0.009489060
1640789690.868350,-0.120762990,0.968954500,8.833652500,-0.038859250,-0.025610630,-0.008755920
1640789690.874790,-0.539045510,0.368680690,9.853492740,-0.075930350,-0.115506340,0.005155800
1640789690.875340,-0.622079790,0.249447140,9.553381920,-0.037878750,0.044195350,-0.015084450
1640789690.877680,-0.245160100,-0.270259200,9.504343990,-0.020052490,-0.013728440,-0.019735100
1640789690.878060,-0.305254880,-0.224054690,10.972205160,-0.023707750,0.041364140,0.030981010
1640789690.883100,0.131090800,-0.422189770,9.678170200,-0.024098160,0.068405280,0.033533580
1640789690.884470,0.107059840,-0.737117350,10.274402620,0.002624090,-0.109343250,0.069659950
1640789690.889180,-0.104410640,-0.150992160,9.533425330,0.028668350,-0.012321770,0.070403520
1640789690.890290,0.240648400,-0.226962940,8.399121280,0.000710790,-0.052097440,0.025501850
1640789690.892740,-0.231067270,0.337228000,10.435064320,-0.007107850,0.027532880,0.005997720
1640789690.893050,-0.074344090,0.976818140,9.656471250,-0.011393430,0.090114790,-0.031442950
1640789690.897720,-0.046102290,0.820536910,10.506862640,-0.018918510,-0.072368960,-0.019177790
1640789690.898140,-0.353918160,1.125848890,10.404334070,0.000813600,0.026279690,0.017067790
1640789690.902860,-0.064408620,0.621850970,8.787756920,-0.005975370,-0.015743080,0.011500720
1640789690.906780,-0.672920580,0.118635820,10.314977650,-0.009009240,-0.051490960,0.038100780
1640789690.907750,-0.579605460,-0.019627020,9.007019040,-0.014683610,0.024235250,0.010721390
1640789690.908240,-0.375599800,-0.630078730,9.773145680,-0.022867320,-0.105614950,0.000430640
1640789690.912740,-0.566252230,-0.363279400,10.741324420,-0.009061390,0.035375360,0.019620360
1640789690.913080,0.143714760,-0.253860470,9.381463050,-0.014750660,-0.003184380,0.011250380
1640789690.917980,0.071080160,-0.215350580,10.850744250,0.008963050,-0.032787020,0.054726010
1640789690.918640,0.283454210,0.422649260,9.419112210,0.023943190,0.065912310,0.057147440
1640789690.923170,0.468528870,0.485170570,9.305499080,0.001694260,-0.082053240,0.048394500
1640789690.923980,-0.029136200,0.839273990,10.139971730,-0.022725760,0.002211330,0.037375090
1640789690.927720,0.261053060,0.924664740,8.652064320,-0.044909120,0.027166310,-0.017988680
1640789690.928080,-0.274005770,0.585428180,10.773542400,-0.017094610,-0.010274350,-0.036501880
1640789690.932750,-0.581600430,0.618714150,9.992267610,0.002233680,0.065931680,-0.042505570
1640789690.934420,-0.522357290,0.102108450,9.492660520,-0.020843750,-0.106534360,-0.027564170
1640789690.937860,-0.968594310,-0.434860440,10.331365590,-0.012296440,-0.033932930,0.033973160
1640789690.941750,-0.453288580,-0.645497560,8.471855160,0.008076430,0.024475160,0.030422220
1640789690.942670,-0.414230290,-0.749023500,10.361659050,0.022763010,-0.049737100,0.033292170
1640789690.942970,-0.134063660,-0.313938560,10.166377070,0.009432440,0.091771790,0.029073660
1640789690.947690,0.536292610,0.125531210,9.703178410,-0.014595690,-0.060629850,0.004252790
1640789690.948040,0.257614940,0.568374810,11.131162640,0.004060570,-0.016091760,0.023037200
1640789690.953020,0.574108660,0.991948780,9.015031810,0.001508000,0.029417880,0.013680760
1640789690.953780,0.332026090,0.936935070,9.942036630,0.010125340,-0.079466410,0.018724800
1640789690.957710,-0.128605680,0.963722050,9.828244210,0.000797210,0.073219840,0.008361040
1640789690.958050,-0.023375680,0.775475500,8.825742720,-0.042037660,-0.014698510,-0.019048150
1640789690.962700,-0.798267250,0.360735770,10.955089570,-0.040088590,-0.029574340,-0.019048150
1640789690.963040,-0.617734070,0.155957700,9.189009670,-0.045889620,0.035053500,-0.022296610
1640789690.968020,-0.436344270,-0.204353410,9.727181430,-0.037927930,-0.078451640,-0.005833800
1640789690.968750,-0.657668170,-0.504482750,10.318605420,-0.008240340,0.078456090,0.041787330
1640789690.972900,0.066233450,-0.757897790,9.033039090,0.022102890,0.017373260,0.031602390
1640789690.973640,-0.240704090,-0.664787050,10.909429550,0.052390990,-0.078679630,0.044636430
1640789690.977720,0.144836010,-0.303871240,9.459445950,0.005657970,0.018209220,0.025931000
1640789690.978230,0.627667070,-0.017169380,9.380176540,-0.023578110,-0.042983890,0.006763640
1640789690.982750,0.170077410,0.481315370,10.708628650,0.019206110,0.094567250,-0.014829640
1640789690.984100,0.535288810,1.167564030,9.322587010,0.009369850,0.048993530,-0.040560960
1640789690.987810,-0.042904370,1.474986310,10.433454510,-0.030627850,-0.072011360,-0.018239020
1640789690.990890,-0.399214510,1.234040260,9.500974660,-0.059647860,0.011751060,-0.004333260
1640789690.992700,-0.411130670,0.847931210,9.024227140,-0.050346560,-0.035184620,-0.006908180
1640789690.992960,-1.164772870,0.335930530,10.525389670,-0.011980530,0.006879870,-0.000648200
1640789690.997710,-0.766568240,-0.247168080,9.539969440,-0.024043030,0.025843080,0.003978610
1640789690.998050,-0.597312090,-0.678602580,10.375087740,-0.019654630,-0.033403930,0.023548300
1640789691.003920,-0.544959190,-0.771082400,10.378762250,-0.027465810,0.020374350,0.041148060
1640789691.004710,0.456346210,-0.662122490,9.137671470,-0.042888530,-0.027094780,0.038374960
1640789691.008130,0.637286190,-0.263786940,9.831384660,-0.011993940,0.033172960,0.021092590
1640789691.008650,1.040115950,0.205643730,9.436486240,-0.014381110,0.106282550,-0.009649990
1640789691.012700,0.903601770,0.901156010,10.126583100,-0.019368530,0.027476250,-0.042574110
1640789691.013170,0.212659690,1.166414620,10.248733520,-0.046353050,-0.017720460,-0.024101140
1640789691.017790,-0.077523500,1.088857050,9.393244740,-0.063677140,-0.058035560,-0.006414950
1640789691.018520,-0.920131980,0.803289770,9.752914430,-0.029869380,-0.009198490,0.020284950
1640789691.022780,-1.260725260,0.205643730,9.512567520,-0.023391840,0.028610230,0.029546020
1640789691.023180,-1.181563380,-0.078559390,9.942528720,-0.027669970,0.013338030,0.024843220
1640789691.027730,-1.007810950,-0.366041540,10.044150350,-0.044824180,0.031912330,0.007711350
1640789691.028060,-0.225517620,-0.443792250,9.991975780,-0.085596740,-0.013348460,-0.002580880
1640789691.032830,0.273091440,-0.184696060,9.989311220,-0.058497490,0.050681830,0.006650390
1640789691.034320,0.660792950,-0.258412810,9.921993260,-0.024667380,0.014515220,-0.000636280
1640789691.038550,0.808623610,0.137419210,10.336762430,0.008548800,0.007106360,0.023423140
1640789691.040170,0.612810730,0.506877540,9.676054950,-0.017967820,-0.012281540,0.031663470
1640789691.043610,0.325905590,0.451646800,9.771944050,-0.084815920,-0.051496930,0.041161480
1640789691.044490,-0.029615630,0.752821270,9.542719840,-0.068174300,0.062821800,0.024566060
1640789691.048040,-0.283340280,0.654832070,9.507143020,-0.057618310,0.031539800,-0.013968350
1640789691.049180,-0.469029520,0.814229610,10.106844900,-0.059454150,0.055795910,-0.004586580
1640789691.052740,-0.617820320,0.613157930,9.611587520,-0.075192760,0.067713860,0.011399390
1640789691.053250,-0.748058620,-0.252404060,10.262571330,-0.073847170,-0.052686040,0.030225520
1640789691.057800,-0.860924240,-0.485361370,10.007061000,-0.002780560,-0.004880130,0.056895610
1640789691.058310,-0.485579820,-1.145472410,9.105344770,0.020429490,-0.047148780,0.022546950
1640789691.062720,-0.193111150,-1.069074630,10.111442570,-0.000040230,0.030668080,0.014737250
1640789691.063120,0.426774650,-0.381553860,9.685511590,-0.016453860,0.151540310,-0.009569530
1640789691.067750,0.771389600,-0.090715240,10.457647320,-0.051929060,0.009074810,-0.013235210
1640789691.068130,0.847078500,0.901522870,10.246758460,-0.028106570,0.025831160,0.019076470
1640789691.073140,0.852871120,1.124657150,8.906867030,0.005188580,0.012966990,0.028552120
1640789691.073780,0.030379240,1.037009600,10.157007220,-0.007045270,-0.003090500,0.052009520
1640789691.078060,-0.645459650,1.150551200,9.687178610,-0.007040800,0.053915380,0.037102400
1640789691.078540,-1.023241880,0.399380120,9.852673530,-0.058838730,-0.080278520,0.016304850
1640789691.082710,-1.436427590,0.250268130,10.478851320,-0.066624570,0.014109910,0.022998450
1640789691.083040,-1.027784710,0.044691160,9.373010640,-0.050494070,0.045971580,0.003345310
1640789691.088060,-0.639040410,-0.366386290,10.381690030,-0.063523660,0.006610160,0.041753060
1640789691.089120,0.144832130,-0.148221520,9.646802900,-0.032544150,0.102658590,0.077825800
1640789691.092960,0.952738880,-0.510323230,9.355203630,-0.015591090,0.047546630,0.067186360
1640789691.093310,0.930121900,-0.311798990,10.572149280,-0.007982550,0.047092140,0.073756280
1640789691.097710,1.047279480,-0.013143780,9.477581020,-0.014613570,0.032322110,0.029742720
1640789691.098110,0.564524650,-0.126641620,10.136133190,-0.032316150,-0.056551400,-0.001914800
1640789691.102680,-0.166858970,0.545914650,9.841169360,-0.022111830,0.053976480,-0.006519260
1640789691.103130,-0.455560150,0.711240050,9.090894700,-0.037518140,0.037953260,-0.008675460
1640789691.107780,-1.202099440,0.624086500,10.456652640,-0.046733030,0.008036200,0.028382250
1640789691.108270,-1.188632850,0.761409400,9.441302300,-0.009974840,0.042934710,0.051775570
1640789691.112800,-0.957673610,0.171528340,9.715011600,-0.023728610,-0.038939720,0.060635810
1640789691.113850,-0.773681460,-0.007762830,10.261874200,-0.020018220,0.065506980,0.079514090
1640789691.117720,0.027201320,-0.301666950,9.688678740,-0.010772050,0.080367920,0.045725710
1640789691.118050,0.196239110,-0.546676220,10.985991480,-0.000253320,-0.006827710,0.034888100
1640789691.122780,0.464543880,-0.033323210,9.856447220,0.004696850,0.001701710,0.031423570
1640789691.123270,0.820565760,0.120349480,9.031020160,-0.054503980,-0.058384240,0.018173460
1640789691.127780,0.504840430,0.473852550,9.744826320,-0.080749400,0.068517030,0.036273900
1640789691.128910,0.500422360,0.788819790,9.325887680,-0.041420760,0.099369880,0.013998150
1640789691.132740,0.034982730,0.789408560,10.385049820,-0.015681980,0.001092250,-0.006385150
1640789691.133090,-0.398324790,0.877389430,10.119269370,-0.030742580,0.022004540,0.017872450
1640789691.137930,-0.593358760,0.527280330,9.488558770,-0.079986480,-0.012978910,0.037312520
1640789691.140680,-1.181913380,-0.135119130,10.253500940,-0.069394710,-0.007998940,0.062958900
1640789691.142820,-1.039944770,-0.486342550,9.293523790,-0.002698600,0.009286400,0.056800250
1640789691.143470,-0.684952560,-0.754482870,9.453161240,0.011764470,0.001688300,0.038802630
1640789691.147950,-0.347702560,-0.739751220,10.072535510,0.000061090,0.075773890,0.028002270
1640789691.149220,0.301198810,-0.322847930,9.877217290,-0.037658210,0.048585230,0.007009510
1640789691.152670,0.680871610,0.031788220,10.282588960,-0.044393540,-0.019076470,0.001259150
1640789691.152980,0.878932710,0.451298390,9.826900480,-0.009968880,0.041596600,0.015185770
1640789691.157800,0.667567910,0.887063680,9.697842600,0.010205810,0.031021240,0.017477570
1640789691.158370,-0.105066770,0.990681050,10.270432470,-0.012417140,-0.032828750,0.027194620
1640789691.162840,-0.519969110,0.876761500,9.402815820,-0.055179000,-0.052529570,0.044827160
1640789691.163510,-0.933340190,0.514654870,9.517821310,-0.061845780,-0.035423040,0.037389990
1640789691.167740,-1.193515780,0.103009640,10.210882190,-0.022876260,0.046470770,0.030229990
1640789691.168150,-0.865553500,-0.006472070,9.956743240,-0.021955370,0.043272970,0.024408100
1640789691.173080,-0.456458990,-0.326161650,10.290408130,-0.033348800,-0.013262040,0.031827390
1640789691.173870,-0.042929320,-0.565104420,9.972781180,-0.019109250,0.028945510,0.064444560
1640789691.178220,0.344268920,-0.404222460,9.369065280,0.000084940,-0.032953920,0.045743590
1640789691.179910,0.316135260,-0.304600360,9.852083210,0.008381900,-0.051435840,0.053586080
1640789691.182680,0.625310360,0.052388850,9.154437070,-0.021226700,0.030973550,0.027085840
1640789691.183080,0.577277240,0.359293940,9.799942970,-0.009176140,0.038123130,-0.021603710
1640789691.188020,0.141395180,0.629395960,10.632454870,-0.000557300,0.044204300,-0.010190900
1640789691.192450,0.035756480,0.968838450,9.495583530,-0.007231530,-0.023603440,0.004765390
1640789691.195280,-0.539022560,0.609807550,9.888947490,-0.011271240,-0.080214430,0.028608740
1640789691.195700,-0.772701800,0.285414040,9.289046290,-0.013189020,0.034607950,0.058382750
1640789691.197760,-0.784518960,-0.169252990,9.305943490,0.020898880,-0.005041060,0.044029950
1640789691.198110,-0.986734030,-0.698772070,10.763065340,0.037585200,0.017458200,0.026161970
1640789691.202810,-0.490622130,-0.476958690,9.852090840,0.030389430,0.022445620,0.009892880
1640789691.203340,-0.268352450,-0.403414580,10.350879670,0.023771820,-0.083848840,0.000543890
1640789691.207840,0.116584490,-0.151351110,9.847779270,-0.003722310,0.029514730,0.022974610
1640789691.209090,0.763168750,0.368193840,8.921822550,0.035969910,0.025202330,0.030997400
1640789691.213250,0.428268130,0.549513460,10.615656850,0.068531920,0.030551850,0.028233230
1640789691.213710,0.507653710,1.116439340,9.595918660,0.016610330,0.022293620,0.025397540
1640789691.217690,0.150419410,1.074833990,9.950227740,-0.034433600,-0.118045520,0.001183150
1640789691.217990,-0.403714360,0.645134930,10.196735380,-0.043126940,0.019648670,-0.011087950
1640789691.223780,-0.378742900,0.546516780,9.071957590,0.008296970,0.026483830,-0.020699200
1640789691.224910,-0.854691740,-0.011123540,10.496658330,0.039729480,-0.021693110,-0.003159050
1640789691.227890,-0.636860910,-0.420760750,9.459451680,0.009027130,0.063537080,0.042155400
1640789691.228380,-0.401161760,-0.840992210,9.566200260,0.025758150,-0.053684420,0.062865030
1640789691.232690,-0.553223490,-1.135741710,10.348615650,0.049100820,-0.005123020,0.051885850
1640789691.233010,0.159893360,-0.792929890,8.992136960,0.067569320,-0.017926100,0.020885470
1640789691.238360,0.247896600,-0.358149890,10.230311390,0.074164570,0.001637640,-0.021067260
1640789691.239820,0.373943390,0.409553260,10.102232930,0.027903920,0.098304470,-0.053450480
1640789691.242860,0.511414110,1.075546740,9.867740630,0.034821030,-0.042647130,-0.049813090
1640789691.243520,-0.034388950,1.276147130,10.174586300,0.049234930,-0.040926050,-0.011520090
1640789691.247700,-0.028859200,1.251351240,8.877208710,0.047391650,-0.019648670,0.034444030
1640789691.248040,-0.595390920,0.730203630,9.920108800,0.064474370,-0.026632850,0.046330700
1640789691.252710,-0.827048720,0.156691060,9.986361500,0.043521820,0.031104690,0.023362040
1640789691.253040,-0.472347800,-0.265436380,9.964236260,0.021409990,-0.024917730,0.008505580
1640789691.261200,-0.720492420,-0.507377920,10.775059700,0.030632320,0.011929870,-0.011037290
1640789691.261790,-0.220645040,-0.521160240,9.703041080,0.016896430,-0.036533180,-0.010177490
1640789691.262710,-0.001457110,-0.201625200,9.704457280,0.044439740,-0.061346600,0.025510790
1640789691.262990,0.246518360,-0.054757550,9.250500680,0.034405290,0.035916270,0.031691790
1640789691.267730,0.591609660,0.230944250,9.604207040,0.045482810,0.023818010,0.037074090
1640789691.268090,0.273519160,0.657266500,10.520346640,0.049336250,0.015985970,0.023365020
1640789691.273790,0.357349160,0.604080020,9.885183330,0.010427830,-0.044840570,-0.010536610
1640789691.274960,0.117749160,0.759047690,10.088871000,0.020562120,-0.035886480,-0.021436820
1640789691.279200,-0.283896450,0.688288510,9.472318650,0.026249890,0.051397090,-0.047530230
1640789691.279830,-0.438338990,0.333587050,9.671461110,0.011053680,-0.024563080,-0.033770500
1640789691.282710,-0.760572310,0.159207340,9.768515590,0.038313870,0.014252960,0.008091330
1640789691.283000,-0.614907620,-0.553248290,9.312586780,0.042334200,-0.030773880,0.015425680
1640789691.288100,-0.713925420,-0.733960870,10.410376550,0.071059180,-0.027975450,0.048537560
1640789691.289820,-0.433075930,-0.653722640,9.771900180,0.065611310,0.011979040,0.025442240
1640789691.294860,0.077935660,-0.728307840,10.190896990,0.058604780,-0.036740310,0.008527940
1640789691.295170,0.153850940,0.200367560,10.419132230,0.068964060,0.062279410,-0.011046230
1640789691.297690,0.417417470,0.701801240,9.542057040,0.034025310,-0.030818580,-0.031681360
1640789691.298040,0.302747550,1.079352970,10.093174930,0.018262870,-0.070734330,-0.008468330
1640789691.302780,0.212266760,1.496228580,8.987156870,0.029596690,0.024673340,-0.021578370
1640789691.303190,0.011219400,1.062910560,9.657729150,0.012759870,-0.037005550,-0.023774800
1640789691.308230,-0.451349080,0.883465830,10.452814100,0.027902430,0.039242210,-0.002063810
1640789691.308840,-0.406569990,0.152525720,9.528500560,0.027452410,-0.010989600,-0.000843410
1640789691.313180,-0.699451740,-0.596045080,10.712033270,0.041998920,-0.070087620,0.025640430
1640789691.313520,-0.622379960,-0.574910340,9.226035120,0.032839170,0.023406750,0.026747590
1640789691.317690,-0.321448830,-1.055044290,9.157958030,0.018417840,-0.075171890,0.008824470
1640789691.318020,-0.352012520,-0.713932810,10.213592530,0.046767300,0.057123610,-0.002700090
1640789691.323070,0.191742640,-0.079186570,9.221373560,0.065298360,0.017748770,-0.051465620
1640789691.324500,0.239718660,0.332090740,10.804154400,0.046527380,-0.072583550,-0.027368960
1640789691.327850,0.405551080,1.004522320,9.809416770,0.034755470,0.050859150,-0.022728740
1640789691.328230,0.460780890,1.008807180,9.466023450,0.031521910,-0.054877990,-0.013454260
1640789691.332730,-0.218413980,1.003095390,10.608413700,0.056456030,-0.003227590,0.013922160
1640789691.333120,-0.196608390,0.955923440,8.708284380,0.042277580,-0.009518860,-0.012931230
1640789691.337930,-0.622162340,0.515379730,9.963024140,-0.014509260,-0.110031660,-0.015319880
1640789691.338610,-0.800073500,0.311070140,9.986705780,-0.038759410,0.076924260,-0.014138220
1640789691.344700,-0.398485000,-0.109977590,9.540285110,-0.026284150,-0.009344520,-0.041891630
1640789691.345400,-0.592709660,-0.395416050,11.207325940,0.025431820,-0.028134890,-0.009459260
1640789691.347740,0.075355610,-0.355861190,9.222464560,0.055946420,0.039915740,0.000171360
1640789691.348090,0.245592460,-0.514232520,9.818339350,0.025449690,-0.072188680,0.026437640
1640789691.353100,0.048826140,-0.144899460,10.174487110,0.006033480,0.021289290,0.040835150
1640789691.353760,0.593694090,0.034668420,8.738809590,-0.005114080,-0.027956070,-0.008603930
1640789691.357800,0.272125270,0.396462470,10.424793240,0.010228160,-0.028423970,-0.049552320
1640789691.358360,0.279784950,1.136866330,9.709948540,0.002086160,0.119915630,-0.068154930
1640789691.362740,0.208231630,1.163131590,9.944665910,-0.041267280,-0.026042760,-0.059740250
1640789691.363160,-0.534665050,0.848696170,10.792133330,-0.020666420,-0.018914040,-0.012701750
1640789691.367740,-0.407266970,0.312668740,8.746403690,0.025846070,-0.037327410,0.007581710
1640789691.368510,-0.842088820,-0.373289440,9.750718120,0.047978760,-0.068929790,0.031702220
1640789691.372840,-0.988648830,-0.619620500,9.834151270,0.016820430,0.073976820,0.025494400
1640789691.374780,-0.468621880,-0.799546780,9.721329690,-0.023420160,-0.006511810,-0.011169910
1640789691.378910,-0.473621310,-0.534495770,11.012514110,0.001059470,-0.025428830,-0.027136500
1640789691.379330,0.223516300,0.066640150,9.536908150,0.005020200,0.021052360,-0.034949180
1640789691.382740,0.532892530,0.580680010,9.647282600,0.001594420,-0.031489140,-0.020094220
1640789691.383110,0.345324640,0.908447270,10.074424740,0.014273820,0.037281220,0.001034140
1640789691.387730,0.601472970,1.107781410,9.153324130,-0.008557740,0.004278120,-0.006794930
1640789691.388210,0.015569470,0.927519500,10.142826080,-0.011079010,-0.070911650,-0.011692940
1640789691.392900,-0.248241660,0.483427020,9.782721520,-0.016827880,0.011077520,-0.022615490
1640789691.393490,-0.364570320,0.207503800,9.525723460,-0.024266540,-0.001159310,-0.050280990
1640789691.397740,-0.860107120,-0.245178950,10.402514460,-0.010816750,-0.003634390,-0.030510130
1640789691.398100,-0.587659960,-0.521658180,9.443646430,-0.012435020,0.033818190,-0.018128750
1640789691.402710,-0.558748960,-0.675288020,9.589615820,0.023987890,-0.037714840,0.004221500
1640789691.403080,-0.577864470,-0.827741320,10.098462100,0.045810640,-0.020246200,0.012433530
1640789691.408080,-0.060683740,-0.437380190,9.339944840,0.041103370,-0.010016560,-0.009363890
1640789691.408830,-0.001819480,-0.096748340,10.264113430,0.035157800,-0.034192200,-0.037816160
1640789691.412720,0.170104060,0.514394160,10.442296030,0.017607210,0.045098360,-0.054498020
1640789691.413120,0.396239010,1.294127820,9.785195350,-0.005844240,-0.022988020,-0.057974470
1640789691.417760,0.027782290,1.449584360,10.283741000,-0.015425680,-0.081275410,-0.036951900
1640789691.418120,0.220806150,1.495682360,8.994197850,-0.026761000,0.013087690,-0.008761880
1640789691.422670,-0.012593400,0.924329280,9.335240360,-0.003877280,-0.017173590,-0.018222630
1640789691.423020,-0.459890720,0.219126880,10.402194020,-0.007748610,0.021432340,-0.014542050
1640789691.427790,-0.268792750,-0.200516270,9.535330770,-0.021028520,-0.005903840,-0.017277900
1640789691.428840,-0.702152310,-0.975511610,10.530985830,-0.016517940,-0.092202430,-0.029650330
1640789691.432910,-0.683732690,-1.001754520,9.916991230,-0.008848310,-0.023642180,-0.019873680
1640789691.433780,-0.270660820,-0.789636850,8.978514670,0.009293850,-0.050368920,-0.027075420
1640789691.438420,-0.334399520,-0.565401670,10.123248100,0.010237100,0.008222460,-0.029453640
1640789691.438950,0.304488240,0.333757430,9.365768430,0.014157590,0.064516070,-0.027999280
1640789691.442880,0.400674280,0.734318380,10.224364280,0.005488100,-0.069108610,-0.033685570
1640789691.443520,0.470204920,1.096464630,10.197241780,-0.023949150,0.001195070,-0.018665200
1640789691.447800,0.703101870,1.207178240,9.231333730,0.000451510,0.010386110,-0.017485020
1640789691.448730,-0.101679030,0.746897880,10.792776110,0.017330050,-0.019840900,-0.018288200
1640789691.452710,-0.266338650,0.729214130,9.607745170,-0.013582410,-0.008618830,-0.012895460
1640789691.453020,-0.513961140,0.160280210,9.386789320,-0.041937830,-0.094908480,-0.015407800
1640789691.458110,-0.918218790,-0.370584610,10.049448970,-0.050361470,0.016599890,-0.022089480
1640789691.458940,-0.480842770,-0.230205890,9.276613240,-0.024391710,0.036364790,-0.035899880
1640789691.462750,-0.532267930,-0.478855670,10.622322080,-0.024077300,-0.030465430,-0.037494300
1640789691.463270,-0.010949950,-0.242266640,9.926149370,-0.021983680,0.039088730,-0.016184150
1640789691.467780,0.258703590,0.008052360,9.779296880,-0.002720950,-0.029562410,-0.001136960
1640789691.468100,-0.004467420,0.121109120,10.321928020,-0.020162760,-0.045897060,0.015468900
1640789691.472740,0.461887480,0.616891860,8.900017740,-0.024750830,-0.031898920,0.006866460
1640789691.473120,0.305862610,0.653687830,9.614967350,-0.041432670,0.011149050,-0.021173060
1640789691.477770,0.250666410,0.876032650,9.914437290,-0.063690540,0.107513370,-0.035530330
1640789691.478250,0.253363610,0.905590300,10.051131250,-0.037977100,0.024561590,-0.037093460
1640789691.482690,-0.250530180,0.384090690,10.417163850,-0.043058390,-0.029361250,-0.020354990
1640789691.483070,-0.316523190,0.055744570,9.378658290,-0.031585980,-0.044423340,0.019833440
1640789691.487680,-0.649029730,-0.494004040,9.452350620,-0.017662350,-0.003299120,0.010658800
1640789691.487990,-0.825489280,-0.804700140,9.775744440,-0.036732850,0.031398240,-0.004792210
1640789691.492820,-0.707315210,-0.639575540,10.102218630,-0.007788840,-0.003471970,-0.016729530
1640789691.493380,-0.558671650,-0.395398440,10.212519650,-0.014585260,-0.021435320,-0.040031970
1640789691.498020,-0.035016160,0.268872680,9.824498180,-0.042562190,-0.026276710,-0.017833710
1640789691.498830,0.283464730,0.801240860,9.852623940,-0.040051340,0.037029390,0.013415520
1640789691.502710,0.601586160,0.795192060,9.803927420,-0.038464370,0.052745640,0.018846990
1640789691.503080,0.675736840,0.988426980,10.052380560,0.003759560,0.007648770,0.036387150
1640789691.508080,0.477437940,0.798435690,9.733232500,-0.013469160,0.010469560,0.013513860
1640789691.509290,0.125601430,0.317811550,9.698446270,-0.065419080,-0.048066680,-0.000782310
1640789691.514370,-0.369803430,0.092869970,9.798852920,-0.059458610,-0.002969800,-0.023417170
1640789691.514840,-0.545646070,-0.350980010,9.208155630,-0.055405490,0.034275650,-0.055491920
1640789691.517730,-0.750222980,-0.494232420,10.028864860,-0.022739170,0.012442470,-0.018379090
1640789691.518030,-0.737121340,-0.456540610,9.881024360,0.009936090,0.068902970,0.009784100
1640789691.522680,-0.482007030,-0.662454070,9.950600620,-0.000266730,-0.038079920,0.033389040
1640789691.523100,-0.387534260,-0.171282860,10.305951120,-0.003494320,-0.030617420,0.052928920
1640789691.527830,0.149099440,-0.172316940,9.286829950,-0.006611650,0.030767910,0.019632280
1640789691.528660,0.360392450,0.153893630,10.254957200,0.035467740,0.017426910,-0.003373620
1640789691.532740,0.357046990,0.938101230,10.188863750,0.029389560,0.094503150,-0.024405120
1640789691.533070,0.528911110,1.067411180,9.577606200,-0.046670440,-0.032700600,-0.019626320
1640789691.538770,0.069181340,1.061032890,10.184887890,-0.057725600,-0.038599960,0.022031360
1640789691.539130,0.021283090,0.801719730,8.895361900,-0.031569590,0.052975110,-0.001905860
1640789691.543180,-0.386535560,0.258483740,10.063026430,-0.007805230,-0.024689730,0.008122620
1640789691.543940,-0.794865970,0.085156000,10.287350650,-0.011324880,0.064449020,0.020033120
1640789691.548000,-0.574744460,-0.527694640,9.534211160,-0.046278550,-0.018128760,-0.001667440
1640789691.548730,-0.868028760,-0.598662140,10.694545750,-0.036290300,-0.046852240,0.032800440
1640789691.552680,-0.372500360,-0.339197960,9.091743470,-0.036261980,0.027604410,0.027576090
1640789691.553020,0.118793990,-0.484024080,9.558069230,-0.009509920,-0.021955370,0.032992660
1640789691.558090,0.240277750,0.156734940,10.188524250,0.013978780,0.117003930,0.029332940
1640789691.559060,0.851515650,0.464448150,9.354209900,-0.009121000,0.040081150,-0.000713770
1640789691.562800,0.529743550,0.562083070,10.788277630,-0.023873150,-0.036436320,0.018382080
1640789691.565180,0.505478080,0.701400100,9.267015460,-0.032664840,0.064703830,0.012362000
1640789691.567700,0.119754180,0.304021450,9.631441120,-0.004635750,-0.035044550,-0.001187620
1640789691.568030,-0.800793710,0.320442050,10.275522230,0.024668870,0.042521950,0.017674260
1640789691.572810,-0.736038210,0.204654410,8.792058940,-0.019033260,-0.009757280,-0.008104740
1640789691.573190,-1.250463960,-0.152861460,10.576077460,-0.048471990,-0.056147590,0.017379230
1640789691.578000,-1.005019070,-0.043527450,9.675383570,-0.042174760,0.081542140,0.017714500
1640789691.578700,-0.379430500,-0.153767290,9.886068340,-0.007222590,-0.034961100,0.013051930
1640789691.582750,-0.298155340,-0.111057010,10.985052110,0.031995770,0.052696480,0.050579020
1640789691.583120,0.609179680,0.236350270,9.088084220,0.012357530,0.026486810,0.023888050
1640789691.587700,0.630432370,0.251313980,10.328046800,-0.017423930,-0.053139030,0.045548380
1640789691.588170,0.598601460,0.475619970,9.631469730,-0.052134700,0.071930890,0.026239450
1640789691.594150,0.756361780,0.526055510,9.117569920,-0.032596290,-0.034157920,-0.009849670
1640789691.594900,-0.004360810,0.470230880,10.604695320,0.006894770,0.019997360,-0.013569000
1640789691.598910,-0.052300300,0.621285500,8.918870930,-0.025992100,0.069300840,-0.016455350
1640789691.599290,-0.585261820,0.175824640,10.267324450,-0.043159720,-0.048545010,0.017675760
1640789691.602720,-1.106056810,-0.179170580,10.117702480,-0.026543440,0.043956940,0.053499640
1640789691.603210,-0.802036760,-0.442657530,8.976079940,0.003747640,-0.063958760,0.033505260
1640789691.608060,-1.029732580,-0.643559100,10.619768140,0.031797580,-0.018292660,0.044111900
1640789691.609890,-0.285542670,-0.559659420,9.251187320,0.015354160,0.091445450,0.009715560
1640789691.612860,0.237012830,-0.195966870,10.262847900,0.008225440,-0.015757980,-0.028297310
1640789691.613420,0.352164450,0.310269420,10.632090570,-0.001817940,0.071762490,-0.004588070
1640789691.617670,1.068867680,0.625590980,8.985508920,-0.010631980,0.001135470,-0.001807510
1640789691.617970,0.522764980,0.693315270,10.492913250,0.032924120,-0.021560490,0.022408370
1640789691.623140,0.306667890,0.741985740,9.192546840,0.018751620,0.055430840,0.029098990
1640789691.624240,-0.063045390,0.662672280,9.525828360,-0.006879870,-0.068362060,0.016561150
1640789691.627820,-0.990858020,0.385642200,10.672694210,-0.028629600,0.018487870,0.026918950
1640789691.628340,-0.766868050,0.186753350,9.212014200,-0.045162450,-0.000141560,0.017137830
1640789691.632690,-1.053247570,0.062814430,10.582791330,-0.012405220,-0.037394460,0.014875830
1640789691.633090,-0.806928220,-0.203503330,9.819245340,-0.009350480,0.068712250,0.036430360
1640789691.637820,-0.059512600,-0.273111430,9.350161550,0.011146070,-0.018629430,0.031568110
1640789691.638440,-0.019811410,-0.162360220,10.429983140,0.015799700,0.031043590,0.043967370
1640789691.643240,0.741469860,-0.213831620,9.218803410,-0.022172930,0.039988760,0.026533010
1640789691.644220,0.759200630,-0.153987780,10.196633340,0.016629700,-0.030711290,0.009368360
1640789691.647800,0.508073750,0.069049760,9.864986420,0.047229240,0.057505080,-0.015036760
1640789691.648170,0.586269680,0.412564810,9.091432570,-0.003834070,-0.010019540,-0.014288730
1640789691.652680,-0.352532740,0.563664730,10.112587930,-0.018033390,0.017198920,0.011728700
1640789691.653000,-0.648954690,0.274412600,9.380589490,-0.003653760,0.002832710,0.022678080
1640789691.657830,-1.007936720,0.293913010,9.926244740,0.043182090,-0.063417850,0.034590080
1640789691.658350,-1.181385640,0.047726550,10.050249100,0.038029250,0.032857060,0.044167030
1640789691.663490,-0.592091380,-0.316137160,9.873856540,0.020326680,0.037957720,0.039507440
1640789691.664210,-0.470410560,-0.163003490,10.680103300,0.050693750,0.048270820,0.022675100
1640789691.667670,0.081215100,-0.042127320,9.823115350,0.017006700,0.001320240,-0.004094840
1640789691.667970,0.577443480,0.243856270,9.587532040,0.005842750,-0.047251580,0.009091200
1640789691.673150,0.554213110,0.426832260,9.380346300,0.021721420,0.042973460,-0.013393160
1640789691.674680,0.694132210,0.511005340,9.558564190,-0.002744790,0.011633340,-0.015369060
1640789691.677830,0.243063140,0.796297370,10.184730530,0.009118020,0.022101400,0.013892350
1640789691.678600,-0.141337100,0.421975370,9.978778840,-0.007043780,-0.016239290,0.020337110
1640789691.682740,-0.572424470,0.218587250,10.190645220,-0.003445150,-0.042888520,0.052365660
1640789691.683160,-1.047904370,0.061041030,9.523927690,0.017014150,-0.030693410,0.047807400
1640789691.687780,-0.876689670,-0.401480320,9.395011900,-0.005610290,-0.058406600,0.043195490
1640789691.688760,-0.607627510,-0.232141760,9.673266410,0.017678740,0.078913580,0.028866530
1640789691.693160,-0.187660460,-0.283896740,9.923941610,0.014109910,0.059050320,-0.021748250
1640789691.694040,0.204848830,-0.128677040,10.768127440,0.022225080,-0.003804270,-0.013901300
1640789691.697790,0.542839290,0.254610690,9.688162800,0.043246150,-0.010873380,-0.008144970
1640789691.698280,0.652312580,0.108639140,9.563122750,0.014662740,-0.053109230,-0.002966820
1640789691.702700,0.312340080,0.446446750,9.686853410,0.030760470,0.052726270,0.027763850
1640789691.703090,-0.044338690,0.378196150,9.291942600,0.038181250,-0.018568340,-0.001041590
1640789691.707750,-0.500827190,0.428283070,10.323492050,0.016316770,-0.073514890,0.015790760
1640789691.708160,-0.619724690,0.801689150,9.506122590,-0.010958320,0.026959180,0.014701490
1640789691.712860,-0.743929510,0.313797650,10.163686750,-0.041164460,-0.020192560,0.009587410
1640789691.713600,-0.667299330,0.263766830,10.690487860,0.008493660,0.052733730,0.038059070
1640789691.717680,-0.231417240,-0.009814760,9.500844960,0.066857040,0.000560280,0.030246380
1640789691.717990,-0.138107660,-0.318058430,10.324049000,0.050207970,-0.054620210,0.038433080
1640789691.722660,0.271911740,-0.011931660,9.226800920,-0.002856550,0.055187940,0.041508670
1640789691.723030,0.547367870,-0.357998580,9.350226400,-0.037857890,-0.028277940,-0.001205500
1640789691.727860,0.426740380,-0.097098880,10.397656440,0.010454650,0.038285560,-0.027440490
1640789691.728450,0.590080500,0.360841330,9.142926220,0.060318420,0.062671310,-0.043646990
1640789691.732710,-0.000058420,0.442298650,10.466490750,0.017404560,-0.048969690,-0.020368400
1640789691.733060,-0.468007150,0.654904190,9.883167270,-0.018133220,0.008869170,0.029824680
1640789691.737790,-0.710466380,0.092493330,9.113957410,0.006166100,-0.092099610,0.037644800
1640789691.738260,-1.185814740,-0.174352200,10.355318070,0.056464970,-0.042077900,0.046844780
1640789691.743070,-0.720296030,-0.175713960,9.199582100,0.085046890,0.081031020,0.026276710
1640789691.744370,-0.427728710,-0.391655240,10.500760080,0.041246420,-0.002855060,-0.002795460
1640789691.748040,-0.115575640,0.020146990,10.849376680,0.006404520,0.054799030,-0.000824030
1640789691.748660,0.714281560,0.208964530,9.132176400,0.005714600,-0.028017170,-0.008481740
1640789691.752790,0.612025080,0.314874890,10.066023830,0.034035750,-0.042645630,-0.002102550
1640789691.753340,0.652750370,0.725656210,9.185522080,0.064526510,0.078153610,-0.008434060
1640789691.757700,0.399151530,0.631288410,9.504278180,0.021287800,-0.047923630,-0.028443340
1640789691.758110,-0.398959040,0.572596310,10.577340130,-0.012102720,-0.031794610,-0.009499490
1640789691.762720,-0.465629160,0.414997520,9.402568820,-0.010249020,-0.007265810,-0.013014680
1640789691.764100,-0.907819510,0.132734730,10.244817730,-0.008852780,-0.065027180,-0.004635750
1640789691.767740,-0.910753370,0.058349740,9.980851170,0.018893180,0.037947300,0.032399590
1640789691.768600,-0.322443070,-0.290726540,9.102857590,0.032792990,0.030530990,0.044243040
1640789691.772710,-0.267735600,-0.458113280,10.306036950,0.060485310,0.013628600,0.034634770
1640789691.773070,0.289854170,-0.206900690,9.689309120,0.036479540,0.042592000,0.028131910
1640789691.777880,0.625589310,-0.337537850,9.707079890,0.004769860,-0.034260750,0.007157030
1640789691.778720,0.432893460,-0.240469960,10.253564830,0.057710720,0.016640130,-0.020049510
1640789691.782670,0.451421650,0.270111290,9.300802230,0.076110660,0.037556890,-0.048744680
1640789691.783030,-0.110466230,0.618550300,9.846690180,0.032515830,-0.043277440,-0.038161870
1640789691.787710,-0.576510850,0.813689470,9.757113460,-0.004296010,-0.018893180,-0.008168820
1640789691.788060,-0.620966020,0.782877210,9.073655130,-0.009411580,-0.033152110,0.003099440
1640789691.793110,-1.021230460,0.558467510,10.323171620,0.034646690,-0.039491060,0.016988810
1640789691.793950,-0.771198630,0.344601180,10.096828460,0.051158670,0.058597330,0.024218860
1640789691.797660,-0.366778220,-0.067753140,10.208469390,0.034199660,-0.012721120,0.022588670
1640789691.797960,-0.334941660,-0.319165140,10.938632970,0.036288800,-0.036482510,0.031839310
1640789691.802720,0.410094200,-0.165185560,9.100262640,0.002887850,-0.014364720,0.020700690
1640789691.803080,0.569308640,-0.245687530,9.471798900,0.008328260,-0.057207050,0.010959800
1640789691.807760,0.574615660,0.041660570,9.676317210,0.033095480,0.071027880,-0.013110040
1640789691.808210,0.751961170,0.490208300,9.109134670,0.020776690,0.017753250,-0.053650140
1640789691.812730,0.013423490,0.631651400,10.752952580,-0.001466270,-0.058659900,-0.024437900
1640789691.813220,-0.222165700,0.787928520,9.574234010,-0.016477700,0.004065040,-0.014819210
1640789691.817860,-0.722361510,0.605952500,9.612118720,-0.015246870,-0.105005500,-0.001877550
1640789691.818290,-1.347673300,0.250110980,10.295799260,0.005958980,-0.026687980,0.035236780
1640789691.822720,-0.808235650,-0.086465980,8.619899750,0.024890900,0.022891160,0.018957260
1640789691.823060,-0.883109870,-0.408158060,10.526408200,0.057533390,-0.054642560,0.014628470
1640789691.827830,-0.218849450,-0.232062740,9.981431010,0.000128150,0.064253810,0.008696320
1640789691.828460,0.719821330,-0.326869070,9.422163960,-0.031520430,-0.049610440,-0.006759170
1640789691.833060,0.634569050,-0.379341750,10.874470710,0.035963950,0.014068180,0.011324880
1640789691.833630,1.083609220,0.092095790,9.064901350,0.078167030,0.059452650,-0.013005730
1640789691.837760,0.461883160,0.458676870,10.258154870,0.055678190,-0.110584500,-0.013816360
1640789691.838220,-0.353771870,0.805575970,9.912457470,-0.034531940,-0.038099290,-0.001385810
1640789691.842930,-0.361996170,0.924051520,8.488614080,-0.064258290,-0.101245960,-0.026683510
1640789691.844530,-1.262002470,0.835672740,10.553787230,-0.012913350,-0.032293800,-0.002290310
1640789691.849400,-0.908732590,0.875030580,9.432064060,0.009654460,0.096422440,0.009401140
1640789691.850310,-0.648054420,0.372529920,10.442505840,0.012739010,-0.061221430,0.034378470
1640789691.852670,-0.556848110,-0.139081750,10.757294650,-0.005058940,-0.007553400,0.063271820
1640789691.853040,0.550781670,-0.601521550,8.731587410,-0.006684660,-0.035156300,0.039355460
1640789691.857700,0.436812160,-0.985816840,10.263997080,0.028012690,-0.030300020,0.023010370
1640789691.858060,0.737280850,-0.798143800,9.432047840,0.039276490,0.076963010,-0.013944510
1640789691.862820,0.968138870,-0.338594680,9.443408010,0.029179450,-0.059609130,-0.060780350
1640789691.863300,0.152482900,0.257564510,10.360733990,-0.014299160,0.004312400,-0.035870080
1640789691.867760,0.032997950,0.772787810,9.087729450,-0.028593840,-0.026589640,-0.019161410
1640789691.868180,-0.825150190,0.931878390,10.185381890,0.021739310,-0.086657710,0.003992020
1640789691.872720,-1.251927730,1.032969710,9.756244660,0.035043060,-0.017972290,0.025050340
1640789691.873080,-0.922561230,0.908409180,9.440750120,0.008492170,-0.041906540,0.028783080
1640789691.877830,-1.179707290,0.422654150,10.810218810,-0.016501550,0.022557380,0.035235290
1640789691.878380,-0.441060960,0.121849960,9.924748420,-0.030618910,-0.000067060,0.018855930
1640789691.883560,0.172538430,-0.151670620,10.127941130,0.000002980,-0.074890260,0.015562780
1640789691.884150,0.526492180,-0.473264130,9.672241210,0.009606780,0.017084180,0.024969880
1640789691.887690,1.216845990,-0.388134030,9.153549190,0.017374750,-0.002108510,0.007423760
1640789691.888010,0.803971290,-0.204960440,10.162876130,-0.003302100,0.026360160,-0.016069410
1640789691.892710,0.573224780,0.014960040,9.727779390,-0.036430360,-0.044183430,-0.018814200
1640789691.893630,-0.000326550,0.366578790,9.927840230,-0.015914440,-0.078293670,-0.024721030
1640789691.897980,-0.790520370,0.535294180,9.686019900,0.001931190,-0.036028030,-0.025266410
1640789691.900700,-0.973848220,0.781828170,9.531315800,-0.013619660,-0.053641210,0.005930660
1640789691.902690,-1.238001470,0.596368130,9.883265500,-0.007174910,0.029014050,0.028350950
1640789691.902980,-0.985982660,0.034707820,9.911355020,0.000447030,-0.006018580,0.036625560
1640789691.907730,-0.513965310,-0.124565740,10.289868350,0.049118710,-0.031791630,0.043323650
1640789691.908080,0.060253860,-0.508426130,9.612658500,0.037127740,-0.017525260,0.017514820
1640789691.913230,0.770422100,-0.694007400,9.784972190,0.013916190,-0.019101800,0.006927550
1640789691.913920,0.940063420,-0.338875860,9.924901010,0.025455660,0.092980270,-0.017970800
