# timestamp,accel_x,accel_y,accel_z,gyro_x,gyro_y,gyro_z
1640844796.771940,-0.242766040,-0.039728130,9.615778920,0.021651390,0.022850930,0.072784720
1640844796.772450,-0.212210370,-0.488877950,9.705138210,0.024008750,-0.066536660,0.057691340
1640844796.777060,-0.061912450,-0.400720270,9.288928990,0.090003020,-0.059130800,0.062675770
1640844796.777740,-0.076060040,-0.246061100,9.053613660,0.102730100,-0.028364360,0.052735210
1640844796.781900,-0.167169290,-0.162969920,9.619323730,0.040768080,-0.013460220,0.024229290
1640844796.782420,-0.203390090,0.097149900,9.692766190,0.050871080,-0.026993450,0.026172400
1640844796.787120,-0.356118410,0.041552260,9.573253630,0.100822740,-0.076945110,0.016559660
1640844796.788440,-0.446578350,0.043715320,9.485723500,0.141665340,-0.096051420,0.024427480
1640844796.792190,-0.730396510,0.262303350,9.532155040,0.148692740,-0.090201220,0.038200620
1640844796.793070,-0.645166160,0.111563330,9.351386070,0.071135160,-0.086469960,0.041368600
1640844796.797010,-0.390346650,0.118051220,9.400586130,0.080022210,-0.084033610,0.068192170
1640844796.797780,-0.233436630,0.156400760,9.549306870,0.122413050,-0.031687320,0.044836110
1640844796.804890,0.042979450,0.194621070,9.802246090,0.127522620,-0.084255620,0.016663970
1640844796.805460,-0.120929460,0.433551790,10.141275410,0.114467730,-0.130291280,0.039699680
1640844796.807320,0.009895130,0.187682300,9.110234260,0.074043870,-0.126349940,0.016967950
1640844796.808980,-0.083063440,0.139888750,9.506808280,0.099457790,-0.133885410,0.024156270
1640844796.812150,-0.400851940,0.487423930,9.725337980,0.113832960,-0.061863660,0.028665360
1640844796.814170,-0.191199910,0.283572410,9.298346520,0.072777280,-0.129598380,0.021433830
1640844796.817180,-0.391365590,0.325767760,9.957977290,0.082801280,-0.144137460,0.042024260
1640844796.818380,-0.307716100,0.294019640,9.156491280,0.094453990,-0.060494250,0.012044610
1640844796.825530,-0.317811550,0.260912900,9.763532640,0.088730440,-0.170244250,0.026568770
1640844796.827190,-0.467171430,0.525097970,9.767663960,0.068330770,-0.123217700,0.040136280
1640844796.827910,0.133394900,0.057296460,8.701923370,0.027176740,-0.117200620,0.007915500
1640844796.829220,-0.108748530,-0.033256330,10.046471600,0.096713010,-0.109243390,0.021336970
1640844796.832010,-0.142259270,0.059157350,9.455183030,0.149668770,-0.071786350,0.006726390
1640844796.832680,-0.083379250,-0.215602710,9.597988130,0.087293970,-0.233355150,0.012421610
1640844796.837030,-0.293735890,-0.078873900,9.551769260,0.053173310,-0.148366390,0.033302610
1640844796.840240,0.124543840,-0.316766650,8.462339400,0.075303010,-0.078812230,-0.001917780
1640844796.841990,-0.167791160,-0.201903750,9.998831750,0.141547620,-0.094893570,0.007630890
1640844796.842600,-0.203508180,0.178015220,9.764127730,0.172351320,-0.056125230,0.001828370
1640844796.847050,-0.276432630,-0.006918820,9.691492080,0.098115210,-0.240905600,-0.013755260
1640844796.848110,-0.600083710,0.106595520,9.507567410,0.114075850,-0.210349260,0.019235910
1640844796.852030,-0.316909310,0.045627940,8.340950010,0.139509110,-0.118787570,-0.007233020
1640844796.852700,-0.492232530,0.004747910,9.841671940,0.160723920,-0.101041800,-0.009085240
1640844796.856990,-0.489411740,0.325195250,10.222028730,0.176627930,-0.091673440,0.002105530
1640844796.857710,-0.096712040,0.242752460,9.523932460,0.127513710,-0.233070600,-0.006140770
1640844796.861990,-0.142573910,0.212197450,9.593780520,0.123748180,-0.200498100,0.014431780
1640844796.862900,-0.005857210,0.359777900,9.054929730,0.133685770,-0.110778220,-0.002703070
1640844796.867120,-0.107951090,0.254561600,9.646768570,0.139085960,-0.156381730,-0.008814040
1640844796.867850,-0.147767650,0.257143710,10.061352730,0.151528420,-0.176496820,0.017535690
1640844796.872310,0.056256610,0.145396980,9.215972900,0.143995880,-0.156816840,0.002025070
1640844796.873380,-0.235595790,0.045887620,9.876997950,0.129306300,-0.187502800,-0.010135770
1640844796.876920,-0.585051660,0.322561560,10.063418390,0.114157800,-0.161913050,0.016289950
1640844796.880050,-0.359992620,0.166975040,9.029466630,0.097841030,-0.223547220,-0.005137920
1640844796.881960,-0.295830400,0.143863130,9.467290880,0.136290490,-0.193257600,0.008313360
1640844796.886570,-0.121092490,0.519099300,9.099099160,0.147363560,-0.073370340,0.000135600
1640844796.887290,0.043222670,0.480745640,9.667701720,0.088907780,-0.168989610,-0.013333560
1640844796.888950,-0.251094520,0.297340720,10.452670100,0.076220930,-0.194244100,0.021944940
1640844796.891910,0.069160730,0.014112330,8.933686260,0.139215590,-0.223173200,-0.000183280
1640844796.892380,-0.069937470,-0.166569650,9.383180620,0.167314710,-0.219513490,-0.007487830
1640844796.896920,-0.157201010,0.094198230,9.261362080,0.135374080,-0.063191350,0.014840070
1640844796.897440,0.010211540,-0.188550350,9.445519450,0.074073670,-0.155589030,-0.010202830
1640844796.902060,-0.292722080,-0.255356550,10.271380420,0.124353170,-0.220513340,-0.003595650
1640844796.903280,-0.106935120,0.003746830,8.780899050,0.187332940,-0.186878440,-0.007146600
1640844796.907100,-0.275780650,-0.032165180,9.325818060,0.165590640,-0.200766340,-0.026831030
1640844796.907680,-0.547966840,0.304491700,9.890144350,0.126335020,-0.122214860,-0.012256210
1640844796.912080,-0.306804330,0.312460330,9.351946830,0.098718710,-0.187346350,-0.023677950
1640844796.913460,-0.327923720,0.153526590,9.837265970,0.152379290,-0.224077700,-0.016102200
1640844796.917430,-0.316627470,0.476458850,9.387240410,0.191879290,-0.155979390,-0.007095930
1640844796.919000,-0.175510660,0.474613760,9.307202340,0.128039730,-0.212384730,-0.024688240
1640844796.922880,-0.285801740,0.425602730,9.825251580,0.082567340,-0.201983760,0.000268220
1640844796.923450,0.007477800,0.433155630,9.257424350,0.089737760,-0.175297280,-0.011524560
1640844796.926970,0.161164220,0.299115420,9.601095200,0.129786130,-0.184218600,-0.023889540
1640844796.927400,-0.107063870,0.540069280,10.254517560,0.123471010,-0.187377650,-0.010019540
1640844796.931920,-0.025043100,0.430986290,9.271527290,0.061412160,-0.203964130,-0.026077030
1640844796.932500,-0.190478150,0.044981580,9.656400680,0.072805580,-0.265507340,-0.014978650
1640844796.937170,-0.472830150,0.276665750,9.492070200,0.107830790,-0.149689610,0.002621110
1640844796.937970,-0.210812400,0.181430070,9.123743060,0.086097400,-0.198303150,-0.017440320
1640844796.941940,-0.377052310,0.177876290,10.176642420,0.068947680,-0.209806870,0.021344420
1640844796.942410,0.022223140,0.255638000,8.973610880,0.070898240,-0.128217040,-0.010868910
1640844796.946990,0.159685310,0.109325620,9.655041690,0.081284350,-0.212332610,-0.024624170
1640844796.947570,-0.389741930,0.358573020,10.290154460,0.087296960,-0.168074680,0.004877150
1640844796.952510,0.092425880,0.129779590,8.813905720,0.062285360,-0.256744030,-0.030478840
1640844796.953560,-0.194698840,-0.085982780,9.664433480,0.077779580,-0.243037940,-0.021699070
1640844796.956930,-0.141594890,0.147779420,8.923758510,0.100922580,-0.077968840,-0.024577980
1640844796.957470,-0.039764810,-0.062952650,9.726592060,0.082831090,-0.187179450,-0.035420060
1640844796.961900,-0.591327010,0.003221670,10.701766970,0.091241300,-0.219398740,-0.000150500
1640844796.962410,-0.045877490,-0.071977460,8.700900080,0.096896290,-0.246995700,-0.021037460
1640844796.967570,-0.227379310,-0.152502880,9.357418060,0.113148990,-0.228939970,-0.008489190
1640844796.969560,-0.295750530,0.228591350,9.411623950,0.108104940,-0.079844900,-0.019925830
1640844796.971980,0.020502890,0.257750300,9.589050290,0.062388190,-0.184866790,-0.052982570
1640844796.972500,-0.396442740,0.225629370,10.595517160,0.096926120,-0.267067610,-0.020356480
1640844796.976910,-0.033848510,0.351570280,8.974065780,0.128358620,-0.220090120,-0.029003620
1640844796.977450,-0.158817560,0.369004100,9.378051760,0.106520960,-0.229629870,-0.035002830
1640844796.982070,-0.486791310,0.502154290,10.159786220,0.065736470,-0.137883420,-0.002929570
1640844796.983450,-0.092841250,0.431037840,9.401616100,0.035512450,-0.200027240,-0.021865960
1640844796.987060,-0.020002920,0.300444300,9.765205380,0.095061960,-0.264957580,-0.017175080
1640844796.988040,0.104083280,0.530635480,9.416351320,0.087338670,-0.135725750,-0.021487470
1640844796.991910,0.227834820,0.552850070,9.323891640,0.020855670,-0.154042290,-0.034822520
1640844796.992430,-0.296610500,0.338778230,10.635856630,0.016102200,-0.230290030,-0.002154710
1640844796.996950,-0.089440060,0.263103490,9.180620190,0.039793550,-0.211310400,-0.020253660
1640844796.997490,0.012020480,0.213254710,9.046197890,0.064863270,-0.232164590,-0.024580960
1640844797.002460,-0.381231900,0.419091050,10.080999370,0.016072390,-0.110438450,0.005339090
1640844797.003660,0.160282030,0.290640090,9.075052260,-0.027632720,-0.120531040,-0.007519130
1640844797.007390,-0.081060180,0.089509680,10.281228070,0.011494760,-0.238092260,-0.009502470
1640844797.008000,-0.013092070,0.417411420,9.289562230,0.049556790,-0.135341300,-0.010412930
1640844797.012040,0.208195910,0.361721900,8.964842800,-0.002554060,-0.211647170,-0.028617680
1640844797.013460,-0.319197300,0.200145080,10.189003940,-0.034387410,-0.143758950,-0.009377300
1640844797.018550,0.116372090,0.040255430,8.837281230,-0.001880530,-0.109153990,-0.035431980
1640844797.021280,-0.100655320,0.011197150,9.887561800,0.049191720,-0.208333150,-0.033117830
1640844797.021940,-0.367007730,0.105528310,9.894433980,0.034682450,-0.105699900,-0.007882710
1640844797.022420,0.027830900,-0.026568320,9.098437310,-0.014354290,-0.204625730,-0.033013530
1640844797.026970,-0.398575840,-0.138080660,9.949809070,0.015431650,-0.191588700,-0.008873640
1640844797.027510,0.102378010,-0.013286480,8.733938220,0.033284730,-0.074538590,-0.022690000
1640844797.032000,0.013419530,0.233377920,9.886253360,0.033555920,-0.116232040,-0.036275390
1640844797.032620,-0.329329100,0.383390870,10.497903820,0.013190510,-0.131517620,-0.027050080
1640844797.037030,0.013702810,0.350145370,9.102350230,-0.000910460,-0.242272050,-0.027211010
1640844797.037860,-0.279825390,0.234931470,9.346105580,0.037854910,-0.187736750,-0.028941040
1640844797.041910,-0.308177470,0.258544920,9.533167840,0.044551490,-0.053352120,-0.027045610
1640844797.042460,-0.177674710,0.455361460,9.812346460,0.001582500,-0.145187970,-0.033536550
1640844797.047500,-0.177104030,0.327508630,10.105026250,-0.022350250,-0.175423890,-0.019146500
1640844797.048800,0.255979480,0.385620800,9.207486150,-0.036929560,-0.120630880,-0.028601290
1640844797.052190,0.215978950,0.570709820,9.526355740,-0.011810660,-0.106608870,-0.048936910
1640844797.053210,-0.053541610,0.572516800,10.287978170,-0.028939550,-0.109584650,-0.031876560
1640844797.056930,0.112302890,0.530326310,9.410858150,-0.059333450,-0.152786090,-0.025923560
1640844797.057520,-0.031812230,0.300568820,9.590842250,-0.039425490,-0.175166140,-0.022535030
1640844797.061990,-0.153237880,0.260105040,9.591183660,-0.054602330,-0.056071590,-0.014787920
1640844797.063320,0.025580370,0.365946950,9.410773280,-0.069502000,-0.089015050,-0.004434590
1640844797.066940,-0.369139910,0.068980790,10.393961910,-0.080311300,-0.129129010,-0.011731690
1640844797.067460,0.051650410,0.088006590,9.130732540,-0.053651630,-0.098030270,-0.024870040
1640844797.072850,0.079534310,0.227796200,9.383636470,-0.047463180,-0.131514680,-0.020554660
1640844797.073500,-0.123405270,0.209369880,9.769541740,-0.097669670,-0.027658050,-0.026039780
1640844797.076920,0.293543430,0.164987830,9.272325520,-0.097265840,-0.078146170,-0.021556020
1640844797.077470,-0.151382880,0.046828310,10.159923550,-0.033986570,-0.120075070,-0.026233490
1640844797.081940,-0.048645330,-0.071163140,9.326057430,-0.023998320,-0.075981020,-0.015446550
1640844797.082470,-0.169998560,-0.034337150,9.570914270,-0.036716460,-0.134490400,-0.005921720
1640844797.087100,-0.403524670,-0.132745280,9.639925000,-0.066867480,-0.057697300,-0.009435420
1640844797.089480,0.036818820,-0.110832040,9.124663350,-0.074690580,-0.065894430,-0.021342930
1640844797.091960,-0.189291690,0.062177160,9.938218120,-0.011226540,-0.037820640,-0.020198530
1640844797.092420,-0.055716750,0.003482640,9.744915010,-0.001399220,-0.058557100,-0.041833520
1640844797.096950,-0.064303690,0.202446610,9.804172520,-0.018839540,-0.138984620,-0.022301080
1640844797.097520,-0.267058220,0.135370270,9.531295780,-0.022527580,-0.078389030,-0.022958220
1640844797.102200,-0.055676590,-0.034978100,9.372246740,-0.029154120,-0.065265600,-0.031578540
1640844797.102870,-0.296939020,0.348441390,10.021816250,0.005960460,-0.052040820,-0.026361650
1640844797.106950,-0.116620230,0.330975320,9.663777350,-0.015605990,-0.074268880,-0.026348230
1640844797.107490,-0.057972820,0.295763080,9.712322240,-0.036805870,-0.104838610,-0.010456140
1640844797.111970,-0.139242870,0.472698780,9.542882920,-0.019437070,-0.053219500,-0.025683640
1640844797.112530,-0.103077580,0.374874110,9.746199610,-0.051885850,-0.064514580,-0.033475460
1640844797.116920,-0.165274040,0.609432820,10.019277570,-0.053235890,-0.073331590,-0.006054340
1640844797.117470,-0.107919180,0.461396160,9.700419430,-0.058175630,-0.086499750,-0.019453470
1640844797.122020,-0.076235140,0.259119960,9.643899920,-0.062125910,-0.071904060,-0.018174940
1640844797.123580,-0.233826000,0.419770540,9.672911640,-0.040744250,-0.050555170,-0.009076300
1640844797.127580,-0.244152500,0.158430070,9.782441140,-0.080876050,-0.075386470,-0.019522010
1640844797.128400,-0.074223020,0.185993550,9.561380390,-0.096796470,-0.095035140,-0.008633730
1640844797.131920,0.055409070,0.348818300,9.399419780,-0.082093480,-0.041641300,-0.027726590
1640844797.132530,0.194908110,0.222587930,9.533849720,-0.103427470,-0.002548100,-0.032311680
1640844797.137060,0.145202640,0.346012260,10.107934950,-0.085976720,-0.039553650,-0.011903050
1640844797.137880,-0.063775280,0.119414910,9.969951630,-0.068615380,-0.062260030,-0.021164120
1640844797.142050,-0.068270470,-0.190934320,9.406738280,-0.060077020,-0.126709030,-0.014868380
1640844797.143740,-0.331064730,0.022601520,9.347055440,-0.059428810,-0.065697740,-0.000779330
1640844797.147010,-0.153422940,-0.175812170,8.946604730,-0.100490450,0.038261710,-0.020217890
1640844797.147570,-0.110024940,-0.301489890,10.101490970,-0.069366400,-0.016036630,-0.015336280
1640844797.152260,-0.232390360,0.005020270,10.037297250,-0.000427660,-0.010547040,-0.019872190
1640844797.153390,0.131771890,-0.092061330,9.174546240,-0.025178490,-0.113448500,-0.028502940
1640844797.156930,-0.206653270,0.170519680,9.924684520,-0.060716270,-0.049968070,-0.009228290
1640844797.157490,-0.104628730,0.116166990,9.144018170,-0.067195300,0.034645200,-0.038971010
1640844797.161920,-0.062186860,-0.022933550,9.897012710,-0.011004510,-0.096465630,-0.035028160
1640844797.162460,-0.233969660,0.445884560,9.812479020,0.031557680,0.013375280,-0.018985570
1640844797.166920,0.056424980,0.281999410,9.258268360,-0.047916170,-0.045883660,-0.030671060
1640844797.167500,-0.397520600,0.299083560,10.516136170,-0.068446990,-0.067169970,-0.001221900
1640844797.171960,-0.222383190,0.344617130,9.184220310,-0.042006370,-0.016207990,-0.021725890
1640844797.172740,0.059041570,0.124042480,9.368059160,-0.024414060,-0.071322900,-0.032880910
1640844797.176950,-0.271496650,0.519281920,10.198002820,-0.017149750,0.051301720,-0.005227330
1640844797.177510,0.091739540,0.422935010,9.543210030,-0.082217160,-0.018765030,-0.021211800
1640844797.181970,-0.121309220,0.081094590,10.261779790,-0.081492970,-0.106310870,0.003306570
1640844797.182490,-0.139658530,0.106310970,9.381357190,-0.004522500,-0.005866590,-0.020164250
1640844797.187010,-0.027890900,0.110077630,9.260919570,-0.019207600,-0.046429040,-0.035904350
1640844797.187810,-0.309659180,0.381961260,10.088991170,-0.078655790,-0.009319190,0.002321600
1640844797.192100,0.143817410,0.369953450,9.254017830,-0.127260420,0.028157240,-0.013804440
1640844797.193260,0.236876260,0.140243220,9.773440360,-0.078855450,-0.025500360,-0.021754210
1640844797.196920,-0.021597590,0.421077490,10.101803780,-0.008209050,0.011248890,-0.015917420
1640844797.197540,-0.023118280,0.364541290,9.363496780,-0.056251890,-0.035265090,-0.020250680
1640844797.209090,-0.281277090,-0.093255250,9.734465600,-0.091002890,-0.090092430,0.007794800
1640844797.209610,-0.284199480,-0.186914150,9.244345660,-0.062662350,0.035613770,-0.017015630
1640844797.210790,-0.058143270,-0.319162990,9.099314690,-0.042617320,0.026309490,-0.041833530
1640844797.211230,-0.354646500,-0.302944360,10.498788830,-0.006499890,0.024871530,-0.013481080
1640844797.211940,-0.172846320,-0.106131670,9.764613150,-0.033000110,0.004273650,-0.038401790
1640844797.212410,0.042651890,-0.219493850,9.436909680,-0.045563280,-0.103278460,-0.021894280
1640844797.216960,-0.245513200,0.007121210,9.643849370,-0.013533230,0.024780630,-0.014768540
1640844797.218310,0.113588320,0.282868420,8.858969690,-0.014711920,0.058621170,-0.044009090
1640844797.222330,-0.290384230,0.227898330,10.587986950,-0.008305910,-0.030460950,-0.017400090
1640844797.223380,-0.360680670,0.454855710,9.900954250,-0.005550680,-0.009244680,-0.018690530
1640844797.226940,-0.018870330,0.248489740,9.057552340,-0.015558300,-0.094720710,-0.026470420
1640844797.227540,-0.588079330,0.258233010,10.266952510,-0.015880170,0.003971160,0.006882850
1640844797.231920,-0.225499930,0.410501330,9.223498340,-0.041428220,0.084491070,-0.021703550
1640844797.232480,-0.216362460,0.131842940,10.295804980,-0.042521960,-0.089591740,-0.008758900
1640844797.237100,-0.206193190,0.291795100,9.837065700,-0.010956830,0.006763640,0.003510710
1640844797.237830,0.415672000,0.276694600,8.669362070,-0.034686920,-0.007893140,-0.038851800
1640844797.244890,-0.191226570,0.263148700,10.601647380,-0.063744190,0.010065730,-0.006657840
1640844797.245550,-0.168816400,0.303979160,9.768591880,-0.064732140,0.020675360,-0.007666650
1640844797.247010,-0.014585810,-0.000078740,9.556405070,-0.031214950,-0.136944670,-0.013642010
1640844797.247740,-0.423781390,0.294942170,9.814256670,-0.010308620,0.000989440,0.002926590
1640844797.251950,0.144123000,0.454030280,8.767292020,-0.086383530,0.069665920,-0.005182620
1640844797.254060,-0.151315420,0.148701160,10.471365930,-0.105746100,0.014996530,0.005537270
1640844797.257300,-0.061252710,0.179308710,9.939424510,-0.041958690,0.020940600,-0.002671780
1640844797.258240,0.265617070,0.137678770,9.146761890,-0.016099210,-0.062406070,-0.021840630
1640844797.262310,-0.229325010,0.075835400,9.981678010,-0.045780840,-0.003041330,-0.002752240
1640844797.263200,-0.084887590,-0.026331240,9.298441890,-0.099219380,0.056917970,-0.019487740
1640844797.266900,-0.171243150,-0.345326010,9.797431950,-0.045965620,-0.029142200,-0.030529500
1640844797.267460,-0.402632830,-0.256852950,9.967486380,0.020058450,0.002303720,-0.009690230
1640844797.274020,-0.043971320,0.065867830,9.075257300,-0.020690260,0.003540520,-0.024744870
1640844797.274950,-0.298869310,0.037109980,9.986027720,-0.064007940,-0.003412370,-0.015029310
1640844797.276910,-0.231277060,0.166719850,9.878671650,-0.062224280,0.034327810,-0.023052100
1640844797.277450,0.139690160,0.427402200,9.321146010,-0.026419760,-0.000447030,-0.042504070
1640844797.281970,-0.108553300,0.507812020,10.151238440,-0.003328920,0.011749570,-0.024379790
1640844797.283100,-0.142675220,0.717065270,9.814346310,-0.055573890,0.030027330,-0.027653580
1640844797.287480,-0.124384980,0.401528120,9.658482550,-0.073973840,-0.058794030,-0.020812450
1640844797.289490,-0.457913700,0.122430190,10.010663990,-0.043250620,-0.017713010,-0.010544060
1640844797.292920,-0.044451670,0.304789010,9.046658520,-0.034374000,0.060755010,-0.025169550
1640844797.293370,-0.258765100,0.280727180,10.292177200,-0.074648860,-0.000718240,-0.014235080
1640844797.296930,-0.156743590,0.349465040,10.098037720,-0.130318080,0.035417080,-0.008198620
1640844797.297470,0.356024240,0.154173570,9.072516440,-0.095179680,-0.009407100,-0.028257070
1640844797.302430,-0.131130890,0.135755790,10.296794890,-0.024609270,-0.001996760,-0.030466920
1640844797.303030,-0.052718150,0.503100690,9.383584980,-0.063338880,0.052206220,-0.019724670
1640844797.307080,-0.106368060,0.196541380,9.805756570,-0.134685650,-0.068087860,-0.019651650
1640844797.307800,-0.379542350,-0.117606830,10.008237840,-0.096431380,0.028361380,-0.008526440
1640844797.311940,0.156372650,-0.019333830,8.862125400,-0.040096040,0.048239520,-0.035870080
1640844797.312570,-0.282909130,-0.037466180,10.312266350,-0.032040480,0.018626450,-0.018544500
1640844797.316920,-0.195383240,0.052149230,9.781933780,-0.087738060,0.056216130,-0.010201330
1640844797.317670,0.099718420,-0.076420380,9.464982990,-0.092002760,-0.062769650,-0.024785100
1640844797.322260,-0.203816350,-0.144504890,9.793941500,-0.050176690,0.025238100,-0.032545630
1640844797.322930,0.115475010,0.176829280,9.058220860,-0.031648580,0.080291930,-0.046537810
1640844797.326980,-0.242232160,0.134100740,10.337708470,-0.045995410,0.017176570,-0.041341790
1640844797.327460,-0.524540780,0.041323730,10.233968730,-0.050880020,-0.018465520,-0.034667560
1640844797.331900,-0.146876810,0.047267940,9.063097950,-0.034272670,-0.075930360,-0.023785230
1640844797.332430,-0.487731960,-0.030586720,9.654459000,-0.020015240,0.040069230,-0.032053890
1640844797.336920,-0.245811160,0.221241890,9.676547050,-0.042815520,0.076517480,-0.029188400
1640844797.338500,-0.100237570,0.372008320,10.174570080,-0.061812990,0.002394620,-0.037440660
1640844797.342820,-0.056863540,0.328666510,9.977508540,-0.064066040,-0.013500450,-0.033417350
1640844797.343220,0.197117030,0.513657030,9.441193580,-0.055176030,-0.006099050,-0.034306950
1640844797.346950,-0.164669750,0.416761070,9.971225740,-0.046913340,0.002789500,-0.041890140
1640844797.347520,-0.348627300,0.247398790,10.002205850,-0.064839420,-0.021012130,-0.029753150
1640844797.351920,-0.245004520,0.270952170,9.634868620,-0.063090010,-0.044585760,-0.027333200
1640844797.352430,-0.276625750,0.212755520,9.619435310,-0.063195830,0.001572070,-0.030772390
1640844797.357020,-0.041241270,0.499945370,9.756134990,-0.128184260,0.049963600,-0.031794600
1640844797.357700,0.096667100,0.611462770,9.941480640,-0.132042170,0.050961980,-0.025098030
1640844797.361950,0.079665960,0.306225300,10.127614020,-0.105340780,-0.023959580,-0.046853720
1640844797.362440,0.170674960,0.483420490,9.505393030,-0.056976080,-0.018572810,-0.037139650
1640844797.367340,0.067818910,0.404033420,9.370236400,-0.093187380,-0.005057450,-0.027970970
1640844797.367990,-0.204988410,0.051667520,9.994089130,-0.175273460,0.032885380,-0.022272770
1640844797.372140,0.003322830,-0.090007660,9.549058910,-0.124047700,0.039879980,-0.032462180
1640844797.372960,-0.109094240,-0.261428360,9.929949760,-0.056740640,0.014397500,-0.045633320
1640844797.376960,-0.126881970,-0.035264330,9.894408230,-0.074356790,0.049819060,-0.033795840
1640844797.377460,-0.001771820,0.087778290,9.617967610,-0.116810190,0.005431470,-0.036115940
1640844797.382410,-0.032946560,-0.082696590,9.625957490,-0.143793210,0.014632940,-0.046031170
1640844797.383190,0.251813590,0.174422260,9.212558750,-0.083562720,0.081822280,-0.047957900
1640844797.387370,0.092130380,0.225158600,9.947295190,-0.047130890,0.068373980,-0.050881510
1640844797.388440,-0.164153160,0.092965680,10.296817780,-0.068807590,0.019620360,-0.040467080
1640844797.391950,-0.148098830,0.051651030,9.692420010,-0.068001460,-0.045710800,-0.031264130
1640844797.392680,-0.374343630,-0.137128260,9.367637630,-0.073632590,0.013230740,-0.044573840
1640844797.396910,-0.219693290,-0.064441110,9.424429890,-0.075523560,0.083877150,-0.042381890
1640844797.397590,-0.324145620,0.242683010,10.253190990,-0.070895250,0.103670380,-0.056557360
1640844797.401950,-0.221450760,0.266791080,10.117549900,-0.095024700,0.005526840,-0.060698400
1640844797.402530,0.061206080,0.314267720,9.678391460,-0.072580580,-0.036190450,-0.039620700
1640844797.407040,-0.013131970,0.365912940,9.454150200,-0.051866470,0.083628300,-0.062215330
1640844797.408000,-0.091872690,0.314227940,10.026457790,-0.084669880,0.067529080,-0.058184570
1640844797.412010,-0.303758440,0.407698510,10.560667990,-0.088596350,0.008733570,-0.032196940
1640844797.413040,-0.093498510,0.139326680,9.437076570,-0.091253220,-0.008855760,-0.042448940
1640844797.416920,0.049760170,0.074324180,9.518655780,-0.069235270,0.017334520,-0.045081970
1640844797.417490,-0.218853070,0.472708280,9.915784840,-0.083933770,0.129736970,-0.039699670
1640844797.422190,-0.043365340,0.260336640,9.932620050,-0.141847150,0.018374620,-0.045010450
1640844797.422920,-0.105341060,0.307420160,10.304225920,-0.121380400,-0.019237400,-0.041979560
1640844797.426960,0.049973360,0.388494490,9.209789280,-0.091612320,0.058454270,-0.067697460
1640844797.427560,0.093426350,0.274852280,9.689318660,-0.109584620,0.034944710,-0.048725300
1640844797.431980,-0.186539890,0.296345000,10.222164150,-0.108131770,0.112205750,-0.025023520
1640844797.432920,0.027655420,-0.205621380,9.552780150,-0.111344470,0.025308140,-0.049163410
1640844797.437240,-0.199233280,-0.237841580,10.152286530,-0.072722140,-0.013710560,-0.018316510
1640844797.438680,-0.086403300,-0.108178180,9.175390240,-0.079390410,0.091472280,-0.021255020
1640844797.441980,0.120473420,-0.372499440,9.532373430,-0.131192820,0.066164140,-0.049002470
1640844797.442960,-0.103621510,-0.008017540,10.333940510,-0.091204050,0.116494320,-0.042189660
1640844797.447390,0.229282020,0.037792570,9.399214740,-0.056123740,0.067150590,-0.070439260
1640844797.448430,-0.016103800,0.158109920,10.134542470,-0.073218340,-0.000585620,-0.048850470
1640844797.451970,-0.277314190,0.409262240,9.747008320,-0.080475210,0.080196560,-0.027529900
1640844797.452470,-0.175263330,-0.072117120,9.438183780,-0.090743600,0.025497380,-0.054784120
1640844797.456970,-0.503710930,0.051234980,10.161312100,-0.032454730,0.044547020,-0.037321450
1640844797.458520,-0.195876670,0.202739000,9.326024060,-0.032109020,0.115571920,-0.042067470
1640844797.462020,-0.214808570,0.042006840,10.271738050,-0.098057100,0.041341790,-0.044092540
1640844797.463250,-0.346211670,0.247369620,10.334296230,-0.090104360,0.042977930,-0.032503900
1640844797.466960,0.080365250,0.102968820,9.194862370,-0.066372750,0.026714800,-0.067181890
1640844797.467510,-0.092228050,0.115141410,10.009114270,-0.030496720,0.046975910,-0.063730780
1640844797.472090,-0.182752580,0.477305800,10.007743840,-0.046549730,0.108085560,-0.065369900
1640844797.472930,-0.011860460,0.306695940,9.971695900,-0.116358700,-0.003337860,-0.060467430
1640844797.478470,-0.249308880,0.249956830,10.212528230,-0.093320020,0.008542840,-0.023676460
1640844797.483290,-0.049502480,0.271494660,9.354944230,-0.050373380,0.068545330,-0.054182110
1640844797.483600,-0.205620100,0.233702730,10.016901970,-0.059057770,0.040864940,-0.047223270
1640844797.483940,-0.352794200,0.431183220,10.226025580,-0.084893410,0.055007640,-0.022691490
1640844797.486940,0.010282960,0.294862930,9.485962870,-0.131817180,0.012530390,-0.055915110
1640844797.488580,0.025531740,0.214172390,9.954532620,-0.101399430,0.044077630,-0.049243870
1640844797.492560,0.048664660,0.390530880,9.924255370,-0.074939430,0.125969950,-0.055252020
1640844797.493080,0.052485130,0.060186460,10.136758800,-0.092425950,0.035192070,-0.071083020
1640844797.496960,-0.193952980,-0.011317570,10.298049930,-0.068567700,-0.016658010,-0.032015140
1640844797.497520,-0.021782480,0.006120500,9.076386450,-0.084011250,0.035563110,-0.036518280
1640844797.501890,0.068588310,-0.178111690,9.392222400,-0.116845950,0.077836200,-0.038287040
1640844797.502480,-0.059373040,-0.016591340,10.206758500,-0.096699600,0.135084990,-0.024442380
1640844797.507120,0.172087210,-0.076010690,9.787036900,-0.056637830,0.070233640,-0.055405500
1640844797.508190,-0.005224400,-0.029210370,10.283247950,-0.025640430,-0.009730460,-0.043173140
1640844797.512010,-0.268083540,0.285450250,9.658699040,-0.075171890,0.054985280,-0.043350450
1640844797.512700,-0.168715340,-0.092295780,9.336228370,-0.104516740,0.024798510,-0.062072280
1640844797.516950,-0.507087470,-0.063579810,10.167943950,-0.046147420,0.079353150,-0.047649450
1640844797.517520,-0.207994460,0.228251770,9.383356090,-0.017572940,0.098249320,-0.052279230
1640844797.522030,-0.123411620,-0.046601570,10.262739180,-0.030270220,0.027143960,-0.041601060
1640844797.522860,-0.256012890,0.194790620,10.318398480,-0.058509410,0.081396110,-0.031223890
1640844797.527300,0.111315470,0.029367730,9.486166000,-0.062589340,0.013519820,-0.045280150
1640844797.528270,-0.100867450,-0.070457420,10.291888240,-0.021527710,0.026652220,-0.044214730
1640844797.531920,0.033055460,0.465270310,9.415195470,-0.025682150,0.124061100,-0.057838860
1640844797.532430,-0.062836260,0.319565390,10.192397120,-0.065340110,0.006674230,-0.056865810
1640844797.537240,-0.341781620,0.416139190,10.424091340,-0.074246520,0.033012030,-0.040574360
1640844797.538630,-0.103078270,0.387203720,9.204801560,-0.064420710,0.020733480,-0.052952780
1640844797.541920,-0.415513520,0.144427980,10.476584430,-0.027093300,0.031444430,-0.039917240
1640844797.543470,-0.470749230,0.549886760,10.016083720,-0.057813530,0.106939680,-0.027532880
1640844797.546920,-0.122549100,0.384291830,9.811921120,-0.115105520,-0.033138690,-0.035296380
1640844797.547570,-0.189328690,0.266460270,10.293250080,-0.105431700,0.060215600,-0.027747460
1640844797.551920,0.231699930,0.427077980,9.085021020,-0.089012090,0.101043290,-0.051078200
1640844797.552560,-0.067158640,0.132158120,10.575619700,-0.066335500,0.010769070,-0.046262140
1640844797.560090,-0.294702170,0.246993820,10.241992000,-0.080229350,0.043272970,-0.037790830
1640844797.560910,0.116715270,0.064966330,9.122056960,-0.107106570,-0.049112740,-0.048027940
1640844797.561880,-0.277614410,-0.100232430,10.239483830,-0.110028680,0.058741860,-0.031563640
1640844797.562460,0.034045930,0.113996210,9.278858180,-0.098979490,0.162930800,-0.040224190
1640844797.566920,-0.018585190,-0.174450730,10.380562780,-0.063063200,0.001336630,-0.051383680
1640844797.567500,-0.284140470,0.067846890,10.319563870,-0.037820640,0.046849250,-0.037661190
1640844797.572060,0.228262620,0.233864530,8.618384360,-0.086487830,0.004474820,-0.047922140
1640844797.576540,-0.320989070,-0.072661330,10.349987030,-0.106413670,0.045444080,-0.041642790
1640844797.577250,-0.233022080,0.130680870,9.727868080,-0.069594370,0.134545550,-0.066237140
1640844797.577730,-0.066725660,0.065647050,9.969815250,-0.030174850,-0.023037190,-0.073739870
1640844797.582010,-0.503577830,0.120249470,10.596898080,-0.025172540,0.045788290,-0.036045910
1640844797.582530,0.069578070,0.240592990,9.043248180,-0.083222980,0.059500330,-0.049881640
1640844797.587240,-0.285634010,0.035840410,10.425548550,-0.077429400,-0.003889200,-0.028330090
1640844797.588390,-0.191519040,0.182187970,9.821347240,-0.053983930,0.105626890,-0.031936170
1640844797.592970,0.299422500,0.300321130,9.342484470,-0.052243470,0.018621980,-0.057606400
1640844797.593620,-0.283066450,0.430563270,10.758769990,-0.061562660,0.059612100,-0.047898300
1640844797.596870,0.027844000,0.590702890,9.566341400,-0.109723210,0.046363480,-0.062516340
1640844797.597480,-0.178118120,0.273610710,10.160690310,-0.101810690,-0.047916170,-0.064757470
1640844797.601850,-0.543238760,0.284184430,10.203999520,-0.053156920,0.071474920,-0.053894520
1640844797.602470,-0.146219430,0.445124750,9.477252960,-0.070939960,0.034946210,-0.056858360
1640844797.607210,-0.496040110,0.363184150,10.619950290,-0.120288130,0.011681020,-0.024102630
1640844797.608180,-0.019849860,0.276803640,9.558646200,-0.141398610,0.074577340,-0.019361080
1640844797.611980,0.358058090,0.120297330,9.510562900,-0.105033830,0.036580870,-0.056716810
1640844797.613230,-0.072094080,0.194855410,10.416738510,-0.061219930,0.079430650,-0.040696560
1640844797.616940,0.100746790,0.258796510,9.711560250,-0.107985730,0.014261900,-0.040346390
1640844797.617560,-0.206111330,-0.068515400,10.144441600,-0.127896680,-0.054061420,-0.043720020
1640844797.622210,-0.381303100,-0.137028800,9.671874050,-0.098755960,0.036953390,-0.050069400
1640844797.623220,-0.121991050,-0.021221620,9.327872280,-0.077368330,0.061638650,-0.053089860
1640844797.627050,-0.583673120,-0.109400230,10.650939940,-0.068044660,0.068502140,-0.042267150
1640844797.627960,-0.247100230,0.113419360,9.878589630,-0.087492170,0.008384880,-0.037413840
1640844797.631910,-0.019274580,0.098936650,9.570645330,-0.090898580,-0.041289630,-0.035369400
1640844797.632470,-0.015805460,-0.004529950,9.529850010,-0.076258190,0.082500280,-0.030216580
1640844797.637360,0.112796490,0.248408760,9.793802260,-0.070424390,0.080750880,-0.049556800
1640844797.638490,-0.218664740,0.025494400,10.665233610,-0.045645240,-0.006860500,-0.049735610
1640844797.642630,-0.205958310,-0.009649160,9.811088560,-0.047168130,-0.042469790,-0.043416030
1640844797.644090,-0.330879270,0.046368300,9.552219390,-0.053966050,-0.039549180,-0.039409100
1640844797.646920,-0.656266990,-0.097314570,10.049845700,-0.061069430,0.036971270,-0.037282710
1640844797.647510,-0.365762680,0.189452110,9.863933560,-0.068154930,0.019109250,-0.034174320
1640844797.651890,-0.302008690,0.302709370,10.159839630,-0.055205830,-0.002563000,-0.043788560
1640844797.652530,0.021783640,0.402802820,9.809966090,-0.064948220,0.018754610,-0.036291790
1640844797.657040,0.181190060,0.688412190,9.965057370,-0.076127060,0.016874070,-0.033983590
1640844797.657970,-0.143992300,0.494889230,10.440237050,-0.083473320,0.005729500,-0.047153230
1640844797.661850,-0.052766080,0.330020190,9.884028430,-0.082996500,-0.058817870,-0.032527740
1640844797.662490,-0.261339130,0.332585160,9.794178960,-0.051519270,-0.038327280,-0.034858290
1640844797.666920,-0.374080690,0.230873780,9.887819290,-0.091125070,0.013662880,-0.037589670
1640844797.667500,-0.145801320,0.213670970,9.812924390,-0.144603850,0.006374720,-0.012904410
1640844797.672350,-0.146358530,-0.035807340,10.018676760,-0.099228340,0.008624790,-0.024500490
1640844797.673460,0.225845160,-0.083329990,9.703077320,-0.053548820,0.022207200,-0.026145580
1640844797.676980,0.133639810,0.249361950,9.947204590,-0.059303650,0.012508030,-0.007426740
1640844797.677590,-0.102332470,0.078495020,10.176523210,-0.117822000,-0.034461920,-0.018925970
1640844797.681960,0.009737460,-0.048351590,9.613348960,-0.124038760,-0.045935810,-0.023204090
1640844797.682510,-0.204894270,-0.027562610,9.530541420,-0.042138990,0.001263620,-0.044131280
1640844797.687240,-0.304705860,-0.030990740,9.930012700,-0.030301510,0.054666400,-0.040617590
1640844797.689260,-0.324099270,0.176712380,10.167941090,-0.061586510,0.001224880,-0.021585830
1640844797.691970,-0.363755170,0.000268740,9.915049550,-0.083778780,-0.066131350,-0.016388300
1640844797.693310,0.079910330,-0.082074140,9.139919280,-0.074201830,-0.016176700,-0.020998710
1640844797.696870,-0.035352810,0.092695060,9.637641910,-0.025706000,0.073729470,-0.030212110
1640844797.697520,-0.089833740,0.068513170,10.345263480,-0.029940900,0.019925830,-0.039379290
1640844797.701940,-0.088891060,0.188615710,10.227030750,-0.039970870,-0.078287720,-0.028529770
1640844797.702690,-0.197868120,0.062756620,9.579631810,-0.043113530,-0.075873730,-0.023476790
1640844797.707080,-0.250995070,-0.132415820,9.685328480,-0.040711470,0.002509360,-0.021880870
1640844797.707790,-0.443759380,0.047072120,10.140110970,0.007353720,0.034995380,-0.031654540
1640844797.712020,-0.402784350,0.184814970,10.152954100,-0.019103290,-0.068151970,-0.028587880
1640844797.712640,-0.041091920,0.433262440,9.665214540,-0.076332690,-0.053499650,-0.010761620
1640844797.716920,0.056202040,0.494399580,9.526811600,-0.066345940,0.036703050,-0.025056300
1640844797.717740,0.034825310,0.474582520,10.295710560,-0.053404280,-0.006808340,-0.023488700
1640844797.722060,-0.079195570,0.574827910,10.302048680,-0.023883580,-0.033816690,-0.020445880
1640844797.722730,-0.118693560,0.331582900,9.750333790,-0.046864150,-0.098104770,-0.019246340
1640844797.726900,-0.214066180,0.252984550,9.768657680,-0.084464260,-0.040476020,-0.001783670
1640844797.727500,-0.201316790,0.294312690,9.564956670,-0.091654070,0.024078790,0.002013150
1640844797.731920,-0.064922270,-0.107725590,10.000009540,-0.088028610,-0.008493660,-0.005047020
1640844797.732500,-0.058363360,0.008492600,10.146832470,-0.030064580,0.004866720,-0.009278950
1640844797.737580,0.110849740,0.226217720,9.643009190,-0.041019920,-0.031507020,-0.020341580
1640844797.738690,0.026032080,0.138176530,9.926424980,-0.128208100,-0.049060590,0.003395970
1640844797.742000,0.032629690,0.181732330,9.577651020,-0.105682020,0.013121960,-0.012154880
1640844797.742780,0.099558360,-0.062451910,9.585030560,-0.049860780,-0.010950860,-0.042253740
1640844797.746990,-0.106186650,0.065369110,10.020199780,0.000196700,0.009928640,-0.015972550
1640844797.747610,-0.226051320,0.198060040,9.843850140,-0.033681100,-0.001844760,-0.020819900
1640844797.752130,-0.319228260,-0.117788230,10.068027500,-0.112728780,-0.083637240,-0.004087390
1640844797.752910,-0.300023470,-0.071868860,9.481978420,-0.064069030,-0.022996960,0.001680850
1640844797.757030,0.051674690,-0.093748490,9.135813710,-0.027385360,0.056214640,-0.025033950
1640844797.758030,-0.067974940,-0.050212280,10.445304870,-0.002701580,0.056970120,-0.013671820
1640844797.761980,-0.074673800,0.190536930,10.270207410,-0.008535390,-0.004397330,-0.014074150
1640844797.762720,0.008042260,0.015197510,9.776801110,-0.066649910,-0.116160520,-0.010517240
1640844797.767820,-0.182218240,-0.051738590,9.555519100,-0.033226610,-0.023657080,-0.001667440
1640844797.769190,-0.226558880,0.090537400,9.416530610,-0.001738970,0.057443980,-0.036680700
1640844797.773670,-0.446249630,0.208606060,10.605304720,-0.015641750,-0.024430460,-0.022064150
1640844797.774400,-0.269404860,0.509192410,9.921695710,-0.031571090,-0.030508630,-0.002759690
1640844797.777540,0.110180210,0.469411310,9.410710330,-0.081729910,-0.046199570,-0.016137960
1640844797.778250,-0.073787410,0.434453870,10.205343250,-0.055117910,0.048725300,0.005978350
1640844797.783500,-0.015498060,0.465076150,9.863275530,-0.015978510,0.018443170,-0.009456280
1640844797.784030,-0.103465930,0.184765280,10.213134770,-0.022664670,-0.113004460,-0.009994210
1640844797.787300,0.029266420,0.190995220,9.414419170,-0.029660770,-0.009822850,0.016243760
1640844797.788320,0.164278420,0.082894620,9.275403980,-0.083254280,0.037658210,-0.004349650
1640844797.791940,-0.160568790,-0.122769920,10.622686390,-0.078971680,0.045922400,0.007165970
1640844797.792940,0.026045610,-0.116211730,9.851696010,-0.013089180,-0.000183280,0.000610950
1640844797.796930,0.085923730,-0.101472270,9.618470190,0.003007050,-0.076305870,-0.018061700
1640844797.797890,-0.087397990,0.150061960,9.635238650,-0.024256110,0.050076840,0.006775560
1640844797.801900,0.056756560,0.228300180,9.435352330,-0.105062130,0.052319460,-0.008079410
1640844797.804700,-0.257804070,0.038952160,10.509145740,-0.058299310,-0.010198350,-0.017903750
1640844797.807870,-0.129851090,0.208513560,9.694162370,0.030608480,0.014337900,-0.012578070
1640844797.808520,-0.084814290,0.285919990,9.500254630,0.006262960,-0.024929640,-0.015130640
1640844797.812020,-0.464312910,0.191388670,10.319267270,-0.040392580,0.017613170,0.018075110
1640844797.813240,-0.055470310,-0.019166040,9.429494860,-0.060927880,0.028628120,0.019124150
1640844797.816940,-0.105339470,-0.238458400,10.083534240,-0.007019940,-0.024588410,0.000226500
1640844797.817550,-0.029710340,0.008694430,10.028106690,0.036783520,0.072409220,-0.002579390
1640844797.822080,0.199851530,0.189317940,9.716506960,-0.016163290,0.013357400,-0.025610620
1640844797.822830,-0.173529430,0.274543820,10.519271850,-0.048476460,-0.034013390,-0.004138050
1640844797.826910,0.062487130,0.366886440,9.370144840,-0.057972970,0.016386800,-0.006461140
1640844797.827490,-0.100364210,0.267703090,9.692825320,-0.002983210,0.000818070,-0.017778580
1640844797.831950,-0.531386850,0.382993670,10.466562270,0.033812220,0.030644240,0.010046360
1640844797.832660,-0.295554130,0.529579700,9.712551120,-0.050018730,-0.019232930,0.004021820
1640844797.837280,-0.268918040,0.076578660,9.937214850,-0.078946350,-0.047560040,0.024880470
1640844797.838190,-0.012254870,0.038084190,9.506237980,-0.031507020,0.086110840,0.019608440
1640844797.841910,0.309966330,0.053001650,9.718482020,-0.000421700,0.074161600,0.000618400
1640844797.842640,0.021947080,-0.229513690,10.737466810,0.008919840,0.019104780,0.019215050
1640844797.847160,0.225832970,-0.173027860,9.649779320,0.000245870,-0.038900970,0.013263520
1640844797.848060,0.184584900,-0.307664840,9.317457200,-0.001524390,-0.048428770,0.008183720
1640844797.851910,-0.024705970,-0.210705490,9.579532620,-0.020810960,0.106802590,0.009599330
1640844797.852470,-0.000777970,-0.019224860,9.849286080,-0.002759690,0.095301870,-0.022239980
1640844797.857430,-0.272454800,-0.092078950,10.595357890,0.066578370,-0.013262030,-0.018873810
1640844797.858050,-0.109300430,0.376767280,9.441977500,0.046834350,-0.009560590,-0.009080770
1640844797.862020,-0.176774990,0.372644690,9.433900830,-0.016552210,0.021660320,-0.001370910
1640844797.863280,-0.389003280,0.021913810,10.197016720,0.002267960,0.083488230,0.017371770
1640844797.866890,-0.150971190,0.140838730,9.766615870,0.056275730,0.024679300,-0.011274220
1640844797.867530,-0.077889930,-0.059890150,9.979259490,0.083152940,0.006383660,0.001676380
1640844797.872000,0.010143770,-0.210601390,9.951977730,0.050801050,0.078618530,0.022490320
1640844797.873600,-0.060760330,-0.091911390,10.106080060,0.029696530,0.013439360,-0.001919270
1640844797.876880,-0.205627110,-0.267455370,10.184344290,0.034174320,-0.018912550,-0.006286800
1640844797.877480,0.107286780,0.117969890,9.145960810,0.047265000,0.042867660,-0.016616280
1640844797.881900,-0.151811150,0.445161010,9.993514060,0.059428820,0.053516030,-0.023426120
1640844797.882470,-0.320758400,0.671018360,10.518139840,0.018580260,0.042074930,-0.013202430
1640844797.887240,-0.093312170,0.831949890,9.691624640,0.001767280,-0.032761690,-0.003898140
1640844797.888370,-0.244783480,0.527505700,10.044367790,0.022962690,0.006119910,-0.009365380
1640844797.891960,-0.221320420,0.506318210,9.973038670,0.027871130,0.092910240,0.005818900
1640844797.892550,-0.283461690,0.368632700,10.182259560,0.026115780,-0.013817850,0.006504360
1640844797.896900,-0.230278310,0.003188870,10.136365890,-0.004915890,-0.030741100,0.009344520
1640844797.897500,0.324534680,0.029284150,8.945320130,-0.033098460,0.052797790,-0.001825390
1640844797.901880,0.189823080,-0.119152150,9.968238830,-0.011515620,0.080706190,-0.009152290
1640844797.902550,0.059029320,-0.109781020,10.599531170,0.006689130,0.078420350,-0.002492960
1640844797.906990,0.210095060,-0.016736650,9.809366230,0.034137070,-0.054921220,-0.018250940
1640844797.908460,-0.151021960,-0.069402730,9.948842050,0.025594240,-0.047551110,-0.010164080
1640844797.911960,-0.019954400,0.307694440,9.060531620,-0.029049810,0.095017240,-0.005434450
1640844797.913670,-0.158329500,0.185284530,9.899321560,-0.021719930,0.076307360,-0.018624960
1640844797.916880,-0.455963130,0.118988860,10.563177110,0.021636490,0.047104060,-0.004416700
1640844797.917520,-0.002670380,0.317656700,9.325560570,0.063395510,-0.013369320,-0.017371770
1640844797.921970,-0.242148470,0.041880230,9.890909190,0.025403500,0.013683740,-0.000499190
1640844797.922540,-0.147564990,-0.016756240,9.745224950,-0.025846070,0.098656130,0.006744270
1640844797.927270,0.058937660,-0.344800380,9.809059140,0.026370590,0.044818220,-0.024113060
1640844797.928000,-0.034726970,-0.438168560,10.244568820,0.076067460,0.037120280,-0.023242840
1640844797.931890,0.137032610,-0.119974180,9.471717830,0.083109740,0.058443850,-0.008656090
1640844797.932460,-0.127206560,-0.258242730,10.100318910,0.047507880,-0.000670550,-0.022466480
1640844797.937360,-0.286307250,-0.063937160,9.911708830,0.019872190,0.030721720,-0.012406710
1640844797.938190,-0.102024500,0.240985800,9.359235760,0.057275600,0.022213160,-0.026494270
1640844797.941940,-0.342292280,0.360038520,10.356840130,0.057938700,0.074502830,-0.029684600
1640844797.943850,-0.254294930,0.874229910,10.080252650,0.047682240,0.063198800,-0.020203000
1640844797.946930,-0.214441980,0.863570510,10.098264690,0.015974050,-0.037755070,-0.017422440
1640844797.947520,-0.210640760,0.541523520,9.826619150,-0.010572370,0.026661160,-0.021007660
1640844797.951910,-0.015531380,0.493776230,9.454475400,0.043377290,0.056502230,-0.017754730
1640844797.952530,-0.246635410,0.199810280,10.460679050,0.041668110,0.036141270,-0.011801720
1640844797.957030,0.014269580,0.136477140,10.008762360,-0.025938460,0.037488350,0.007218120
1640844797.960040,0.250758140,-0.124535400,9.655399320,-0.021500890,0.003090500,0.004757940
1640844797.961910,0.062914140,-0.351171700,10.095090870,0.006760660,0.081887840,-0.020152330
1640844797.962460,0.193362610,0.080477990,9.677169800,0.028449300,0.071083020,-0.018325450
1640844797.966910,-0.248340610,0.141327690,10.374047280,-0.003266330,-0.028374790,-0.018553440
1640844797.967530,-0.236697090,0.214621140,9.668131830,-0.043457740,0.005690750,-0.023359060
1640844797.972010,-0.012843410,0.382047800,9.154170040,-0.006465610,0.027093290,-0.035820900
1640844797.972630,-0.397964660,0.381877010,10.306888580,0.001762810,0.118502990,-0.031776730
1640844797.976980,-0.161793900,0.389839650,10.179018020,0.002515320,0.084759290,-0.022262330
1640844797.977640,-0.194133490,0.061367190,10.331757550,0.019828980,-0.056810680,-0.014942880
1640844797.981920,-0.081204050,-0.141822950,9.471114160,0.003653770,0.029599670,-0.013537710
1640844797.983200,0.267094460,-0.212989790,9.088574410,0.000712280,0.086094440,-0.013564530
1640844797.987510,-0.071826060,-0.439855720,10.398154260,0.005136430,0.107616190,-0.032161180
1640844797.988340,0.094627090,-0.222401830,10.029739380,0.026781860,0.036066780,-0.037632890
1640844797.992890,0.146237180,-0.119466000,9.746555330,0.054132940,-0.018391010,-0.026704370
1640844797.993630,-0.197297740,0.012475930,9.929695130,0.017270450,0.067923960,-0.034156450
1640844797.996940,-0.207783520,0.364604770,9.912607190,0.014615060,0.072298940,-0.037261840
1640844797.997540,-0.529642760,0.429245350,10.353652950,0.017872450,0.009408590,-0.041393930
1640844798.001910,-0.402336390,0.615780060,9.672700880,0.008833410,0.022803250,-0.036118920
1640844798.002520,-0.171095090,0.711554880,9.651072500,0.032816830,0.042621790,-0.038421160
1640844798.007150,-0.223651190,0.708709900,10.231802940,-0.025106970,0.103098150,-0.036984680
1640844798.008150,0.060617780,0.610187350,10.113217350,-0.048096480,0.038994850,-0.018017000
1640844798.012040,0.076747460,0.179992150,10.247227670,-0.020061440,0.029040870,-0.027696790
1640844798.013310,0.075264020,0.018943960,9.934205060,-0.002650920,0.033710900,-0.041416290
1640844798.017130,0.080145430,0.147357930,9.751767160,-0.018359720,0.022158020,-0.019331270
1640844798.017820,-0.101398390,0.001409760,9.918119430,-0.088989730,0.069662910,-0.030517580
1640844798.022030,0.065359090,0.021309610,9.692857740,-0.080627200,0.071638820,-0.034090880
1640844798.023860,-0.172646820,0.207248420,10.230168340,-0.013883410,0.038877130,-0.040391090
1640844798.027160,-0.286625560,0.402075530,10.020499230,-0.036771600,0.044924020,-0.053145000
1640844798.027850,-0.024095750,0.536024270,9.629168510,-0.081650920,0.008024280,-0.027473270
1640844798.031910,-0.079388640,0.309784110,9.822643280,-0.089460620,0.108049820,-0.038738550
1640844798.032520,0.248625310,0.216562510,9.652265550,-0.066271430,0.129608810,-0.042535360
1640844798.037520,0.089607400,0.151346160,10.365700720,-0.009946530,0.061604380,-0.024189060
1640844798.038750,-0.087994930,-0.137441070,10.085124020,-0.043818360,0.040742750,-0.039066380
1640844798.042970,0.088407110,-0.385328110,9.501804350,-0.050474710,0.010879340,-0.022368140
1640844798.044160,-0.195260440,-0.512246250,9.605823520,-0.039273500,0.092259050,-0.030015410
1640844798.046920,-0.128679220,-0.360769210,9.695315360,-0.038944180,0.148376840,-0.050191580
1640844798.047570,-0.173309210,-0.130847540,10.368740080,-0.020128490,0.082953300,-0.042040650
1640844798.051910,-0.410552740,-0.060971980,10.244337080,-0.010728840,0.018349290,-0.059847530
1640844798.052520,-0.185497690,0.167677920,9.411012650,0.000053640,0.001585480,-0.058147300
1640844798.057080,-0.307555140,0.322589810,9.610048290,-0.000663100,0.097523640,-0.052441660
1640844798.059050,-0.325518670,0.381385590,10.072188380,-0.032909220,0.120355190,-0.059461600
1640844798.061960,-0.140949520,0.531013250,10.356569290,-0.013928120,0.034967060,-0.038227440
1640844798.063030,-0.104493300,0.343842120,9.916323660,-0.016921760,0.032976270,-0.034031280
1640844798.066850,0.090954300,0.197961970,9.626274110,-0.012575090,0.047212840,-0.033414370
1640844798.067560,-0.119110590,0.236115840,10.200723650,-0.016750390,0.103330610,-0.033730260
1640844798.072520,-0.186073480,0.094553250,10.135019300,-0.070562960,0.047302250,-0.046776240
1640844798.073790,-0.109594810,0.164528940,10.021912570,-0.056330860,-0.018987060,-0.039948520
1640844798.077480,-0.166446490,0.271766160,9.786589620,-0.044624510,0.070026520,-0.058147310
1640844798.078020,-0.206386950,0.303702590,10.089661600,-0.063613060,0.067494810,-0.057543820
1640844798.081890,-0.336096140,0.537763420,10.435565950,-0.057227910,0.024652480,-0.033944850
1640844798.083050,-0.187006680,0.414273080,9.699203490,-0.090800230,0.030563770,-0.052684550
1640844798.087040,0.093647290,0.475144570,9.628496170,-0.084111090,0.052982570,-0.018134720
1640844798.088760,-0.065714930,0.505752330,10.213880540,-0.088971850,0.109687470,-0.024634600
1640844798.092720,0.276866110,0.184557540,9.880891800,-0.104931000,0.056840480,-0.038558240
1640844798.093150,0.349192050,0.126254420,9.883184430,-0.067767490,0.030367080,-0.026556850
1640844798.096920,0.198653850,0.035017290,9.642150880,-0.084002320,0.113187740,-0.043487550
1640844798.097530,0.091530610,-0.235099000,10.046436310,-0.105932350,0.072854750,-0.033509730
1640844798.101910,-0.346130700,-0.328540590,10.322819710,-0.066591810,0.041455030,-0.032012160
1640844798.102870,-0.230774150,-0.396267590,9.443052290,-0.051303220,0.023952130,-0.056566310
1640844798.107070,-0.106456670,-0.137680050,9.536779400,-0.053754450,0.104723890,-0.042259700
1640844798.107950,-0.283567970,0.007069880,10.190924640,-0.080798570,0.175616120,-0.046654040
1640844798.113250,-0.143830120,0.007855570,10.448576930,-0.054389250,0.047582390,-0.044886770
1640844798.113790,-0.063450930,0.253928070,9.913115500,-0.000984970,0.008635220,-0.031863160
1640844798.116920,0.069003850,0.257909860,9.274915700,-0.040884320,0.080676380,-0.039017200
1640844798.117670,0.017298680,0.140317320,10.011534690,-0.048564370,0.134728860,-0.034143030
1640844798.122000,-0.165208830,0.066739920,10.250648500,-0.035548210,0.104941430,-0.044529140
1640844798.125380,-0.026980850,-0.022584610,9.845207210,-0.016599890,0.003649290,-0.046199560
1640844798.126930,-0.057395340,0.022066150,9.757530210,-0.013244150,0.086756050,-0.030127170
1640844798.127530,-0.150521580,-0.007913380,9.855476380,-0.055927040,0.129303340,-0.055380170
1640844798.131900,-0.370456190,0.068684290,10.596191410,-0.038295990,0.033305580,-0.041796260
1640844798.132510,-0.256001530,0.235994040,9.800799370,-0.025740270,0.048980120,-0.046256190
1640844798.137390,-0.152432800,0.184406090,9.678833010,-0.029374660,0.057065490,-0.055699060
1640844798.138850,-0.376515920,0.497344790,10.400657650,-0.025530160,0.102911890,-0.038138040
1640844798.142110,-0.350924730,0.437228200,10.164575580,-0.068670500,0.061218430,-0.051200390
1640844798.142600,-0.283252360,0.331073400,10.133356090,-0.064252310,-0.017412000,-0.042153900
1640844798.146910,-0.181726600,0.584653260,9.784764290,-0.049930810,0.069068370,-0.033435220
1640844798.147520,0.071945260,0.456885070,9.761105540,-0.098550330,0.095953050,-0.035123530
1640844798.151950,0.182386440,0.531859160,10.313474660,-0.099065910,0.086830560,-0.009070340
1640844798.152540,0.204202620,0.328979700,10.166258810,-0.100339960,0.071971120,-0.040467090
1640844798.157180,0.224965530,0.141866310,10.005145070,-0.090578200,0.026522580,-0.045776370
1640844798.158910,-0.134825530,0.273415510,10.004188540,-0.087323790,0.044263890,-0.036820770
1640844798.161920,-0.329594280,-0.025682340,9.867333410,-0.139242430,0.032915180,-0.047105550
1640844798.162540,-0.189315620,-0.072139240,9.701970100,-0.114430500,0.062450780,-0.041781370
1640844798.167010,-0.247248710,-0.011932410,9.868403430,-0.087830410,0.117088860,-0.042529400
1640844798.167660,-0.175182360,-0.035605720,10.251809120,-0.092606250,0.100748250,-0.033573810
1640844798.172000,-0.132393000,0.040487890,10.279779430,-0.084117060,0.032554570,-0.028455260
1640844798.172580,-0.036764110,0.014786610,9.636035920,-0.107812890,0.016523900,-0.031115120
1640844798.176940,0.140716970,0.021325190,9.405113220,-0.091756890,0.074106450,-0.029210750
1640844798.177540,0.112453710,0.064845590,9.789080620,-0.083740060,0.150318440,-0.043979290
1640844798.182290,0.027587720,-0.081134770,10.479710580,-0.066368290,0.088301310,-0.046975910
1640844798.183550,-0.038463970,-0.045573880,10.290312770,-0.023248790,0.034058100,-0.042863190
1640844798.187250,-0.128985350,-0.119064550,9.548112870,-0.069095190,0.017726420,-0.037141150
1640844798.188690,-0.284129440,-0.292778610,9.750541690,-0.069561590,0.076958520,-0.030435620
1640844798.192030,-0.338779480,-0.175371480,9.844579700,-0.032232700,0.128257270,-0.052052750
1640844798.192510,-0.249495100,-0.027002130,10.060960770,-0.038208070,0.051888820,-0.057223440
1640844798.196850,-0.165788230,0.211718470,10.044572830,-0.016292930,0.070546570,-0.027401750
1640844798.197540,-0.122526080,0.171870590,9.935432430,-0.044454640,0.078882280,-0.051848600
1640844798.201940,-0.360436890,0.144620370,10.553106310,-0.029972200,0.022102890,-0.040137770
1640844798.202520,-0.269075330,0.362748270,9.824951170,-0.008805100,0.018213690,-0.041334330
1640844798.207070,-0.093900230,0.229350130,9.648048400,-0.058932610,0.042021270,-0.049719210
1640844798.207930,-0.114100970,0.346796070,10.120104790,-0.033757090,0.124613950,-0.020773710
1640844798.211970,-0.010551830,0.344941290,10.202004430,-0.044707960,0.064927350,-0.037795310
1640844798.212580,-0.017277070,0.233559550,10.317555430,-0.045974560,-0.007127230,-0.035165250
1640844798.216900,0.129102200,0.415757980,9.496993060,-0.046074390,0.053310390,-0.039474670
1640844798.217530,-0.103477760,0.299018980,10.129709240,-0.087292510,0.066995640,-0.047989190
1640844798.221990,-0.410861790,0.356884900,10.528839110,-0.080174220,0.058940060,-0.032538180
1640844798.222530,-0.282453060,0.202742380,9.788280490,-0.072287030,-0.023047630,-0.039611760
1640844798.226920,-0.386828120,0.041990640,9.964059830,-0.049704310,0.019235910,-0.033395000
1640844798.227550,-0.234637690,0.257911860,9.606814380,-0.045755510,0.109729190,-0.032678250
1640844798.231970,-0.252606420,0.142754380,10.305686000,-0.112017970,0.040452170,-0.024485590
1640844798.232520,-0.121394600,0.133096670,10.420963290,-0.097301590,0.018705430,-0.015555320
1640844798.237220,0.345517900,0.060582910,9.383465770,-0.055943440,0.040298700,-0.043430930
1640844798.238510,0.284898850,0.091848490,9.937773700,-0.051955890,0.072586540,-0.034874680
1640844798.242250,0.201454520,0.208227290,10.002674100,-0.059422860,0.120706880,-0.024148820
1640844798.242690,0.129838000,-0.256015270,10.128546710,-0.085563970,0.004293020,-0.041522090
1640844798.247450,-0.313079420,-0.332957120,10.212488170,-0.026230510,-0.006364290,-0.019600980
1640844798.249170,-0.266245280,-0.193795890,9.075405120,-0.000797210,0.042779750,-0.040553510
1640844798.251860,-0.428483810,-0.286360030,9.868347170,-0.059089070,0.061471760,-0.048309560
1640844798.252510,-0.457194600,0.038102810,10.155445100,-0.051128870,0.144824400,-0.039911280
1640844798.257630,-0.158230780,0.012222650,10.032802580,-0.024698670,0.033137210,-0.052060190
1640844798.258210,-0.269720140,0.112560740,10.494039540,0.012992320,0.007596610,-0.023242830
1640844798.261970,-0.114543830,0.369784180,9.355488780,0.003510710,0.041313470,-0.026783350
1640844798.263120,-0.082165460,0.054588110,9.944708820,-0.044752660,0.022877750,-0.028197470
1640844798.266900,-0.286734880,0.186065580,10.158002850,-0.010608140,0.081375230,-0.018194320
1640844798.267590,0.048896150,0.148169440,9.563502310,0.001680850,0.018866360,-0.046825400
1640844798.272050,-0.117336680,0.185143630,10.542464260,-0.006160140,0.028936570,-0.037012990
1640844798.272630,-0.154682990,0.529118720,9.943592070,-0.039343540,0.072371960,-0.039009750
1640844798.276890,-0.192114700,0.295496340,10.164978030,-0.072123130,-0.041000550,-0.042644150
1640844798.277580,-0.294688610,0.434392840,10.055510520,-0.033339850,0.042577080,-0.027266140
1640844798.281900,-0.160446260,0.523741250,9.547273640,-0.025404990,0.042545800,-0.045685470
1640844798.282510,-0.389393420,0.422932210,10.676893230,-0.059618060,-0.004832450,-0.016957520
1640844798.287080,-0.333331850,0.273370150,9.942184450,-0.068046150,0.022034350,-0.016741460
1640844798.287930,-0.049159680,-0.090027140,9.612061500,-0.061818960,-0.029243530,-0.039419540
1640844798.291890,-0.238130480,0.103295530,10.368290900,-0.024010240,0.066560500,-0.004734100
1640844798.292580,-0.066836420,0.203217690,9.850193020,-0.076732040,0.050850220,-0.025735790
1640844798.296940,0.154207480,0.009618340,10.125052450,-0.105972600,-0.056225060,-0.011338290
1640844798.297610,0.154949550,0.203891810,9.547908780,-0.061927740,0.061422590,-0.021009150
1640844798.302080,0.317952420,0.100577420,9.464633940,-0.047898290,0.059060760,-0.046657030
1640844798.303320,-0.218877200,0.099441180,10.807778360,-0.026772920,0.019285080,-0.001907350
1640844798.306900,-0.388682480,-0.025147840,9.934571270,-0.041921440,-0.030851370,-0.033257900
1640844798.307550,-0.266679640,-0.314692530,9.552322390,-0.046123570,-0.077931580,-0.025367740
1640844798.311970,-0.418936940,-0.142036720,9.655229570,-0.034955150,0.098702320,-0.012835860
1640844798.312520,-0.213679250,-0.237813520,9.857863430,-0.039714570,0.110098700,-0.048142670
1640844798.316980,-0.211291800,-0.093007350,10.784874920,-0.000292060,-0.007595120,-0.019443040
1640844798.317810,-0.051881330,0.096991770,9.641914370,0.004711750,-0.040243570,-0.024414060
1640844798.321990,0.178871590,-0.040544520,9.294523240,-0.017669790,-0.033937390,-0.021938980
1640844798.323600,-0.108813350,0.130085650,10.090149880,-0.005273520,0.088356440,0.001470740
1640844798.327090,-0.210646870,0.010175250,10.192097660,0.003452600,0.020949540,-0.029872360
1640844798.328100,-0.210932690,0.040796320,10.421066280,0.037467480,-0.071749090,-0.014393030
1640844798.332080,-0.285975400,0.212267320,9.648765560,0.021003190,-0.009234250,-0.012125080
1640844798.332740,-0.292094860,0.198698330,9.817597390,-0.034119190,0.002190470,-0.028242170
1640844798.337220,-0.515652420,0.447401050,10.417881970,-0.030188260,0.018723310,-0.012286010
1640844798.337840,-0.253060820,0.388686300,9.721715930,-0.031802060,-0.028924640,-0.033760070
1640844798.341880,-0.023444530,0.448424100,9.984672550,0.007222590,-0.041060150,-0.017514830
1640844798.345070,-0.046662330,0.618207450,10.000598910,-0.011847910,0.047600270,-0.015339260
1640844798.346950,-0.032129470,0.308883610,10.249469760,-0.072541830,-0.025427340,-0.005692240
1640844798.348060,-0.185305910,0.231551780,10.482920650,-0.044372680,-0.062893330,0.013315680
1640844798.351980,-0.139982720,-0.023569010,9.855428700,-0.028961900,-0.047588350,-0.008563700
1640844798.353710,-0.097784910,0.064982940,10.048070910,-0.025226180,-0.017239150,-0.008656090
1640844798.356940,-0.016931840,0.543611820,10.311489110,-0.083006920,0.030842430,-0.010067230
1640844798.357640,0.472602100,0.500106930,10.354115490,-0.164897750,0.074145200,-0.030948220
1640844798.362410,0.634450440,0.855899690,10.823350910,-0.122402620,0.068128120,-0.040584800
1640844798.363020,0.392866610,1.156140570,10.858635900,-0.102141500,0.018481910,-0.044806290
1640844798.367180,0.244783190,1.017535810,10.345430370,-0.150966640,-0.042039160,-0.031808020
1640844798.368190,0.032465700,0.760240260,9.912941930,-0.174170730,0.009846690,-0.022578240
1640844798.371930,-0.326021160,0.128199980,10.225003240,-0.175440330,0.084687790,-0.038179760
1640844798.372560,-0.342474070,-0.183604540,10.720887180,-0.130137820,0.087629260,-0.031721600
1640844798.377400,-0.514035880,-0.513352570,11.280157090,-0.120151040,0.054475670,-0.022402400
1640844798.378940,-0.370339360,-0.850592430,11.049723630,-0.145582870,0.006513300,-0.032432380
1640844798.381930,-0.181847780,-0.636399270,10.582153320,-0.117798170,0.022041800,-0.029411920
1640844798.383240,-0.035829720,-0.377940060,10.412071230,-0.138567420,0.096994660,-0.046668950
1640844798.386920,0.130538780,0.037863030,10.839665410,-0.140574570,0.088964410,-0.044935950
1640844798.387800,0.041217590,0.468707140,11.185947420,-0.095443440,0.039592390,-0.046060980
1640844798.392020,-0.059495980,0.523748220,10.979998590,-0.092430400,-0.027297440,-0.038516520
1640844798.394230,-0.112605760,0.773847880,10.524706840,-0.099326660,0.009134410,-0.008580090
1640844798.396950,-0.411129500,0.768200640,10.895640370,-0.139662650,0.068762920,-0.011971600
1640844798.397540,-0.481284830,0.492788670,11.351475720,-0.186508910,0.060145560,-0.008864700
1640844798.401940,-0.418155700,0.352237400,10.969834330,-0.125551220,0.009962920,0.013138350
1640844798.402510,-0.351253360,-0.077963200,10.830117230,-0.090759980,-0.019781290,-0.018849970
1640844798.407440,-0.366385550,-0.098125030,10.895700450,-0.129137930,0.035656990,-0.016219920
1640844798.408640,-0.312569290,-0.076124900,10.820169450,-0.161846000,0.035966930,0.006644430
1640844798.411970,-0.341413770,-0.457521260,11.473614690,-0.170058010,-0.026601550,-0.006595250
1640844798.412630,-0.058744720,-0.105727570,11.010250090,-0.110203040,-0.009068840,-0.008937720
1640844798.416940,0.171918820,0.388624880,10.391196250,-0.087183710,0.031177710,-0.005671380
1640844798.417580,0.145321100,0.530703250,11.097866060,-0.179517270,0.048843030,0.018724800
1640844798.422700,0.145241420,0.702091520,11.102613450,-0.192259280,0.044579810,0.037425770
1640844798.424310,0.177348630,0.444597480,10.599247930,-0.121873620,-0.026057660,0.028425460
1640844798.427260,0.034660570,0.286186610,10.730573650,-0.098519030,-0.017419460,0.030520560
1640844798.428780,-0.243273870,0.307317730,10.699665070,-0.134654360,0.072476270,0.036032500
1640844798.432010,-0.431094230,-0.452890630,10.993925090,-0.166067480,0.032342970,0.018437210
1640844798.434330,-0.570692300,-0.628453430,11.195024490,-0.121131540,-0.031101710,0.024116040
1640844798.437020,-0.646012960,-0.434801580,10.534451480,-0.066976250,-0.022014980,0.023370980
1640844798.437670,-0.477998700,-0.609081270,10.495530130,-0.103901330,-0.000940260,0.027546290
1640844798.442280,-0.359877970,-0.139773820,10.954158780,-0.115594270,0.015720730,0.039388240
1640844798.442930,-0.074795870,0.209549810,10.747483250,-0.109869250,0.034214560,0.028987230
1640844798.449390,0.292992770,0.354548130,10.880400660,-0.096635520,-0.001731520,0.054471190
1640844798.450410,0.186027990,0.717220540,11.226553920,-0.070928020,-0.004337730,0.056067100
1640844798.451900,-0.121281690,0.543436410,10.934265140,-0.093027950,-0.042882560,0.042194130
1640844798.452530,-0.152475250,0.294047090,10.597413060,-0.104704510,-0.095057490,0.051453710
1640844798.457150,-0.567056180,0.236135150,10.685418130,-0.094199180,-0.014561420,0.055035950
1640844798.457740,-0.658327040,0.052350040,10.735455510,-0.122469680,-0.010411440,0.051902240
1640844798.461870,-0.585174680,0.113801450,11.116353990,-0.127772990,-0.043824320,0.075139110
1640844798.464230,-0.559193130,-0.039299470,11.119955060,-0.120714330,-0.042268630,0.075210640
1640844798.466900,-0.412497250,-0.213617220,10.809062960,-0.087928780,-0.061199070,0.078560410
1640844798.467600,-0.410216210,0.128910030,11.006844520,-0.065222380,-0.085808340,0.073161720
1640844798.472040,-0.510535840,0.128068270,11.137041090,-0.134223700,-0.099043550,0.085107970
1640844798.473000,-0.011189930,0.294693200,10.208918570,-0.152784590,-0.086370120,0.102972970
1640844798.476900,-0.050288390,0.360348790,10.961370470,-0.106868150,-0.076368460,0.085012620
1640844798.477570,-0.070579840,0.437474820,11.292379380,-0.103727010,-0.023640700,0.079834480
1640844798.481970,0.133371410,0.733766670,10.631036760,-0.119803830,-0.104638930,0.111640980
1640844798.482650,-0.096729140,0.376432570,11.016098020,-0.157623010,-0.157701970,0.125230860
1640844798.487340,0.074435790,0.102295970,10.280548100,-0.172720830,-0.054927170,0.123411420
1640844798.488180,0.052898480,-0.041204390,10.147620200,-0.103029620,-0.042466820,0.110793130
1640844798.492280,-0.470207900,-0.495147760,11.418323520,-0.079664570,-0.088103100,0.129048540
1640844798.493540,-0.502926290,-0.619715270,10.885024070,-0.087447460,-0.126902770,0.128795210
1640844798.496870,-0.753548860,-0.831528010,10.591094970,-0.068190690,-0.175775600,0.118713100
1640844798.497570,-0.799447600,-0.699288670,10.438178060,-0.070458660,-0.149597230,0.122860100
1640844798.501990,-0.455997710,-0.090627490,10.205404280,-0.080785160,-0.077559050,0.125341130
1640844798.503100,-0.229995610,-0.021104100,10.813039780,-0.072400260,-0.028477610,0.120842460
1640844798.507030,0.197547110,0.257521480,10.927894590,-0.006985670,-0.123500840,0.146645310
1640844798.507750,0.059326280,0.553354440,10.969778060,0.024789570,-0.200875100,0.151146960
1640844798.511940,0.137433920,0.413722930,10.112275120,-0.054436930,-0.161807250,0.157026950
1640844798.512600,0.009556370,0.163149680,10.368900300,-0.076910860,-0.133830310,0.163576020
1640844798.516960,-0.645391940,-0.178355810,11.364212990,-0.013448300,-0.123822690,0.147224960
1640844798.517810,-0.344035000,-0.323236530,10.335482600,0.041121250,-0.170402230,0.156006230
1640844798.521990,-0.552716200,-0.241625230,10.724626540,0.027464330,-0.201968880,0.156550120
1640844798.522640,-0.924185570,-0.130839880,10.963628770,-0.059102480,-0.141511860,0.171157730
1640844798.527360,-0.536052820,-0.111382160,10.233673100,-0.055877860,-0.217016010,0.177067490
1640844798.528280,-0.478021140,0.027890070,10.769763950,0.016959010,-0.231856110,0.176265850
1640844798.531880,-0.189498860,0.453677950,10.516998290,0.026673080,-0.133320690,0.185510530
1640844798.532560,0.134372040,0.619232950,10.637571330,-0.005921720,-0.186564010,0.190523240
1640844798.537810,-0.237077060,0.325166940,11.588631630,-0.044381620,-0.228449730,0.195205210
1640844798.538810,0.090574380,0.266850470,10.079916000,-0.016464290,-0.252021880,0.199572740
1640844798.542310,-0.069150530,0.091440540,10.208588600,0.035566090,-0.277943910,0.193141420
1640844798.545540,-0.124087620,0.126154070,10.323266980,-0.027760870,-0.139993440,0.214764480
1640844798.546960,0.133952540,0.067845450,10.157375340,-0.068017850,-0.147154930,0.228267910
1640844798.547670,-0.330794250,-0.394219340,11.451627730,-0.008203090,-0.227098140,0.216867010
1640844798.552110,-0.281520040,-0.279848690,10.553048130,0.048840060,-0.276841310,0.225847990
1640844798.552880,-0.568182530,-0.202311040,10.182065960,0.034365060,-0.321579070,0.229498770
1640844798.556880,-0.819332600,-0.352479490,10.259331700,-0.010469560,-0.217461600,0.243045400
1640844798.557670,-0.449006440,-0.229460370,10.142307280,0.004391370,-0.224076260,0.228272410
1640844798.562010,-0.591512320,-0.042041360,10.926305770,0.064612930,-0.232328520,0.222609970
1640844798.563930,-0.066299050,0.282030760,10.210403440,0.060899560,-0.237259310,0.244063170
1640844798.567000,-0.019684210,0.173837530,10.817026140,0.031012300,-0.309938220,0.238558660
1640844798.567590,-0.080609930,0.075764300,10.465236660,0.035817920,-0.245109230,0.253662500
1640844798.572170,0.306922350,0.087667680,9.661276820,0.074741240,-0.290019810,0.241066560
1640844798.573360,-0.224717100,-0.059151260,11.085138320,0.072674480,-0.250320200,0.242142420
1640844798.577370,-0.389758940,-0.070254590,10.487068180,0.053089860,-0.253188640,0.246989770
1640844798.578360,-0.625086780,-0.355959620,10.712323190,0.080792610,-0.424952890,0.256621900
1640844798.581930,-1.009201290,-0.414539810,10.681637760,0.109438610,-0.330351320,0.273977220
1640844798.583690,-0.463433740,0.051153980,9.428680420,0.083284090,-0.270103010,0.264956120
1640844798.586870,-0.673666000,0.234179810,11.216421130,0.049653650,-0.288029040,0.271752510
1640844798.587600,-0.341578810,0.493139540,10.918281560,0.029312080,-0.281961350,0.267967640
1640844798.591920,0.275996210,0.511916520,9.970990180,0.085012620,-0.414466890,0.257095690
1640844798.592760,0.066143100,0.377965810,10.522641180,0.132556290,-0.337778120,0.267225560
1640844798.596920,0.190675140,0.556267440,10.063495640,0.073204930,-0.274153080,0.278095930
1640844798.597610,-0.186678750,0.082365080,11.008668900,0.021421910,-0.373150500,0.306412640
1640844798.602460,-0.345845010,-0.353274880,10.641102790,0.062274940,-0.385075840,0.315073190
1640844798.603090,-0.183628720,-0.333919580,9.827008250,0.120930400,-0.385876060,0.293174480
1640844798.606950,-0.543223440,-0.305546130,10.354673390,0.108197350,-0.296922060,0.304982100
1640844798.607620,-0.323424010,-0.162841500,10.033099170,0.043368340,-0.303827230,0.307729870
1640844798.612290,-0.638940390,-0.377460420,11.093312260,0.069342550,-0.433634220,0.295865570
1640844798.613860,-0.505223450,-0.322593810,10.100470540,0.157327980,-0.389601380,0.300353830
1640844798.618410,-0.269196630,-0.082845200,9.684447290,0.161996530,-0.457121490,0.293987990
1640844798.619200,-0.628861310,-0.078359190,10.964153290,0.116808730,-0.345136310,0.313673970
1640844798.621880,-0.040615180,-0.069759450,9.845088010,0.103937100,-0.336283500,0.326098590
1640844798.622590,-0.032775910,-0.288439270,10.849486350,0.175909710,-0.492514670,0.328786700
1640844798.626880,-0.128979380,-0.085524430,10.283567430,0.209754750,-0.364656810,0.350864290
1640844798.627620,0.315485000,-0.077789030,9.353802680,0.170323270,-0.444047150,0.315527650
1640844798.632030,-0.398776860,-0.240316820,10.969734190,0.148329150,-0.424556520,0.324606900
1640844798.633690,-0.245496880,-0.051909210,9.779050830,0.162445040,-0.398999540,0.312362670
1640844798.637020,-0.576146720,-0.301771850,10.557473180,0.230111230,-0.510376690,0.299310680
1640844798.638170,-1.053208590,-0.102116460,10.875379560,0.234340180,-0.460599420,0.314678280
1640844798.641900,-0.849405470,0.013699060,9.994310380,0.196816060,-0.515769480,0.324063090
1640844798.643280,-0.988457620,-0.192898140,10.630874630,0.200310380,-0.513492640,0.342480900
1640844798.647280,-0.409457980,0.164371910,9.843244550,0.213600740,-0.430885020,0.345882830
1640844798.648140,-0.091485140,0.404738960,10.413333890,0.211322350,-0.489084480,0.339117740
1640844798.652070,0.121463400,0.528568330,10.631539340,0.184512140,-0.454364720,0.367215310
1640844798.653320,0.498472960,0.501320720,10.068826680,0.174354080,-0.536082800,0.342923460
1640844798.656930,-0.089342140,0.326246770,10.950235370,0.203500720,-0.565234010,0.330489960
1640844798.657620,-0.096888320,0.337061760,9.821218490,0.196456940,-0.521279990,0.352831240
1640844798.661950,-0.483866130,0.003658430,10.418403630,0.165058720,-0.612305220,0.351613820
1640844798.663400,-0.786982180,-0.165192290,10.389735220,0.181430610,-0.485754100,0.374926690
1640844798.666940,-0.356126960,-0.221024630,9.719300270,0.190113530,-0.521841650,0.356862010
1640844798.667780,-0.855399550,-0.280019020,11.345975880,0.197427000,-0.567345440,0.378714560
1640844798.671960,-0.470386030,-0.076830660,9.819148060,0.194203900,-0.546099360,0.380641280
1640844798.672560,-0.070042330,-0.140740220,9.969573970,0.182285950,-0.646630050,0.350684020
1640844798.677300,-0.141574840,0.160942450,10.363911630,0.183348390,-0.485937390,0.381331240
1640844798.678250,0.457234920,0.287812260,9.529820440,0.190372790,-0.508730230,0.365139600
1640844798.682060,0.037229990,-0.086415050,11.438424110,0.224800450,-0.597660360,0.377571640
1640844798.684450,0.018523320,-0.054840790,10.116869930,0.243222760,-0.571262840,0.385075840
1640844798.686980,-0.021872620,-0.347704920,9.552915570,0.247824240,-0.707437160,0.381586020
1640844798.687720,-0.383822290,-0.392076610,10.027330400,0.223654540,-0.525480690,0.402341840
1640844798.691920,-0.132768090,-0.249400570,9.425067900,0.185383900,-0.456538890,0.374598860
1640844798.694960,-0.553374950,-0.529564980,11.269971850,0.263874290,-0.596848310,0.375661310
1640844798.697100,-0.578090910,-0.200477750,10.450154300,0.332355560,-0.612959440,0.373196690
1640844798.698160,-0.443843750,-0.112525460,9.644907000,0.294111730,-0.714743320,0.366914330
1640844798.701960,-0.714772400,-0.105095220,10.197151180,0.247921080,-0.570777180,0.395095440
1640844798.702610,-0.309879960,-0.111937210,9.803083420,0.257891510,-0.542090890,0.374460310
1640844798.707040,-0.301188950,-0.161622780,10.733878140,0.351572100,-0.627826390,0.380683030
1640844798.707870,0.002701600,0.192221510,10.026908870,0.357276290,-0.611032610,0.399763970
1640844798.712320,0.208510490,0.208471920,9.949480060,0.273805920,-0.675635220,0.379841180
1640844798.713100,-0.219015400,0.236021640,10.534705160,0.244022940,-0.609870370,0.405493440
1640844798.717120,0.141736190,0.381728410,9.482606890,0.256398350,-0.635573270,0.380599500
1640844798.718240,-0.410596370,0.232922580,11.007475850,0.307378260,-0.672765140,0.379422400
1640844798.722070,-0.574589490,0.401650130,10.225459100,0.319664270,-0.600622710,0.383776490
1640844798.726950,-0.674916680,0.188673690,10.216171260,0.262338010,-0.764577270,0.383502390
1640844798.728610,-1.210438490,-0.020965840,10.857273100,0.247979190,-0.712539370,0.418888120
1640844798.729150,-0.537054900,0.099689500,8.978620530,0.251260460,-0.667871770,0.398145680
1640844798.731880,-0.498630610,0.145850820,10.671628000,0.254401620,-0.705854770,0.408436450
1640844798.732600,-0.127914370,0.479861530,10.494359970,0.236646860,-0.579564390,0.417515640
1640844798.737020,0.641430200,0.277041610,9.876365660,0.224955420,-0.718844060,0.392282070
1640844798.737900,0.175968300,0.322114880,11.187526700,0.258050920,-0.720478830,0.417114910
1640844798.741940,0.237479930,0.478734880,9.578510280,0.222803730,-0.688414510,0.414092960
1640844798.742640,0.050405860,-0.061125060,9.950997350,0.202710990,-0.811972080,0.422629830
1640844798.747000,-0.338356880,-0.071636780,10.100516320,0.237193780,-0.659309510,0.443704550
1640844798.747860,-0.142853530,-0.172087150,9.503525730,0.241969590,-0.656917870,0.412929120
1640844798.751960,-0.551901040,-0.254155780,11.032066350,0.241364600,-0.703193430,0.437159930
1640844798.753860,-0.504443590,-0.072373130,10.211599350,0.219610410,-0.697185280,0.428444300
1640844798.756900,-0.143525090,-0.260710450,9.802144050,0.219795150,-0.789779540,0.411523940
1640844798.757660,-0.107294750,-0.060369000,9.848336220,0.264445010,-0.652976450,0.422519510
1640844798.761870,0.276242700,0.151989580,9.453528400,0.247144700,-0.627118350,0.402404460
1640844798.762720,0.078609350,-0.170748340,10.950938220,0.269803460,-0.685547410,0.415127040
1640844798.766900,0.040374540,-0.256672950,10.346567150,0.306679400,-0.726881740,0.417862890
1640844798.767620,-0.064339410,-0.346672830,9.784770010,0.307934050,-0.828939860,0.423702660
1640844798.771860,-0.389431150,-0.335419330,9.772224430,0.289796380,-0.689518630,0.426992830
1640844798.772940,-0.088124740,-0.213303040,9.514360430,0.243504410,-0.618045150,0.399334790
1640844798.777050,-0.471982720,-0.242105260,11.176858900,0.296069770,-0.693875670,0.399011430
1640844798.778000,-0.228690360,0.121130250,10.146490100,0.363239740,-0.714998010,0.395526080
1640844798.782100,-0.098245870,0.256246920,9.875818250,0.310941100,-0.818705680,0.376227590
1640844798.783000,-0.529655160,0.285045420,10.409385680,0.274787930,-0.697487710,0.402610090
1640844798.786930,-0.156358410,0.214104700,9.612002370,0.275282620,-0.690347140,0.376206730
1640844798.787620,-0.290846500,0.041741250,10.808415410,0.320147040,-0.771221700,0.377534390
1640844798.792080,-0.077648690,0.326230050,9.982955930,0.341369270,-0.674830440,0.385627240
1640844798.793820,0.285310090,0.276757810,9.918553350,0.268998830,-0.758499150,0.370520500
1640844798.797300,-0.077357960,0.245736410,10.876009940,0.228856560,-0.713205520,0.403343290
1640844798.797850,0.289024470,0.216920140,9.488380430,0.255723360,-0.712339700,0.370460810
1640844798.801880,0.177740590,0.146561100,10.446233750,0.291198550,-0.757177350,0.355626730
1640844798.802660,-0.211790200,0.407711830,10.572691920,0.278492330,-0.665679750,0.375083150
1640844798.806960,-0.065402170,0.131215110,9.844467160,0.215895550,-0.771077280,0.343504670
1640844798.808820,-0.478340830,-0.117632480,10.755818370,0.242638660,-0.778422000,0.351101310
1640844798.811960,-0.353130370,0.071924970,9.505068780,0.285872850,-0.674514590,0.332358540
1640844798.812620,-0.149113340,0.100805070,9.962188720,0.245200190,-0.752808510,0.327006100
1640844798.816980,-0.262166980,0.200531810,10.882397650,0.208242280,-0.675550100,0.352841620
1640844798.817770,0.488685430,0.133672120,9.423110960,0.225298140,-0.679396210,0.317670460
1640844798.822090,0.391244290,0.054730040,10.535662650,0.257349100,-0.747236790,0.313083890
1640844798.823530,0.202226010,0.258285610,10.305150990,0.264446500,-0.638958990,0.318519830
1640844798.826890,0.286923500,-0.147127350,9.773612020,0.231422510,-0.758615310,0.288285400
1640844798.828070,-0.327441250,-0.400972280,10.801771160,0.260658620,-0.784902510,0.297249910
1640844798.831890,-0.243490800,-0.367982980,9.312237740,0.287598460,-0.660203520,0.279444520
1640844798.832560,-0.105090050,-0.517612340,9.819462780,0.270333920,-0.704398750,0.266495380
1640844798.836880,-0.555930730,-0.146600040,11.212206840,0.266644420,-0.622077410,0.285835590
1640844798.837790,0.013997860,-0.092492400,9.694110870,0.264868140,-0.704623880,0.262723860
1640844798.841940,0.002297400,-0.106983710,10.323784830,0.303746820,-0.793174030,0.259600670
1640844798.842660,-0.070042520,0.369002130,10.033275600,0.307904240,-0.630395230,0.260710780
1640844798.847070,0.251122420,0.269005270,9.679982190,0.274859460,-0.676752810,0.229617980
1640844798.848120,-0.177858840,0.258396450,11.118087770,0.265649020,-0.745891270,0.252552390
1640844798.852060,-0.080505160,0.305610000,9.922906880,0.286077020,-0.685322400,0.246086760
1640844798.853440,0.140813950,-0.120865450,9.873613360,0.296102520,-0.741577330,0.219325750
1640844798.856950,-0.408860950,0.140572490,10.983430860,0.294631780,-0.666465100,0.233160030
1640844798.857650,-0.026856940,0.241648810,9.635109900,0.247153650,-0.677730080,0.212340070
1640844798.862100,0.210929080,0.026594740,10.147218700,0.222618920,-0.730931820,0.208550720
1640844798.863340,0.096075350,0.426761980,10.514142040,0.244262860,-0.605203270,0.201509940
1640844798.867030,0.433001100,0.459683840,10.068857190,0.242602850,-0.648225960,0.176608610
1640844798.867840,-0.004017080,0.255451860,11.167403220,0.236250500,-0.740467070,0.186418040
1640844798.871920,-0.203940480,0.345162420,10.114834790,0.236520220,-0.702047410,0.181669030
1640844798.872630,0.100637960,0.071659560,9.498879430,0.214897140,-0.703090550,0.173273730
1640844798.876920,-0.159121560,0.129418660,10.532884600,0.198556510,-0.606237470,0.180794340
1640844798.877680,0.196565730,0.259950190,9.956494330,0.194352900,-0.573076430,0.166729120
1640844798.882930,0.469819930,0.071092990,10.471116070,0.191640880,-0.659516570,0.141012680
1640844798.884150,0.231064600,0.321867610,10.633247380,0.199316490,-0.637620810,0.144924270
1640844798.887130,0.325638410,0.225244540,9.761789320,0.186011220,-0.661426960,0.126585410
1640844798.888510,0.069504790,-0.105271500,10.229763030,0.174649090,-0.669880330,0.117070990
1640844798.891860,-0.017857090,-0.120261360,10.031863210,0.200656090,-0.590807200,0.113247340
1640844798.892600,0.109249060,-0.219548660,9.902697560,0.213579860,-0.558370410,0.099155320
1640844798.896980,-0.123567530,-0.363662240,10.908184050,0.212623220,-0.598616960,0.123246030
1640844798.898780,0.031442150,-0.318721920,10.368833540,0.227981840,-0.610683980,0.116589680
1640844798.901970,0.295698080,-0.349022240,9.565236090,0.219602960,-0.619745430,0.084869580
1640844798.903080,0.352898690,-0.150884150,9.791516300,0.222073510,-0.539083720,0.084012750
1640844798.906940,0.471896740,0.257371220,9.981749530,0.208179680,-0.465665850,0.060738630
1640844798.907580,0.402276690,0.295602710,10.557087900,0.192365080,-0.560955820,0.047722470
1640844798.912240,0.045806340,0.233880180,10.841829300,0.239777610,-0.632690010,0.050778690
1640844798.913250,-0.241896550,0.233435020,9.955698970,0.246304320,-0.602378010,0.032635040
1640844798.917080,-0.295914860,-0.062894430,9.892465590,0.223651560,-0.553038780,0.032384700
1640844798.917830,-0.544208820,-0.066532130,10.831357000,0.218845950,-0.500208260,0.050099210
1640844798.922020,-0.128860950,0.044505930,10.197532650,0.209611700,-0.524418060,0.040826200
1640844798.922890,0.340878370,-0.130083340,10.058216090,0.207637280,-0.563578430,0.031010810
1640844798.926910,0.378639550,0.211982640,10.536062240,0.221930440,-0.483226810,0.019095840
1640844798.927980,0.524903300,0.368238000,10.112930300,0.202551530,-0.481820170,-0.004151460
1640844798.931960,0.427018370,0.327610050,10.713417050,0.181908910,-0.602818970,-0.007967650
1640844798.932570,0.298234790,0.567924920,10.214970590,0.183075710,-0.505462290,0.003342330
1640844798.936950,0.406672060,0.450337290,9.665843010,0.176176460,-0.477914600,-0.028510400
1640844798.938690,-0.052818400,0.487290050,11.161223410,0.158095370,-0.475260670,-0.016388300
1640844798.941830,-0.311050000,0.511809470,10.611188890,0.145752730,-0.475923780,-0.017252570
1640844798.942650,0.032785440,0.047713220,9.836821560,0.145559010,-0.565984900,-0.036266450
1640844798.947030,-0.083249430,0.174680710,10.317731860,0.156615700,-0.468713130,-0.032092640
1640844798.947820,0.353186160,0.304516350,9.664358140,0.112161060,-0.357894600,-0.039029130
1640844798.952380,0.621887090,-0.162766520,10.726615910,0.099074840,-0.410398780,-0.056280200
1640844798.953140,0.312544380,-0.045090490,11.297587390,0.164411980,-0.448833470,-0.069959480
1640844798.957010,0.533001120,-0.062663180,9.722460750,0.188055650,-0.515361190,-0.076794620
1640844798.957700,0.238810900,-0.264245450,10.047123910,0.144140440,-0.494608340,-0.067070130
1640844798.961960,0.044163250,-0.067968510,9.988471030,0.116592650,-0.352089140,-0.078885260
1640844798.962580,0.258821640,-0.058592000,9.965249060,0.122703620,-0.362569090,-0.103326150
1640844798.967500,0.065731000,0.163771050,10.940732000,0.153335940,-0.401565430,-0.101925430
1640844798.968740,0.042058920,0.467114570,10.479678150,0.155845250,-0.402228560,-0.116352740
1640844798.971930,0.033082860,0.278883810,10.087178230,0.121580090,-0.454528720,-0.134788480
1640844798.972770,-0.103091490,0.101766740,10.201759340,0.136874650,-0.416624640,-0.133034590
1640844798.976880,-0.045473430,0.077943720,9.906938550,0.167430910,-0.336755780,-0.140975400
1640844798.977960,0.130677940,-0.179607230,10.372977260,0.147326310,-0.346539910,-0.149840130
1640844798.981960,-0.040034900,-0.245733530,11.174516680,0.149637460,-0.385573450,-0.135767440
1640844798.982630,0.075692160,-0.181219290,10.352258680,0.161065210,-0.433048670,-0.139376570
1640844798.986990,0.244463490,-0.157823120,9.726465230,0.146570820,-0.428718390,-0.166700810
1640844798.987780,0.235765250,0.296609040,10.221677780,0.132380430,-0.323846970,-0.166566670
1640844798.992010,0.250060470,0.729070960,10.514419560,0.098422170,-0.278349220,-0.181430590
1640844798.992660,0.325114550,0.752077100,10.742994310,0.093869870,-0.393541220,-0.190982270
1640844798.996880,0.039229560,0.785509770,10.932712550,0.131314990,-0.430476750,-0.180569340
1640844798.997680,-0.146165460,0.676703630,10.079200740,0.127261850,-0.370089680,-0.205045910
1640844799.001980,-0.258616630,0.348881900,10.278524400,0.081460190,-0.407177300,-0.185339150
1640844799.002640,-0.308858310,0.381000790,10.549552920,0.047811870,-0.341525700,-0.169186290
1640844799.007000,0.288835110,0.159676100,9.835949900,0.037735700,-0.273941490,-0.204814990
1640844799.007730,0.542831120,0.065805870,10.956514360,0.043784090,-0.312151010,-0.204430540
1640844799.012210,0.334540370,0.353382380,11.209322930,0.055240110,-0.298293020,-0.202114910
1640844799.013350,0.634229120,0.092530980,10.003005980,0.041818630,-0.403982460,-0.233656210
1640844799.018400,0.434444250,0.236242310,10.291848180,0.016456840,-0.364512210,-0.221028950
1640844799.019100,0.209048880,0.515646460,9.958712580,0.000089410,-0.242146890,-0.239859520
1640844799.021890,0.310786490,0.151203300,10.332612990,-0.008311870,-0.267759030,-0.253877130
1640844799.022600,-0.016410630,0.162066950,11.190896030,0.040787460,-0.306440920,-0.245361030
1640844799.026930,0.062568390,0.202642220,10.205423360,0.075508660,-0.314605240,-0.265152750
1640844799.027670,0.258500640,0.090755380,9.983854290,0.003013010,-0.328755410,-0.249356030
1640844799.031940,0.341488750,0.235904500,10.204423900,-0.062713020,-0.209130330,-0.229544940
1640844799.032600,0.633569600,-0.125279350,10.027689930,-0.015646220,-0.161431740,-0.273419920
1640844799.036930,0.622548880,-0.256206840,10.807356830,0.072078420,-0.250658420,-0.288443360
1640844799.037710,0.218227220,0.072027770,10.671831130,0.102464850,-0.295917720,-0.273779030
1640844799.041890,0.144165780,-0.088007180,9.823320390,-0.000540910,-0.308308040,-0.290003360
1640844799.042560,-0.192815110,-0.304980640,10.206566810,-0.039252640,-0.254374770,-0.282217560
1640844799.046890,-0.320156400,-0.095690650,10.236974720,0.063557940,-0.185312380,-0.296574920
1640844799.047970,-0.111310370,0.022696530,10.345268250,0.097921510,-0.207889120,-0.314703580
1640844799.051860,-0.044424820,0.339561460,10.828685760,0.055256490,-0.243404540,-0.300908120
1640844799.053130,0.017660880,0.566053810,10.538814540,0.007301570,-0.258323550,-0.294318830
1640844799.057010,0.218845340,0.286203710,9.984552380,-0.015619400,-0.276020200,-0.314511390
1640844799.057660,0.266307500,0.250159260,10.196347240,0.043772160,-0.237491740,-0.321941080
1640844799.062430,0.176197470,0.354113250,10.579344750,0.084891920,-0.175336000,-0.337745280
1640844799.063660,0.147331630,0.169889790,10.818988800,0.022082030,-0.249500590,-0.324100260
1640844799.066930,0.039209980,0.096928110,10.755088810,-0.006785990,-0.305613880,-0.301977990
1640844799.067600,-0.039632350,-0.019212170,10.240171430,0.009243190,-0.255902110,-0.331532980
1640844799.072590,0.060648280,0.071224030,10.100448610,0.015829500,-0.217476500,-0.343565640
1640844799.073170,-0.041182130,0.541754540,10.805547710,0.018186870,-0.228761150,-0.330208240
1640844799.077020,0.208973070,0.709735870,10.423982620,-0.031135980,-0.208056020,-0.358554750
1640844799.077760,0.470758410,0.675432920,10.389316560,-0.070759660,-0.244739680,-0.367879900
1640844799.082260,0.190272330,0.901607390,11.076314930,-0.052282210,-0.218419730,-0.349655780
1640844799.083700,0.066207520,0.590600130,10.548406600,-0.034914910,-0.241978500,-0.366322730
1640844799.086870,0.207958280,0.214441370,10.277491570,-0.036102530,-0.319233630,-0.349778030
1640844799.087640,0.160506520,0.354439290,10.148329730,-0.058272480,-0.187549010,-0.347644090
1640844799.091880,0.506144820,0.130120590,9.872726440,-0.126902760,-0.104942920,-0.354664060
1640844799.092670,0.478227790,-0.104911770,11.174053190,-0.112219160,-0.181058050,-0.339210060
1640844799.097010,0.293549660,-0.023945030,10.972679140,-0.040128830,-0.216583920,-0.372315970
1640844799.098050,0.567736800,-0.105363480,9.775386810,-0.028246650,-0.270794330,-0.387618040
1640844799.101880,0.364473460,0.179442580,10.068822860,-0.085689130,-0.193117560,-0.371027020
1640844799.102650,0.164067220,0.302236620,10.257004740,-0.138548030,-0.069743390,-0.393225280
1640844799.106910,0.210396870,-0.122052200,10.759293560,-0.094328820,-0.161226110,-0.397701590
1640844799.107840,-0.104306270,0.155727740,11.055890080,0.009372830,-0.226636260,-0.392709760
1640844799.116040,-0.031651480,0.359827940,9.754193310,-0.007121270,-0.210596650,-0.402939410
1640844799.116660,0.177377160,0.143809070,9.895117760,-0.129534300,-0.172269360,-0.377644540
1640844799.117060,0.117412710,0.323658080,10.526628490,-0.144505500,-0.065258150,-0.384818050
1640844799.118120,0.496963350,0.098578800,10.383360860,-0.060133640,-0.113603470,-0.412200420
1640844799.121900,0.584540310,0.056528870,10.900538440,0.002206860,-0.179576860,-0.400887430
1640844799.122580,0.283642380,0.400550400,10.627918240,-0.033624470,-0.149339440,-0.406894180
1640844799.127040,0.154493180,-0.067619430,10.255907060,-0.118346530,-0.206463070,-0.415057000
1640844799.128700,-0.149182830,-0.206306900,10.473174100,-0.103673350,-0.204284530,-0.394521710
1640844799.132350,-0.104859740,0.130289520,9.929678920,-0.030823050,-0.109116750,-0.419420030
1640844799.133480,0.031998280,0.167272870,10.554372790,-0.049835450,-0.111535210,-0.416369770
1640844799.136880,-0.004767910,0.701613660,11.043169020,-0.105723740,-0.134912150,-0.399500160
1640844799.137630,0.187444430,0.758445500,10.357308390,-0.128121700,-0.193533350,-0.419673380
1640844799.142410,0.329578940,0.513009190,10.357399940,-0.118742910,-0.200294000,-0.426177740
1640844799.143300,0.285808090,0.882909360,10.269382480,-0.087852780,-0.109787310,-0.418746530
1640844799.148460,0.314244300,0.684808190,10.585418700,-0.124588620,-0.123393560,-0.418274190
1640844799.149330,0.389635920,0.233142110,10.952194210,-0.157374140,-0.155060040,-0.397847650
1640844799.151880,0.322265540,0.252012790,10.419459340,-0.125038620,-0.148235260,-0.410550920
1640844799.152650,0.229270410,0.043092840,10.451298710,-0.132060070,-0.171366330,-0.427149330
1640844799.156880,0.301747080,0.187746450,10.338471410,-0.184382530,-0.119946920,-0.406178920
1640844799.157700,0.544758860,0.428825530,10.007462500,-0.193363440,-0.093613580,-0.423593910
1640844799.162670,0.586002770,0.223597010,10.722489360,-0.185009880,-0.074969250,-0.445807040
1640844799.163340,0.571347240,0.658361910,10.672271730,-0.161565870,-0.069202490,-0.442794020
1640844799.166960,0.194426090,0.612463530,10.704354290,-0.158776340,-0.162936760,-0.435531230
1640844799.167640,-0.009170490,0.154214280,10.541992190,-0.198367280,-0.188614460,-0.418570730
1640844799.171890,0.126927780,0.154709190,9.593958850,-0.174044100,-0.099755840,-0.402613070
1640844799.172630,0.197892840,-0.117958710,9.989089970,-0.143425180,-0.021117930,-0.419047560
1640844799.176920,0.332233370,-0.228006810,10.969208720,-0.176839580,0.005976860,-0.412049950
1640844799.177670,0.536270020,-0.107630610,10.778913500,-0.148928180,-0.078520160,-0.409355730
1640844799.181980,0.590776210,-0.278333990,10.405543330,-0.136351590,-0.161242490,-0.431072740
1640844799.183400,0.608372570,-0.018686670,9.783984180,-0.145184990,-0.073809940,-0.426612850
1640844799.186930,0.502381680,0.229863660,9.799155240,-0.147558750,-0.009629130,-0.442287360
1640844799.187650,0.161870640,-0.010073090,10.872862820,-0.142067690,-0.038112700,-0.456661080
1640844799.191970,-0.027730410,0.167246270,10.659295080,-0.084425520,-0.097815700,-0.434790550
1640844799.192680,-0.135578810,0.184108760,10.114183430,-0.066912170,-0.139577700,-0.431183040
1640844799.196940,-0.211312000,-0.020564590,10.327388760,-0.134712470,-0.059445210,-0.411917270
1640844799.197670,-0.040233660,0.135380460,10.229471210,-0.126114500,-0.016102190,-0.403268720
1640844799.202390,0.289331380,0.036942670,10.199899670,-0.093749170,-0.042445960,-0.429467890
1640844799.203090,0.646459700,0.132962360,10.437335970,-0.093093510,-0.027988850,-0.420343910
1640844799.207220,0.654793200,0.350643750,10.422595980,-0.071059170,-0.017687680,-0.429329280
1640844799.208580,0.285568890,0.155119370,10.786292080,-0.101533550,-0.134553050,-0.445695310
1640844799.211870,0.156116750,0.201354880,10.147914890,-0.110727560,-0.152684780,-0.433313940
1640844799.212900,0.138302890,0.273719850,9.503513340,-0.084550690,-0.048758100,-0.442531760
1640844799.216900,0.018598490,0.295744210,10.684583660,-0.102177280,0.026698410,-0.441730080
1640844799.218760,0.066006030,0.723628340,11.115501400,-0.124813620,-0.002294780,-0.416548550
1640844799.222100,0.311153860,0.691536780,10.519907000,-0.134444250,-0.126664360,-0.429709320
1640844799.223510,0.514302370,0.527215780,10.176732060,-0.150916010,-0.070664310,-0.423780140
1640844799.228280,0.519950330,0.806149660,9.968303680,-0.130847110,0.038717690,-0.419069830
1640844799.228970,0.282408800,0.558168950,10.691282270,-0.156384720,-0.050528350,-0.418195220
1640844799.231960,0.351064380,0.411649380,10.609665870,-0.180271270,-0.086109340,-0.405280380
1640844799.233700,0.426277580,0.402381120,9.975812910,-0.173036780,-0.027263170,-0.416098590
1640844799.236980,0.100118960,0.067088050,10.820336340,-0.175625100,-0.015506150,-0.418844880
1640844799.237740,0.001004680,0.290028990,10.790752410,-0.179702060,-0.037889180,-0.407023760
1640844799.242120,0.254596440,0.425773110,10.026793480,-0.187343390,-0.072915870,-0.420327570
1640844799.243060,0.470245540,0.452746540,10.137712480,-0.240601640,-0.000904500,-0.412087170
1640844799.246880,0.764695530,0.853825570,10.167187690,-0.253181160,0.090144580,-0.400723550
1640844799.250640,0.737293600,0.444393460,10.832869530,-0.212895900,0.026021900,-0.407671990
1640844799.251880,0.569422840,0.287878840,10.894430160,-0.161358710,-0.043086710,-0.399647740
1640844799.252650,0.459288660,0.392081740,9.865390780,-0.171573480,-0.058864060,-0.391584720
1640844799.257070,0.242021220,-0.003722310,9.786937710,-0.257247720,-0.003486870,-0.389054480
1640844799.257750,0.304520930,-0.071658380,10.086593630,-0.286465970,0.099864620,-0.371545640
1640844799.261880,0.311331630,-0.264652670,10.550560950,-0.188362600,0.108401490,-0.413355320
1640844799.262620,0.350322750,-0.262748180,10.729024890,-0.120843940,0.022454560,-0.414814080
1640844799.266910,0.397378860,0.159554590,10.238931660,-0.155265610,-0.010003150,-0.381687280
1640844799.267700,0.398408950,0.035963960,9.822720530,-0.239175590,0.054016710,-0.401081200
1640844799.272370,0.516063870,-0.052273360,10.013222690,-0.230766880,0.090959690,-0.392614360
1640844799.273020,0.470252480,0.165066380,10.341926570,-0.111851100,0.109890100,-0.387747620
1640844799.277040,0.487570290,0.089907930,10.370951650,-0.080834340,0.097417830,-0.408032540
1640844799.277870,0.440238000,0.287652370,10.459645270,-0.149078670,0.033198300,-0.368182360
1640844799.281920,0.130846490,0.215913640,10.275060650,-0.190348940,0.051598250,-0.373837350
1640844799.283430,0.285091070,0.021428140,9.604074480,-0.185701280,0.070181510,-0.400993290
1640844799.286930,0.353892270,0.307094220,10.151667590,-0.130648930,0.129942600,-0.389759240
1640844799.287750,0.165429700,0.427495180,10.892341610,-0.116275270,0.183320090,-0.411237840
1640844799.292040,0.368848710,0.391419170,10.703047750,-0.164911170,0.049006940,-0.390559430
1640844799.292720,0.251912270,0.375073050,10.362985610,-0.161373590,0.008624790,-0.370888350
1640844799.296890,0.185169150,0.210584280,9.782258030,-0.158049180,0.107209380,-0.391660630
1640844799.297700,0.416854080,0.295988620,9.905842780,-0.154481840,0.138375160,-0.372888240
1640844799.301980,0.243915080,0.411705320,10.783119200,-0.151491170,0.126574930,-0.376822080
1640844799.303060,0.596752410,0.410205270,10.230610850,-0.179453190,0.125779230,-0.386643410
1640844799.307080,0.807184520,0.627051890,10.069982530,-0.183534620,0.109942260,-0.377334680
1640844799.307720,0.235699530,0.742608610,10.932127950,-0.207848880,0.129924730,-0.391696450
1640844799.314080,0.308303680,0.726963580,10.058355330,-0.234273120,0.101804760,-0.381396770
1640844799.314580,0.306556220,0.506065010,9.965496060,-0.191603620,0.061707200,-0.368103410
1640844799.317160,-0.009203080,0.325108050,10.412717820,-0.178787140,0.166565220,-0.375481040
1640844799.317860,0.428781810,0.361820400,9.834928510,-0.213740810,0.196178290,-0.354144010
1640844799.321880,0.188614030,0.048728640,10.988774300,-0.236174460,0.105334820,-0.336669360
1640844799.322950,0.305199530,-0.135155570,10.425456050,-0.224912180,0.132294000,-0.350730150
1640844799.327020,0.883483530,-0.007928460,9.240282060,-0.178539720,0.123071680,-0.360424790
1640844799.327800,0.612963080,0.159772680,10.333023070,-0.194236680,0.190605220,-0.364944430
1640844799.332120,0.742585840,0.405757730,10.135391240,-0.256705310,0.263750580,-0.370951060
1640844799.333620,0.723442970,0.312244390,10.196305270,-0.220850140,0.117895030,-0.372844990
1640844799.336940,0.050254860,0.122572170,10.762112620,-0.151252760,0.102455930,-0.366508960
1640844799.337670,0.123053790,0.261287330,9.332005500,-0.142627950,0.153294220,-0.362655520
1640844799.342210,-0.175207440,0.099824620,10.072149280,-0.179055300,0.129660960,-0.354093280
1640844799.342830,-0.168673560,0.035492100,10.390172960,-0.226242880,0.245359570,-0.337940480
1640844799.346980,0.456707600,0.110381740,9.741885190,-0.186809940,0.219154390,-0.354366060
1640844799.347990,0.279218440,-0.076380660,10.895937920,-0.117033720,0.149215770,-0.350169840
1640844799.352080,0.452702110,0.126127730,10.159177780,-0.124481330,0.165000540,-0.357170400
1640844799.353160,0.688042700,0.219077860,9.442619320,-0.151340680,0.116540480,-0.378774080
1640844799.356860,0.350513990,0.090219620,10.251544000,-0.184647740,0.198744250,-0.359775160
1640844799.357700,0.441878620,0.321988670,9.984065060,-0.158715250,0.248436670,-0.366139410
1640844799.361960,0.094105290,0.308337960,10.728951450,-0.106295940,0.119051340,-0.369639720
1640844799.363080,-0.133161110,0.497049030,10.463960650,-0.121918340,0.110943630,-0.343313900
1640844799.367700,0.139238920,0.667331810,9.289893150,-0.173953180,0.144578500,-0.346411790
1640844799.368970,-0.055770550,0.459834780,10.258379940,-0.185906890,0.207802670,-0.343754890
1640844799.371900,0.108229600,0.582663950,10.503781320,-0.168024020,0.219939660,-0.342984500
1640844799.372650,0.385432540,0.631998180,10.286473270,-0.150790810,0.122098630,-0.358736460
1640844799.376930,0.377753140,0.328206120,10.316319470,-0.151179720,0.134214760,-0.345367190
1640844799.377720,0.620909690,0.426588950,9.743642810,-0.182880460,0.180412840,-0.352431830
1640844799.382610,0.248172250,0.375137120,10.572320940,-0.209181040,0.162728130,-0.353524180
1640844799.383900,0.340196850,0.346307040,10.273323060,-0.204913320,0.151290010,-0.331802670
1640844799.387250,0.646416660,0.502291620,9.700448040,-0.198699560,0.136151920,-0.341943000
1640844799.388460,0.432778420,0.568736970,10.248516080,-0.192387430,0.227069900,-0.345659320
1640844799.391920,0.573078990,0.726051750,9.961121560,-0.220376300,0.233899100,-0.330868360
1640844799.392670,0.233706090,0.557705940,10.679018970,-0.244164510,0.119961810,-0.345641460
1640844799.400840,0.140133840,0.298984260,10.086975100,-0.209276410,0.151911390,-0.345853060
1640844799.402430,0.399376210,0.332679000,9.218100550,-0.185783210,0.152754800,-0.336131450
1640844799.403190,0.091435300,0.184807780,10.420259480,-0.223150880,0.229744610,-0.325152370
1640844799.403560,0.499357970,0.061472820,9.838012700,-0.241962110,0.295172720,-0.321510490
1640844799.406880,0.549325880,-0.129812080,10.357468610,-0.196006910,0.144489110,-0.322908160
1640844799.407710,0.303768460,-0.051742640,10.337811470,-0.144554670,0.172458600,-0.317995250
1640844799.411900,0.856441080,0.290335150,8.660934450,-0.199243440,0.195613520,-0.321856140
1640844799.414510,0.499244270,0.230894950,10.269524570,-0.249294980,0.226314400,-0.325311750
1640844799.417010,0.411064120,0.317748900,10.250785830,-0.210797830,0.328557190,-0.337047870
1640844799.417660,0.580157040,0.337228600,9.871813770,-0.135001560,0.153034930,-0.346219570
1640844799.421930,-0.107691370,0.170847150,10.835433960,-0.111836220,0.154724730,-0.324060020
1640844799.422660,0.130263950,0.263422220,9.005512240,-0.173459950,0.231714590,-0.324526430
1640844799.426950,0.111208300,-0.056738070,9.629595760,-0.201302780,0.165027380,-0.315591690
1640844799.427680,0.144344840,-0.045495760,9.996620180,-0.159664480,0.329533250,-0.313659070
1640844799.432180,0.941237930,0.201015170,9.328801160,-0.126816330,0.298586490,-0.332951580
1640844799.433720,0.641367670,0.163835530,11.207806590,-0.111956910,0.219161850,-0.319351260
1640844799.436960,0.807159960,0.458192560,9.937065120,-0.151409250,0.243541630,-0.326573910
1640844799.439430,1.004256840,0.327406230,9.024598120,-0.165860350,0.176413370,-0.325623150
1640844799.442200,0.338878540,0.329591750,10.281661990,-0.137113080,0.315274390,-0.316943290
1640844799.442800,0.377368060,0.714327750,9.533443450,-0.140127540,0.331988960,-0.328709190
1640844799.449210,-0.027099680,0.465376440,10.407573700,-0.137358930,0.156649990,-0.304980670
1640844799.451050,-0.252179210,0.559058900,10.051582340,-0.150007010,0.255842540,-0.297623870
1640844799.452090,-0.003318090,0.659216340,9.249947550,-0.183224720,0.265193020,-0.313022730
1640844799.452680,-0.380544720,0.500242710,10.879304890,-0.185459850,0.248567770,-0.296652320
1640844799.458380,0.060014550,0.707861780,9.944822310,-0.197736920,0.271824030,-0.310248170
1640844799.459140,0.661278430,0.517650660,9.574859620,-0.183694060,0.193522890,-0.319878760
1640844799.462040,0.639523860,0.596778990,10.215784070,-0.179362310,0.306902860,-0.301504140
1640844799.463310,0.941621120,0.685100790,9.568982120,-0.230062050,0.314226750,-0.305476810
1640844799.467080,0.757949230,0.299730540,10.342682840,-0.225208710,0.181069970,-0.289663670
1640844799.468790,0.714401720,0.533329960,9.577625270,-0.201869000,0.254416410,-0.295113000
1640844799.473430,0.788984840,0.500535250,9.220053670,-0.250859560,0.272166730,-0.297772910
1640844799.474010,0.250377000,0.403842480,10.335324290,-0.248788330,0.327994020,-0.280636610
1640844799.476960,0.262896840,0.443855080,9.837210660,-0.234277590,0.295056400,-0.314141810
1640844799.477700,0.092864640,0.172471630,10.111818310,-0.206844510,0.210683060,-0.304447110
1640844799.481990,-0.009150030,0.360812690,9.644016270,-0.203469440,0.293935920,-0.283290450
1640844799.482760,0.281210930,0.180242990,9.382761000,-0.262557000,0.283953610,-0.301635350
1640844799.487150,0.350269620,-0.000513020,10.072686200,-0.241930830,0.343976970,-0.289252460
1640844799.488040,0.808288930,0.205731530,9.368457790,-0.185547780,0.364968180,-0.293645290
1640844799.491940,0.884969410,0.207887590,10.062884330,-0.192908940,0.278916950,-0.278882710
1640844799.493270,0.785684760,0.396619050,9.786351200,-0.218083010,0.333812830,-0.261876020
1640844799.497070,0.950195190,0.293769540,9.033219340,-0.245817050,0.285445150,-0.291694760
1640844799.497720,0.442055370,0.129379630,10.007168770,-0.202700530,0.325249220,-0.294311400
1640844799.502420,0.445170020,0.428168060,9.208665850,-0.171187550,0.402002100,-0.311800870
1640844799.503510,0.189653250,0.236982520,10.140945430,-0.193446900,0.294463370,-0.318759680
1640844799.506930,-0.231385930,0.315799240,10.371717450,-0.205487060,0.338862900,-0.291831850
1640844799.507870,0.140458360,0.228146960,8.943893430,-0.210601140,0.282985030,-0.294207070
1640844799.512210,-0.017896780,-0.114041110,10.049946780,-0.168508290,0.327067080,-0.278906550
1640844799.512900,0.292987230,0.241404820,9.403972630,-0.137360390,0.454022080,-0.285922050
1640844799.516940,0.646933500,0.294053640,9.783576010,-0.187189910,0.305494700,-0.289891750
1640844799.517730,0.658697370,0.454574260,10.265563010,-0.215116170,0.342795280,-0.255592230
1640844799.521890,0.983807560,0.533568560,9.046563150,-0.211378960,0.373844860,-0.289425280
1640844799.523030,0.634448830,0.455786970,10.361839290,-0.172831120,0.309293000,-0.296749170
1640844799.526960,0.226972860,0.797311780,10.024042130,-0.164118420,0.361454490,-0.285211210
1640844799.527800,0.397010620,0.748249110,9.088298800,-0.224907730,0.283779230,-0.301620420
1640844799.531930,0.019985510,0.746173020,10.137689590,-0.255809780,0.365968110,-0.263771500
1640844799.532660,0.186743740,0.833247720,9.323881150,-0.256919860,0.431072800,-0.279019770
1640844799.537160,0.227436380,0.515026390,10.113798140,-0.235289370,0.314660460,-0.279614360
1640844799.538040,0.237275910,0.778732180,10.149517060,-0.213301230,0.368095990,-0.261706140
1640844799.541950,0.696108940,0.723677220,9.085851670,-0.289473000,0.360389110,-0.272211520
1640844799.542860,0.719837130,0.555667640,9.982512470,-0.327035780,0.381118090,-0.245948170
1640844799.546950,0.841348710,0.411546320,9.772387500,-0.296400550,0.458616110,-0.266921610
1640844799.548070,0.856400070,0.058487470,9.709660530,-0.241349670,0.348053900,-0.292079150
1640844799.552370,0.574235980,0.358865590,9.884643550,-0.216045990,0.354552300,-0.252698360
1640844799.553650,0.485594570,0.444432530,9.126245500,-0.322911200,0.405220780,-0.264503060
1640844799.556880,0.507332620,0.323804440,9.428591730,-0.389133450,0.390257030,-0.242991790
1640844799.557700,0.506180410,0.440935050,9.628500940,-0.302107630,0.499411020,-0.258854030
1640844799.562060,0.542649750,0.501034380,9.663438800,-0.241254280,0.461280440,-0.293090940
1640844799.563940,0.327706040,0.724889640,10.175577160,-0.240333410,0.387205270,-0.250735940
1640844799.567080,0.174527200,0.481517430,9.593516350,-0.329767170,0.368997540,-0.267490830
1640844799.568140,0.290500970,0.059245130,8.948502540,-0.349251960,0.377084310,-0.254796480
1640844799.571880,0.302676650,-0.046632330,9.165760040,-0.253334640,0.488740270,-0.249773310
1640844799.574440,0.418206130,-0.200770170,9.702133180,-0.232020050,0.513660970,-0.283771750
1640844799.576920,0.555169820,0.064572660,10.132212640,-0.239020620,0.431087700,-0.247678210
1640844799.577740,0.661977710,0.192166700,9.710769650,-0.294505120,0.392465380,-0.245615870
1640844799.581910,0.757384360,0.214811950,9.159454350,-0.326268400,0.421325950,-0.255966190
1640844799.582840,0.613186300,0.552460310,9.363355640,-0.255969170,0.495976300,-0.260578100
1640844799.587280,0.293694730,0.642090620,9.981464390,-0.232605680,0.476881920,-0.283890960
1640844799.588160,0.206580670,0.977327880,9.745678900,-0.258424910,0.408507940,-0.266915590
1640844799.591940,0.183124680,0.929600720,9.285113330,-0.303979250,0.399583610,-0.252179800
1640844799.592670,0.088647900,0.600545350,9.627774240,-0.345851570,0.477720860,-0.261372420
1640844799.597230,0.113907120,0.745153960,9.805257800,-0.293587240,0.478252830,-0.247594740
1640844799.598000,0.270842940,0.478020790,9.874942780,-0.288976820,0.416974780,-0.262908730
1640844799.601990,0.729656460,0.638020750,9.225165370,-0.330692590,0.473313090,-0.251551000
1640844799.603800,0.923963670,0.751214030,9.328102110,-0.369104830,0.507213230,-0.237813640
1640844799.607140,0.721117080,0.410085920,10.190120700,-0.402899180,0.486566190,-0.242219900
1640844799.607850,0.745274360,0.595520500,9.442595480,-0.346325370,0.409054820,-0.245624830
1640844799.611820,0.490390120,0.521543090,9.471055980,-0.324928850,0.405027060,-0.255627990
1640844799.612620,0.386455600,0.775078590,9.420930860,-0.390762150,0.535787760,-0.246250660
1640844799.616930,0.259690460,1.015840530,9.763919830,-0.454518350,0.495560590,-0.233133200
1640844799.617790,0.220673020,0.693931940,9.997468950,-0.455880220,0.487810460,-0.241348180
1640844799.622290,0.521788950,0.793959560,9.046432500,-0.387238060,0.482942190,-0.259931390
1640844799.622790,0.252637360,0.765075560,9.599729540,-0.368964730,0.465789530,-0.257554710
1640844799.626900,0.512839440,0.646811010,9.184307100,-0.461189540,0.519117710,-0.231257110
1640844799.627680,0.774983940,0.338994680,9.331446650,-0.500617980,0.487193550,-0.232352350
1640844799.631930,0.769887690,-0.073121850,9.841009140,-0.443622530,0.586111900,-0.239914700
1640844799.632710,1.064377550,-0.035956560,9.441009520,-0.377987380,0.564551530,-0.247415930
1640844799.637140,0.484825340,-0.119017050,10.244853970,-0.370493620,0.457944040,-0.248928400
1640844799.637860,0.576289530,0.069969060,8.810915950,-0.435595270,0.487202500,-0.231827830
1640844799.642020,0.627732400,0.182846700,8.446701050,-0.476598890,0.496329460,-0.237205680
1640844799.643250,0.257934180,0.286364500,9.435113910,-0.429138630,0.655263780,-0.243878410
1640844799.646930,0.615480840,0.583327410,9.398535730,-0.383257870,0.612832730,-0.267146560
1640844799.647720,0.014241150,0.594353560,10.684206010,-0.359569580,0.464190600,-0.265087280
1640844799.651980,0.283359860,0.658314700,8.931144710,-0.398463100,0.498864140,-0.242741440
1640844799.653460,0.418992160,0.347398760,8.728461270,-0.448831980,0.508956730,-0.240965220
1640844799.658360,-0.040487260,0.070560870,9.791212080,-0.397284390,0.641867700,-0.242051530
1640844799.659090,0.682688470,0.085578100,8.770092960,-0.351145980,0.568518220,-0.260290560
1640844799.662040,0.465167460,0.041310000,9.918848040,-0.346024420,0.476470680,-0.243839650
1640844799.662640,0.825030090,0.257997480,8.823485370,-0.404232830,0.618425130,-0.231163250
1640844799.667160,0.899145840,0.173518340,9.368115430,-0.431366320,0.536467250,-0.248488830
1640844799.668190,0.156631620,0.326641230,10.522528650,-0.380721780,0.559006690,-0.240729790
1640844799.672240,0.733217950,0.640862940,8.361533160,-0.357838030,0.525865080,-0.263993470
1640844799.673020,0.166786250,0.617432240,9.794854160,-0.371976260,0.506827290,-0.248472420
1640844799.677070,-0.003076210,0.989167570,9.257117270,-0.417699010,0.671495560,-0.237511130
1640844799.677810,0.324113790,0.774932620,9.296745300,-0.458018570,0.485344290,-0.245508600
1640844799.681900,-0.108851470,0.784469370,10.276579860,-0.416520330,0.538238940,-0.224424930
1640844799.682700,0.773502710,0.878719450,8.267431260,-0.413787420,0.606961670,-0.254793520
1640844799.687000,0.676549850,0.788250860,9.961190220,-0.453652530,0.566139820,-0.236235590
1640844799.687810,0.786330160,1.029787540,9.692856790,-0.498236840,0.669673260,-0.212986800
1640844799.693350,1.289219500,0.529019240,8.955078120,-0.512406410,0.524751960,-0.250452820
1640844799.693810,0.646750510,0.461483930,10.035735130,-0.464034170,0.561261300,-0.234338690
1640844799.696910,0.685443280,0.545467320,8.633730890,-0.461272980,0.626955990,-0.249451430
1640844799.697640,0.347897860,0.200781940,9.649201390,-0.512919010,0.511074070,-0.231657970
1640844799.701900,0.117961480,0.626329000,9.480076790,-0.532581150,0.641195710,-0.210848510
1640844799.702700,0.667293850,0.500619350,8.606943130,-0.565222080,0.635147210,-0.244841020
1640844799.707360,0.327521860,0.613277850,10.266197200,-0.519618510,0.645493210,-0.221794890
1640844799.708480,0.482560130,0.827086810,9.266005520,-0.489364650,0.650669690,-0.247126890
1640844799.711960,0.677762990,0.504285810,9.142621990,-0.518809380,0.514149840,-0.242109630
1640844799.713070,0.563572650,0.726661980,9.005929950,-0.547161820,0.651553450,-0.222323860
1640844799.717340,0.805068370,0.320381190,8.474886890,-0.579361680,0.697843850,-0.238350080
1640844799.718840,0.498036150,-0.093050840,10.127849580,-0.507733400,0.648501630,-0.227946090
1640844799.722020,0.285342900,0.087374500,9.626894000,-0.441429110,0.632660210,-0.255246520
1640844799.722730,0.475506810,-0.068730100,8.834359170,-0.491321150,0.523732720,-0.240197810
1640844799.726970,0.178965200,0.261716630,9.154779430,-0.550134660,0.642518940,-0.218638850
1640844799.727720,0.502296570,0.217642190,8.503397940,-0.567920630,0.739354010,-0.264911440
1640844799.731890,0.501840110,0.313474060,9.748180390,-0.487902850,0.645512520,-0.261789620
1640844799.732700,0.397098390,0.873157860,9.509150510,-0.436966240,0.658029620,-0.254282410
1640844799.736950,0.547531070,0.635083970,8.893886570,-0.511700030,0.568343820,-0.262750770
1640844799.737670,0.083089220,0.639799420,9.651806830,-0.534659740,0.604661050,-0.233319460
1640844799.741990,0.136471090,0.371001180,8.848334310,-0.527283730,0.644110260,-0.256815550
1640844799.742680,0.391778020,0.157773790,9.171742440,-0.477709000,0.612336580,-0.249096810
1640844799.747060,0.327696500,0.496751870,9.502508160,-0.468014360,0.713818010,-0.250658480
1640844799.748060,0.589352970,0.404410000,9.310226440,-0.540347520,0.633654120,-0.254169200
1640844799.752070,0.510296700,0.622184870,9.605557440,-0.560899140,0.558850290,-0.239197950
1640844799.752910,0.569579720,0.703389940,8.771302220,-0.553624390,0.615284030,-0.255544540
1640844799.756880,0.679273130,0.709107340,8.991442680,-0.521679400,0.646578010,-0.262600270
1640844799.757760,0.363071440,1.100746390,9.932884220,-0.528951110,0.680175540,-0.263354270
1640844799.761970,0.358314960,0.952607570,9.620001790,-0.592400310,0.613178370,-0.248067160
1640844799.762660,0.585345920,0.758073150,9.081252100,-0.598041770,0.585466800,-0.238467810
1640844799.767220,0.314093050,0.656965320,9.217090610,-0.578370870,0.676824330,-0.253626760
1640844799.768290,0.527985990,0.608651220,8.927555080,-0.582985640,0.679835860,-0.233660670
1640844799.771840,0.731987420,0.614279870,9.246174810,-0.612233640,0.645141480,-0.238899960
1640844799.772710,0.885896560,0.458450850,9.170125960,-0.644880650,0.727856340,-0.246138930
1640844799.776940,1.200584290,0.471796840,8.940221790,-0.624887880,0.706236240,-0.256849880
1640844799.777720,0.592497290,0.340853960,9.979773520,-0.595249350,0.695146680,-0.266553550
1640844799.782780,0.307554070,0.234429580,9.174032210,-0.590318620,0.646591370,-0.258189500
1640844799.784420,0.206948330,0.070836510,8.798007970,-0.580193280,0.559984390,-0.261160790
1640844799.787370,-0.110388700,0.065802900,8.712778090,-0.599850890,0.734555900,-0.256089960
1640844799.788160,0.305224060,0.318324830,8.569964410,-0.624050440,0.778652910,-0.243677240
1640844799.791870,0.022153300,0.098128120,10.491340640,-0.599520090,0.718206410,-0.246065930
1640844799.792670,0.418238160,0.393906240,9.224348070,-0.549109340,0.659185830,-0.256654680
1640844799.796980,0.717122020,0.510275360,8.587117200,-0.551772240,0.569008410,-0.257422120
1640844799.797780,0.436515300,0.448575140,8.909196850,-0.601004180,0.741276260,-0.246858640
1640844799.802540,0.811414060,0.419100050,8.380465510,-0.603218500,0.754408780,-0.268717170
1640844799.803640,0.358333350,0.051152510,10.046334270,-0.538043920,0.631839160,-0.260821070
1640844799.806830,0.336145760,0.115715270,8.856800080,-0.490719170,0.683115480,-0.247290790
1640844799.807690,0.393656490,-0.042773370,8.780223850,-0.523439170,0.579895200,-0.264802630
1640844799.811940,-0.252037760,0.019448410,9.645215030,-0.566297890,0.703287240,-0.245665090
1640844799.812690,0.369738130,0.250622150,8.217834470,-0.584551810,0.689815220,-0.285504820
1640844799.817020,0.225932020,0.262999680,9.713926320,-0.522896770,0.646601740,-0.279226990
1640844799.817800,0.493666680,0.746185300,8.978475570,-0.482459430,0.769907410,-0.274200740
1640844799.821920,0.804913400,0.690043270,9.243298530,-0.523488280,0.611744880,-0.282810720
1640844799.822730,0.225108910,0.653749170,9.972417830,-0.544285950,0.646431920,-0.228534680
1640844799.826940,0.793914500,0.468160720,8.002396580,-0.537882860,0.647530080,-0.257574080
1640844799.827740,0.455436170,0.237365860,9.604289050,-0.510420140,0.644995450,-0.238859730
1640844799.832070,0.325135740,0.673281610,9.119785310,-0.527025880,0.803937260,-0.240035380
1640844799.833590,0.669689360,0.475159970,9.103493690,-0.581252690,0.606832090,-0.267009500
1640844799.837310,0.106193520,0.669201310,9.769127850,-0.569114270,0.673383590,-0.252753560
1640844799.838210,0.597866120,0.889513730,8.029653550,-0.584837970,0.685033320,-0.303477140
1640844799.841930,0.132887080,0.833282710,9.783389090,-0.578181560,0.637483780,-0.271117750
1640844799.842670,0.116829830,1.048172350,9.167751310,-0.593713100,0.735351680,-0.264158930
1640844799.848940,0.638885320,0.536456410,8.831813810,-0.608892800,0.630720080,-0.279590520
1640844799.849690,0.206038530,0.505071520,9.867281910,-0.572258410,0.722427730,-0.245709760
1640844799.851870,0.622378590,0.428770120,8.584737780,-0.591010030,0.716082990,-0.274334910
1640844799.854890,0.619147120,0.118001630,9.410835270,-0.621313040,0.595705270,-0.250077340
1640844799.856830,0.809947790,0.287865400,8.537658690,-0.612859610,0.763267580,-0.262761210
1640844799.857710,1.208230730,0.172487180,8.498101230,-0.615337670,0.728742960,-0.299017220
1640844799.861880,0.708260360,0.494540480,10.005199430,-0.588904560,0.763555110,-0.269579950
1640844799.862870,0.761214020,0.478890360,8.906867030,-0.607809720,0.720472930,-0.315630580
1640844799.866980,0.262101530,0.274030480,9.453138350,-0.595288100,0.595334290,-0.291031660
1640844799.870820,-0.082115390,0.350551780,8.582529070,-0.559656560,0.714376690,-0.275039760
1640844799.871840,0.159332010,0.005584210,8.121271130,-0.581096290,0.718406080,-0.303757280
1640844799.872730,-0.017953780,0.089669720,9.506425860,-0.563544210,0.799454930,-0.259985120
1640844799.876910,0.451130810,-0.015122840,8.938097950,-0.551663460,0.789314750,-0.289465550
1640844799.880710,0.669224200,-0.115194920,9.487985610,-0.522528710,0.644208550,-0.277671310
1640844799.881850,0.740070700,0.124979090,8.827502250,-0.511013090,0.761784850,-0.283092320
1640844799.882680,0.927280370,-0.001191950,8.551406860,-0.546065090,0.718997540,-0.324910940
1640844799.886950,0.579535480,0.244108170,9.325085640,-0.517594990,0.747978810,-0.303238690
1640844799.887750,0.620374080,0.295249370,8.476772310,-0.493773880,0.740587890,-0.322663840
1640844799.892080,0.377729560,0.256165470,9.200145720,-0.481991560,0.707277830,-0.304272830
1640844799.893530,-0.013581490,0.406334130,9.260575290,-0.471127120,0.754411580,-0.280279010
1640844799.896990,-0.097608160,0.109144900,8.933237080,-0.489866910,0.663452090,-0.292368320
1640844799.897770,0.047664870,0.258606700,8.747654910,-0.473639490,0.714658440,-0.290307460
1640844799.901940,0.124822060,0.382471200,8.754833220,-0.475409780,0.802062810,-0.315199910
1640844799.902820,0.283851830,0.420410750,9.487063410,-0.478550940,0.746513960,-0.320321410
1640844799.906990,0.359120550,0.591858210,9.371494290,-0.461119590,0.670849140,-0.322839770
1640844799.907680,0.483474730,0.504719260,8.737397190,-0.485539640,0.647215720,-0.330753770
1640844799.911980,0.720629990,0.537325260,8.566575050,-0.487512470,0.751652000,-0.316231040
1640844799.912760,0.176626280,0.497941670,9.825320240,-0.480936560,0.740385170,-0.302970440
1640844799.917150,0.558479250,0.597668410,9.002704620,-0.488442240,0.681200800,-0.287607400
1640844799.917940,0.594257240,0.692080080,8.913290020,-0.512482350,0.641672370,-0.299146860
1640844799.922120,0.495242800,0.767411110,8.869769100,-0.544981840,0.806558370,-0.304626020
1640844799.922740,0.572552560,0.913679120,9.123688700,-0.547616300,0.733336930,-0.312830600
1640844799.927090,0.047153470,0.789376080,10.044430730,-0.524637220,0.643716870,-0.321026240
1640844799.929340,0.807754340,0.796518210,7.989708900,-0.536234740,0.718052920,-0.325425030
1640844799.931810,0.651497840,0.625593420,8.998036380,-0.560897770,0.741961900,-0.324307500
1640844799.932670,0.432880880,0.485183450,9.438488960,-0.574246230,0.878423690,-0.297902610
1640844799.936920,0.812242570,0.210118470,8.993352890,-0.571322620,0.665047880,-0.308017490
1640844799.937730,0.201337200,0.096111920,9.575477600,-0.526762190,0.669619560,-0.301259850
1640844799.942100,0.835701820,0.477368530,7.384379390,-0.565481310,0.769311430,-0.311978250
1640844799.943640,0.423092990,0.528808770,9.117072110,-0.631345990,0.760673220,-0.316980540
1640844799.947050,0.313178420,0.613762140,9.276097300,-0.625357150,0.892123880,-0.302310440
1640844799.948130,0.506109120,0.406225290,9.244791030,-0.552326560,0.663602530,-0.347027240
1640844799.952090,-0.347675650,0.300482810,9.956254010,-0.475364980,0.672756310,-0.317849310
