timestamp,accel_x,accel_y,accel_z,gyro_x,gyro_y,gyro_z
1640784956173469952,0.012564070,0.426047240,9.126903530,0.020140410,-0.039479140,0.043511390
1640784956174099968,-0.192785520,0.495568070,10.373941420,0.002890830,-0.075557830,0.073120000
1640784956178459904,-0.290768210,0.393186690,10.058721540,-0.107674300,0.043965880,0.082618000
1640784956179270144,0.107106370,0.292852490,9.600575450,-0.121109200,-0.079439590,0.085765120
1640784956183470080,-0.386276160,0.099843590,10.794976230,-0.022341310,-0.077465180,0.068520010
1640784956184079872,-0.084934530,0.257915940,8.978931430,0.002284350,-0.030742590,0.042270120
1640784956188589824,-0.047756590,0.294562370,9.743526460,-0.031277540,-0.081144260,0.057868660
1640784956189049856,-0.348593830,0.046489490,10.426257130,-0.076755890,0.066453230,0.063785910
1640784956194380032,0.032464340,0.194450230,9.608936310,-0.057294970,-0.052355230,0.056283170
1640784956196179968,-0.354540440,0.243308600,10.740862850,-0.007922950,-0.121061500,0.074382130
1640784956198799872,-0.284679470,0.269373120,9.299300190,-0.045621400,-0.013303760,0.069086260
1640784956199299840,-0.207658350,0.317579480,9.579615590,-0.054982300,-0.083929290,0.056090950
1640784956204130048,-0.661742030,0.120451550,10.674736980,-0.016237800,0.003656750,0.068883610
1640784956204749824,-0.073177650,0.193667920,9.321929930,0.008878110,-0.036117430,0.044509770
1640784956208910080,-0.252279070,0.450952770,10.669840810,0.002411010,-0.090222060,0.051967800
1640784956209619968,-0.191093030,0.590055640,10.071450230,-0.088915230,0.012120600,0.081102560
1640784956213649920,0.030786320,0.585128250,9.612918850,-0.108107920,-0.104053330,0.071364630
1640784956214380032,-0.279818000,0.511814120,10.530589100,-0.029088560,-0.055591760,0.073501470
1640784956218479872,0.010558820,0.569651720,9.311511040,-0.005386770,-0.012888010,0.063364200
1640784956219219968,-0.174468520,0.582457420,10.116011620,-0.026828050,-0.088988230,0.067363690
1640784956223680000,-0.218338820,0.390845540,10.190979000,-0.105397420,0.006197390,0.093087550
1640784956224599808,0.096998630,0.232484650,9.488825800,-0.117155920,-0.039634110,0.080849230
1640784956232909824,-0.338385400,0.119053890,10.641332630,-0.052081050,-0.061096250,0.072966520
1640784956234880000,-0.176723480,0.201935500,9.640501020,-0.047217310,-0.024461750,0.068396340
1640784956235450112,-0.194024560,0.110710290,9.666869160,-0.069336600,-0.104594230,0.063942380
1640784956235899904,-0.313749250,-0.065624670,10.177452090,-0.061480700,0.001604860,0.056643780
1640784956238449920,0.034434060,0.131579440,9.465038300,-0.049833960,0.013594330,0.054918230
1640784956239249920,-0.289527920,0.252146150,10.557801250,-0.029496850,-0.072872630,0.071574750
1640784956244339968,-0.136301160,0.434410480,9.974489210,-0.078575310,-0.019951170,0.082097950
1640784956245019904,-0.079884100,0.503937130,9.797310830,-0.105822110,-0.082547960,0.072956100
1640784956248489984,-0.436906520,0.342071180,10.287980080,-0.038494170,-0.054870550,0.066024090
1640784956249019904,-0.140124740,0.407070340,9.449784280,-0.013569000,-0.024397670,0.048427280
1640784956254149888,-0.395843030,0.475743230,10.334255220,-0.027337680,-0.058874500,0.041915490
1640784956255309824,-0.326002060,0.501782480,10.197323800,-0.097474460,-0.018469990,0.066041950
1640784956258749952,-0.071631630,0.508907440,9.819638250,-0.138777490,-0.078070170,0.068479780
1640784956261339904,-0.333455350,0.408435050,10.311496730,-0.089906160,-0.067658740,0.063207750
1640784956263609856,-0.063007490,0.475636480,9.661757470,-0.049895040,-0.032790000,0.066177530
1640784956264329984,-0.292846800,0.476314780,10.358969690,-0.062273450,-0.074709940,0.064265730
1640784956268529920,-0.309519800,0.239080680,10.128114700,-0.086973610,-0.070862480,0.081086140
1640784956269090048,0.119223120,0.107492070,9.489753720,-0.093267860,-0.057792670,0.072164840
1640784956273599744,-0.154615820,0.159543190,10.195593830,-0.077719990,-0.007097420,0.065621740
1640784956274729984,-0.068416040,0.310735760,9.926422120,-0.098882620,-0.016641620,0.087179250
1640784956278640128,-0.134760890,0.253603550,10.254435540,-0.113651160,-0.103363390,0.077649960
1640784956279320064,-0.353057740,0.000626690,9.967144970,-0.071054680,-0.082932410,0.068582600
1640784956283539968,-0.093860160,0.012489710,9.325699810,-0.003980100,-0.069952020,0.050191580
1640784956285039872,-0.422905120,0.173747940,10.170207980,-0.025127820,-0.005230310,0.040897720
1640784956289079808,-0.382531700,0.270970580,9.937365530,-0.106433040,-0.032469630,0.074337430
1640784956289899776,-0.212527600,0.244622590,10.239388470,-0.128293040,-0.114269570,0.087407240
1640784956294009856,-0.383137200,0.179795120,10.072426800,-0.055991110,-0.065805010,0.069287420
1640784956294809856,-0.127487670,0.274002310,9.382389070,0.011949240,-0.092718010,0.054407130
1640784956300819968,-0.318092380,0.266350920,10.389118190,0.002293290,-0.044950840,0.054435430
1640784956301319936,-0.265439990,0.188914920,9.985444070,-0.064107780,-0.022244460,0.055271390
1640784956303939840,-0.071904350,0.246886340,10.153680800,-0.067077580,-0.135633360,0.075274710
1640784956305129984,-0.266896840,0.297865210,10.241115570,-0.047250080,-0.073525320,0.066405540
1640784956308569856,-0.068897080,0.513857480,9.352169990,-0.067962700,-0.067403900,0.053711230
1640784956309710080,-0.380664200,0.733626010,10.676825520,-0.071050230,-0.095705700,0.069959470
1640784956313449984,-0.494023500,0.550448000,10.249771120,-0.076702260,-0.069348530,0.079959650
1640784956314279936,-0.114360170,0.364849150,9.562621120,-0.027190150,-0.155892980,0.073663900
1640784956318490112,-0.312381390,0.409402370,10.386726380,-0.008788710,-0.060103830,0.065512960
1640784956319079936,-0.114831140,0.486833100,9.535077100,-0.101140140,-0.013899800,0.072999310
1640784956323750144,-0.099201490,0.398604420,10.394291880,-0.148010240,-0.145626040,0.094480820
1640784956325690112,-0.150072710,0.137651580,10.307143210,-0.108093020,-0.074483460,0.085297220
1640784956328950016,0.173407500,0.050334480,9.232615470,-0.017231700,-0.099655990,0.049074000
1640784956329560064,-0.252441790,0.173569320,10.528143880,0.020159780,-0.114548210,0.047698620
1640784956333479936,-0.210972710,0.158071950,9.593086240,-0.081241130,-0.013960900,0.067228080
1640784956334109952,-0.055824060,-0.067295330,9.827609060,-0.127175470,-0.123117860,0.080405180
1640784956338619904,-0.422680800,-0.095192850,10.808506970,-0.045385970,-0.071038310,0.079019390
1640784956340240128,-0.131883980,0.034222840,9.201736450,0.007145110,-0.076371430,0.055021050
1640784956344149760,-0.358954880,0.202571760,10.287343980,0.004710260,-0.156462190,0.050108140
1640784956344859904,-0.470578340,0.248844880,10.071579930,-0.070460150,-0.006806850,0.060236450
1640784956348419840,-0.075316320,0.094774160,9.597940440,-0.067545480,-0.115333510,0.042994320
1640784956349059840,-0.346336040,0.189673390,10.910867690,0.042510030,-0.118848670,0.057400760
1640784956354359808,-0.056729850,0.435209870,9.459267620,0.024682280,-0.050760810,0.048881770
1640784956355089920,-0.082434420,0.578838830,10.047297480,-0.068055100,-0.153790380,0.052264330
1640784956360689920,-0.333910440,0.585826690,10.535274510,-0.105732680,-0.056910520,0.075711310
1640784956361229824,0.041884870,0.281902490,9.399853710,-0.047360360,-0.089789930,0.051586340
1640784956363919872,-0.226292880,0.291456490,10.716719630,0.064098830,-0.158470880,0.033119320
1640784956364509696,-0.222580790,0.565836190,9.883077620,0.020915270,-0.045068560,0.051924580
1640784956368539904,0.026658710,0.461832700,9.625153540,-0.119066260,-0.118583460,0.061044110
1640784956369079808,-0.322444140,0.290139910,10.860858920,-0.140710190,-0.064422200,0.076569620
1640784956373539840,-0.033157350,0.222600910,9.627401350,-0.043243170,-0.058819350,0.059901170
1640784956374189824,-0.069836840,0.209386480,10.113098140,0.043383240,-0.177483280,0.039766730
1640784956378419968,-0.244591300,0.392243620,9.990135190,0.000831480,-0.055196890,0.049291560
1640784956379059968,0.201469500,0.293934290,9.123040200,-0.117844370,-0.051881380,0.060194740
1640784956383440128,-0.122719000,-0.016322940,10.846534730,-0.095590950,-0.061453890,0.064495210
1640784956384079872,-0.117777850,0.146690620,10.060042380,0.002403560,-0.044107430,0.049540400
1640784956388900096,-0.002008050,0.305226390,9.681959150,0.007744130,-0.178685780,0.027182700
1640784956389939968,-0.368013830,0.280128060,10.235928540,-0.068303940,-0.065162780,0.031952560
1640784956393549824,-0.094893140,0.254830270,9.239901540,-0.083841390,-0.007463990,0.033985070
1640784956394160128,-0.265690420,0.003164650,10.632357600,0.002628570,-0.103488560,0.028730930
1640784956398459904,-0.240618150,0.153666290,10.127549170,0.046023730,-0.037705900,0.043758750
1640784956399049984,0.084522390,0.321310700,9.436077120,-0.015346700,-0.111362320,0.064942230
1640784956403519744,-0.319857750,0.091541740,10.722112660,-0.075721760,-0.066387650,0.057150430
1640784956404229888,-0.116515700,0.148814900,9.587085720,-0.045360640,-0.023338200,0.048945850
1640784956408589824,-0.130249630,0.228645000,10.216647150,0.025907160,-0.138980170,0.022752580
1640784956409900032,-0.379323540,0.389984220,10.459460260,0.026291610,-0.034387410,0.013524290
1640784956413469952,0.005619280,0.698414680,9.302182200,-0.048536060,-0.065977880,0.042088330
1640784956414080000,-0.329015670,0.550086680,10.822574620,-0.079576680,-0.090734650,0.053878120
1640784956418690048,-0.192529130,0.449208680,9.988686560,-0.048743190,-0.027881570,0.048547990
1640784956419209984,0.020104690,0.568575380,9.808169360,0.020521880,-0.138021980,0.038616360
1640784956423579904,-0.221165450,0.489495430,10.496785160,-0.013603270,-0.047348440,0.049327330
1640784956424219904,0.210500690,0.372239740,9.252991680,-0.088053950,-0.016136470,0.054466720
1640784956428459776,0.084274810,0.150613340,10.405276300,-0.069347030,-0.083404760,0.046655530
1640784956429280000,-0.073717740,0.056978290,10.305174830,-0.024203960,0.006605690,0.031965970
1640784956433649920,0.060761850,0.276197880,9.539295200,-0.018195800,-0.107996160,0.034914900
1640784956434880000,-0.385010480,0.130880950,10.518811230,-0.057055060,-0.103721030,0.042596460
1640784956438850048,-0.123441380,-0.016804520,9.317356110,-0.071929400,0.009159740,0.034172840
1640784956439509760,-0.099645000,0.025599340,9.913156510,-0.000648200,-0.044302650,0.013120470
1640784956443449856,-0.322609930,0.144338910,10.734779360,0.031502550,0.014525650,0.023737550
1640784956444099840,0.044683170,0.310995670,9.545042990,-0.027707220,-0.057920810,0.036056340
1640784956448449792,-0.279689430,0.154891540,10.553322790,-0.046248730,-0.118158770,0.044126810
1640784956449100032,-0.239013910,0.062310690,9.799403190,-0.021754210,-0.004191700,0.034037240
1640784956453569792,-0.128070270,0.090374910,9.511635780,0.040909650,-0.078769040,0.003428760
1640784956455419904,-0.485249460,0.212829140,10.799841880,0.051042440,-0.026480860,0.007823110
1640784956458599936,-0.107887830,0.406481680,9.688239100,-0.019855800,-0.006309150,0.022217630
1640784956459139840,-0.172344250,0.385765880,10.388899800,-0.049059100,-0.115202390,0.021266940
1640784956464219904,-0.190615390,0.475402330,10.394749640,-0.019410250,-0.010164080,0.023727120
1640784956464720128,0.094226730,0.663065790,9.499783520,-0.000667570,-0.048463050,0.009058420
1640784956468729856,-0.301492480,0.645707430,10.810114860,-0.003877280,-0.080759830,0.010268390
1640784956469379840,-0.055654950,0.494168520,9.864076610,-0.036241110,-0.002858040,0.028076770
1640784956474159872,0.089306820,0.268916160,9.832160000,-0.024287400,-0.080163780,0.005403160
1640784956474659840,-0.138402000,0.263668120,10.537639620,0.003752110,-0.016489620,0.010086600
1640784956478519808,0.141748440,0.347108750,9.465239520,-0.053989890,0.012137000,0.024870040
1640784956479179776,-0.139306410,0.134249910,10.548474310,-0.076083840,-0.083699820,0.034295030
1640784956483520000,-0.199168550,-0.101972210,10.284314160,-0.018198790,-0.016526880,0.028724960
1640784956484119808,0.077220510,-0.060606330,9.280154230,0.049525500,-0.056344270,-0.005413590
1640784956488449792,-0.331551640,0.061524170,10.370434760,0.049670040,-0.024653970,-0.014406440
1640784956490049792,-0.143316130,0.255703840,9.780047420,-0.046141450,0.054587420,0.004318360
1640784956493609984,-0.203390080,0.200887050,10.239191060,-0.067481400,-0.076086830,0.012353060
1640784956494279936,-0.423230230,0.082897520,10.619226460,0.019294020,-0.041255360,-0.000223520
1640784956499739904,-0.030608540,0.300395520,9.263428690,0.079348690,-0.037464500,-0.022481380
1640784956500189952,-0.428729410,0.354772480,10.377256390,0.046086310,-0.047321620,-0.025814780
1640784956503459840,-0.318029820,0.327099320,10.252534870,-0.027066470,0.050933660,-0.018395480
1640784956504129792,-0.038707670,0.268761780,9.963826180,-0.021548570,-0.070418420,-0.012028220
1640784956508569856,-0.289636280,0.205694750,10.702745440,0.043049450,-0.069010270,-0.019663570
1640784956509270016,0.051395380,0.470324990,9.386374470,0.039860610,0.003445150,-0.023974480
1640784956513579776,-0.255980460,0.551732300,10.266915320,-0.015828010,-0.064063080,-0.014111400
1640784956514489856,-0.389102370,0.301050130,10.600177760,-0.042787200,-0.008137520,-0.005754830
1640784956518419968,0.017933920,0.161562370,9.633998870,0.024124980,-0.058291860,-0.025613610
1640784956519099904,-0.234584270,0.168289270,10.481958390,0.088661920,-0.061823430,-0.035887960
1640784956523490048,-0.018779150,0.364467020,9.714259150,0.022493300,0.049848860,-0.029529630
1640784956524150016,0.135642470,0.512906910,9.831302640,-0.072589520,-0.031323730,-0.014556940
1640784956528499968,-0.146899300,0.256751240,10.781833650,-0.071181360,-0.012452900,0.009898840
1640784956529189888,0.197981860,0.165005390,9.616526600,0.037422780,-0.012639160,-0.016453860
1640784956533519872,-0.088272040,0.141445130,10.093414310,0.121390820,-0.082796820,-0.035956500
1640784956534109952,-0.139961900,0.116077680,9.863318440,0.040547550,0.047844650,-0.036653870
1640784956538889984,0.066699730,0.113514540,9.693667410,-0.045283150,0.043648480,-0.024583940
1640784956540009984,-0.375304970,-0.185457290,11.022872920,-0.009456280,-0.007002060,-0.024460260
1640784956543479808,-0.157317490,-0.045049320,9.780619620,0.077359380,-0.018967690,-0.035904340
1640784956544129792,-0.176931100,0.215900780,9.556825640,0.102195160,-0.064142060,-0.046907370
1640784956548480000,-0.417221490,0.209483130,10.170257570,0.021967290,0.063060230,-0.047326090
1640784956549079808,-0.129522990,0.274919450,9.915340420,-0.009673830,0.056765970,-0.054374330
1640784956553479936,-0.231246140,0.125520170,10.862706180,0.088517370,-0.034405290,-0.046372410
1640784956554129920,0.097119320,0.308196280,10.023303030,0.127938400,0.018818680,-0.046382840
1640784956558560000,0.200037780,0.662480000,9.719781880,0.051963330,0.015814600,-0.045953690
1640784956559249920,-0.172170340,0.657028260,10.478919980,-0.041657690,0.036014620,-0.025743250
1640784956563959808,0.035619810,0.505900200,9.890249250,-0.034314400,0.016754870,-0.021114950
1640784956564719872,-0.109700280,0.297471640,10.132964130,0.088204440,-0.025375190,-0.052303080
1640784956568829952,-0.215572820,0.391365860,10.083389280,0.137248640,0.048698500,-0.068330760
1640784956569459968,-0.141041460,0.569383320,9.812976840,0.023677950,0.051395600,-0.047303740
1640784956573529856,-0.323321520,0.324036570,10.545552250,-0.082191830,0.037573280,-0.023160880
1640784956574339840,-0.079639920,0.031895470,10.066543580,-0.038309410,0.054928670,-0.032514330
1640784956578709760,-0.099783170,0.052410760,10.010870930,0.100159670,-0.012488670,-0.059427330
1640784956579650048,-0.153175680,0.094166440,9.875861170,0.134959820,0.031836330,-0.070674720
1640784956583449856,0.150435080,0.195623560,9.389411930,0.020915270,0.075732160,-0.060191750
1640784956584100096,-0.154740070,0.064778100,10.471529960,-0.035734480,0.073032080,-0.047907230
1640784956588450048,0.021157260,0.019654330,10.230733870,0.024244190,0.062696640,-0.045034290
1640784956590080000,-0.058624160,0.215864480,10.085086820,0.105762490,-0.017562510,-0.053247810
1640784956594859776,-0.328429400,0.335442660,10.121387480,0.082512200,0.047770150,-0.060714780
1640784956596429824,-0.103305030,0.384092060,9.650458340,0.018085540,0.082588200,-0.052294140
1640784956598459904,-0.479085560,0.258302390,10.488722800,0.035807490,0.046941630,-0.052739680
1640784956599139840,-0.327746060,0.213106110,10.024774550,0.085197380,0.051814320,-0.065258150
1640784956603579904,-0.110958450,0.464138900,9.779036520,0.087028750,0.021839140,-0.072899470
1640784956604169728,-0.414843110,0.574601890,10.354036330,0.013068320,0.079178820,-0.055068740
1640784956608539904,-0.065615890,0.554644580,9.867099760,-0.041766470,0.079268220,-0.044929980
1640784956612859904,-0.236352160,0.422296730,10.587280270,0.026224550,0.014843050,-0.058737400
1640784956613529856,-0.264292750,0.392852490,10.218936920,0.093424330,0.048181410,-0.069716580
1640784956614149888,0.111462530,0.510047500,9.482501030,0.067755570,0.027471780,-0.048838550
1640784956618459904,-0.133916710,0.357896540,10.045352940,-0.016555190,0.090812150,-0.039115550
1640784956619089920,0.112780000,0.154419500,9.817807200,-0.046311320,0.123836110,-0.041702390
1640784956623520000,0.041030060,0.072089920,10.430303570,0.044292210,0.041082490,-0.052344800
1640784956624229888,-0.352077840,0.122847880,10.394361500,0.095622240,0.024600330,-0.070698570
1640784956628819968,-0.129157770,0.205127640,9.422641750,0.037872780,0.012089310,-0.073382240
1640784956631759872,-0.449571100,0.075728080,10.056964870,0.006560980,0.074645880,-0.082969670
1640784956633459968,-0.452545200,0.117013390,9.907795910,0.022239980,0.103026640,-0.088909270
1640784956634099968,-0.172995950,0.334566150,9.968683240,0.066819790,0.030674040,-0.076079360
1640784956638759936,-0.284776240,0.390555350,10.274824140,0.060337790,0.073076780,-0.064818570
1640784956639950080,0.004535620,0.398016300,9.913761140,0.018498300,0.070537650,-0.058405110
1640784956644870144,-0.196342500,0.282278030,10.657874110,0.049848870,0.031189620,-0.054055460
1640784956645849856,-0.275778080,0.221502860,10.059463500,0.072316830,0.046591460,-0.078947850
1640784956648429824,-0.031460550,0.406805990,9.701839450,0.066296760,0.024162230,-0.081512320
1640784956649060096,-0.313498820,0.538135710,10.289328580,0.021795930,0.085289780,-0.067752600
1640784956653459968,-0.049260300,0.638940750,9.751451490,-0.035247210,0.070488450,-0.067894170
1640784956654109952,-0.071464760,0.643980800,10.340321540,-0.010420380,0.021414460,-0.058938560
1640784956658720000,-0.316992130,0.586023750,10.262949940,0.045958170,0.079044700,-0.078190890
1640784956660169728,-0.154416050,0.591074760,9.818672180,0.025878850,0.010141730,-0.072436040
1640784956664219904,-0.345193680,0.366176130,10.282041550,0.007846950,0.023619830,-0.039303300
1640784956665629952,-0.143033770,0.031685110,9.543584820,-0.009839240,0.102739040,-0.062784560
1640784956668489984,0.056383590,0.080821900,10.007525440,0.006425380,0.055272870,-0.070770080
1640784956669169920,-0.224519360,0.203773040,10.473601340,0.015123190,0.095731030,-0.053337220
1640784956673590016,0.009074760,0.149647180,9.673080440,-0.041323900,0.025843090,-0.073967870
1640784956674520064,-0.185104700,0.120711740,10.279305460,-0.009293850,-0.009836260,-0.075440120
1640784956679350016,-0.314263670,0.022297640,9.694918630,0.060720740,0.097845500,-0.091297910
1640784956679770112,-0.067427770,0.229739320,9.655444150,0.057961040,0.055976200,-0.102132570
1640784956683670016,-0.458943670,0.447047410,10.850543980,0.010500850,0.090879210,-0.060801210
1640784956684219904,-0.243676990,0.460831080,9.905206680,-0.060531500,0.065954040,-0.057871640
1640784956689169920,-0.223776460,0.513686540,10.368533130,-0.045259300,-0.047600270,-0.062443320
1640784956690189824,-0.401598450,0.460299280,9.975537300,0.033585730,0.065824400,-0.060229010
1640784956693619968,-0.103487050,0.448684250,9.441329960,0.050975370,0.052578750,-0.095951540
1640784956694389760,-0.401816840,0.428678010,10.894934650,0.018192820,0.041134650,-0.070753690
1640784956699099904,-0.145553050,0.344755710,9.852847100,-0.038009890,0.067116320,-0.057922310
1640784956699679744,0.126627000,0.229325730,9.993727680,-0.056296590,-0.005427000,-0.064936280
1640784956703419904,-0.236780290,0.319575610,10.444691660,-0.006315110,0.094135110,-0.065262620
1640784956704160000,-0.063941850,0.573277120,9.596446990,-0.019162900,0.033330920,-0.072768330
1640784956708559872,-0.237365740,0.417203690,10.496668820,-0.052174930,-0.026218600,-0.061570120
1640784956709260032,-0.120138190,0.154128120,9.670811650,-0.026927890,0.090104330,-0.067321960
1640784956713459968,0.081516500,0.045779520,9.796656610,0.034233930,0.056272750,-0.082939860
1640784956714210048,-0.252289590,0.168768930,10.825207710,0.029549000,0.078080590,-0.080034130
1640784956718499840,-0.043461480,0.263785960,9.587129590,-0.059513750,0.057199600,-0.041638320
1640784956719079936,-0.158368620,0.054035450,10.220430370,-0.087204600,-0.040446230,-0.053004930
1640784956724169984,-0.237680790,-0.131944750,9.881155970,0.002582370,0.084634130,-0.064063070
1640784956725959936,-0.072978350,-0.003872200,9.421817780,0.100234150,0.043506920,-0.090554360
1640784956729600000,-0.480591240,0.151786640,11.018640520,0.078167040,0.049540410,-0.092814880
1640784956730159872,-0.191384630,0.249538530,9.870900150,-0.039531290,0.087390830,-0.059127800
1640784956733510144,-0.177331940,0.283734020,10.244888310,-0.046198070,-0.033684080,-0.051191450
1640784956734119936,-0.376445290,0.293008330,10.501000400,0.024510920,0.054438400,-0.059157600
1640784956738569984,-0.028192620,0.559762000,9.085568430,0.064134610,0.037102400,-0.079102820
1640784956741029888,-0.449079220,0.719325720,10.657393460,0.025190410,-0.002029540,-0.073176610
1640784956743709952,-0.237858060,0.610533770,10.008879660,-0.050778690,0.094906990,-0.052857400
1640784956744400128,-0.019199220,0.441842020,9.936337470,-0.012905900,-0.036120410,-0.051942470
1640784956748539904,-0.356838850,0.360829980,10.935020450,0.035682320,0.024220350,-0.063091520
1640784956749149952,0.060348970,0.545653760,9.302896500,-0.009542700,0.065244730,-0.067907560
1640784956754060032,-0.243243110,0.537229120,10.388236050,-0.068108740,-0.032301250,-0.040613120
1640784956756969984,-0.301705870,0.117469930,10.383028980,-0.070655350,0.071145600,-0.040510300
1640784956758419968,0.085650530,0.020048520,9.316618920,0.023870170,-0.014409430,-0.064340230
1640784956759189760,-0.323283790,0.069986000,10.454124450,0.076840820,-0.001406670,-0.075422230
1640784956763689984,0.021594250,0.254211930,9.525475500,-0.024724010,0.120361150,-0.048814720
1640784956765049856,0.038352750,0.239258290,10.224333760,-0.092002740,0.017221270,-0.026020410
1640784956768440064,-0.257068870,0.048064820,10.884918210,-0.037047270,0.033131240,-0.036451220
1640784956769209856,0.111518240,0.212132560,9.393769260,0.054916740,-0.005714600,-0.054785610
1640784956773860096,-0.295297320,0.292830290,9.976060870,0.075398390,0.003595650,-0.070428840
1640784956774979840,-0.276134250,0.347724880,9.769666670,-0.036709010,0.103901350,-0.060871250
1640784956778459904,-0.172244830,0.264194070,9.988063810,-0.049491230,0.022408360,-0.045129650
1640784956779340032,-0.376029790,0.093319710,10.451598170,0.023314360,0.023645160,-0.042852760
1640784956783469824,-0.064594770,0.341255690,9.775739670,0.038889040,0.019413230,-0.046202540
1640784956784139776,-0.362061020,0.446412650,10.435798650,-0.001057980,0.031620260,-0.044590230
1640784956788519936,-0.340507780,0.351128130,10.195486070,-0.051926080,0.035104160,-0.037989020
1640784956789139968,-0.216659370,0.320769100,10.080488200,-0.013355910,-0.028170650,-0.048416860
1640784956793509888,-0.236988200,0.289416730,9.947892190,0.055398040,0.029198820,-0.051175060
1640784956794800128,0.061976060,0.565292720,9.615432740,0.013630090,0.047472120,-0.053523480
1640784956798439936,-0.139244680,0.710289780,10.638028140,-0.066158180,0.046919290,-0.033625960
1640784956799109888,-0.032632970,0.572351160,10.130754470,-0.112979130,0.035032640,-0.025127830
1640784956803520000,0.029620650,0.375302880,10.173130040,-0.041519110,-0.045318910,-0.043460730
1640784956804149760,-0.267597230,0.341103080,10.165822980,0.053435580,0.022377080,-0.055702040
1640784956808529920,0.044484980,0.332817910,9.194893840,0.011089450,0.036464630,-0.043208900
1640784956809559808,-0.138419460,0.100809440,10.428344730,-0.071734200,0.053048140,-0.021164120
1640784956813439744,-0.163270830,0.022204460,10.112892150,-0.081191960,0.099280480,-0.019429620
1640784956814119936,-0.021274510,0.047304510,10.044031140,-0.027611850,-0.039494040,-0.032487510
1640784956818679808,-0.409117070,0.153479160,10.371017460,0.008475780,-0.014780460,-0.042733550
1640784956819399936,-0.041288850,0.293076190,8.955165860,-0.035706160,0.052958730,-0.050388280
1640784956823609856,-0.108999880,0.088743930,10.298419000,-0.033950810,0.050704180,-0.056944790
1640784956824569856,-0.208730580,0.054635340,10.406151770,0.029699510,0.122129930,-0.049927840
1640784956828429824,0.125671850,0.245927230,9.809590340,0.045056640,-0.022082030,-0.044862930
1640784956829169920,-0.220993820,0.189388890,10.610325810,-0.010101500,-0.004941230,-0.020112100
1640784956833639936,-0.059927100,0.198896260,9.178215030,-0.057235360,0.074477500,-0.016614790
1640784956834869760,-0.263618080,0.098966870,10.159564020,-0.000965600,-0.007914010,-0.036183000
1640784956838769920,-0.490047780,0.051019570,10.362626080,0.065799060,0.076204540,-0.055223710
1640784956840119808,-0.124978090,0.329537330,9.488536830,0.063452120,0.018103420,-0.063794860
1640784956844069888,-0.502289350,0.424513160,10.956759450,-0.008910900,0.010964280,-0.054880990
1640784956844539904,-0.174753610,0.479370770,9.737578390,-0.071039800,0.065821420,-0.024622680
1640784956848529920,-0.064526110,0.503237430,9.979947090,-0.029107930,-0.037397440,-0.034214560
1640784956849129984,-0.202224730,0.482297510,10.511975290,0.027137990,0.081682200,-0.042243290
1640784956853489920,0.190643010,0.587593790,9.397332190,0.030834970,0.040394070,-0.029221180
1640784956854140160,-0.135111880,0.396915110,10.606392860,-0.008629260,-0.035698720,-0.022961200
1640784956859660032,0.181315150,0.225733880,9.605675700,-0.056804720,0.088416050,-0.022563340
1640784956861059840,0.218066900,0.181558070,9.679301260,-0.023601950,0.026792290,-0.035059450
1640784956863510016,-0.348140810,0.253742870,10.864936830,-0.016936660,0.046317290,-0.040020060
1640784956864179968,0.031717410,0.360874440,9.454571720,-0.054900360,0.043948000,-0.029182430
1640784956868419840,-0.342326050,0.133819220,10.323246000,-0.015951690,-0.023347140,-0.033317510
1640784956869120000,-0.344004150,0.023389220,9.971321110,0.016158820,0.081744800,-0.045326360
1640784956873549824,-0.027780940,0.202528520,9.247816090,0.029934940,0.036469100,-0.040236120
1640784956874269952,-0.411048440,0.177012890,10.509178160,-0.020280480,0.057591510,-0.021921100
1640784956878459904,0.087231200,0.130904320,9.791334150,-0.073362890,0.094588110,-0.010497870
1640784956879119872,0.008742170,0.010864220,10.306096080,0.009396670,-0.008746980,-0.026251380
1640784956883520000,-0.093869500,-0.007583940,10.077648160,0.067058210,0.041130190,-0.046488640
1640784956884140032,0.249163400,0.186144580,9.368056300,0.041890140,0.051066270,-0.059933950
1640784956888470016,-0.311077000,0.139004750,10.572820660,0.005094710,0.090336810,-0.042065980
1640784956889959936,-0.210706860,0.168466360,10.045133590,-0.018249460,0.029435760,-0.024318700
1640784956894269952,-0.228472840,0.243209300,10.023108480,0.044335420,-0.031006340,-0.017009680
1640784956894680064,-0.451678130,0.432031750,9.804028510,0.048074130,0.070862480,-0.020043560
1640784956899489792,-0.352237430,0.617631080,10.065114970,-0.007459520,0.053289540,-0.021846590
1640784956900329728,-0.624726890,0.490164340,10.792769430,-0.010557470,0.045992430,-0.012511020
1640784956903499776,-0.224399240,0.341080730,9.783358570,0.025996570,-0.009214880,-0.019301470
1640784956904120064,0.023555370,0.338814560,10.078138350,0.062753260,0.000604990,-0.038851800
1640784956908579840,-0.016006980,0.445135210,9.831671710,0.011751060,0.139883160,-0.025121870
1640784956909669888,0.130469770,0.508375940,9.998737340,-0.073702620,0.018632410,-0.007785860
1640784956913590016,-0.097031760,0.296547260,10.710584640,-0.063212220,-0.002831220,0.008441510
1640784956914609920,0.124552150,0.069101440,9.354275700,0.021508340,0.029340390,-0.017374750
1640784956918390016,-0.034435410,0.113232540,10.062400820,0.090461970,-0.006257000,-0.036381190
1640784956919139840,-0.349512130,0.182098120,10.100114820,0.032813850,0.120121250,-0.006957350
1640784956923549952,0.011942030,0.034814890,9.593208310,-0.067865830,0.063461060,-0.007505710
1640784956924460032,-0.443438440,-0.178592490,11.140361790,-0.020729010,0.020891430,0.000053640
1640784956928439808,-0.348311510,-0.093557730,9.622214320,0.083419690,0.032095610,-0.014065210
1640784956929250048,-0.209133700,0.047590380,9.317922590,0.107586380,-0.070899720,-0.046889480
1640784956933539840,-0.444713830,0.240680810,10.021121980,0.030645730,0.115570420,-0.028328600
1640784956934159872,-0.037421630,0.291216020,9.673655510,-0.027516490,0.132592020,-0.027191640
1640784956938729984,-0.182146340,0.151460440,11.177900310,0.044901670,-0.017553570,-0.021812320
1640784956939929856,0.035719220,0.408799860,9.969419480,0.112687060,0.022462010,-0.002251570
1640784956943919872,0.176148560,0.587803660,9.411313060,0.063183920,-0.001803040,-0.009304290
1640784956944839936,-0.440549280,0.467774750,10.662220950,-0.018516180,0.069603330,-0.003293160
1640784956948439808,-0.248837340,0.356897800,9.657941820,-0.012403730,0.038667030,-0.002297760
1640784956949070080,-0.340103270,0.184085620,10.255013470,0.081241130,-0.048425790,-0.027970970
1640784956953459968,-0.316045430,0.245659840,10.034565930,0.109685960,0.088845190,-0.036039950
1640784956954190080,-0.156412240,0.606952490,9.808969500,0.011916460,0.045590100,-0.019858780
1640784956958489856,-0.499914500,0.444143680,10.910799030,-0.082239520,0.005657970,0.006189940
1640784956959120128,0.011077820,0.181446570,9.565716740,-0.024242700,0.028735400,0.011022390
1640784956964599808,-0.067122770,0.225545180,10.030737880,0.104023520,-0.012396280,-0.015799700
1640784956965459712,-0.103190210,0.308610350,9.982282640,0.106042620,0.070972730,-0.017781560
1640784956968430080,0.312450860,0.420970740,9.351756100,-0.005871060,0.048406430,0.013709070
1640784956969120000,-0.040954850,0.168727960,10.704385760,-0.074718880,0.072042630,0.019222500
1640784956973899776,0.157805670,0.035997190,10.015395160,-0.013512370,0.078749660,0.013703110
1640784956974579712,-0.122740680,0.159779680,10.153584480,0.105570260,-0.052021440,-0.000239910
1640784956978550016,-0.436310230,0.176066730,9.762826920,0.079977520,0.031100220,-0.018593670
1640784956979579904,-0.064871530,0.191556960,8.996802330,-0.011846420,0.075134640,-0.013825300
1640784956983510016,-0.525164840,-0.006478890,10.698814390,-0.008083880,0.098732130,-0.007744130
1640784956984160000,-0.258895750,0.021905880,10.060256960,0.067542490,0.068810590,-0.016672910
1640784956988639744,-0.139511760,0.311990680,10.110826490,0.106377890,-0.055769090,-0.013034050
1640784956989229824,-0.423960950,0.441757410,10.115115170,0.023023790,0.061696780,-0.000540910
1640784956994159872,0.032157940,0.400470140,9.369554520,-0.039207940,0.059042870,0.013308230
1640784956995569920,-0.281279150,0.176278340,10.703964230,0.048725310,0.045596070,-0.001370910
1640784956998529792,-0.031521430,0.242908920,9.754386900,0.121617340,0.071313980,-0.016318260
1640784956999169792,0.100416850,0.449078350,10.053013800,0.088472670,-0.012744960,-0.019080940
1640784957003490048,-0.330683080,0.547735100,10.405285840,-0.034712260,0.078304110,0.001424550
1640784957004179968,-0.100873200,0.460205970,9.586544040,-0.079524520,0.003477930,0.011725720
1640784957008559872,-0.406234150,0.258811000,10.605685230,0.033918030,-0.014744700,-0.003527110
1640784957010919936,-0.344221120,0.395140710,9.605360030,0.099158290,0.067403910,-0.013072790
1640784957013509888,-0.132471500,0.496842150,9.835059170,0.049974020,-0.009813910,0.002329050
1640784957014149888,-0.279873130,0.310303090,10.532744410,-0.042028730,0.094653670,0.024789580
1640784957018400000,0.193337560,0.168094200,9.479880330,-0.064106290,0.069558620,0.031618780
1640784957019169792,0.029380550,0.086238600,10.632717130,0.047463180,-0.021199880,0.019299980
1640784957023520000,-0.072305010,0.291596290,9.796555520,0.065591940,0.055409970,0.007481870
1640784957024260096,0.175313000,0.280075370,9.099356650,-0.001151860,-0.033651300,0.010268390
1640784957028780032,-0.271378520,0.012552640,10.524867060,-0.015336280,0.089432310,0.006049870
1640784957029539840,-0.068174500,0.093198430,9.641146660,0.012454390,0.120535490,-0.009304290
1640784957033479936,-0.275777190,0.167606100,10.454229350,0.077790010,-0.060968100,0.013288860
1640784957034179840,-0.464409500,0.318636600,10.154020310,0.034987930,0.037555400,0.022302570
1640784957038529792,-0.181731760,0.378476020,9.180608750,-0.051714490,0.024266540,0.024609270
1640784957039150080,-0.685545620,0.084994480,10.798893930,0.006562470,0.003272300,0.038196150
1640784957044229888,-0.351025580,0.096405990,9.763644220,0.092682240,0.045299530,0.004693870
1640784957044839936,-0.122975930,0.356140380,9.794157980,0.105078540,-0.030361120,-0.004436080
1640784957049100032,-0.315640360,0.419807490,10.577860830,0.022335350,0.042346110,0.029627980
1640784957049559808,0.035388510,0.575952470,9.706317900,-0.073185570,0.010859970,0.018261370
1640784957053449984,-0.165887450,0.522544210,10.429687500,-0.027354060,-0.059744720,0.028952960
1640784957054439936,-0.114697840,0.545861360,9.943913460,0.055275860,0.011725720,0.016629700
1640784957058640128,-0.118815940,0.761829320,9.809226990,0.051407520,-0.013232230,0.004860760
1640784957059520000,-0.452183280,0.633212330,10.383738520,-0.012366470,-0.016225870,0.043535240
1640784957063549952,-0.110301960,0.376310800,9.646341320,-0.076593470,-0.006257000,0.051105030
1640784957064270080,-0.230082990,0.124815850,10.089742660,-0.025001170,-0.007706880,0.035527350
1640784957068409856,-0.282589940,0.054777250,10.126038550,0.040131810,0.005516410,0.030799210
1640784957069149952,-0.144946720,0.167147640,9.832815170,0.015755000,-0.059157620,0.028529760
1640784957073519872,-0.211314570,-0.014119370,9.974868770,-0.043483070,-0.017088650,0.034782290
1640784957074380032,0.146800040,-0.114355770,9.571312900,-0.034113230,0.023582580,0.028613210
1640784957078439936,-0.091315870,-0.039775280,10.397064210,0.047527260,-0.005729500,0.014542050
1640784957079180032,-0.120288250,0.235523750,9.807765010,0.059816240,-0.014710430,0.025013090
1640784957083469824,-0.041491720,0.463535160,9.714674000,-0.023455920,-0.073944020,0.049100820
1640784957084179968,-0.494981830,0.319718600,10.240715030,-0.060217090,-0.013738870,0.050693760
1640784957088969984,-0.269125940,0.207592550,9.518094060,0.012753900,-0.036469090,0.029508760
1640784957089900032,-0.453072220,0.255300850,10.452418330,0.090454520,-0.059324510,0.009563570
1640784957094199808,-0.495659800,0.355266570,10.063535690,0.065021220,0.029861930,0.021110480
1640784957094830080,-0.236944240,0.472642570,10.039199830,-0.035561620,-0.081314150,0.040128830
1640784957098490112,-0.536594450,0.372060690,10.587124820,-0.077871990,-0.074812770,0.058645020
1640784957099309824,0.006812300,0.294980850,9.052621840,-0.015620890,-0.046499070,0.043298310
1640784957103439872,-0.137674580,0.421465870,10.394351010,0.057828430,-0.052662200,0.019523500
1640784957104399872,-0.307198140,0.490545870,10.481744770,0.029706960,0.014968220,0.041392450
1640784957108539904,0.032032060,0.342379900,9.867487910,-0.024542220,-0.128604470,0.047528750
1640784957110050048,-0.202024970,0.157342990,10.568321230,-0.032141810,-0.084719070,0.049872700
1640784957113440000,0.009046810,0.215079810,9.144471170,-0.007413330,-0.012202560,0.044324990
1640784957114189824,-0.198539020,0.446152270,10.191040990,-0.001879040,-0.092191990,0.035338100
1640784957118399744,-0.403634970,0.381394000,10.293526650,-0.045974550,-0.010882320,0.051854550
1640784957119139840,0.028272650,0.177600150,9.416368480,-0.040297210,-0.114735960,0.043030090
1640784957124120064,-0.312110720,-0.053793080,10.831883430,0.054717060,-0.080360480,0.026074050
1640784957124699904,-0.157696720,0.056783120,9.412572860,0.059784950,-0.003623960,0.024206930
1640784957128599808,-0.142910900,0.254228770,9.901490210,-0.007602570,-0.144980860,0.050860640
1640784957129159936,-0.411400290,0.094052120,10.557847020,-0.077064340,-0.027561190,0.061319770
1640784957133539840,-0.031151370,0.055226710,9.141389850,-0.032888360,-0.082056220,0.044958300
1640784957134240000,-0.470174040,0.087308410,10.700494770,0.101299610,-0.171363350,0.021597740
1640784957138819840,-0.318694290,0.293724330,9.645480160,0.083811590,-0.008982420,0.005178150
1640784957140839936,-0.119859930,0.515384380,9.719352720,-0.010569390,-0.114494550,0.005036590
1640784957144310016,-0.548564850,0.556486790,11.208595280,-0.067207210,-0.081035480,0.047543640
1640784957144939776,0.053105120,0.584884170,9.206746100,-0.043991210,-0.090384480,0.038833910
1640784957148429824,-0.065244130,0.675309420,10.012558940,0.039835280,-0.179201360,0.029249490
1640784957149139968,-0.276703770,0.812500540,10.242589950,-0.001163780,-0.007726250,0.042891500
1640784957153859840,-0.024021430,0.610440850,9.674588200,-0.068645190,-0.104735790,0.050218410
1640784957155439872,-0.481714370,0.053456030,11.015782360,-0.028394160,-0.191882270,0.052300100
1640784957158479872,-0.080240790,-0.058786090,9.409132960,0.017102060,-0.091585520,0.024609270
1640784957159229952,-0.024649520,0.061275220,9.498593330,0.022113320,-0.113724160,0.016374880
1640784957163579904,-0.392450030,0.252003250,10.534513470,-0.073729460,-0.037732720,0.047959390
1640784957164389888,0.000184690,0.298149650,9.728001590,-0.135241450,-0.118932120,0.053438550
1640784957169240064,-0.171531810,0.000484400,10.393391610,-0.018785890,-0.190563540,0.043320660
1640784957170349824,-0.080163840,0.123190890,9.751461030,0.081960860,-0.093536090,0.022806230
1640784957173649920,-0.074593430,0.353601310,9.655860900,0.052523620,-0.112798820,0.023405260
1640784957174929920,-0.310644150,0.239852700,10.393225670,-0.058378290,-0.085303200,0.046642130
1640784957178499840,0.012305860,0.245760890,9.853346820,-0.095306340,-0.111633540,0.060088940
1640784957179190016,-0.227846550,0.150494520,10.214037900,0.000233950,-0.148117540,0.049711770
1640784957183449856,-0.147210260,0.167955920,9.783970830,0.061807040,-0.119236110,0.027157370
1640784957184169984,-0.254721790,0.343887150,9.937046050,0.015103820,-0.131586180,0.016167760
1640784957188979968,-0.463205670,0.186006170,10.413228990,-0.040552020,-0.097317990,0.024512410
1640784957190269952,-0.151956200,0.082652020,9.983296390,-0.028303270,-0.147297990,0.034461920
1640784957194269952,-0.305901020,0.240214910,10.320672040,0.036861010,-0.158143040,0.037297610
1640784957194729984,-0.090748510,0.544970390,9.569952960,0.009590390,-0.101613980,0.035244220
1640784957198509824,-0.031445120,0.788690510,10.001664160,-0.081621120,-0.140149890,0.052711370
1640784957199179776,-0.284007040,0.560646470,10.551744460,-0.100153690,-0.104735800,0.067864360
1640784957203509760,0.119480350,0.319974750,9.714928630,-0.007617470,-0.167801960,0.042662020
1640784957204169984,-0.138903710,0.294774920,10.403819080,0.079943240,-0.170122100,0.019982460
1640784957209280000,-0.071295890,0.362738520,9.559580800,0.003051760,-0.098161410,0.039097670
1640784957209709824,0.162021520,0.280755490,9.711942670,-0.122213350,-0.128713250,0.062474600
1640784957213440000,-0.218363810,-0.001791400,10.598628040,-0.117728140,-0.075726210,0.063020000
1640784957214169856,0.101338930,0.021708970,9.649971010,-0.002886350,-0.152286930,0.051669780
1640784957218579968,-0.189073950,0.082585510,10.247211460,0.065799060,-0.201602320,0.034177310
1640784957219290112,-0.209235680,0.075713880,9.380750660,-0.009004770,-0.073440380,0.035299360
1640784957223490048,-0.038981010,0.012076240,9.805435180,-0.063610080,-0.112786910,0.039404640
1640784957224279808,-0.367035980,-0.064519880,10.806957240,-0.007608530,-0.075180830,0.044366720
1640784957228479744,0.027721500,0.260681390,9.397041320,0.021463630,-0.142024460,0.046864160
1640784957229159936,-0.162731780,0.478413460,10.298462870,-0.007355210,-0.187002140,0.046759840
1640784957233609984,-0.167268370,0.513518750,9.660916330,-0.074172020,-0.039422520,0.038394330
1640784957234499840,0.021630370,0.367199450,9.687622070,-0.030241910,-0.153334450,0.032001740
1640784957238519808,-0.293329780,0.198768260,10.917615890,0.073188550,-0.099138920,0.029519200
1640784957239480064,0.035609610,0.367650330,9.409853940,0.052136180,-0.092825290,0.019098820
1640784957243459840,-0.135246800,0.541066290,10.407415390,-0.042352080,-0.206545010,0.047308210
1640784957244160000,-0.229229690,0.497661800,10.032297130,-0.134231150,-0.043308740,0.068748000
1640784957248430080,0.104263650,0.368271920,9.362218860,-0.093036880,-0.128549320,0.043600790
1640784957249169920,-0.376185090,0.417167130,11.038612370,0.040672730,-0.145855560,0.036108490
1640784957253909760,-0.009984240,0.586690550,9.487403870,0.020407140,-0.068816530,0.028783080
1640784957255059968,0.144752550,0.508499260,9.884316440,-0.078161060,-0.174863650,0.049147010
1640784957258499840,-0.091800790,0.274793800,10.552883150,-0.122667860,-0.025136770,0.070056320
1640784957259650048,0.294889510,0.199755240,9.519969940,-0.088930150,-0.082685060,0.036782030
1640784957263559936,-0.050719180,0.257072540,10.676842690,-0.012162330,-0.174276580,0.049023340
1640784957265979904,0.133798240,0.321270260,9.515410420,-0.055880860,-0.061865160,0.049720710
1640784957268450048,0.317531700,0.128211920,9.479225160,-0.094789250,-0.089655810,0.028133390
1640784957269159936,-0.110044500,-0.029870470,10.670637130,-0.048497320,-0.029721860,0.035004320
1640784957273519872,0.161214460,0.050433750,9.592624660,-0.024376810,-0.061590970,0.022910540
1640784957274720000,-0.071890820,0.115326420,10.426754950,-0.046285990,-0.136776280,0.032013660
1640784957278409984,-0.099684460,0.176993730,9.903833390,-0.092932580,-0.043757260,0.039514900
1640784957279129856,-0.014163110,0.119656530,9.583797450,-0.078392040,-0.091958050,0.023297970
1640784957283510016,-0.245842950,0.019997700,10.404859540,-0.007890170,-0.045432160,0.014425820
1640784957284189952,0.127984340,0.302855190,9.560007100,0.006979700,-0.020223860,0.024542210
1640784957288529920,-0.043897950,0.344582590,10.589144710,-0.049357130,-0.090219100,0.030705340
1640784957289169920,0.044716810,0.340797990,10.163233760,-0.104796890,-0.020542740,0.046464800
1640784957293479936,0.172763850,0.416276540,9.805753710,-0.082978610,-0.092990700,0.042931740
1640784957294179840,-0.217774050,0.347271050,10.634491920,-0.039471690,-0.055070230,0.027038160
1640784957299389952,0.166793050,0.486430170,9.492048260,-0.039346510,-0.007689000,0.027504560
1640784957300299776,-0.088359240,0.416359070,10.338413240,-0.060699880,-0.085568440,0.044214730
1640784957303729920,-0.019050570,0.263516370,10.146520610,-0.095558170,0.000347200,0.047937040
1640784957305149952,0.264231710,0.378650960,9.537391660,-0.088198510,-0.047093640,0.046075880
1640784957308430080,-0.298553620,0.389895410,10.718695640,-0.096765170,-0.046122070,0.052805250
1640784957309129984,0.067995070,0.328963160,9.632939340,-0.119617590,-0.014033910,0.064796210
1640784957313560064,0.121619780,0.103609550,9.968288420,-0.073300310,-0.059087570,0.053948170
1640784957314800128,0.012478310,-0.036628110,10.227828030,-0.037053230,0.045658650,0.040785970
1640784957318409984,0.357207330,0.059919080,9.559797290,-0.055135790,0.009377300,0.041168930
1640784957319170048,0.005716170,0.031628150,10.483374600,-0.101783890,-0.025749210,0.057417160
1640784957323539968,0.200451340,-0.034568090,9.752710340,-0.128695370,0.014625490,0.072772800
1640784957324420096,0.101509170,-0.090616580,9.987322810,-0.047904260,-0.032569470,0.053550300
1640784957328480000,-0.213165910,-0.087985430,10.104417800,0.000482800,0.023095310,0.038608900
1640784957329210112,0.051935560,0.089591150,9.580644610,-0.030228500,0.013373790,0.028739870
1640784957333509888,-0.279644490,0.025415680,10.498441700,-0.055950880,0.046320270,0.037729740
1640784957334189824,-0.179104630,0.001167070,9.985937120,-0.049857800,0.011174380,0.048315530
1640784957338599936,-0.196657370,0.151002410,10.095296860,0.003130730,-0.059397520,0.045195220
1640784957339309824,-0.201266870,0.284143780,9.710571290,-0.012166800,0.035010280,0.047081710
1640784957343399936,0.077383900,0.386800920,9.882786750,-0.073596830,0.044299660,0.046058000
1640784957344159744,-0.250807940,0.260706310,10.990125660,-0.046436490,0.056426230,0.041157010
1640784957348439808,0.136555020,0.271366980,9.847286220,0.011704860,-0.021816790,0.026546420
1640784957349179904,0.116550860,0.421352830,10.073833470,0.013643500,-0.054918230,0.028000770
1640784957353769984,-0.042631840,0.515823360,9.705068590,-0.064352160,0.087694820,0.043995670
1640784957355129856,0.159502330,0.518023250,9.792196270,-0.138661270,0.013326110,0.054062910
1640784957358799872,-0.207819210,0.215211560,10.925656320,-0.068999830,0.024688240,0.042526420
1640784957359439872,0.081104080,0.230570090,9.770666120,0.014965240,0.035151840,0.031714150
1640784957363579904,0.007256170,0.355742160,10.386615750,-0.000058110,-0.013817850,0.041458010
1640784957364270080,-0.231338950,0.216591860,10.179324150,-0.092843170,0.074110930,0.056740650
1640784957368450048,0.306413410,0.159594700,9.201763150,-0.136879090,0.013901290,0.063513220
1640784957369159936,0.004803200,0.025654380,10.487526890,-0.064058600,0.068372490,0.053939230
1640784957373539840,0.103185650,0.153639200,9.736907960,-0.004358590,0.086681550,0.041623410
1640784957374209792,0.206277270,0.204249800,10.148194310,-0.022774930,-0.041106340,0.042128560
1640784957378690048,-0.036825970,-0.058186270,10.285155300,-0.079870230,0.086127220,0.034488740
1640784957379159808,0.325233550,-0.100083880,9.348835950,-0.052037840,0.079201160,0.031004850
1640784957383399936,-0.053260040,-0.062457460,10.740035060,0.013926630,0.068102780,0.029276320
1640784957384229888,-0.044133590,0.089920460,9.735908510,-0.008976460,0.108504300,0.044859950
1640784957388749824,0.118118480,0.179664700,9.780160900,-0.059227660,-0.017419460,0.046716630
1640784957389519872,-0.226719390,-0.070497240,10.359829900,-0.051206360,0.120280700,0.053237380
1640784957393499904,0.040278290,-0.083209210,9.369535450,0.016844270,0.103221840,0.022162500
1640784957396100096,-0.202289600,0.046993290,10.918158530,0.076833370,0.042115150,0.015529990
1640784957398520064,-0.087870550,0.204872410,10.062890050,0.011627380,0.139829530,0.022621450
1640784957399219968,0.237600160,0.326543570,9.767564770,-0.065864630,0.023379920,0.032559040
1640784957403479808,-0.070064470,0.297370140,10.660235400,-0.044687090,0.127096470,0.043278940
1640784957404209920,0.240092610,0.399378960,9.278048520,-0.000603500,0.123450180,0.019474330
1640784957408560128,-0.109142830,0.470815450,10.644099240,0.057834380,0.023008880,0.033453100
1640784957410359808,-0.104117090,0.337022070,10.046583180,0.001817940,0.151972490,0.052629410
1640784957413440000,0.236047510,0.087938480,9.404118540,-0.028643020,0.071604560,0.044210260
1640784957414180096,-0.141397520,-0.051207440,10.776696210,0.020256640,0.129364430,0.038468840
1640784957418419712,0.236707180,0.157445890,9.354169850,0.003367660,0.205996650,0.031626220
1640784957419239936,0.087281880,0.172530610,10.377404210,-0.031912330,0.058130920,0.034312900
1640784957423539968,-0.072649160,0.009412500,10.437588690,-0.025558470,0.137202440,0.035227840
1640784957424279808,0.306277660,-0.137441720,9.079544070,0.040474530,0.095875570,0.000254810
1640784957428519936,-0.191785600,-0.085026290,10.496360780,0.106188650,0.119371720,-0.006780030
1640784957431039744,-0.099389210,0.164151640,9.730758670,0.038091850,0.220456760,0.014972690
1640784957433430016,-0.039238050,0.092327160,10.154434200,-0.036248570,0.071330370,0.019270180
1640784957434180096,-0.294990330,0.060928440,10.639502530,0.002868470,0.119450710,0.034895540
1640784957438520064,0.113526550,0.165693220,9.219264980,0.074854500,0.135111810,0.015234950
1640784957439169792,-0.288418170,0.121985050,10.456850050,0.105966640,0.100703540,-0.017139320
1640784957443539968,-0.222155940,0.212101430,10.113629340,0.066353370,0.192321850,0.002758200
1640784957444219904,0.024138880,0.195852370,9.936812400,0.029896200,0.086948280,0.002625580
1640784957448459776,-0.147590610,0.038581900,10.581644060,0.040806830,0.126810370,0.014002620
1640784957449159936,0.250625580,0.360392930,9.453670500,0.058348480,0.167116520,0.004279610
1640784957453939968,-0.029388030,0.482648020,10.501478200,0.037874290,0.115764140,0.006957350
1640784957455089920,-0.167266500,0.355870660,10.348243710,0.014159090,0.154230010,0.025148700
1640784957460019712,0.061019360,0.227141250,9.660490990,0.056140130,0.076617310,0.018940870
1640784957461029888,-0.219474940,-0.003601500,10.341828350,0.113186260,0.122138870,-0.002163650
1640784957463539712,0.097834770,0.128286020,9.413175580,0.085096080,0.201419040,0.003539030
1640784957464249856,-0.122402630,0.246674240,10.343529700,-0.001245740,0.132018330,0.009590390
1640784957468410112,-0.105155040,0.015851280,10.362392430,-0.035499040,0.164553540,0.016042590
1640784957469159936,0.161898670,-0.068258990,9.564406390,0.078082080,0.085459630,0.002811850
1640784957473549824,-0.345664650,-0.075726900,10.342156410,0.160822290,0.106257200,-0.031065950
1640784957474360064,-0.115182810,-0.011271870,9.388479230,0.097072130,0.166238840,-0.028632580
1640784957478429952,-0.188237890,-0.012999210,10.069569590,0.051961840,0.123856960,-0.004677470
1640784957479219968,-0.359990120,-0.104896780,10.616974830,0.055176020,0.176835080,-0.003118810
1640784957483459840,0.025744670,0.177060770,9.685617450,0.097441680,0.099116560,-0.001430510
1640784957484219904,-0.353257600,0.385884550,10.522015570,0.110307350,0.079433630,-0.007624930
1640784957489100032,-0.164491970,0.453950610,9.770871160,0.058533260,0.172440710,-0.023522970
1640784957489769984,-0.182561340,0.404637370,10.006555560,0.073249640,0.077745300,-0.020127000
1640784957494159872,-0.400239320,0.176447210,10.596971510,0.129081310,0.105626890,-0.034660100
1640784957495269888,0.094423990,0.277316150,9.435873030,0.130945460,0.126945970,-0.042092800
1640784957498479872,-0.182228730,0.409131260,10.340018270,0.088450310,0.085532670,-0.023147460
1640784957499150080,-0.197319940,0.413813020,10.189492230,-0.011208650,0.155664980,0.002779070
1640784957503449856,-0.018115000,0.295372460,9.817277910,0.004443530,0.067469480,-0.003033880
1640784957504240128,-0.435609700,0.063009170,10.559162140,0.139585150,0.048655270,-0.027492640
1640784957508569856,-0.126806560,0.147454930,9.395927430,0.162737090,0.093558430,-0.047518320
1640784957509359872,-0.200466860,0.164939910,9.775745390,0.099276030,0.084756340,-0.032627580
1640784957513449984,-0.222094860,-0.084470720,10.329060550,0.023134050,0.171443820,-0.011500720
1640784957514200064,0.029102740,-0.075503180,10.127191540,0.052778420,0.110079350,-0.037851930
1640784957518390016,-0.270746890,0.105446270,10.388420100,0.144667920,-0.002726910,-0.038719180
1640784957519189760,-0.053735990,0.215429840,9.285605430,0.116099420,0.060653690,-0.046515470
1640784957523680000,-0.061989120,0.254559250,9.521527290,0.070010130,0.120997430,-0.064179310
1640784957528519936,-0.317688940,0.085609640,10.368954660,0.099790120,0.138928000,-0.060977050
1640784957529260032,-0.151066900,0.122099440,10.157735820,0.141640010,0.053977970,-0.056520100
1640784957531940096,-0.343983680,0.168633040,10.161453250,0.150559810,0.015045700,-0.053812560
1640784957533380096,-0.330583010,0.159980580,9.673029900,0.091214470,0.063924480,-0.049066550
1640784957534189824,-0.403855000,0.180834930,10.075207710,0.061319770,0.065578520,-0.059513760
1640784957538609920,-0.473780240,0.048759390,10.086277010,0.129660980,0.069411100,-0.075945270
1640784957540519936,-0.125898080,0.228790150,9.899808880,0.179292250,0.028282400,-0.092138340
1640784957544029952,-0.323629920,0.560518030,10.458194730,0.137838720,0.063160070,-0.098308920
1640784957544770048,-0.182784070,0.694521430,9.874879840,0.029216710,0.033935910,-0.073911270
1640784957548450048,-0.093324190,0.628370460,10.206411360,0.012259190,-0.021958350,-0.061494120
1640784957549169920,-0.225858090,0.546202540,10.060141560,0.091153380,0.075893090,-0.085164600
1640784957553579776,-0.059815590,0.667874340,9.745854380,0.134074690,0.016205010,-0.093577800
1640784957554970112,-0.321560200,0.616383550,10.508631710,0.079900030,-0.003314020,-0.075399880
1640784957558560000,-0.108480440,0.349225460,9.540174480,0.009590390,0.040505830,-0.067716840
1640784957559589888,0.035135800,0.145889640,9.866886140,0.004628300,0.001877550,-0.072258700
1640784957563439872,-0.439811320,0.118114360,10.672356610,0.066828710,0.066931540,-0.091496100
1640784957564270080,-0.066404080,0.164063410,9.545045850,0.067077580,-0.018435720,-0.081235170
1640784957568440064,-0.140558940,0.082562520,10.256704330,0.037682060,-0.045856830,-0.091473770
1640784957569209856,-0.100920470,0.029314780,9.694097520,0.027653570,0.091838840,-0.101162500
1640784957573880064,0.171783000,0.186300170,9.664132120,0.058175620,0.011560320,-0.099422040
1640784957574820096,-0.322901310,0.306628050,10.733816150,0.068850820,0.012475250,-0.091074410
1640784957578400000,-0.041645520,0.462449820,9.354662900,0.011919440,-0.011569260,-0.089481470
1640784957579229952,-0.175951020,0.271396930,10.123446460,0.013880430,-0.055158130,-0.095704190
1640784957583459840,-0.521390260,0.118562680,10.262480740,0.063496840,0.069785120,-0.109007960
1640784957584179968,-0.149263860,0.206417080,9.708732600,0.104311100,-0.035183120,-0.123088050
1640784957588470016,-0.477794380,0.238621060,10.790078160,0.066199910,-0.002685190,-0.117886070
1640784957589609984,-0.159124850,0.330817190,9.499877930,-0.028546150,0.030237430,-0.095294410
1640784957593880064,-0.115617260,0.372542800,10.265814780,-0.005424020,-0.081634520,-0.088666390
1640784957594720000,-0.387188290,0.350335180,10.298900600,0.044950840,0.004012880,-0.102776310
1640784957598510080,-0.001229320,0.591380360,9.388319020,0.049081440,-0.063677120,-0.112961230
1640784957599209984,-0.330238280,0.628056410,10.885487560,0.022597610,-0.033621490,-0.092260550
1640784957603520000,-0.028978040,0.447495760,9.760589600,-0.034615400,0.019738080,-0.079327840
1640784957604219904,0.189051700,0.351602700,10.171002390,0.004981460,-0.090840470,-0.087587540
1640784957608539904,-0.118932570,0.392754790,10.450014110,0.022631880,0.035220390,-0.098395350
1640784957609309952,0.230215830,0.554288980,9.125044820,-0.031194100,-0.049039730,-0.089764610
1640784957613440000,-0.213991610,0.353432270,10.662467960,-0.055679680,-0.102521480,-0.076310330
1640784957614230016,-0.006117640,0.097514180,9.530693050,-0.048184400,0.036908690,-0.093050290
1640784957618500096,0.042558530,0.010156620,9.817649840,0.039617720,-0.074692090,-0.106509040
1640784957619209984,-0.441715030,0.090365190,10.850933070,0.053642690,0.007681550,-0.093816220
1640784957623549952,0.081388000,0.241724980,9.228002550,-0.061453880,-0.005511940,-0.075674060
1640784957624440064,-0.298123630,0.011919650,10.732981680,-0.078766050,-0.097402940,-0.060765450
1640784957628439808,-0.287313490,0.018595550,9.891562460,-0.012508040,0.002297760,-0.085406010
1640784957629169920,0.101938310,0.181798290,9.104938510,0.066235670,-0.106297460,-0.112286220
1640784957633639936,-0.308085080,0.395818740,10.562412260,0.039270520,-0.002112980,-0.105287140
1640784957635309824,0.051939070,0.590510130,9.847230910,-0.078398000,0.034129620,-0.089116390
1640784957638649856,-0.171161770,0.362744390,10.838090900,-0.063376140,-0.116232060,-0.075742620
1640784957639879936,-0.195622950,0.384428200,10.211727140,0.004412230,-0.063441690,-0.079493230
1640784957643520000,-0.022974520,0.565339620,9.318605420,0.012846290,-0.074405970,-0.094074000
1640784957644300032,-0.431780190,0.523649100,10.414044380,-0.035102670,-0.021617120,-0.082407900
1640784957648470016,-0.136684910,0.523725690,9.801770210,-0.101378570,-0.034758450,-0.062766680
1640784957649269760,-0.031518430,0.247385440,10.164668080,-0.069114570,-0.094342240,-0.068481270
1640784957653489920,0.119854970,0.270155520,10.092910770,-0.011676550,0.004641710,-0.079604990
1640784957654259968,0.036538980,0.572989880,10.321580890,-0.044453140,-0.047864020,-0.078931440
1640784957658579712,-0.248083680,0.494280370,10.544424060,-0.121970480,-0.092148780,-0.067690020
1640784957659299840,0.148795720,0.293839540,9.375796320,-0.145584360,-0.101718330,-0.058256100
1640784957663499776,-0.056670040,0.070301280,9.839149480,-0.053220990,-0.034298000,-0.073817380
1640784957664259840,0.036946020,0.143690500,9.731549260,0.009056930,0.036139790,-0.082606080
1640784957668459776,0.035673760,0.290460650,10.324971200,-0.063653300,-0.070042910,-0.059461600
1640784957669199872,-0.194949600,0.126171710,10.466362000,-0.160676210,-0.044545530,-0.031067430
1640784957673549824,0.111875560,-0.102967970,9.754230500,-0.136463310,-0.081308190,-0.046068430
1640784957674350080,-0.403835240,-0.117962720,10.469320300,-0.005549190,-0.074346370,-0.085349390
1640784957678409728,-0.198835300,0.162784430,9.274921420,0.010922550,-0.028364360,-0.093363230
1640784957679180032,-0.145874990,0.371702640,10.039944650,-0.075820100,-0.056247420,-0.087161360
1640784957683480064,-0.354308660,0.242503360,10.440831180,-0.144864630,0.018590690,-0.055815280
1640784957684269824,0.067514930,0.226082350,9.936760900,-0.075805190,-0.114567580,-0.045853850
1640784957688410112,-0.331748870,0.256050260,10.728220940,0.011447070,-0.116226080,-0.067204240
1640784957690070016,-0.038997760,0.448583220,9.280695920,-0.031146400,-0.035867090,-0.060302020
1640784957694039808,-0.133369670,0.451428770,10.425235750,-0.099010770,-0.082768480,-0.050753360
1640784957694439936,-0.230364430,0.182278350,10.395498280,-0.121668000,-0.007723270,-0.044220690
1640784957698870016,0.310589970,0.186939140,9.478007320,-0.041931860,-0.133201490,-0.053089860
1640784957700179712,-0.148222520,0.296737160,10.677316670,-0.009799000,-0.067909070,-0.062102080
1640784957703449856,0.075197800,0.530882950,9.358663560,-0.119750200,-0.005178150,-0.045809150
1640784957704239872,-0.179729640,0.335375730,10.571644780,-0.133381780,-0.156252100,-0.024464730
1640784957708609792,-0.244228960,-0.055898900,10.339050290,-0.076997300,-0.033304100,-0.032939030
1640784957709349888,0.318604110,0.069959050,9.071658130,0.006958840,-0.090038770,-0.057823950
1640784957713639936,-0.227349670,0.247087840,10.688663480,-0.014595690,-0.037810220,-0.042910880
1640784957714639872,0.211013020,0.313894510,9.576544760,-0.157053780,0.021284820,-0.018075110
1640784957718409984,0.049605020,-0.067989800,10.357357980,-0.143420700,-0.128676010,-0.012534860
1640784957719149824,-0.242588210,-0.244350870,10.447360990,-0.011649730,-0.072392820,-0.041352220
1640784957723589888,0.044215220,-0.079198270,9.068161010,0.063481930,-0.109557810,-0.071175400
1640784957724560128,-0.338244350,-0.102862950,10.042123790,0.008480250,-0.046345590,-0.065135960
1640784957728449792,-0.085074070,0.045695540,10.023366930,-0.105544930,0.029742720,-0.051751740
1640784957732149760,-0.157508430,0.027495910,10.562170980,-0.082711880,-0.080117580,-0.038075450
1640784957733430016,-0.098291660,0.108989720,10.170086860,0.019887090,-0.103598840,-0.033269820
1640784957734200064,-0.012567160,0.441903020,9.650259020,0.035159280,-0.106340650,-0.047777600
1640784957738609920,-0.250860270,0.490700870,9.899740220,-0.024196510,-0.026884680,-0.034014880
1640784957740089856,-0.050288610,0.343732600,9.952939990,-0.061257190,-0.066953900,-0.024434930
1640784957743549696,-0.190015760,0.145893800,10.534739490,0.002811850,-0.078432260,-0.031301380
1640784957744249856,0.163249250,0.224100050,9.530311580,0.040721900,-0.060981510,-0.043526290
1640784957748489984,-0.013965210,0.525397480,10.311898230,-0.025814770,-0.105105340,-0.043378770
1640784957749239808,-0.210451950,0.493452760,10.075467110,-0.131411850,-0.007668140,-0.011524560
1640784957753399808,0.140072700,0.239514800,9.683989520,-0.091035670,-0.122973340,-0.011761490
1640784957754210048,-0.265792280,0.042720180,10.718946460,0.044779480,-0.079613920,-0.027370460
1640784957758509824,0.148528200,0.193178820,9.046161650,0.070780530,-0.035001350,-0.023622810
1640784957759409920,0.033776120,0.188587930,10.206088070,-0.034621360,-0.088009250,-0.000661610
1640784957763639808,-0.084956990,-0.010249190,10.189249040,-0.124615420,0.031661990,0.029273330
1640784957764379904,0.279117050,-0.151289220,9.679470060,-0.045570730,-0.105096400,0.009541210
1640784957768420096,-0.207625660,-0.138506470,10.666602130,0.071391470,-0.113078940,-0.022003050
1640784957769179904,0.258192750,0.120918740,8.674400330,0.061388320,-0.028629610,-0.031860170
1640784957773619968,0.014912220,0.167586090,10.098656650,-0.009422000,-0.035895410,-0.031089780
1640784957776000000,-0.141113650,0.089113170,10.466009140,-0.062289840,0.074353820,-0.014524160
1640784957778679808,0.143847170,0.227047990,9.812265400,0.025253000,-0.139276700,-0.006861980
1640784957780129792,-0.251751960,0.256060480,10.337182040,0.073340540,-0.098525000,-0.001491610
1640784957783439872,0.148820100,0.425121750,8.833397870,0.003120300,0.012160840,-0.000414250
1640784957784189952,-0.332094070,0.227693870,10.569046970,-0.011920930,-0.040870900,-0.003331900
1640784957788709888,-0.234578180,0.028934100,10.335046770,0.016428530,-0.003297630,0.001236800
1640784957789929984,0.099870730,0.103842300,9.591648100,0.097574290,-0.120517610,-0.007371600
1640784957794669824,-0.256081940,0.288220640,10.289828300,0.066661840,-0.034300980,-0.012101230
1640784957796130048,0.076685970,0.628058490,9.527735710,-0.071339310,-0.000043210,0.006064770
1640784957798519808,-0.197570640,0.500276090,10.305624960,-0.078403950,-0.078867370,0.015473370
1640784957799160064,0.054828120,0.460758000,9.910925870,0.003738700,-0.038997830,0.007873770
1640784957803449856,0.203659300,0.581942680,9.825508120,0.088353460,-0.043007730,-0.007741150
1640784957804260096,-0.058318020,0.502295320,10.101251600,0.046925250,-0.028970840,0.014805800
1640784957808509952,0.220338870,0.384439590,9.734302520,-0.080232330,-0.050503020,0.034272670
1640784957809329920,0.000988250,-0.017981120,10.047945020,-0.084167730,-0.007610020,0.038193170
1640784957813499904,0.090559280,-0.123976420,9.660799980,0.009892880,-0.031226870,0.023196640
1640784957814240000,-0.130888240,0.012845430,10.288567540,0.066889820,-0.081698600,0.008200110
1640784957818400000,-0.053527560,0.100677300,9.265785220,0.004003940,-0.002323090,0.012743470
1640784957819200000,0.091568870,0.093367520,9.703277590,-0.062401600,-0.042292490,0.014775990
1640784957823569920,-0.198894230,-0.013163250,10.396182060,-0.011762970,0.060953200,0.022445620
1640784957824389888,0.234369320,0.241959870,9.338936810,0.065426540,-0.039425490,0.021918120
1640784957828649984,-0.141271000,0.403187510,10.558983800,0.058944530,-0.094184280,0.026866800
1640784957830989824,-0.035511060,0.468962310,9.280740740,-0.033357740,0.035892430,0.045454510
1640784957833489920,-0.026948500,0.262556820,9.778208730,-0.030151010,-0.080035630,0.032134360
1640784957834199808,-0.428223850,0.096782450,10.581597330,0.046665960,0.015619400,0.007167460
1640784957838680064,0.111264130,0.384366150,9.119396210,0.074023020,-0.025190420,0.004185740
1640784957840240128,-0.284163590,0.372319430,10.724151610,0.011326370,-0.073318170,0.015817580
1640784957845169920,-0.042665080,0.363720600,9.539999010,-0.077088160,0.029879810,0.036276870
1640784957845870080,0.115075770,0.277472530,9.766510010,-0.037102400,-0.080557160,0.038775800
1640784957848409856,-0.231016400,0.114713610,10.650603290,0.039897860,0.003440680,0.025995080
1640784957849220096,0.158071760,0.361153690,9.342365260,0.075349210,-0.043845180,0.041222580
1640784957853439744,-0.157888430,0.286783750,10.346675870,-0.003151600,-0.085096060,0.045111780
1640784957854459904,0.219709890,0.236266900,9.228844640,-0.082135210,0.032101570,0.054858620
1640784957858690048,0.175339120,0.220177740,9.795372010,-0.015397370,-0.024385750,0.041514630
1640784957861339904,-0.139469940,0.300893040,10.473546030,0.031869110,0.010551510,0.025224690
1640784957863449856,0.151298240,0.453150540,9.441755290,0.014555460,-0.073182580,0.041139130
1640784957864219904,-0.274302240,0.187432780,10.198976520,-0.023175770,-0.072751950,0.044552980
1640784957868460032,0.010777830,0.003607260,9.431285860,-0.022912030,0.042681390,0.035288920
1640784957869220096,-0.173295800,-0.128429670,9.963240620,0.056372590,-0.018581750,0.034387410
1640784957874480128,-0.171137820,-0.054363500,10.003897670,0.052359700,-0.003737210,0.036498900
1640784957875569920,0.139858990,0.017577270,9.669370650,-0.004214050,-0.031825900,0.050127510
1640784957878459904,-0.191614060,-0.108209930,10.172650340,0.003173950,-0.016225870,0.060202180
1640784957879200000,0.077219400,-0.030479080,9.626231190,0.049871210,-0.032353400,0.027850270
1640784957883489792,-0.139842440,0.151612430,10.053166390,0.109840940,-0.026573240,0.020277500
1640784957884209920,-0.073735880,0.398341980,9.678265570,0.060737130,0.013051930,0.036899750
1640784957888919808,-0.075618950,0.492763520,10.365031240,-0.000296530,-0.049881640,0.040599710
1640784957890779904,-0.235047220,0.476363720,10.018197060,0.011189280,-0.018662220,0.046099720
1640784957894219776,0.005498140,0.460347030,9.533015250,0.053146490,-0.090618430,0.047200920
1640784957895520000,-0.411434830,0.473870010,10.510028840,0.072717670,-0.015474860,0.032635030
1640784957898479872,-0.096586150,0.474325950,9.332575800,0.029931960,-0.009000300,0.061887510
1640784957899229952,-0.135347220,0.162813160,10.448095320,0.008924310,-0.108949850,0.059448180
1640784957903429888,0.107230450,0.080032100,9.680859570,0.033786890,0.040934970,0.044938920
1640784957904489984,0.470302250,0.279097940,9.272541050,0.036427370,-0.037539010,0.039586420
1640784957908539904,-0.154284130,0.353789270,11.045826910,0.004701320,-0.013615190,0.049480800
1640784957911049728,0.200960500,0.414704860,9.272628780,-0.031869120,-0.040897740,0.048929460
1640784957913430016,0.006822970,0.141468610,10.044222830,0.025776030,-0.150267780,0.044724350
1640784957914279936,-0.053637650,0.007503840,9.660371780,0.082661220,0.059485440,0.045213100
1640784957918390016,0.219309050,0.262277690,9.202347760,0.071181360,0.005604330,0.041824580
1640784957919209984,-0.272774960,0.121782410,11.005195620,-0.007413330,-0.016891960,0.077886890
1640784957923990016,0.170605790,0.077707470,9.468528750,-0.036288800,0.003959240,0.080111620
1640784957924779776,-0.109239870,-0.050949430,10.039983750,0.050978370,-0.126741840,0.052274770
1640784957928390144,-0.230729340,0.004747180,9.638753890,0.104415440,-0.017564000,0.023899970
1640784957929270016,0.058222100,0.231256470,9.162437440,0.090810660,-0.008258220,0.023944680
1640784957933509888,-0.325580390,0.145322960,10.769661900,0.016696750,0.025996570,0.034646690
1640784957934239744,0.121133830,0.243544500,9.989581110,0.006711480,-0.013266500,0.061669950
1640784957938479872,-0.059076460,0.333856340,10.229165080,0.074413430,-0.104679180,0.060834000
1640784957939399936,0.037544730,0.455055330,9.510562900,0.038506090,-0.007753070,0.063113880
1640784957946369792,0.067119010,0.553176700,9.594460490,0.012469290,-0.025869910,0.054301330
1640784957946799872,-0.248796360,0.336546600,10.323410990,0.020188090,0.012290480,0.064632300
1640784957948359936,0.176220420,0.230873790,9.685147290,0.062674300,-0.038750470,0.046241290
1640784957949179904,-0.134872690,0.314273740,10.228006360,0.097501270,-0.048536060,0.037291650
1640784957953559808,0.013689630,0.537483040,9.622549060,-0.012394790,0.014171010,0.048480920
1640784957954899968,0.068193000,0.504929780,9.986436840,-0.084191560,-0.020672380,0.076800590
1640784957958929920,-0.166507690,0.230705950,10.159542080,-0.026105350,0.004617870,0.075586150
1640784957959499776,0.140541330,0.139296830,9.679452900,0.092232230,-0.063461070,0.056611000
1640784957963549952,-0.058962920,0.153048470,9.817049030,0.121928750,-0.022715330,0.049237910
1640784957964349952,0.193254020,0.265143630,9.187134740,-0.004546340,0.023163860,0.071036820
1640784957968410112,0.139748200,0.037629820,10.339136120,-0.090113270,0.028945510,0.084790580
1640784957969339904,0.122561840,-0.101859700,9.962105750,-0.013330580,0.027671450,0.068336730
1640784957973649920,0.152484740,0.095608700,9.959724430,0.107607250,-0.095705690,0.047926610
1640784957974649856,-0.250790420,0.173687320,9.834634780,0.090131170,0.005282460,0.029559440
1640784957978400000,0.027792210,0.221447650,8.829100610,-0.001567600,0.000756980,0.038352610
1640784957979229952,-0.370865490,-0.006047720,10.629907610,-0.004458430,0.015425680,0.052993000
1640784957983389952,-0.117255840,-0.018434440,9.575436590,0.078488880,0.064182270,0.061100730
1640784957984230144,-0.023437330,0.258158090,10.092082980,0.124764460,-0.109237450,0.060133650
1640784957988440064,-0.256779970,0.397035570,10.259447100,0.023697320,0.050479180,0.070229170
1640784957989619968,0.215792940,0.487014560,8.960290910,-0.048153100,0.006513300,0.061248240
1640784957993880064,-0.278047000,0.244322390,10.899541850,0.024405120,-0.045748050,0.042127070
1640784957994560000,0.128415090,0.344079640,9.293611530,0.107516330,0.054249160,0.020492080
1640784957998550016,0.216437210,0.554629800,9.531032560,0.108580280,-0.071544950,0.017815820
1640784957999199744,-0.208149430,0.586452540,10.515144350,-0.028418000,0.063055750,0.054536760
1640784958003510016,0.314400290,0.536872390,9.135879520,-0.098066050,0.032995640,0.075586140
1640784958004219904,-0.238455500,0.229572090,10.870051380,-0.002549590,-0.057815020,0.054089730
1640784958008489728,-0.046845560,0.387077270,9.553944590,0.071580720,0.031498070,0.048388540
1640784958009270016,0.090246210,0.422494200,9.274476050,0.054347520,-0.041924420,0.043596320
1640784958013419776,-0.246207040,0.135957400,10.250295640,-0.043761730,0.061412160,0.058390200
1640784958014259712,0.261549230,0.076535780,9.186342240,-0.054501010,0.060267750,0.058479610
1640784958018519808,-0.074322570,-0.049430520,10.444402690,0.027284020,-0.016592440,0.045171380
1640784958019229952,0.083210910,0.141871590,9.668567660,0.035668920,0.042693320,0.043967380
1640784958024139776,0.139783580,0.239315660,9.558400150,-0.000758470,-0.028079750,0.042037670
1640784958024819968,-0.027333610,0.113650310,9.970298770,-0.027510530,0.068280110,0.035922230
1640784958028450048,0.243692520,0.181770210,9.368074420,0.001721080,0.061653560,0.027139480
1640784958029229824,-0.108448330,0.195444410,10.233147620,0.060997910,0.018867850,0.029082600
1640784958033440000,0.037799020,0.301783710,9.671989440,0.018614530,0.045646730,0.037947300
1640784958034400000,-0.209679920,0.214665590,9.909952160,-0.006838140,-0.029145180,0.037814680
1640784958038480128,-0.250750720,0.070785650,9.742259980,0.014258920,0.033527620,0.034248830
1640784958039529984,0.009957460,0.118681020,9.530658720,0.038631260,0.049287080,0.012235340
1640784958043740160,-0.278807580,0.147143920,10.427619930,0.054022670,0.072799630,0.020378830
1640784958044319744,0.060077130,0.341922190,9.831072810,0.006005170,0.041936340,0.029245020
1640784958048419840,-0.066684810,0.354698690,10.040914540,-0.008670990,-0.026455520,0.038500130
1640784958049389824,0.035307770,0.298342970,9.411091800,0.001059470,0.030858820,0.035712120
1640784958053439744,0.160278100,0.475967680,9.637098310,0.018174950,0.050906840,0.019901990
1640784958054210048,-0.175177110,0.382917520,10.324612620,0.017307700,0.091475260,0.026710340
1640784958058549760,0.237059180,0.291244750,9.786953930,0.015141070,0.011318920,0.044180450
1640784958059279872,0.042241330,0.133208900,10.179337500,0.023265180,0.034642220,0.032752760
1640784958063419904,0.167830040,0.096711330,9.122609140,0.008997320,0.086745630,0.027647610
1640784958064839936,0.056680900,0.160882610,9.831958770,0.000095370,0.037027900,0.032222270
1640784958068419840,-0.245507760,-0.027321280,9.921929360,-0.025330490,0.097791850,0.035762790
1640784958069219840,0.129204910,-0.211826100,9.392523770,0.031998760,0.004673000,0.029210750
1640784958073859840,-0.354505180,-0.253671110,10.525909420,0.120627880,0.062067810,0.010047850
1640784958074569984,-0.105636420,0.046133600,9.091433530,0.071215630,0.094936800,0.008480250
1640784958078419968,-0.129917380,0.197707440,10.004436490,0.011050700,0.001245740,0.044727330
1640784958079229952,-0.219934850,0.124183900,9.965508460,-0.016923250,0.151543320,0.047478080
1640784958083520000,0.155288060,0.161561590,9.346028330,0.065928700,0.013254590,0.029206280
1640784958084270080,-0.331799270,0.315222410,10.513409610,0.156290840,-0.008651610,0.024110080
1640784958088399872,0.050497680,0.456009150,8.818513870,0.068256260,0.098504150,-0.008124110
1640784958090129920,-0.062370230,0.376393500,10.031169890,0.007626410,0.032225250,0.010107460
1640784958094339840,-0.366078470,0.287658960,10.521843910,0.016403200,0.119812770,0.024715060
1640784958094899968,0.245274680,0.266943070,9.172952650,0.079688420,-0.011487300,0.009536740
1640784958098709760,-0.164885890,0.380178060,10.233864780,0.103080280,0.029160080,0.011990970
1640784958100279808,-0.103631590,0.613011300,9.298163410,-0.004394350,0.140471760,0.032399600
1640784958103479808,-0.241601970,0.271299060,10.187901500,-0.029993060,-0.028260050,0.045247370
1640784958104290048,-0.339819130,-0.012719670,10.080019950,0.057978930,0.038552280,0.034189220
1640784958108499968,0.157700090,0.074478190,8.861645700,0.127944370,0.032392140,0.002737340
1640784958109439744,-0.125939820,0.171433000,10.086620330,0.090256330,0.081866990,0.016139450
1640784958113440000,0.104577420,0.412773430,9.492114070,-0.051547590,0.129891950,0.042200100
1640784958114670080,0.113809180,0.148845640,10.234920500,-0.062815850,-0.006087130,0.045855350
1640784958118369792,0.020707890,-0.055500080,9.856607440,0.078806290,0.035400690,0.018630920
1640784958119259904,0.145289050,0.215230320,8.764389040,0.150527070,0.005735460,-0.005093220
1640784958123539968,-0.267496200,0.128604680,9.869438170,0.075942290,0.088746850,-0.000743570
1640784958124630016,-0.082408820,0.052431640,9.461090090,-0.019437080,0.140959020,0.020702180
1640784958128449792,-0.381376150,-0.113402800,10.501304630,0.020113590,-0.015157460,0.022357700
1640784958129289984,-0.288090710,-0.053813570,9.643005370,0.103992240,0.027698280,0.024653970
1640784958133570048,-0.069265820,0.235017020,8.918796540,0.106370450,0.028127430,0.013712050
1640784958134259968,-0.545518640,0.292698890,10.430495260,0.034785270,0.090900070,0.006790460
1640784958138729728,-0.031867950,0.309637220,9.529980660,0.012318790,0.074593720,0.020100170
1640784958139930112,-0.158626590,0.178117330,10.171925540,0.086247920,-0.031806530,0.002387170
1640784958143579904,0.078630870,0.364632310,9.498957630,0.122451800,0.071688000,-0.008593500
1640784958148199936,0.270691900,0.723828430,9.232750890,0.039325650,0.048077100,0.009053940
1640784958148819968,-0.297788980,0.599096600,10.399764060,-0.061041120,0.044645370,0.031979380
1640784958149269760,0.150892090,0.299627100,9.285073280,-0.030086930,0.032596290,0.043214860
1640784958153410048,-0.231955440,0.002941040,9.979187010,0.118087230,-0.011543930,0.011932850
1640784958154269952,-0.299190490,0.124696500,9.515161510,0.134123860,0.062885870,0.002552570
1640784958158479872,-0.065525730,0.213788320,9.289874080,0.013886390,0.021407010,0.022542480
1640784958159249920,-0.316485940,-0.102080950,10.054541590,-0.085897750,0.078080600,0.029519200
1640784958163749888,0.172489260,-0.161927150,9.474822040,0.002585350,0.057131040,0.015705830
1640784958164409856,-0.139911560,-0.061145220,10.175378800,0.150954740,-0.008167330,0.004760920
1640784958168390144,0.009634970,0.119289210,9.105114940,0.120289650,0.025707490,-0.006964800
1640784958169199872,0.033550110,0.246892080,9.424898150,0.017103550,0.010672210,-0.000357630
1640784958173519872,-0.253194210,0.052407300,9.947288510,-0.009989740,0.107181090,0.011029840
1640784958174619904,0.087316880,0.078166100,9.510703090,0.072500110,0.012473760,0.003111360
1640784958178530048,-0.313515070,0.411567930,10.275028230,0.140608850,-0.013467670,0.005009770
1640784958179809792,-0.177302180,0.582192060,9.075093270,0.029981140,0.036780540,0.006683170
1640784958183419904,-0.342058870,0.500400010,9.944828030,-0.023429090,-0.030137600,0.006352370
1640784958184239872,-0.530528660,0.224459780,9.939129830,0.029887260,0.053668020,-0.002211330
1640784958188740096,-0.020776910,0.114795400,9.228006360,0.116194810,-0.023406750,-0.029081110
1640784958189529856,-0.354994650,0.299976470,10.298609730,0.123761590,0.008249280,-0.012719630
1640784958193509888,0.026676510,0.440448700,9.125537870,-0.019288060,0.053748490,0.012435020
1640784958194370048,0.079343970,0.252668290,9.992621420,-0.083854800,-0.041277700,0.025424360
1640784958198499840,-0.016407210,0.198586940,9.803062440,0.009554620,0.039289890,0.010503830
1640784958199329792,0.260542330,0.300789620,9.237154010,0.085480520,-0.018838050,-0.017796460
1640784958203439872,-0.180376530,0.345886020,10.254777910,0.090071570,-0.004331770,0.008361040
1640784958204659968,0.046997200,0.299243240,9.027371410,-0.024630130,0.029988590,0.002938510
1640784958209750016,0.035959600,0.049834210,9.745232580,-0.041136150,-0.011725720,0.004288550
1640784958210379776,-0.248495620,0.079074720,9.740871430,0.030218070,0.077342990,0.010368230
1640784958213749760,-0.148627820,0.215803120,9.479962350,0.040575860,-0.054129950,-0.009284910
1640784958214319872,-0.432612930,0.179894640,10.023800850,0.011399390,-0.030408800,-0.003379580
1640784958218390016,-0.032264330,0.070514650,8.605681420,-0.007049740,0.035379830,-0.011944770
1640784958219309824,-0.144256580,-0.019036770,9.969006540,0.035215910,0.007538500,-0.034549820
1640784958224079872,-0.082585380,0.035042440,9.773567200,0.068232420,0.096428420,-0.016444920
1640784958224699904,0.119254760,0.135909860,9.540040020,0.045077500,-0.067532070,-0.010462110
1640784958228519936,-0.280268130,0.034591220,10.385505680,0.000557300,-0.024291870,0.000140070
1640784958229240064,0.078811910,0.052906190,8.584262850,0.010563430,0.014013050,-0.004588070
1640784958233459968,-0.328100470,0.022423910,10.063392640,0.062920150,-0.055715450,-0.032415990
1640784958234279936,-0.302341130,0.152991800,9.799897190,0.073486570,0.088377300,-0.033953790
1640784958238620160,-0.071584910,0.373445900,9.329422000,0.044371190,-0.072366010,-0.026379530
1640784958239359744,-0.442152860,0.308085380,10.493010520,0.003813210,-0.045944760,-0.008784240
1640784958244859904,0.151915680,0.404221060,8.636606220,-0.006379190,0.047408040,-0.017935040
1640784958245430016,-0.202255980,0.460420220,10.112940790,0.034207110,-0.063538550,-0.028124460
1640784958248430080,-0.270311120,0.440927860,10.054533000,0.028674310,0.035773220,-0.004445020
1640784958249239808,0.313732620,0.274732230,8.784849170,0.024634600,-0.067389010,0.002619620
1640784958253509888,-0.108683850,-0.096387080,10.289551730,0.042723130,-0.011463470,-0.009916730
1640784958254489856,0.254717110,-0.012332250,8.992206570,0.044995550,0.080515450,-0.021331010
1640784958259869696,0.008635180,0.035203610,9.817882540,0.024074320,-0.086930400,-0.015689430
1640784958261339904,-0.148133590,-0.109761020,9.833429340,-0.013524290,0.010119380,-0.001004340
1640784958263419904,0.155081840,-0.130631690,8.933629040,0.029888750,-0.007212160,-0.025323040
1640784958264279808,-0.409979100,-0.159333350,10.342276570,0.109805180,-0.028301780,-0.046624250
1640784958268450048,-0.072964390,0.160027460,9.062311170,0.086690490,0.024840240,-0.044612590
1640784958269289984,-0.132912740,0.270928890,9.517733570,0.029942390,-0.021892790,-0.021643930
1640784958273550080,-0.299036350,0.115137350,10.030001640,-0.007566810,0.050833830,-0.002603230
1640784958274720000,-0.002685650,0.207326490,9.327254300,0.074543070,-0.066794460,-0.010243060
1640784958279609856,-0.234620720,0.137510050,9.602867130,0.132419170,-0.045017900,-0.020179150
1640784958280140032,-0.001594720,0.241527130,9.049704550,0.065216410,0.040654830,-0.041934840
1640784958283490048,-0.281775270,0.246194840,10.091697690,0.030319400,0.000461940,-0.039704150
1640784958284260096,-0.164095610,0.136398970,9.852315900,0.030390920,-0.014643370,-0.038281080
1640784958288440064,0.047589820,0.259091290,9.369050980,0.089183460,-0.068441030,-0.043457750
1640784958289289984,-0.316399630,0.405404630,9.765770910,0.083726650,0.001694260,-0.047822300
1640784958293570048,-0.070598220,0.655999900,9.409761430,-0.015077000,0.004890560,-0.033120810
1640784958294289920,-0.374203290,0.429591800,10.181927680,-0.010117890,-0.045788290,-0.007988510
1640784958299379712,-0.148260670,0.195750770,9.539874080,0.048556930,-0.035813440,-0.028263030
1640784958299789824,0.075623840,0.308085170,9.363479610,0.101000090,-0.048512220,-0.046195100
1640784958303439872,-0.192502250,0.368752090,9.610311510,0.050142420,0.018137690,-0.022077560
1640784958304339968,0.189573690,0.323589060,9.304534910,-0.069585450,-0.005777180,-0.009980800
1640784958308529920,-0.006822970,-0.008336630,10.119151120,-0.046326210,-0.008778270,-0.011566280
1640784958309489920,-0.037326980,-0.060757480,9.600106240,0.078746680,-0.041167440,-0.031188130
1640784958313459968,-0.045140650,0.087913110,9.544761660,0.118510430,-0.086091470,-0.055140260
1640784958314309888,-0.253867450,0.124690310,9.188530920,0.024968390,0.018319490,-0.043827300
1640784958318379776,-0.026383460,0.162089010,9.353759770,-0.067718310,0.011606520,-0.027446450
1640784958319259904,-0.272800950,0.044215130,10.407803540,-0.002910200,0.020360950,-0.028234730
1640784958323750144,0.002899030,0.257726820,9.268755910,0.091922270,-0.045345720,-0.027026240
1640784958324600064,-0.103991960,0.433948900,9.921291350,0.079986450,-0.088770700,-0.029498340
1640784958328409856,-0.130758510,0.327338160,9.443948750,-0.019043680,0.069999700,-0.024491550
1640784958329269760,-0.026315410,0.207735260,9.653854370,-0.019881130,-0.030228500,-0.027418140
1640784958333479936,-0.436692450,0.086124790,10.601181980,0.071042780,-0.041793290,-0.046610830
1640784958334300160,0.163154380,0.366494120,8.470362660,0.078110400,-0.029976670,-0.043934590
1640784958338969856,-0.115446520,0.563618900,9.900823590,-0.008061530,-0.053405770,-0.040121380
1640784958340629760,-0.297681930,0.578573640,9.961627010,-0.094112760,0.097753110,-0.017765160
1640784958345589760,0.048603280,0.400191130,9.559243200,-0.041747090,-0.096011150,-0.015899540
1640784958345959936,-0.400878970,0.296775130,10.710456850,0.072841350,-0.075358150,-0.039249660
1640784958348409856,0.112213660,0.526088060,8.531035420,0.052739680,0.015933810,-0.025664270
1640784958349339904,0.018352870,0.381115020,9.770030980,-0.054311760,-0.055456170,-0.007185340
1640784958353730048,-0.089311900,0.132322210,9.965065000,-0.113439570,0.099585970,0.003273790
1640784958354560000,0.485118960,0.031079080,9.001113890,-0.031848260,-0.035406650,-0.016929210
1640784958358490112,-0.100547660,-0.003830690,10.603703500,0.063467010,-0.047411020,-0.022450090
1640784958359309824,0.076091780,0.188357250,8.841373440,0.015661120,0.015205150,-0.032079220
1640784958363499776,-0.100243980,0.048364760,9.708144190,-0.046391790,-0.078651320,-0.019720200
1640784958364290048,-0.402651310,-0.106253000,9.983754160,-0.051474560,0.075922910,-0.028157240
1640784958368419840,-0.035531650,0.123534930,9.043943410,0.026167930,-0.020729010,-0.035855170
1640784958369249792,-0.509387370,0.284982170,10.462514880,0.038091840,-0.029154120,-0.033134220
1640784958374330112,-0.094615620,0.481267780,8.969900130,-0.042572620,0.028532740,-0.012470780
1640784958375039744,-0.306767200,0.339819910,10.012610440,-0.045549880,-0.075876720,-0.018525130
1640784958378449920,-0.371546800,0.168387440,10.059760090,-0.010724370,0.019654630,-0.032266980
1640784958379319808,0.088882160,0.312412890,9.071868900,0.046116110,-0.053606930,-0.046066950
1640784958383389952,-0.264620390,0.407276210,10.467414860,0.026306510,-0.012084840,-0.035068390
1640784958384259840,0.254049180,0.591418860,9.173973080,-0.101803270,0.036509340,-0.012640660
1640784958388979968,0.150996760,0.473248300,9.928814890,-0.113473840,-0.074075150,-0.007158520
1640784958392169984,-0.014859430,0.309403870,9.986165050,-0.051221260,0.024047500,-0.017499920
1640784958393440000,0.168512540,0.346453130,9.205579760,0.027912860,-0.042392320,-0.034220520
1640784958394299904,-0.497499290,0.138107570,10.266744610,0.016298890,-0.076574080,-0.021903210
1640784958398499840,-0.140353550,0.057879690,8.998152730,-0.086525080,-0.005812940,-0.014367700
1640784958399239936,-0.195384310,-0.189888300,9.547348020,-0.076776750,-0.016602880,-0.018525120
1640784958403470080,-0.239671980,-0.107064670,9.967738150,-0.031577050,0.046016280,-0.024479630
1640784958404280064,0.072502620,0.266921640,9.561532970,-0.015875700,-0.022552910,-0.022533540
1640784958408509952,-0.204914150,0.091236050,10.001667980,-0.035773220,-0.047339500,-0.012332200
1640784958410519808,0.028066020,-0.007081870,9.397695540,-0.039164730,-0.028830760,-0.020152330
1640784958413499904,-0.151916460,-0.200298800,9.660196300,0.047111510,-0.031203030,-0.038255750
1640784958414309888,-0.072177310,-0.068716350,9.275144580,0.068297980,-0.000081960,-0.045888130
1640784958418499840,-0.067144050,0.275402930,9.836985590,-0.010493400,-0.003926460,-0.026856360
1640784958419249920,-0.249161600,0.342629220,10.010949130,-0.086329890,0.007902090,-0.008316340
1640784958423539968,-0.048076970,0.389409570,9.587521550,-0.068268190,-0.089560450,-0.019094350
1640784958424279808,-0.397725400,0.343079240,9.933405880,0.039988760,-0.046844780,-0.044679640
1640784958428400128,-0.243769170,0.460445610,9.118245120,0.065980860,-0.013172630,-0.062516340
1640784958429240064,-0.419218840,0.460014020,10.190608020,-0.000627340,-0.068819530,-0.038366020
1640784958433440000,-0.376215130,0.204690220,9.747372630,-0.069576510,0.008368490,-0.014102460
1640784958434510080,0.257818910,0.177716840,9.140583040,-0.068455940,-0.072459880,-0.012865660
1640784958438649856,-0.046187090,0.171001370,10.223073960,-0.002875920,0.002431870,-0.020624700
1640784958439429888,0.318504870,0.376386970,8.987431530,-0.012877580,0.012633200,-0.013467670
1640784958443439872,0.109803740,0.228797760,10.111017230,-0.050778690,-0.097511690,-0.005419550
1640784958444269824,-0.123606190,-0.165801170,9.708994870,-0.017991660,-0.007018450,-0.010670720
1640784958448449792,0.080430340,-0.271799030,9.087009430,0.059366230,-0.097632430,-0.042532390
1640784958449740032,-0.480115590,-0.107766830,10.113874440,0.056752560,-0.014309590,-0.049732620
1640784958453440000,-0.172689590,0.175623730,8.877229690,-0.043565040,0.016771260,-0.027884540
1640784958454479872,-0.301663100,0.280326490,10.329155920,-0.090779360,-0.078220650,-0.021548570
1640784958458829824,-0.317708460,0.251867150,9.789102550,-0.025074180,0.013555590,-0.028154250
1640784958459679744,0.003614720,0.398129550,9.223125460,0.084279480,-0.121609870,-0.041995950
1640784958463519744,-0.457553060,0.371345280,10.316012380,0.075978040,-0.033168500,-0.059072670
1640784958464419840,0.028510920,0.421045810,8.814336780,-0.018295650,-0.005772710,-0.033982100
1640784958468389888,-0.235675480,0.228545410,10.451515200,-0.048157580,-0.108696540,-0.013323130
1640784958469289984,-0.039250630,0.178312540,9.528261180,-0.031499570,0.021541120,-0.014354290
1640784958473510144,0.292875050,0.397533450,9.145244600,0.016729540,-0.102180240,-0.039945550
1640784958474309888,-0.388157730,0.504576620,10.790520670,-0.014740230,-0.017814340,-0.026866800
1640784958478429952,-0.014218420,0.449453060,9.021099090,-0.058451310,-0.029788920,-0.022071610
1640784958479300096,-0.422252240,0.130643780,10.238615040,-0.011859840,-0.186117020,-0.026255850
1640784958483510016,-0.285214930,0.079902670,9.316894530,0.027431550,0.004698340,-0.023022300
1640784958484299776,0.138831820,0.312044830,8.699172970,0.007300080,-0.035400690,-0.030973560
1640784958488539904,-0.429009470,0.353443860,10.832145690,-0.065991280,-0.009304290,-0.000780820
1640784958489299968,0.191616160,0.269208160,9.332285880,-0.110650060,-0.021225210,0.015644730
1640784958493440000,0.014367460,-0.095954160,9.989115720,0.010858480,-0.152502940,-0.012725590
1640784958494329856,-0.179276140,-0.032756740,9.664951320,0.090350220,-0.033278760,-0.038842860
1640784958499330048,0.035321840,0.183042880,8.700604440,0.035333630,-0.067675110,-0.038450960
1640784958500239872,-0.403621380,0.044044140,10.093053820,-0.072103750,-0.035659970,-0.019949670
1640784958503779840,-0.026938320,0.148197170,9.445818900,-0.086972100,-0.002747770,-0.006201860
1640784958505199872,-0.230231670,0.174096730,10.102496150,0.026679040,-0.121510030,-0.004699830
1640784958509079808,-0.184933600,0.302565600,9.718928340,0.046321750,-0.069944560,-0.022363660
1640784958509600000,-0.175652040,0.471245740,9.507329940,0.004717710,-0.057564680,-0.025664280
1640784958513469952,-0.520314160,0.294182180,10.217044830,-0.037021930,-0.050713130,-0.012682380
1640784958514380032,-0.127395330,0.184393270,9.440744400,-0.021505360,-0.099183630,-0.014576320
1640784958518380032,-0.165260300,0.227447570,9.587530140,0.042507050,-0.098733630,-0.022269790
1640784958519279872,0.104818030,0.555797220,9.223188400,-0.014935430,-0.007316470,-0.024691230
1640784958523529984,0.035180920,0.698787150,9.942516330,-0.100433830,-0.058975810,0.008310380
1640784958526109952,-0.119178120,0.339828700,10.063446040,-0.093412400,-0.077506910,0.021518770
1640784958528399872,0.223918680,0.122054540,9.497687340,0.003688040,-0.118544710,-0.017841160
1640784958532169728,-0.124940070,0.056843490,9.712429050,0.108726320,-0.073163210,-0.021955370
1640784958533509888,0.023037800,0.184446280,9.017362590,0.004185740,-0.038886070,-0.012558700
1640784958534289920,0.035572550,0.194513010,9.660575870,-0.131814180,-0.016267600,0.002047420
1640784958538499840,-0.016586100,0.076805710,9.753907200,-0.131820140,0.002783540,0.021329530
1640784958539249920,0.013236610,0.129440920,9.970175740,0.006112460,-0.132240370,-0.004944210
1640784958543419904,-0.249157240,0.271425430,9.614475250,0.073005260,-0.082658240,-0.026312470
1640784958544299776,-0.015054240,0.312840160,8.809999470,-0.002701580,-0.045256320,-0.022198260
1640784958548369920,-0.439357910,0.107225150,10.503578190,-0.073485080,-0.009180610,-0.010132790
1640784958549280000,-0.164911900,-0.010529630,9.472413060,-0.040332980,-0.005878510,-0.004830960
1640784958553829888,-0.057633540,0.189953880,9.792101860,0.021384660,-0.161725280,0.005936620
1640784958554469888,-0.305129020,0.419168170,9.774212840,-0.012131040,-0.013217330,0.003741680
1640784958558369792,0.093872880,0.646330000,8.786883350,-0.099751350,-0.065934650,0.004629790
1640784958559249920,-0.429488540,0.365474400,10.850379940,-0.084345040,-0.080983340,0.001539290
1640784958563510016,-0.087154810,0.239678610,9.343032840,0.017346440,-0.016185640,-0.015719240
1640784958564339968,0.064197530,0.375552480,9.698618890,0.072829430,-0.153768060,-0.037899610
1640784958568480000,-0.335169970,0.592607980,10.137621880,-0.049684940,-0.002093610,-0.004366040
1640784958569479936,0.249396520,0.729735020,8.606616020,-0.190228220,-0.053106260,0.029629470
1640784958575209984,-0.138307870,0.337547180,10.501674650,-0.153152660,-0.083060560,0.027610360
1640784958575800064,0.058014220,0.359499810,9.353976250,-0.016555190,0.006307660,-0.000548360
1640784958580039936,0.043298300,0.372480510,9.610805510,0.041353700,-0.154222560,-0.009188060
1640784958580509952,-0.285495550,0.097916710,10.052265170,-0.066556050,-0.021271410,0.002601740
1640784958583429888,0.201081660,-0.035739370,8.723049160,-0.134237130,-0.024573500,-0.000765920
1640784958584280064,-0.257662920,-0.212068570,10.506099700,-0.084227330,-0.059978660,-0.000412760
1640784958588480000,0.033868540,0.108087810,9.204072000,-0.044043370,-0.003805760,-0.010839110
1640784958589280000,-0.016207140,0.369539500,9.525970460,-0.050701200,-0.127270830,0.002484020
1640784958593479936,-0.226323070,0.260563520,9.979937550,-0.106309340,0.011205670,-0.007313490
1640784958594419968,0.124068490,0.227858200,9.132899280,-0.053635240,-0.037997960,-0.013744830
1640784958598469888,-0.420790820,0.170578420,10.626481060,0.018049770,-0.072848780,-0.023400780
1640784958599259904,0.009901130,0.484163310,9.263862610,-0.035245720,-0.006888810,-0.017870960
1640784958603579904,-0.060450900,0.636689070,9.510250090,-0.126458700,-0.095665460,0.005325680
1640784958604430080,-0.225736990,0.609362600,9.947551730,-0.183917580,0.007258360,0.015175340
1640784958608409856,0.144824460,0.576500890,9.305479050,-0.114040080,-0.037941340,0.001767280
1640784958609279744,-0.327053790,0.427834360,10.505433080,-0.017277900,-0.073744360,-0.030389430
1640784958613440000,-0.046421620,0.550112490,9.530771260,-0.056855380,-0.042161350,-0.007763510
1640784958614299904,-0.132779760,0.259063150,9.681004520,-0.120724750,-0.072084370,0.014185910
1640784958618680064,-0.073181800,-0.029258390,9.678483010,-0.162430120,-0.001321730,0.020600860
1640784958620019968,0.180571290,0.086369510,9.453148840,-0.112135720,-0.021781030,0.013044480
1640784958624270080,-0.101221730,0.158352550,9.870281220,-0.080834310,-0.021393600,0.018668170
1640784958624909824,0.108797170,0.244364140,9.552987100,-0.127996500,-0.060819090,0.014062230
1640784958628460032,-0.102282620,0.039080980,9.911804200,-0.107088670,-0.043745340,-0.002306700
1640784958629249792,0.006386800,0.030416280,9.321153640,-0.068303940,-0.007095930,-0.016368930
1640784958633449984,-0.064639170,0.195454550,9.835372920,-0.047270950,-0.029289720,-0.005877020
1640784958634299904,-0.191671250,0.415498110,9.664932250,-0.106881560,0.037969650,0.016114120
1640784958638449920,0.110278920,0.486461490,9.562122340,-0.192004410,-0.047421450,0.027059020
1640784958640359936,-0.268678550,0.270043050,10.181083680,-0.127890710,-0.026772920,0.042858720
1640784958643409920,0.047572060,0.140165570,8.973890300,-0.042276080,-0.031158330,-0.000165400
1640784958644329984,-0.234512570,0.102907230,10.120430950,-0.016240770,-0.038927790,-0.021256500
1640784958648380160,-0.298126550,0.125618650,9.732864380,-0.085553510,0.045844910,-0.003501770
1640784958649279744,-0.018036370,0.055872760,9.778977390,-0.147518530,-0.079512600,-0.005388260
1640784958653499904,-0.176584880,0.176442790,10.128789900,-0.133873540,-0.014841560,-0.001056490
1640784958654359808,0.301518560,0.509038090,8.891683580,-0.116667160,0.007615980,0.003868340
1640784958658389760,-0.125715210,0.637566570,10.513627050,-0.114408140,-0.022301080,0.008015340
1640784958659289856,-0.034773530,0.548285480,9.576813700,-0.113156440,0.030617420,0.038836900
1640784958663460096,0.082814460,0.264536650,9.752671240,-0.069192050,-0.111342970,0.031502540
1640784958664339968,-0.125507560,0.117640320,9.917699810,-0.068880620,0.029306120,0.024734440
1640784958668829952,0.316837970,0.299107460,8.606406210,-0.126656880,0.042393800,0.036716460
1640784958669730048,-0.192919180,0.264251710,10.623041150,-0.195397480,0.012613830,0.033356260
1640784958673399808,0.078958250,0.160355200,9.449671750,-0.190176080,0.059609120,0.033086540
1640784958674379776,0.031843240,-0.028409110,9.657159810,-0.062769660,-0.109966100,0.000813600
1640784958678439936,-0.371537360,-0.037932080,9.894548420,-0.016680360,0.026215620,-0.011065600
1640784958679239936,0.065076760,0.144693970,8.555307390,-0.085163120,0.041094420,-0.007699430
1640784958683480064,-0.422564480,-0.058740280,10.635534290,-0.154449060,0.020632150,0.022545460
1640784958684569856,-0.041184920,0.007317110,9.797072410,-0.153584750,0.084164730,0.042584530
1640784958689600000,0.078018610,0.251281890,9.702406880,-0.057432060,-0.072862210,0.036312640
1640784958690099968,-0.167611060,0.415153000,10.002468110,-0.074046840,0.018802280,0.025288760
1640784958693389824,0.167553260,0.667559980,9.026675220,-0.132817030,0.052790350,0.016535820
1640784958694299904,-0.317346840,0.364864140,10.350345610,-0.125686840,0.009267030,0.027701260
1640784958698479872,0.024578550,0.267071550,9.606412890,-0.083531450,0.012725590,0.025533140
1640784958702540032,0.089124550,0.286196320,9.422009470,-0.031791630,0.001844760,0.015868250
1640784958703439872,-0.025257680,0.434349150,9.679674150,-0.125025230,0.072658080,0.029811270
1640784958704339968,0.023850330,0.546645820,9.801266670,-0.214174390,0.037398940,0.057144470
1640784958708489984,-0.234149140,0.096131470,10.047860150,-0.181137030,0.003471970,0.046510990
1640784958709339904,0.130676550,-0.092338520,9.306343080,-0.058695670,-0.009579960,0.013192000
1640784958713420032,-0.167088300,-0.103803770,9.737236020,0.038865210,0.051379200,-0.001619760
1640784958714269952,-0.096020740,0.061127960,9.324457170,-0.093452640,0.077639520,0.001490120
1640784958718710016,-0.082336580,0.052252750,9.955022810,-0.222466920,0.010719900,0.042183700
1640784958719290112,-0.169744580,-0.095305830,9.836320880,-0.165554880,0.063641370,0.047382720
1640784958724339968,0.127985660,0.015271370,9.529892920,-0.032866000,-0.008316340,0.028322630
1640784958725789952,-0.242245120,0.210288540,10.053755760,0.032971790,0.036087630,0.024881960
1640784958728410112,0.037825120,0.403287680,9.175645830,-0.076127050,0.082066660,0.034439560
1640784958729309952,-0.151324090,0.211597680,10.466415410,-0.157688530,0.028572980,0.038623810
1640784958733510144,-0.170236210,0.201137290,9.760466580,-0.102478270,0.058673320,0.038938230
1640784958734299904,0.134885800,0.443941350,9.206017490,-0.036504870,-0.039525330,0.018584730
1640784958738569984,-0.172379300,0.711082040,9.820564270,-0.072656580,0.100709500,0.014650820
1640784958739359744,0.042444570,0.898810860,9.213497160,-0.173550860,0.099948060,0.048302110
1640784958743409920,-0.242337720,0.410693940,10.866457940,-0.172591210,-0.004076960,0.045563280
1640784958744299776,-0.002656170,0.015106560,9.541602130,-0.051116950,0.057192150,0.038509070
1640784958748440064,0.199088130,0.025368070,9.214324950,0.023347140,-0.030834980,0.026102370
1640784958749289984,-0.058743250,-0.007617460,9.876603130,-0.088834760,0.149272380,0.042118140
1640784958754769920,0.441502630,-0.003592680,8.803181650,-0.218786300,0.134906190,0.074963270
1640784958755810048,-0.037430000,-0.367350280,10.959515570,-0.155802100,0.019475820,0.066490480
1640784958758589952,0.129108950,-0.357876420,9.454940800,0.004239380,0.077150760,0.027683380
1640784958759449856,0.033243630,0.040473460,9.169013980,0.069220370,-0.039912760,-0.008387860
1640784958763599872,-0.502787290,0.207499590,10.105042460,-0.078383100,0.127997990,0.008960070
1640784958764339968,-0.042174310,0.307579490,9.005496980,-0.171121950,0.143893080,0.037206710
1640784958768839936,-0.521531220,0.219307170,10.795805930,-0.075058640,0.015333300,0.043497980
1640784958769939968,-0.182391290,0.558333280,9.421068190,0.021220750,0.090400880,0.038592520
1640784958773609984,-0.002920880,0.798064290,9.037384990,-0.010836130,0.018206240,0.032766170
1640784958774550016,-0.347265240,0.608785750,10.299572940,-0.134824230,0.128962100,0.053367030
1640784958778400000,0.144420970,0.308246520,9.573987960,-0.133423520,0.103504970,0.049667070
1640784958779300096,0.011589340,-0.128098740,10.339183810,0.001780690,0.006519260,0.025309620
1640784958783379968,0.364493130,0.078021850,9.289200780,0.021934510,0.104543580,0.003682080
1640784958784320000,0.346221690,0.371972500,9.274779320,-0.080727040,0.111636540,0.029690570
1640784958788539904,0.039533310,0.174146030,9.961894990,-0.207525510,0.135430690,0.060153010
1640784958789469952,0.185612770,-0.103362240,9.741387370,-0.131247950,0.057058050,0.051863500
1640784958793499904,-0.213476400,-0.311568020,9.923839570,0.086060150,0.046950570,0.015062090
1640784958794339840,-0.164852080,-0.000271020,9.147350310,0.095778710,0.090335320,0.000838940
1640784958798449920,-0.500393870,0.220364090,9.853865620,-0.061173740,0.129757840,0.022947790
1640784958799310080,-0.354671750,0.177945380,9.754155160,-0.190515830,0.160340980,0.052160030
1640784958803759872,-0.145759760,0.092733040,10.026507380,-0.092940040,0.044298170,0.047212840
1640784958804969984,-0.219630120,0.319026890,9.707908630,0.078177450,0.081409520,0.027421120
1640784958808430080,0.241646170,0.553214250,8.936617850,0.051014130,0.094275180,0.012415650
1640784958809319936,-0.103297670,0.418853610,10.345396040,-0.049734130,0.140787680,0.042213500
1640784958813439744,0.132613940,0.152888150,9.738218310,-0.096659370,0.142075120,0.050038100
1640784958814309888,0.227731210,-0.026911740,10.035832410,-0.015123190,0.026287140,0.035364930
1640784958818789888,0.017412650,0.132351120,9.525101660,0.054071840,0.132399810,0.023736060
1640784958820960000,0.180989530,0.599969330,8.963570590,-0.044223670,0.110104680,0.007753070
1640784958823449856,-0.402887400,0.609090150,10.386283870,-0.145384650,0.129482150,0.045889610
1640784958826419712,-0.223053530,0.142587590,9.378203390,-0.093655290,0.119785970,0.049752000
1640784958828399872,-0.232842430,-0.070502770,10.015262600,0.076997290,0.020813940,0.001582500
1640784958829299968,-0.261233690,0.039832010,9.511966710,0.119282330,0.172950340,0.016655030
1640784958833519872,0.061812390,0.200374310,9.040987010,-0.032562020,0.129133480,0.048449640
1640784958835059968,-0.305035770,-0.145398450,10.722641940,-0.152838230,0.147624300,0.059510770
1640784958838459904,0.191539470,-0.266656610,9.135429380,-0.060535970,0.119017060,0.044561930
1640784958839379968,0.057903060,-0.158536090,9.899451260,0.124596070,-0.002717970,0.011368100
1640784958843399936,-0.028814160,0.097992170,9.334067340,0.124523040,0.192251820,-0.013548140
1640784958844300032,0.119224240,0.418051570,9.200429920,-0.010986630,0.119505830,0.003829600
1640784958848399872,-0.441347420,0.279683860,11.057925220,-0.089596210,0.127096490,0.031045080
1640784958849339904,0.072360020,0.312802050,9.141738890,-0.029318040,0.118060420,0.035625700
1640784958853410048,-0.164761560,0.448874000,9.861528400,0.092701620,0.012445450,0.016362970
1640784958854310144,-0.347713560,0.690965770,9.696935650,0.042235850,0.212124000,0.014150140
1640784958858399744,-0.099219570,0.704168080,9.250983240,-0.053009390,0.101301080,0.036463140
1640784958859299840,-0.541858260,0.115603370,10.720231060,-0.055229660,0.062534210,0.050090260
1640784958863459840,0.185496780,-0.077213890,8.836041450,0.038748980,0.137069820,0.024868550
1640784958864339712,0.078753640,-0.043424190,9.648518560,0.113877670,0.086043780,0.006555020
1640784958869159936,-0.092500460,0.106081750,10.069621090,0.004126130,0.200152400,0.030243400
1640784958869989888,0.202418950,0.079920220,9.465628620,-0.088424990,0.083759430,0.053320830
1640784958873779968,-0.141639130,-0.324020420,10.312732700,-0.013720990,0.048801300,0.029528140
1640784958874359808,0.107381640,-0.210007860,9.082950590,0.125789630,0.137267980,-0.006714460
1640784958878369792,-0.236633330,0.147063880,9.587494850,0.160536180,0.093762580,-0.023700300
1640784958879309824,-0.331556110,0.408097270,9.828621860,0.008332730,0.146126760,0.014643370
1640784958883579904,-0.166842620,0.489919480,9.751518250,-0.084921700,0.101472440,0.046035650
1640784958884369920,-0.407364220,0.266696450,10.131285670,0.005351010,0.080315780,0.043979290
1640784958888439808,-0.109141840,0.377944260,9.477393150,0.121943660,0.060302020,0.017365820
1640784958889699840,-0.270399390,0.476409140,9.786636350,0.126558540,0.102981930,0.006175040
1640784958893400064,-0.149189130,0.380947020,9.607373240,0.006197390,0.135050730,0.021433830
1640784958894359808,-0.057107260,0.155733210,10.129578590,-0.040258470,0.060974070,0.031259660
1640784958898969856,-0.037040000,-0.042601280,9.720144270,0.047691180,0.091728580,0.017106540
1640784958900100096,0.285122930,0.198478250,9.175399780,0.082564350,0.053280590,-0.003218650
1640784958903450112,-0.141625340,0.458143890,10.097260480,0.042356550,0.129489600,0.024008750
1640784958904339968,-0.053236530,0.327759270,9.531540870,-0.038278100,0.128179770,0.042349100
1640784958908399872,-0.119515810,-0.036057440,10.277192120,0.014398990,0.011360650,0.029926000
1640784958909269760,-0.142528300,-0.162064140,9.492831230,0.146253380,0.117622300,0.013981760
1640784958913420032,0.107018340,0.127266560,9.057331090,0.125639130,0.083634240,-0.010982150
1640784958914490112,-0.342196320,0.360626850,10.266632080,0.002750750,0.129252690,0.030156970
1640784958918609920,-0.036108280,0.307756160,9.330529210,-0.084969410,0.121368480,0.030966100
1640784958919279872,-0.086620230,0.055066140,10.197784420,0.014001130,0.010262430,0.018729270
1640784958923399936,-0.273692730,0.075431740,9.696272850,0.185708750,0.109185290,0.000719730
1640784958924359936,-0.025952960,0.193759230,9.097080230,0.165009510,0.059917570,-0.019413230
1640784958928369920,-0.469558090,0.151054430,10.579066280,0.035470720,0.100110480,0.006821750
1640784958929400064,-0.135129660,0.096864890,9.309350010,-0.032003220,0.095422570,0.039023160
1640784958933499904,-0.138478250,0.021596220,10.094668390,0.055252020,-0.012283030,0.022466480
1640784958934579968,-0.231203230,0.370441410,9.761109350,0.130479050,0.117330240,0.005804000
1640784958938439936,-0.013305230,0.797270060,9.207537650,0.078894210,0.034739080,0.005730990
1640784958939839744,-0.489507530,0.646947440,10.706191060,-0.006452200,0.048772980,0.023126600
1640784958943419904,-0.060817380,0.396885870,9.128523830,0.005121530,0.082710380,0.031347570
1640784958944310016,-0.090259030,0.229556040,9.990397450,0.110626230,-0.027835370,0.014723840
1640784958948359936,-0.063997800,0.307113320,9.703087810,0.112029930,0.132615860,0.005209450
1640784958949289984,0.300982620,0.556783140,8.989453320,-0.011733170,0.057551260,0.032083690
1640784958953529856,-0.211764430,0.162451710,10.851589200,-0.086934870,0.051128870,0.051492460
1640784958954340096,0.156437370,-0.186902080,9.254386900,0.011828540,0.067995500,0.028494000
1640784958958449920,-0.149289380,-0.185461360,9.840289120,0.178275970,-0.073191520,-0.016686320
1640784958959280128,-0.370192380,-0.017867860,9.530420300,0.134739290,0.089097030,-0.021518770
1640784958963510016,0.029492480,0.175639570,8.725726130,-0.010773540,0.085465610,0.010953840
1640784958964310016,-0.483419660,-0.026146080,10.941415790,-0.046443940,0.066271420,0.022506710
1640784958968580096,-0.038494360,0.072505200,9.597709660,0.053428110,0.063297150,0.017429890
1640784958969289984,-0.116258350,0.251319590,9.626438140,0.180201260,-0.090005990,-0.003144150
1640784958973409792,-0.322376670,0.382618250,9.771295550,0.111636500,0.078725810,-0.013658400
1640784958974299904,0.052881250,0.505693550,9.110252380,0.004500150,0.079336770,-0.003983080
1640784958978639872,-0.429193500,0.152654710,10.754779820,0.018541520,-0.004592540,0.008738040
1640784958979290112,0.058746490,0.168793530,9.458039280,0.100815300,0.031559170,0.003141160
1640784958983500032,-0.023467300,0.416320740,9.541370390,0.136969980,-0.022163990,-0.010693070
1640784958984890112,-0.442688520,0.557676670,10.073688510,0.018043820,0.050130490,0.012843310
1640784958988479744,-0.092135510,0.476083520,9.373079300,-0.043158240,-0.000716750,0.032059850
1640784958990209792,-0.408831980,0.038948410,10.186529160,0.049881640,-0.033506750,0.013621150
1640784958993589760,-0.036924630,0.126733200,9.380165100,0.151370470,0.024686760,-0.015273690
1640784958995110144,-0.092400730,0.424112860,9.778852460,0.124071550,0.009945030,-0.013995170
1640784958998380032,-0.178667230,0.458832030,9.903553010,-0.037837020,0.037564330,0.018928950
1640784958999339776,0.114673070,0.275345590,9.776280400,-0.085625040,-0.028081240,0.032810870
1640784959003589888,-0.181996320,-0.044385200,10.005363460,0.068001460,-0.014616550,0.013452770
1640784959004519936,0.030248790,0.023283980,9.046165470,0.172142700,-0.041928890,-0.020350520
1640784959008369920,-0.156452460,0.210723460,9.594374660,0.129745920,-0.008302930,-0.008945170
1640784959010360064,-0.285886590,0.057880560,9.668409350,-0.021798910,0.080154830,0.009594860
1640784959013449984,-0.153218080,-0.028779330,10.228536610,-0.022058190,-0.061887500,0.019539890
1640784959014360064,-0.505471770,0.052130080,10.210689540,0.115287300,-0.057107210,0.015270710
1640784959018739968,-0.089179100,0.343645420,8.728029250,0.129118560,-0.078474010,-0.014282760
1640784959019619840,-0.337926030,0.575785580,9.873795510,0.058926650,-0.001585480,-0.008870660
1640784959023559936,-0.281499270,0.492741080,9.732416150,-0.009056930,0.071312490,0.001744930
1640784959024430080,-0.029584500,0.246292110,10.184161190,0.054767740,-0.114578020,0.001147390
1640784959028440064,-0.122026440,0.346654180,10.073135380,0.150536000,-0.054816910,-0.001691280
1640784959029299968,0.257134800,0.612984660,8.869717600,0.057597470,-0.032038990,-0.004425640
1640784959033449984,-0.100025560,0.578196410,10.309624670,-0.051815810,-0.032815340,0.031295420
1640784959034370048,-0.112819300,0.390133170,9.717521670,-0.052773950,0.001326200,0.033354750
1640784959038480128,0.095057850,0.143619600,9.736875530,0.056555870,-0.125533360,-0.010187920
1640784959039330048,-0.257364390,0.281803550,9.996799470,0.135754050,-0.034093860,-0.013120480
1640784959043490048,-0.013675390,0.515178860,8.952875140,0.023341180,-0.033079080,0.002014640
1640784959044329984,-0.189186570,0.191036280,10.303287510,-0.080969920,-0.041478860,0.031174720
1640784959048440064,-0.130047310,0.011052290,9.689982410,-0.028830770,0.018562380,0.026488310
1640784959049350144,-0.015914010,0.060396130,9.812453270,0.087897480,-0.120015440,0.005261600
1640784959053529856,-0.220598980,0.146927640,9.926531790,0.106671450,-0.046710670,0.002607700
1640784959054349824,0.125053230,0.337304090,8.735571860,-0.008447470,-0.029191380,-0.003598630
1640784959058650112,-0.180152490,0.157506470,10.427308080,-0.059060760,-0.026720760,-0.006550550
1640784959060039936,0.006896250,0.116958960,9.624149320,0.016209490,0.014029450,-0.007535520
1640784959063489792,0.014093250,0.322802070,9.729346280,0.100751210,-0.141143780,-0.011304020
1640784959064440064,-0.359421550,0.349204480,10.212307930,0.051982700,-0.036409500,0.000822540
1640784959068659968,-0.076588450,0.349357310,8.915020940,-0.041219590,-0.037190320,0.017225740
1640784959069579776,-0.533529460,0.078897300,10.523489950,-0.014691050,-0.107474630,0.007194280
1640784959073580032,-0.226541940,0.041313540,9.489552500,0.069825370,-0.010474030,-0.006914140
1640784959074390016,-0.023342710,0.336431440,9.468652730,0.097443170,-0.120580200,-0.015193220
1640784959078389760,-0.369014080,0.501491610,10.504417420,-0.002300740,-0.033691530,-0.003468990
1640784959079389696,0.217838760,0.663177250,9.008260730,-0.096489510,-0.050789130,0.019329790
1640784959083510016,-0.160585450,0.404897990,10.489366530,-0.047205390,-0.129663960,0.004525480
1640784959084419840,-0.064768370,0.456280650,9.776043890,0.051091620,-0.028489530,-0.011236970
1640784959088470016,0.128635900,0.635186730,9.203766820,0.065182160,-0.142911080,-0.000610950
1640784959090529792,-0.287334980,0.396086930,10.163379670,-0.051781540,-0.061532860,0.017328560
1640784959093459968,0.306479390,0.194544270,8.963290210,-0.100067270,0.010181960,0.036479540
1640784959094379776,-0.157508820,-0.114358760,10.486452100,-0.020220880,-0.086151060,0.010836120
1640784959098699776,-0.105512980,-0.025182710,9.861384390,0.035320220,-0.074428330,-0.001077350
1640784959099389952,0.083946760,0.120120560,9.107645990,0.015407800,-0.136117650,-0.000852350
1640784959103529984,-0.410611000,-0.106747650,10.043806080,-0.057163830,-0.049501650,-0.008516010
1640784959104379904,-0.076520350,-0.068830040,9.421661380,-0.022585690,-0.036834180,-0.015887620
1640784959108870144,-0.303388120,0.073882040,10.099732400,0.061273570,-0.101377080,-0.017309190
1640784959109429760,-0.055333390,0.356672110,9.507888790,0.023528930,-0.061871110,-0.007618960
1640784959113420032,0.088944920,0.540478830,9.655762670,-0.031629200,-0.085364290,0.016587970
1640784959114419968,-0.269547050,0.360134870,10.184085850,-0.054720040,-0.050891940,0.020651520
1640784959118670080,0.044933570,0.263297920,9.529524800,0.024032590,-0.129504520,-0.000229480
1640784959119779840,-0.258718580,0.402421770,10.080906870,0.076919800,-0.106517980,-0.018812720
1640784959124100096,-0.048281840,0.487561430,9.361761090,-0.020270050,-0.035238270,-0.008383390
1640784959124569856,-0.096621140,0.455793590,10.052580830,-0.084514920,-0.105010000,0.020365420
1640784959128449792,-0.160107360,0.250998260,9.974040030,-0.073771190,-0.050355500,0.016905370
1640784959129369856,0.292102100,0.137979400,9.277028080,0.004848840,-0.104403500,0.006270410
1640784959133410048,-0.215552340,0.173863170,10.349364280,0.070679190,-0.080546760,-0.004477800
1640784959134400000,0.005319790,0.182166190,9.230884550,-0.019265710,-0.082589690,-0.003281240
1640784959138880000,0.080647080,-0.072642530,9.637297630,-0.055944920,-0.142885740,0.007741150
1640784959139719936,-0.083030660,-0.136812210,9.694957730,-0.013519820,0.005836790,-0.008757410
1640784959143460096,0.298573020,0.074323010,9.451219560,0.025494400,-0.062006720,-0.018158560
1640784959144409856,-0.234708490,0.283195380,10.535329820,0.031177710,-0.087265670,0.015515090
1640784959148439808,-0.001161290,0.289951740,9.201927190,-0.043311720,-0.106267650,0.000169870
1640784959149349888,-0.073916410,-0.010415130,9.798563000,-0.014221670,-0.126257550,0.002484020
1640784959153959936,-0.322750510,-0.097523220,9.683499340,0.089457630,-0.006683170,-0.007514660
1640784959155190016,-0.022133950,0.058343100,9.481802940,0.094731160,-0.096683200,-0.040273370
1640784959158399744,-0.241235970,0.348382920,10.269051550,0.021399560,-0.059914590,-0.011943280
1640784959159539968,0.051261650,0.588287170,9.181698800,-0.087973460,-0.056658690,0.000332300
1640784959163499776,-0.099710520,0.539106430,10.340213780,-0.069883470,-0.126498910,0.003200770
1640784959164369920,-0.131263990,0.519196870,9.733237270,0.046715140,-0.045134130,-0.017012660
1640784959168749824,-0.033995490,0.534344490,9.600358010,0.089293720,-0.137507930,-0.027725100
1640784959170219776,-0.378047080,0.419654970,10.399571420,0.024525830,-0.056158020,-0.009818380
1640784959173569792,0.092676450,0.279101010,8.918331150,-0.077274450,-0.058491530,0.014753640
1640784959175629824,-0.036118490,-0.050818280,10.149880410,-0.064842390,-0.116161990,0.009535250
1640784959178390016,0.072071310,-0.022454200,9.463055610,0.009991230,0.007681550,-0.005109610
1640784959179309824,0.165841790,0.263603810,9.372787480,0.034232430,-0.134037410,-0.011733170
1640784959183419904,-0.296286820,0.020186980,10.559955600,-0.009779630,-0.084044050,0.009049480
1640784959184409856,0.121816990,-0.101060410,9.116606710,-0.024060900,-0.044876350,0.002342460
1640784959188699904,-0.315782790,-0.252357180,10.369592670,0.055129840,-0.152578950,-0.017212330
1640784959189750016,-0.188608070,-0.055402350,9.455640790,0.086434190,-0.016714630,-0.022321940
1640784959193399808,0.090539440,0.412005040,8.942438130,0.003503260,-0.089275820,-0.022295120
1640784959194370048,-0.376885770,0.393802400,10.580922130,-0.076378890,-0.053179260,0.000335280
1640784959198439936,0.171256560,0.369042580,9.193072320,-0.025133790,-0.060179840,0.000262260
1640784959199319808,-0.266425370,0.237742470,10.252140050,0.100407010,-0.168380160,-0.028251110
1640784959203519744,-0.199407950,0.381076570,9.783348080,0.109966100,-0.039470200,-0.038117170
1640784959204839936,-0.003819130,0.524305160,9.464937210,0.005498530,-0.080102700,-0.007924440
1640784959209090048,-0.408711280,0.259921730,10.494165420,-0.090283160,-0.081408030,0.011748080
1640784959209600000,0.246316980,0.253335180,9.167345050,-0.055587300,-0.064861770,0.016264620
1640784959213469952,-0.008587880,0.190558090,9.943939210,0.051644460,-0.095479190,-0.012953580
1640784959214360064,-0.025016340,0.294745000,9.733579640,0.063756100,-0.043898810,-0.026482340
1640784959218479872,0.029610080,0.376879630,9.694581990,0.004394350,-0.119112420,-0.003723800
1640784959219480064,-0.280847220,-0.028345970,10.044915200,-0.049662590,-0.098432610,0.004826490
1640784959223459840,0.250707330,-0.089961890,9.106333730,0.010214750,-0.068697330,-0.008440020
1640784959224480000,-0.137972760,0.137910230,10.046165470,0.080138440,-0.042285030,-0.020280480
1640784959228399872,0.049787140,0.445200680,9.451913830,-0.009542700,-0.032523280,-0.005567070
1640784959229339904,0.040173670,0.414590030,9.941650390,-0.063793350,-0.119808300,0.019772350
1640784959233579776,-0.232735840,0.024052180,10.025297160,-0.025680660,-0.056953730,-0.007450580
1640784959234639872,0.171448140,-0.161153180,9.160880090,0.113499170,-0.110203030,-0.026248400
1640784959238779904,-0.326346370,-0.098216330,10.128645900,0.160267960,-0.066776570,-0.035174190
1640784959241609728,-0.010268690,0.125436380,9.205688480,-0.003662710,-0.002783540,-0.029414890
1640784959243419904,0.015074820,0.156575780,10.200504300,-0.096040960,-0.101138660,0.006422400
1640784959244389888,-0.180853490,0.180884290,10.064597130,-0.038737050,-0.041680030,-0.001685320
1640784959248399872,0.250771460,0.282081900,9.160367010,0.088158240,-0.133417520,-0.026577710
1640784959249449984,-0.340599570,0.466616030,10.294834140,0.152166190,-0.072367490,-0.033946340
1640784959253489920,-0.145048250,0.568275510,9.333040240,0.028213860,-0.032290820,-0.010339920
1640784959255159808,-0.160367280,0.243364270,10.219636920,-0.038766860,-0.129112620,0.013706090
1640784959259589888,-0.150318940,0.220305890,9.687873840,-0.004246830,-0.048238040,0.007161500
1640784959260019968,0.335706500,0.318802540,9.111325260,0.038670010,-0.079140090,-0.024251640
1640784959263490048,-0.059752290,0.497515500,10.292403220,0.032547120,-0.019764900,-0.010046360
1640784959264389888,0.150369850,0.471954880,9.339968680,-0.041340280,-0.054980820,0.002469120
1640784959268450048,0.012959470,-0.118605200,10.198311810,-0.006468600,-0.145429370,-0.003348290
1640784959269340160,-0.086687890,-0.253830310,9.472831730,0.095894930,-0.034287570,-0.018288200
1640784959273530112,0.039395840,-0.101983920,9.157423970,0.107395640,-0.098504110,-0.027315320
1640784959274459904,-0.314926590,-0.018172760,10.250149730,0.010630490,-0.004896520,-0.004439060
1640784959278400000,0.021597220,0.131729130,9.283714290,-0.073055920,-0.019541380,0.005766750
1640784959279320064,-0.231398730,0.012195720,10.531794550,0.019510090,-0.144597900,-0.000822540
1640784959283419904,-0.090640020,0.104669260,9.338476180,0.145895790,-0.046491620,-0.022563340
1640784959284399872,-0.035753810,0.402657180,9.043312070,0.133745360,-0.116109850,-0.041045250
1640784959288509952,-0.386968430,0.323616420,10.445359230,0.024202460,-0.011219080,-0.019755960
1640784959289359872,0.127253760,0.269552590,9.332515720,-0.022311510,-0.025066730,0.004573170
1640784959293409792,-0.106754770,0.241923210,10.480291370,0.045548380,-0.149014590,-0.005050000
1640784959294390016,0.135198300,0.410733520,9.476514820,0.083294520,-0.023709240,-0.010058280
1640784959298869760,0.202168930,0.652641180,9.341652870,0.030188270,-0.078345840,-0.020690260
1640784959300329984,-0.367446060,0.440285620,10.647945400,-0.018987060,-0.060100850,-0.003422800
