# timestamp,accel_x,accel_y,accel_z,gyro_x,gyro_y,gyro_z
1640844550.609820,-0.096786370,0.412656780,9.499114990,-0.006245080,-0.049155950,0.029425320
1640844550.613270,-0.182445020,0.489183900,9.735518460,-0.023122130,-0.028289860,0.011138620
1640844550.614680,-0.135677440,0.552978520,9.333623890,-0.018708410,0.054052480,0.028908260
1640844550.619050,-0.138284490,0.648246650,9.925556180,-0.034084920,-0.012747940,0.028087200
1640844550.619760,-0.092128720,0.472613420,10.075584410,-0.048734240,0.006727870,0.034250320
1640844550.623200,0.178816740,0.278485150,9.200407980,-0.016495580,-0.007750090,0.030505660
1640844550.623800,-0.070922520,0.353350100,9.962101940,-0.017528240,0.006839630,0.018568340
1640844550.629920,-0.180513170,0.182488800,9.683004380,-0.059875840,0.026312470,0.049157430
1640844550.631440,-0.111675880,-0.009347120,9.492403030,-0.067229580,-0.049501660,0.052693490
1640844550.633370,-0.193783520,-0.096292470,9.662718770,-0.016711650,0.001041590,0.031203040
1640844550.634580,0.044550620,0.034420760,9.098395350,-0.011412800,0.064753000,0.031720110
1640844550.638280,-0.119803760,0.198262960,10.081870080,-0.042909390,0.027702750,0.028924650
1640844550.641640,-0.216610160,-0.049522530,10.117842670,-0.041222580,-0.011168420,0.026795270
1640844550.645850,-0.044920300,-0.061035770,9.316158290,0.028495500,-0.059467560,0.028863550
1640844550.647600,-0.311336250,0.098120090,9.467007640,0.048907100,-0.025340920,0.020068890
1640844550.649500,-0.166593420,0.101733600,9.365945820,-0.013580920,0.052085520,0.020359460
1640844550.650050,-0.063525950,0.295759620,9.774931910,-0.025707480,0.026541940,0.023619830
1640844550.656900,-0.111282970,0.196505800,10.080417630,-0.005696710,-0.001075860,0.027537340
1640844550.658670,0.108400220,0.137062090,9.543522830,0.047364830,-0.019931800,0.030630830
1640844550.659540,-0.126686980,0.357253910,9.708359720,0.067110370,-0.026445090,0.018535560
1640844550.660020,-0.231950480,0.319986370,9.708719250,-0.025908650,-0.002942980,0.023692850
1640844550.663160,-0.136441810,0.309493570,9.376214980,-0.043074780,-0.006045400,0.031466780
1640844550.665900,-0.352526040,0.245764340,10.081533430,0.017946960,-0.002573430,0.010298190
1640844550.668250,-0.098797370,0.376149000,9.687370300,0.042770800,0.008244810,0.013008710
1640844550.668860,-0.045364370,0.704013470,9.724400520,0.009140370,-0.025293230,0.030338770
1640844550.673250,-0.113752230,0.516797010,9.994885440,-0.086460990,0.027616320,0.033658740
1640844550.674300,0.133910430,0.399614300,9.482821460,-0.049991910,-0.001880530,0.035512450
1640844550.680880,-0.110591460,0.302257330,10.079315190,0.037124750,-0.025540590,0.030471380
1640844550.681400,0.049422110,0.292983590,9.357253070,-0.001049040,0.017242140,0.018908080
1640844550.683140,0.070240680,0.219478910,9.444878580,-0.038504600,-0.024797020,0.034649670
1640844550.683890,-0.043006520,0.121541220,9.779932980,-0.071735690,0.064776840,0.027602910
1640844550.689550,0.027196280,0.082070450,9.740464210,-0.041262810,0.022050740,0.024963920
1640844550.691080,-0.315695790,0.011807880,10.291460990,0.022764510,-0.042593480,0.035953520
1640844550.693320,-0.113596480,0.097921760,9.125724790,0.008185210,-0.016623740,0.025473540
1640844550.695030,-0.100505190,0.193132180,9.216643330,-0.013375280,-0.002141300,0.021569430
1640844550.698340,-0.144543360,0.340795190,9.722373960,-0.058284410,0.121442990,0.027032200
1640844550.699120,-0.057325040,0.334247260,10.013625140,-0.041393940,0.015462940,0.009973350
1640844550.703720,-0.290071190,0.183336940,10.429997440,0.038737050,-0.083039690,0.011248890
1640844550.704940,-0.081645700,0.319402400,8.845732690,0.045493250,-0.019671020,0.001065430
1640844550.708180,-0.303485810,0.191350650,9.650032040,-0.004181270,-0.010965770,0.001829860
1640844550.708810,-0.453775640,0.169251220,10.134747510,-0.046397750,0.091837370,0.020420560
1640844550.713370,-0.064767870,0.271970300,9.624189380,-0.030829010,-0.050716100,0.017772620
1640844550.714110,-0.234794990,0.185110990,10.392088890,0.021171570,-0.039739910,0.022158030
1640844550.718400,0.083937410,0.390048470,9.173200610,0.024595860,0.048936910,0.010061260
1640844550.719140,-0.179946210,0.500018660,10.237881660,-0.003345310,-0.049009920,0.007535520
1640844550.723200,-0.384601950,0.493532480,10.167561530,-0.069719560,0.010804830,0.026895110
1640844550.725050,0.154331620,0.432585920,8.877250670,-0.056377050,-0.059114400,0.018964710
1640844550.728310,-0.183632270,0.447498080,10.310266490,0.003576280,0.007760530,-0.009720030
1640844550.729100,-0.013448430,0.688335120,9.541469570,-0.033602120,0.094577680,-0.009608270
1640844550.733210,-0.070592280,0.564611080,10.262814520,-0.088049480,-0.084641580,0.001013280
1640844550.733770,-0.321604460,0.298255980,10.236509320,-0.081157710,-0.029873850,0.003685060
1640844550.738520,0.175743680,0.206875520,8.692300800,-0.029157100,-0.020852680,0.010044870
1640844550.739310,-0.176960570,0.264508870,9.965078350,-0.015762440,0.025410950,0.028409070
1640844550.743210,-0.076472480,0.151903900,9.794131280,-0.088018190,0.087787210,0.026041270
1640844550.744000,0.136666300,-0.055452160,9.855447770,-0.079351670,-0.043623150,0.023017820
1640844550.748120,-0.262101710,-0.168558200,10.279567720,0.004807110,-0.035135450,0.026339290
1640844550.748630,-0.060249710,-0.181290880,9.198662760,0.008411700,0.006030500,-0.000566240
1640844550.754550,-0.213180570,0.152366440,9.804458620,-0.022959710,-0.018736720,0.002977250
1640844550.755360,-0.211973160,0.255158540,9.610771180,-0.087364010,0.051745760,-0.015003980
1640844550.758840,0.172631890,0.301475470,9.437732700,-0.059978670,0.030846900,-0.008432570
1640844550.759590,-0.212866950,0.447758850,10.265703200,0.033281750,0.015912950,0.001962480
1640844550.763220,-0.193400400,0.243853540,9.839482310,0.031465300,-0.030973560,-0.000306960
1640844550.764300,-0.313303560,0.281664130,9.644775390,0.003555420,-0.062707070,0.022923950
1640844550.768330,-0.521912570,0.206586440,9.550490380,-0.065660480,0.010778010,0.020447370
1640844550.769190,-0.148206900,-0.091109020,9.683463100,-0.059109940,0.052854430,0.008417670
1640844550.773240,-0.375630380,0.110998630,10.451021190,0.051930540,0.013817840,0.005361440
1640844550.776460,-0.195897740,0.206926000,10.030573840,0.036646430,-0.051724920,-0.009183590
1640844550.778110,0.073613450,0.277902420,9.387819290,-0.016926230,-0.040903690,0.001940130
1640844550.778760,-0.177662070,0.525243340,9.812346460,-0.049231940,0.015848880,0.011231000
1640844550.783640,-0.024274560,0.562545180,9.954174040,-0.069376810,0.024071330,0.008055570
1640844550.784420,-0.120192410,0.621197820,10.094258310,-0.008977950,-0.062692170,0.013937060
1640844550.789010,-0.051165250,0.619333980,9.747860910,0.015187260,-0.029583280,-0.004072490
1640844550.789640,0.154148490,0.622766730,9.408037190,-0.031729050,0.037176910,-0.001819430
1640844550.793720,-0.264445420,0.549228070,10.305383680,-0.087298470,0.024944550,0.022701920
1640844550.794300,-0.201337490,0.298421030,9.996004100,-0.110624750,-0.028111040,0.018353760
1640844550.798410,-0.113688660,0.108454470,9.482993130,-0.035369400,-0.097526610,0.006625060
1640844550.799860,-0.057774120,0.292048810,9.278145790,-0.019147990,0.031808020,0.007279220
1640844550.803200,0.198943120,0.310615990,9.465591430,-0.094291580,0.115945950,0.011065600
1640844550.805040,-0.063264330,-0.007816470,10.851295470,-0.091746450,0.018669670,0.006991630
1640844550.808300,0.105516800,0.038102820,9.865596770,-0.036625560,-0.025093560,-0.003322960
1640844550.809050,0.059000900,0.001356360,9.384298320,-0.008262690,-0.079193720,-0.003340840
1640844550.813210,-0.295252680,-0.004524350,9.607572560,-0.043532260,0.038506090,0.002937020
1640844550.814100,-0.019967410,0.165661070,9.020893100,-0.073878460,0.057247270,-0.019660590
1640844550.818310,-0.247772380,0.123545800,10.284502980,-0.052757570,0.014574830,-0.008441510
1640844550.820490,-0.047361440,0.250358550,9.763582230,-0.016807020,0.077669320,0.001297890
1640844550.823200,-0.047373570,0.272650000,10.083189960,0.013539200,-0.050370410,-0.008678440
1640844550.824770,-0.522357580,0.183154340,10.379309650,-0.007723270,-0.016756360,0.012871630
1640844550.828300,-0.098144680,0.221416400,8.673932080,-0.049884630,-0.011838970,-0.000153480
1640844550.830260,-0.346301350,0.018220730,10.093430520,-0.027813020,0.017870960,-0.009110570
1640844550.833250,-0.272399130,0.104825700,9.959412570,0.008195640,0.110797610,-0.003537540
1640844550.835730,0.065437370,0.396816790,9.907260890,0.006605690,-0.050957500,-0.013116000
1640844550.838200,-0.258596600,0.419759480,10.515668870,-0.046774750,-0.021600720,0.002363320
1640844550.838820,0.197326090,0.456934990,8.983209610,-0.065143410,0.035348530,-0.005148350
1640844550.844310,-0.061052650,0.476794300,10.287538530,-0.012984870,-0.002385680,-0.006152690
1640844550.844920,-0.215579270,0.610562800,10.153203010,-0.027996300,0.061574590,-0.003825130
1640844550.848310,0.177365780,0.540610190,9.342123990,-0.050756340,-0.044079120,-0.002989170
1640844550.849120,-0.158894670,0.483568010,10.200078960,-0.062996160,0.024415550,0.011578200
1640844550.853200,-0.086279760,0.393757400,9.694419860,-0.088906300,0.082267820,0.001022220
1640844550.853940,-0.235879470,0.124622940,10.383555410,-0.049434600,-0.039193040,0.005605820
1640844550.858240,-0.417107080,0.124612150,9.990785600,-0.017225740,-0.026933850,0.003609060
1640844550.858900,0.118765030,0.233489100,8.900535580,-0.063413380,0.015032290,0.005914270
1640844550.866810,-0.014609070,0.312378970,9.917130470,-0.107146780,0.103199470,0.032420450
1640844550.867710,0.028866270,0.173491170,10.128660200,-0.112526130,0.088475640,-0.002390150
1640844550.868120,0.185002300,0.047834960,10.112272260,-0.009129940,-0.044858460,-0.001265110
1640844550.868420,-0.089805220,0.140266910,9.583418850,0.031560660,-0.018695000,0.000658630
1640844550.873160,-0.073313800,0.103390420,9.382316590,-0.057548280,0.033873320,-0.016391280
1640844550.878690,-0.209365160,0.112226630,9.876862530,-0.098681460,0.060060630,0.003518160
1640844550.880250,-0.278051020,0.103062310,9.791980740,-0.069776180,0.046275560,-0.003778930
1640844550.881100,-0.050833100,0.032699670,9.916456220,-0.004281100,0.038303430,-0.004659590
1640844550.883250,-0.268300770,0.074150770,10.002545360,0.055171550,0.032641000,0.017528240
1640844550.883950,-0.268123720,-0.002657280,9.759557720,0.010678170,-0.016689300,0.013071300
1640844550.888150,-0.189134110,0.043600930,9.557051660,-0.059446690,0.009416040,0.016589460
1640844550.889450,-0.193027560,0.058947690,9.501276020,-0.056147580,0.059926510,0.006663800
1640844550.893480,0.026708830,0.014204890,10.161666870,0.011244420,0.071530070,-0.022481390
1640844550.896030,-0.207406650,0.260025920,10.502362250,0.089736290,0.026239460,-0.013571980
1640844550.898310,-0.255074500,0.457613920,9.878029820,0.035621230,-0.067116320,0.002777580
1640844550.899850,-0.141634370,0.485741530,9.468852040,-0.061032180,-0.022332370,0.004911420
1640844550.903170,-0.244259880,0.420026060,9.551362990,-0.054281960,0.066818300,0.020819910
1640844550.903790,-0.086021650,0.566684660,10.028329850,-0.002968310,0.064829000,0.011134150
1640844550.908340,-0.043325370,0.539276300,10.424356460,0.036244090,0.004081430,0.004665550
1640844550.910370,-0.013150470,0.552629950,9.903823850,-0.000050660,-0.008752940,0.023117660
1640844550.913230,-0.016584710,0.543965940,9.795019150,-0.071991980,0.008963050,0.014752150
1640844550.915100,-0.410741000,0.113743380,10.227942470,-0.076510010,0.004678970,0.024347010
1640844550.918240,-0.165505360,0.091156530,9.418934820,-0.000584130,-0.013503430,0.012053550
1640844550.918710,-0.035374650,0.285010550,9.622684480,0.027722120,0.009027120,-0.003749130
1640844550.923390,0.017292400,0.425053860,9.971773150,-0.063504280,0.105385500,0.022132690
1640844550.923880,0.264677610,0.432808370,9.845227240,-0.109319390,0.048029430,0.021243100
1640844550.928340,-0.066174540,0.100532750,10.613014220,-0.032427900,-0.030739610,-0.001895430
1640844550.929120,-0.059580130,0.293527600,9.406516080,0.027988860,0.000631810,0.013056400
1640844550.933270,-0.178024340,0.370266110,9.329112050,-0.011588630,-0.033746660,0.009170170
1640844550.933980,-0.430040300,0.042594880,9.951499940,-0.088931630,0.078542530,0.002409520
1640844550.938400,-0.090485680,0.100635470,9.376809120,-0.064420700,0.085991630,0.005173680
1640844550.939190,-0.262155890,-0.069459820,10.584028240,0.016163290,0.001856680,0.007484850
1640844550.943480,-0.134681300,-0.047727770,9.968196870,0.020077830,0.042462350,0.011818110
1640844550.946360,0.057497710,0.253645180,9.431070330,0.001697240,-0.035907330,0.004506110
1640844550.948170,-0.157033250,0.168325140,9.992626190,-0.064547360,0.047165160,0.012278560
1640844550.948840,0.088444470,0.244266840,9.317928310,-0.067645310,0.082382560,-0.014708940
1640844550.953380,-0.126397000,0.293865800,10.538427350,0.026091930,-0.000232460,-0.015640260
1640844550.954000,-0.352377120,0.407474310,10.189422610,0.048111380,0.009058420,-0.025546550
1640844550.958430,-0.099761640,0.573495570,9.255434990,-0.022476910,-0.043459240,-0.003871320
1640844550.959180,-0.489207600,0.423163680,10.293335910,-0.077869010,0.047279900,0.020876530
1640844550.964370,-0.321850990,0.348165690,9.831936840,-0.065384810,0.076115130,0.008520480
1640844550.965640,-0.150200190,0.416594270,10.318446160,0.001646580,-0.035905840,0.012570620
1640844550.968120,-0.046979270,0.452576070,9.888323780,-0.006929040,0.045976050,0.020383300
1640844550.968480,0.255736110,0.352017490,9.500342370,-0.052107870,0.031143430,-0.003390010
1640844550.973550,-0.014835850,0.392399460,10.407145500,-0.068806110,0.033758580,0.007979570
1640844550.974800,-0.110434240,0.267434720,9.909016610,-0.083525500,0.007788840,0.005157290
1640844550.978270,-0.036874800,0.090449340,9.901214600,-0.037111350,-0.042244800,-0.000050660
1640844550.979010,-0.237054420,0.278189270,9.814642910,0.003233550,0.036984690,0.001019240
1640844550.983160,-0.075780800,0.529165450,9.531496050,-0.082534560,0.051864980,0.006443260
1640844550.983690,0.026924010,0.450415250,10.224395750,-0.144013780,0.072307880,0.022055210
1640844550.988130,-0.004771780,0.340021190,9.957629200,-0.084021690,0.052203230,0.003185870
1640844550.990710,0.040436770,0.280574020,9.912596700,-0.009042030,-0.016322730,-0.005935130
1640844550.993240,-0.088731980,0.283855170,9.628483770,-0.012725590,0.026246910,0.010421870
1640844550.994030,-0.085797670,0.085375170,9.386505130,-0.093182940,0.053316370,0.012253230
1640844550.999940,-0.087888740,-0.169343770,10.122524260,-0.105610470,0.076985350,0.006037950
1640844551.000470,-0.116223110,-0.216426190,9.869949340,-0.028394160,0.075975060,0.005331640
1640844551.003200,-0.057987750,-0.109471030,10.045850750,0.000710790,0.002156200,-0.007747110
1640844551.004280,-0.129793600,-0.010354660,9.919431690,-0.020176180,0.046093770,-0.005173680
1640844551.008780,-0.035022450,0.048713360,9.338749890,-0.052143630,0.053556260,-0.000642240
1640844551.009410,-0.165524960,0.164605440,9.943808560,-0.043340030,0.052855910,-0.014884770
1640844551.013160,-0.200745140,0.177295700,9.856062890,0.001738970,0.068855290,-0.010785460
1640844551.014180,-0.201422590,0.331125680,9.898365970,0.019873680,0.011976070,-0.009955470
1640844551.018170,-0.487738370,0.303941310,10.276217460,-0.003166500,0.010822710,-0.002239640
1640844551.019670,-0.440809610,0.066946010,9.686493870,-0.027690830,0.020618740,0.006379190
1640844551.023800,-0.332076040,0.081406730,9.859114650,0.000993910,0.028544660,-0.002349910
1640844551.026980,-0.396566090,0.147203530,10.265610690,0.010819730,0.057837380,-0.011619930
1640844551.029550,0.021606630,0.467161360,9.641123770,-0.019843880,0.019694870,0.008329750
1640844551.030320,0.151785430,0.564810280,9.869721410,-0.038924810,0.021311640,0.006709990
1640844551.033120,-0.006959370,0.464960040,10.276131630,-0.040984150,0.048480920,-0.003232060
1640844551.033660,-0.047842870,0.628987490,9.987908360,-0.007782880,-0.002317130,0.009818380
1640844551.038480,-0.439736340,0.415163670,10.316858290,0.000610950,-0.068674980,-0.003966690
1640844551.041370,-0.317521690,0.370977220,9.456651690,-0.041104860,0.011624400,0.005188580
1640844551.046790,-0.207260390,0.544395740,9.494389530,-0.063559420,0.037668650,0.006499890
1640844551.047600,-0.428229480,0.356453150,10.633352280,-0.096353870,0.061330200,0.003615020
1640844551.048420,0.087019560,0.265832100,9.768678670,-0.067384530,0.021876390,0.018708400
1640844551.048790,0.029341170,0.142570940,10.097847940,0.011695920,-0.045838960,0.008189680
1640844551.053360,-0.115872960,0.151747020,9.932414050,-0.025540590,0.023929770,0.006780030
1640844551.055620,0.203094660,0.284334510,9.134787560,-0.100566450,-0.012376910,0.026750570
1640844551.058560,-0.093206960,-0.045405790,10.252677920,-0.106477740,0.025929510,0.001485650
1640844551.061090,0.073226630,-0.082965360,9.690984730,-0.024460260,0.068092350,-0.004722180
1640844551.063150,-0.111862310,0.036136140,10.156718250,0.062163170,-0.033022470,-0.003826620
1640844551.063630,-0.535912690,0.150407340,10.376472470,-0.020243230,-0.013612210,-0.007718800
1640844551.068260,-0.140197950,0.208678870,8.955961230,-0.104643400,-0.030832000,0.009889900
1640844551.068840,-0.273332180,0.090962690,9.805886270,-0.059059270,0.030514600,-0.000792740
1640844551.073240,-0.122845480,0.256516930,9.850395200,0.003451110,0.123745200,-0.016680360
1640844551.076890,0.076972120,0.335710820,10.293523790,0.050392750,-0.007955730,-0.011160970
1640844551.078090,-0.183779000,0.381513630,10.657548900,0.001592930,-0.017334520,0.003208220
1640844551.078540,-0.082311470,0.246246770,9.366050720,-0.075849880,-0.043904770,0.009177630
1640844551.083270,-0.303875240,-0.059134470,9.858633040,-0.037325930,-0.023850800,0.017446280
1640844551.084210,-0.453726770,0.071155820,9.904215810,0.029115380,0.060798230,-0.005181130
1640844551.088170,-0.119324840,0.290278400,9.794666290,0.025282800,-0.008565190,-0.004725160
1640844551.088620,-0.108843580,0.466171180,10.368641850,-0.036235160,0.035521390,0.002856550
1640844551.093240,0.010178020,0.632740200,9.948680880,-0.095826390,0.034232440,-0.009657440
1640844551.094120,-0.090660220,0.569845860,10.459592820,-0.061050060,-0.048364700,0.002339480
1640844551.100570,-0.301686020,0.597054300,9.973505970,-0.003159050,-0.014795360,0.010368230
1640844551.101160,-0.089693430,0.442916720,9.359627720,-0.001251700,-0.044055290,-0.000038740
1640844551.103190,-0.106163410,0.266276450,9.995494840,-0.026625400,0.049202150,0.009045000
1640844551.105310,-0.074774840,0.322832640,9.950890540,-0.085300210,0.077550110,0.011286140
1640844551.108200,-0.146635310,0.101132410,10.691494940,-0.094373510,-0.036504860,0.022780890
1640844551.108790,-0.205429030,-0.033149670,10.117849350,-0.032937520,-0.046165280,0.013728440
1640844551.113120,0.039902760,0.082047400,9.116688730,0.018915540,-0.046144430,0.003626940
1640844551.113680,0.001180480,0.331378940,9.700820920,-0.041493780,0.057308380,0.016009810
1640844551.118690,0.133034180,0.358601990,9.796716690,-0.123985120,0.117841360,0.037394470
1640844551.119800,0.158175830,0.155931620,10.610863690,-0.088717050,0.009138880,0.017783050
1640844551.123240,-0.224981670,0.010580120,10.646897320,0.032038980,-0.044628980,0.010299680
1640844551.124800,-0.173027200,-0.048194730,9.188337330,0.059610600,-0.068503620,0.007355210
1640844551.128710,-0.368862930,0.047860290,9.444759370,-0.028976800,0.005330150,0.009132920
1640844551.130790,-0.412358190,-0.093027320,9.751464840,-0.100189450,0.107693680,0.019653140
1640844551.133230,-0.036639930,-0.044526480,9.914777760,-0.043684250,0.041773920,0.023822490
1640844551.134100,-0.157881560,0.088382660,10.684499740,0.057864200,0.005488100,0.012648110
1640844551.138420,-0.082004670,0.108400690,10.014456750,0.062198940,-0.024385750,0.010420380
1640844551.139000,-0.101429570,0.178375710,9.721737860,0.004883110,-0.053450470,0.013253090
1640844551.143190,-0.256960000,0.103497470,9.836554530,-0.030183790,0.021316110,0.004878640
1640844551.143780,-0.098727250,-0.044265010,9.832697870,0.009238720,0.055156650,0.011254850
1640844551.148720,-0.177253870,0.251237960,10.407347680,0.088161240,-0.007760520,-0.001342590
1640844551.149930,-0.273913890,0.432288080,10.253376960,0.047709050,-0.025643410,-0.002254550
1640844551.154580,0.088077190,0.554692450,9.334154130,-0.042723110,-0.021953880,0.021265440
1640844551.155740,-0.189824330,0.528448100,10.162612920,-0.032591820,0.020518900,0.010025500
1640844551.158260,-0.154932800,0.417837560,10.442617420,0.011447070,0.055572400,0.005692240
1640844551.158820,0.025323380,0.588536140,9.973504070,0.049991920,-0.033070160,0.013053420
1640844551.164920,-0.276835440,0.388479470,10.345383640,0.012989350,-0.038433070,0.005865100
1640844551.168360,-0.092342090,0.269044310,9.491724970,-0.047811870,0.034882130,0.012709200
1640844551.169120,-0.396558700,0.198325770,10.169525150,-0.020726030,-0.032709540,0.023710730
1640844551.169560,-0.441330520,-0.012901290,10.372826580,-0.014132260,-0.013355910,0.016242270
1640844551.173140,0.143406510,0.060095390,9.106440540,0.028479100,0.000932810,0.007374590
1640844551.174080,0.073372540,0.350451980,10.181961060,0.016218420,0.032781070,0.005885960
1640844551.178320,0.287766870,0.496251230,10.083947180,-0.078587230,0.119222690,0.012105700
1640844551.178830,0.241764260,0.290409680,10.238337520,-0.050517920,-0.041361150,0.013884900
1640844551.183190,-0.156416570,0.052682310,10.468119620,0.053793200,-0.049312410,0.006631020
1640844551.185890,-0.149756270,0.059575560,8.952726360,0.077833240,-0.020006300,-0.002340970
1640844551.188550,-0.435697290,0.142716870,9.662983890,0.005115570,-0.000593070,0.011944770
1640844551.189330,-0.497921740,0.103895700,10.037035940,-0.090500720,0.122472650,0.003878770
1640844551.193090,-0.248369160,0.059536540,10.065241810,-0.044316060,-0.011703370,0.006356840
1640844551.193690,-0.268671330,0.020873230,10.454540250,0.087189670,-0.029945380,0.014394520
1640844551.198630,-0.095531090,0.180294840,9.485858920,0.092487040,0.025254490,-0.013017660
1640844551.200070,-0.116056720,0.231691490,9.970319750,0.022970140,-0.023257730,0.006717440
1640844551.203630,-0.152142970,0.197278960,9.918737410,-0.038276610,0.034101310,0.018239020
1640844551.204480,0.030250240,0.137039020,9.595486640,-0.009119510,-0.003305080,-0.002668800
1640844551.208330,-0.277253810,0.014766210,10.672226910,0.094471880,-0.017772610,-0.004474820
1640844551.209320,-0.314425170,0.302680370,9.940575600,0.114235290,-0.001700220,-0.014835600
1640844551.213480,-0.356145020,0.416746500,10.058365820,0.025133790,-0.088322180,-0.010482970
1640844551.217660,-0.383050920,0.437838580,9.898053170,-0.047481060,0.024774670,0.013984740
1640844551.218370,-0.120159400,0.556296770,9.708903310,-0.017301740,0.026367610,-0.008685890
1640844551.218900,-0.266965660,0.710281910,10.788555150,0.038945670,-0.025294720,-0.006277860
1640844551.223160,-0.211768880,0.667104480,10.001204490,0.047457210,-0.045187770,0.005452330
1640844551.223780,-0.132811140,0.528992350,9.788454060,0.007604060,-0.102086370,-0.000606480
1640844551.228160,-0.385401760,0.373272600,10.341604230,-0.031471250,0.004582110,0.013981760
1640844551.228780,-0.269290150,0.206677900,10.005746840,-0.032739340,-0.017908220,0.028266010
1640844551.233640,-0.135405080,0.250471000,10.370950700,-0.009401140,-0.082314010,0.016570090
1640844551.235220,0.016599430,0.289926830,9.863883020,0.000390410,-0.004453960,-0.004142520
1640844551.238160,0.287767560,0.510170700,9.596928600,-0.037740170,0.003731250,-0.002822280
1640844551.238630,0.008213770,0.572999840,10.609904290,-0.064840910,-0.010101500,0.008679930
1640844551.243180,-0.149635990,0.386521790,10.268123630,-0.048626950,-0.084336090,0.000214580
1640844551.243740,0.006826870,0.440970000,9.357845310,-0.013113020,-0.103098150,0.009197000
1640844551.248410,-0.252825110,0.365343510,9.798235890,-0.033769010,0.018827620,0.002363320
1640844551.249270,-0.207206790,0.124240710,10.114109040,-0.067983570,0.063283740,0.017678740
1640844551.253210,-0.240122650,-0.080430370,10.514138220,-0.020135940,-0.043019660,0.018054250
1640844551.255030,-0.338308990,-0.258282780,10.290819170,0.028397140,-0.106282520,0.005364420
1640844551.261440,0.049056830,-0.110779200,8.919353490,0.000707810,-0.039316710,0.015394390
1640844551.262550,-0.019091720,0.112988090,9.559333800,-0.048063700,0.027149920,-0.004255770
1640844551.266050,0.033976010,0.074828020,10.337640760,-0.070366260,0.069287430,-0.010906160
1640844551.266620,0.263648420,0.272036110,9.984215740,0.018900630,-0.021451710,-0.008499620
1640844551.270630,-0.239711970,0.273008440,10.577925680,0.075741120,-0.089466570,-0.008174780
1640844551.271180,-0.271816310,0.115001270,9.732005120,0.032825770,-0.052863370,0.000169870
1640844551.273110,-0.366716240,0.116091420,9.369620320,0.005997720,-0.049825020,0.008690360
1640844551.273530,-0.602393690,0.044301640,10.081997870,-0.013922150,0.015334790,-0.002157690
1640844551.278240,-0.042091880,0.172787930,9.548434260,-0.002235170,0.049106780,-0.002443790
1640844551.279360,-0.128059980,0.289719910,10.682150840,0.060656670,-0.032578410,-0.015394390
1640844551.283240,-0.119112760,0.275070610,10.546719550,0.036627060,-0.021953880,-0.016683340
1640844551.284540,0.013781570,0.226328730,9.523251530,0.030943750,-0.100445750,-0.011096890
1640844551.288400,-0.314212950,0.209483530,10.117599490,0.031092770,-0.061686350,-0.010927020
1640844551.289370,-0.136810030,0.343537210,9.471168520,-0.003884730,0.020499530,-0.010283290
1640844551.293450,-0.171765770,0.438477370,10.117662430,0.004877150,-0.054426490,0.008246300
1640844551.294960,-0.268490610,0.467648180,10.586956020,0.013490020,-0.019590560,0.003854930
1640844551.300930,-0.011691040,0.460383240,9.726328850,0.020475690,-0.038999320,-0.007924440
1640844551.302170,-0.257955430,0.583562970,10.584494590,0.016325710,-0.077979250,-0.007896120
1640844551.303530,-0.227003590,0.724335670,9.850811960,-0.050473210,-0.017039480,-0.000931320
1640844551.306090,0.053309590,0.633212800,9.532679560,-0.070975720,-0.075274710,-0.011669100
1640844551.308130,-0.069575900,0.651753070,10.324374200,-0.043389200,0.013619660,-0.003361700
1640844551.308770,-0.141679640,0.527374800,10.186160090,-0.035497550,-0.005172190,-0.009022650
1640844551.313350,-0.230344340,0.196020930,10.552600860,-0.023376940,-0.132927300,0.003392990
1640844551.314890,-0.329739330,0.108230420,9.810402870,-0.022462020,-0.082816180,0.003433230
1640844551.318370,-0.022911220,0.135166330,9.245477680,-0.072689360,-0.051058830,0.002415480
1640844551.319800,0.035803490,0.243363930,10.139993670,-0.106540340,0.042197110,0.012592970
1640844551.323800,0.216987010,0.252685460,10.062532420,-0.086715830,0.038136550,-0.006261470
1640844551.325250,0.290222970,0.130264550,10.486017230,-0.009849670,-0.064635280,-0.017187000
1640844551.328600,-0.065411980,0.226514880,10.130550380,0.025957820,-0.064502660,-0.014624000
1640844551.329470,-0.186189380,0.167323500,9.360660550,-0.040201840,-0.097154080,-0.011923910
1640844551.333210,-0.319740680,-0.005957510,9.779313090,-0.099793080,-0.029590730,-0.016230340
1640844551.334310,-0.305311020,0.004765870,9.645284650,-0.057071450,0.054049500,-0.012019280
1640844551.338360,-0.117375000,0.087697990,10.335491180,0.007580220,-0.001424550,-0.011786820
1640844551.338920,-0.216615020,0.160913200,10.804958340,0.018516190,-0.015863780,-0.012765830
1640844551.343260,-0.090268610,0.178331730,9.735638620,-0.013419990,-0.081215810,-0.002634530
1640844551.345230,-0.138777360,0.106213720,9.635195730,-0.047409530,-0.095403200,-0.011903050
1640844551.348200,-0.129863830,0.070610540,9.502447130,-0.033053760,0.035266580,-0.032752760
1640844551.348720,-0.035132680,0.146429790,9.980888370,0.026318430,0.018128750,-0.022733210
1640844551.353620,-0.203470140,0.288140770,10.863871570,0.042624780,-0.050586460,-0.025966770
1640844551.355410,-0.182545270,0.281490740,10.147948270,-0.015231970,-0.056345760,-0.024078790
1640844551.358890,-0.129493730,0.329940380,9.879967690,-0.027050080,-0.067035850,-0.001679360
1640844551.359520,-0.380132020,0.262105820,10.317527770,0.014327470,-0.015586610,-0.018438700
1640844551.366280,-0.155415730,0.515439450,9.775919910,0.017569960,-0.029689070,-0.010035930
1640844551.367100,0.053367460,0.826386930,9.696455000,-0.012108680,-0.047257550,0.001092260
1640844551.368860,-0.060581140,0.597409550,10.423254970,-0.061531360,0.021430850,-0.012503560
1640844551.369310,0.012834620,0.625387970,10.339324950,-0.045515600,-0.017835200,-0.015433130
1640844551.373260,-0.331944820,0.562350150,10.628040310,-0.003685060,-0.147101280,-0.020509960
1640844551.374100,-0.323538010,0.349703160,9.886408810,-0.024890900,-0.085589290,-0.024428960
1640844551.379440,0.006184130,0.543439390,9.143302920,-0.059981640,-0.004345180,-0.009371340
1640844551.379980,-0.245321450,0.598087670,10.650104520,-0.116004050,0.021769100,-0.003434720
1640844551.383310,0.136029030,0.407174890,10.272661210,-0.135439630,0.020794570,-0.003032390
1640844551.384820,0.241214080,0.367996250,10.110172270,-0.034552810,-0.104853520,-0.010465090
1640844551.388680,-0.108343620,0.303331490,10.421192170,-0.007261330,-0.066767630,-0.014804300
1640844551.391200,0.147262800,0.273041010,9.174046520,-0.090561810,-0.012961030,-0.002370770
1640844551.393490,-0.149890010,0.211089190,10.236968040,-0.137451290,-0.031800570,0.000986460
1640844551.394160,-0.013476360,0.063588020,10.122924800,-0.126862570,0.057859730,-0.010745230
1640844551.398280,0.087043900,0.079387460,9.910447120,-0.043423470,-0.009143350,-0.013852120
1640844551.400660,-0.385129720,0.171031790,10.858750340,-0.005678830,-0.065054010,-0.004722180
1640844551.403120,-0.181475370,0.073669690,9.416176800,-0.078772020,-0.048755110,-0.002262000
1640844551.403740,-0.133734390,0.104842030,9.416088100,-0.097398460,-0.050815940,-0.013503430
1640844551.408280,-0.193203810,0.163800460,9.973219870,-0.095640120,0.088106100,-0.009584430
1640844551.409460,0.098070200,0.065598040,10.052701950,-0.051799410,0.046941630,-0.022538000
1640844551.413210,-0.236269410,0.033335100,11.089364050,0.032834700,-0.069843220,-0.020296870
1640844551.414320,-0.242672820,0.009583890,9.805560110,0.005564090,-0.087362530,-0.009529290
1640844551.418170,-0.199518530,-0.210596830,9.310785290,-0.033935910,-0.064669550,-0.009064380
1640844551.418630,-0.387296530,-0.176625920,10.074885370,-0.034038720,0.051367290,-0.006622080
1640844551.423390,-0.066319030,0.004598270,9.806205750,-0.000932810,0.027823450,-0.025364760
1640844551.425530,0.037334630,0.248088430,10.534852980,0.032810870,-0.038725140,-0.023107230
1640844551.428610,0.105541660,0.519594010,10.115342140,0.004333260,0.015544890,-0.000436600
1640844551.430090,0.024274540,0.487468960,10.091872220,-0.023244320,-0.045548380,-0.010785460
1640844551.433900,-0.419590440,0.442905810,10.542905810,-0.008413200,-0.065132980,-0.008690360
1640844551.437670,-0.308423160,0.387232900,9.276636120,0.015744570,-0.052848470,-0.002761190
1640844551.440910,-0.353433100,0.334682350,10.023204800,0.021649900,-0.031711160,-0.011022390
1640844551.441470,-0.353579130,0.461634430,10.259361270,-0.021409990,0.081366310,-0.003157560
1640844551.443480,-0.134199960,0.422709440,10.335154530,-0.052528080,-0.032366820,-0.007453560
1640844551.444910,-0.159680380,0.337548200,10.859683040,-0.037121780,-0.077849630,-0.010702010
1640844551.448200,0.100218010,0.374151020,9.514946940,-0.001755360,-0.021620090,-0.003109870
1640844551.449600,0.151614550,0.566739860,9.723216060,-0.015862290,-0.029221180,0.002211330
1640844551.453430,0.044615510,0.545736910,10.318048480,-0.079569210,0.046934180,0.010272860
1640844551.458540,0.235608990,0.219784390,9.841913220,-0.076209010,0.009214880,0.007191300
1640844551.459350,-0.022317410,0.110856730,10.618442540,0.009591880,-0.054557630,-0.004781780
1640844551.459800,-0.411094250,0.033837780,10.259803770,0.027893480,-0.010900200,-0.005774200
1640844551.465220,-0.237744260,0.130033360,9.420778270,-0.044150650,-0.078681110,0.004304950
1640844551.466290,-0.210781350,0.119482460,9.782009120,-0.089842090,0.019480290,-0.006346410
1640844551.468210,0.041623980,0.129525880,9.674983020,-0.066863010,0.125959520,-0.009393690
1640844551.468850,0.205076770,0.176829840,10.521403310,0.018177930,0.033742190,0.001107160
1640844551.473270,-0.139461380,0.039386910,10.928483010,0.067922480,-0.022110340,-0.005315240
1640844551.474510,-0.104999630,-0.035635610,9.619255070,0.029225650,-0.086037840,0.009505450
1640844551.478970,-0.262692420,-0.054313950,9.319871900,-0.008814040,-0.038105250,0.018902120
1640844551.480920,-0.430087090,-0.198903100,9.783344270,-0.027365990,0.083248330,-0.011688470
1640844551.483070,-0.170733360,-0.075298650,10.152438160,0.039319690,0.052487850,-0.006332990
1640844551.483630,-0.244320930,0.268851160,10.721616740,0.107260070,-0.007653240,-0.005911290
1640844551.488620,-0.076794270,0.361474340,10.165850640,0.039799500,-0.025048850,-0.011530520
1640844551.489300,0.054557630,0.511943760,9.655084610,-0.013555590,-0.026252870,0.009021160
1640844551.493180,-0.267418650,0.399762210,10.242085460,0.005128980,0.020557640,-0.000564750
1640844551.493740,-0.132613180,0.350792020,10.011156080,0.043161220,0.008940700,-0.001758340
1640844551.498760,-0.151359590,0.394182980,10.075529100,0.100591780,-0.032627590,0.013273950
1640844551.499710,-0.264452760,0.186375870,10.414502140,0.050167740,0.013849140,-0.004115700
1640844551.503310,-0.159280340,0.309990500,10.115832330,-0.019668040,0.008544320,0.003427270
1640844551.504780,-0.404096570,0.232475620,10.565959930,-0.006179510,-0.055757170,0.007766490
1640844551.508210,-0.108025220,0.257071050,9.804277420,0.027365980,0.005407630,-0.003582240
1640844551.508730,0.145240870,0.646119590,9.574127200,0.048604610,0.018677120,0.005081300
1640844551.513180,0.026363950,0.819697860,10.519795420,-0.015015900,0.054338570,0.022958220
1640844551.514470,0.276984180,0.590434730,10.162373540,-0.078527630,0.041888660,0.015249850
1640844551.518700,0.003508840,0.332819640,10.507326130,0.015176830,-0.050397220,0.011323390
1640844551.519290,-0.229596170,0.193169040,10.171575550,0.074970710,-0.023877620,0.015996390
1640844551.523190,-0.132893800,0.172453940,9.319967270,0.006021560,-0.006796420,0.007693470
1640844551.524040,-0.236164690,0.072640120,10.093147280,-0.061292960,0.028891870,0.014832620
1640844551.528480,0.053544600,0.083431240,9.779448510,-0.067625950,0.121647130,0.007490820
1640844551.529250,0.037321620,0.068851520,10.398989680,0.011999910,0.022335350,-0.001795590
1640844551.533860,-0.191306410,-0.029672140,10.814071660,0.071343790,-0.014363230,0.003032390
1640844551.535610,-0.025439550,0.156563420,9.350187300,0.051005180,-0.041624910,-0.004464390
1640844551.538530,-0.236898710,0.129532490,9.730518340,-0.018288200,0.000324850,0.005902350
1640844551.539240,-0.157849980,0.139523920,9.772068980,-0.050187110,0.147771850,0.014297660
1640844551.546720,-0.119517620,0.132417630,10.398398400,0.027994810,0.034533440,-0.002142790
1640844551.548550,-0.323967900,0.069084060,10.944685940,0.108714400,-0.034059590,-0.004965070
1640844551.548970,-0.033227930,0.246408580,9.145324710,0.081458670,-0.011202690,0.002974270
1640844551.549380,-0.141086060,0.319156800,9.893910410,-0.003388520,0.013400620,-0.005252660
1640844551.553130,-0.214939430,0.287069650,10.368549350,-0.046403710,0.128079950,0.001218920
1640844551.555020,0.111087480,0.415063830,9.951761250,0.009584430,0.003841520,-0.003327430
1640844551.558180,-0.160863380,0.404019470,10.866777420,0.083585080,-0.027312340,-0.011140110
1640844551.559040,-0.010575590,0.470652250,9.597955700,0.066420440,0.045011940,-0.010582800
1640844551.572230,-0.182660090,0.495009540,10.064838410,-0.002738830,-0.027878590,0.004990400
1640844551.574420,-0.516812920,0.360091150,10.654656410,-0.055882340,0.044511270,0.013874470
1640844551.575090,-0.036793360,0.297212120,9.442726140,-0.021503870,0.016555190,0.005342070
1640844551.575600,-0.009086660,0.495404660,10.357105260,0.043067340,0.011339780,0.003720820
1640844551.576100,0.015379390,0.699258860,10.195775990,-0.005809960,0.124301020,-0.004102290
1640844551.576630,0.238160450,0.594315470,10.017423630,-0.069460280,0.014807280,0.015635790
1640844551.578510,-0.084715430,0.305322560,10.645760540,-0.038084390,-0.007988510,0.019018360
1640844551.578950,-0.074575160,0.062035780,9.618028640,0.021518760,0.030909480,0.002172590
1640844551.583270,-0.028893550,0.086209290,9.710002900,0.022439650,0.006364290,0.010722880
1640844551.585960,-0.296294180,0.124275750,10.369787220,-0.041165940,0.085514780,0.000475350
1640844551.588560,0.027052170,0.054452920,9.801790240,-0.077690180,0.069138410,-0.006838140
1640844551.589230,-0.029515610,0.161087040,10.346492770,-0.013622640,0.034819540,0.003048780
1640844551.593210,-0.283583520,0.126819210,10.362774850,0.026440620,0.045529000,-0.010021030
1640844551.603680,0.007148330,0.154516760,9.631912230,0.035797060,-0.010171530,0.003066660
1640844551.605700,-0.178134720,0.258547750,9.798995020,0.012712180,0.040352340,-0.001822410
1640844551.606390,-0.124777980,0.158589870,9.804081920,-0.056096920,0.107443350,-0.006797910
1640844551.606830,-0.108900730,0.033285040,10.424587250,-0.003083050,0.054833290,0.017273430
1640844551.607230,-0.345422510,-0.078928430,10.630391120,0.084431480,0.000812110,-0.009995700
1640844551.610260,-0.185811820,0.063665930,9.717552190,0.064367060,-0.007183850,-0.012566150
1640844551.611010,-0.166648120,0.243963700,9.657968520,0.002558530,0.049941250,0.013592840
1640844551.613140,-0.238021280,0.252093850,10.311308860,-0.037601590,0.103874500,-0.010471050
1640844551.613970,-0.047438070,0.408323940,10.285873410,0.000543890,0.040386620,0.002621110
1640844551.618420,-0.018753150,0.554277480,10.150781630,0.070771570,-0.010631980,0.002051890
1640844551.620060,0.002640760,0.592195930,10.015474320,0.033085050,0.052979600,-0.005625190
1640844551.623850,-0.063950310,0.580956640,10.144120220,-0.011755530,0.068739060,0.013895330
1640844551.624570,-0.409523400,0.341146920,10.691828730,-0.022283190,0.011380010,0.016801060
1640844551.628870,-0.289263900,0.235626850,9.877531050,-0.010359290,-0.006110970,0.012671950
1640844551.630350,-0.055106240,0.247429850,9.481714250,0.026801230,0.019219520,0.010997060
1640844551.636060,-0.106888510,0.320246730,10.188186650,0.005185600,0.138053310,0.007562340
1640844551.636940,0.055052730,0.362558010,10.303505900,-0.055862960,0.085981180,0.018973650
1640844551.638110,0.029083650,0.102987560,10.556808470,-0.018595160,-0.030858810,0.018227100
1640844551.638790,0.052764800,0.142518670,9.786569600,0.030474360,0.035975880,0.019086900
1640844551.643330,-0.021977990,0.241912290,9.565289500,0.014963750,0.034548350,0.012941660
1640844551.644440,-0.248058070,0.057771540,10.249412540,-0.022003050,0.072224420,0.010095530
1640844551.648220,0.056146290,0.176245690,9.568988800,-0.026646260,0.080730030,-0.002749260
1640844551.648820,-0.006801990,0.133670630,10.252832410,0.016553700,0.055725870,0.008155410
1640844551.653520,-0.156766580,0.039917240,10.508524890,0.037628410,0.097641360,0.017642970
1640844551.654440,-0.096232420,0.169368800,9.809578900,0.042718650,-0.005057450,0.015108290
1640844551.658070,-0.236658100,0.074091800,9.931285860,0.012137000,0.003348290,0.009910760
1640844551.658570,-0.001358530,0.036559220,9.158594130,-0.014676150,0.156492010,0.014510750
1640844551.663960,-0.206695780,-0.058814880,10.477731700,0.045008960,0.087124110,-0.003483890
1640844551.665760,-0.461064550,-0.117284850,10.996340750,0.113569210,0.040496890,0.000323360
1640844551.668300,-0.122395810,0.112832490,9.333697320,0.092917700,-0.036279860,0.007630890
1640844551.669380,-0.402286080,0.111425740,10.047870640,0.024989250,0.022755570,0.010806320
1640844551.673640,-0.319710430,0.100250740,9.933036800,-0.001543760,0.156749800,0.012904410
1640844551.674910,-0.112443330,0.280925360,10.150398250,0.081503400,0.024664400,0.009770690
1640844551.678240,-0.232320580,0.437909630,10.717832570,0.120125710,0.020907820,0.000363590
1640844551.679310,0.053044040,0.594433190,9.451551440,0.064502660,0.049854820,0.015874210
1640844551.683280,-0.120703030,0.639799770,10.240785600,0.009222330,0.015792250,0.019475820
1640844551.683960,-0.452935960,0.473558960,10.577945710,-0.016282500,0.060063600,0.022354720
1640844551.688180,-0.175304290,0.308433710,9.592588420,0.050441910,-0.011669100,0.022239980
1640844551.688870,-0.260147120,0.392704460,10.267123220,0.101044770,0.010232630,0.015957650
1640844551.693290,-0.174060180,0.485205650,9.900067330,0.023487210,0.113821040,0.020524860
1640844551.694040,0.060691230,0.409305600,10.018961910,-0.047135350,0.033155080,0.032711030
1640844551.698970,-0.186349270,0.195094380,10.707240100,-0.019566710,0.023728610,0.016376380
1640844551.700980,-0.108839900,0.152250130,9.717479710,0.055393580,-0.000225010,0.012205540
1640844551.703180,-0.065675880,0.256460010,9.738521580,0.070273880,-0.012806060,0.028987230
1640844551.705560,-0.257835030,0.252670740,10.113246920,-0.005871060,0.086410330,0.009457770
1640844551.708180,0.047872330,0.192432170,9.869084360,-0.050723560,0.074757640,0.013530260
1640844551.708670,0.022117820,0.194408880,10.350563050,0.013282900,0.042733550,0.027924780
1640844551.713130,-0.201091140,0.040620410,10.272899630,0.065164270,0.039857620,0.014215710
1640844551.713740,-0.116727290,0.057466130,9.768871310,0.067879260,-0.024865570,0.022268300
1640844551.718280,-0.231345240,0.143054520,9.554700850,0.043253600,0.018380580,0.022955240
1640844551.719750,-0.146786080,0.063577910,9.575049400,-0.022137170,0.106781730,0.008325280
1640844551.723460,-0.117127930,-0.001632400,10.459399220,0.021326540,0.100478530,0.011706350
1640844551.724510,-0.389970840,-0.041769180,10.841367720,0.112883750,0.002498920,-0.006176530
1640844551.728400,-0.331507890,0.055610360,9.927440640,0.118164720,-0.070700040,-0.008249280
1640844551.730650,-0.304934230,0.247150990,9.239927290,0.055570900,-0.001539290,0.005364420
1640844551.733160,-0.428635540,0.249183300,9.880882260,0.002686680,0.087498140,0.004938240
1640844551.734010,-0.156443770,0.446782200,10.241748810,0.015154480,0.075316430,-0.007313490
1640844551.738120,-0.018808940,0.544484500,10.411676410,0.098757450,-0.009548670,0.007395450
1640844551.739270,0.021807750,0.622323690,10.213563920,0.096781570,0.004635750,0.002272430
1640844551.743230,0.048055760,0.765687110,9.788359640,0.025083130,0.016716120,0.000146030
1640844551.746390,-0.300713690,0.545414570,10.375247960,-0.029277810,-0.007300080,0.029924510
1640844551.748160,-0.236338840,0.296921430,9.937481880,-0.005544720,0.008858740,0.022807720
1640844551.748710,-0.033424080,0.116878540,9.696144100,0.083574660,0.004157420,0.005708630
1640844551.753250,-0.227245820,0.323601010,10.300284390,0.078757110,0.067803260,0.010393560
1640844551.755980,-0.124574500,0.473535060,10.058968540,-0.046280040,0.045767430,0.004835430
1640844551.758410,-0.325003590,0.105704430,10.538764950,-0.059042880,-0.056266790,0.016425550
1640844551.760280,-0.280849580,0.161285130,9.695888520,0.035086280,-0.028979780,0.020913780
1640844551.765960,0.028269670,0.285783140,9.283340450,0.069446860,0.025849050,-0.004069510
1640844551.768820,-0.212028380,0.354865130,10.471952440,0.020761790,0.101687010,0.014661250
1640844551.769340,-0.023187080,0.378713190,10.157337190,-0.035838790,0.039590900,0.022147600
1640844551.769750,-0.029188580,-0.006210000,10.401855470,-0.002308190,-0.052720310,0.016386810
1640844551.773420,-0.263635160,0.008615050,9.882359500,0.068269670,0.000654160,0.021614130
1640844551.774310,-0.191894990,0.080935580,9.333898540,0.064447530,-0.018544500,-0.007075070
1640844551.778230,-0.389096620,0.081273990,10.135647770,0.007250910,0.019781290,-0.014173980
1640844551.779300,-0.093311430,0.344738070,9.550539970,-0.031673910,0.074461110,0.008392330
1640844551.783080,-0.079496220,0.099600260,10.597687720,0.009959940,0.017794960,-0.003699960
1640844551.783580,-0.356658040,0.106530960,10.863965990,0.091664500,-0.013089180,0.001612310
1640844551.788790,-0.208782700,0.261700960,9.444694520,0.098314880,-0.088913750,0.007744130
1640844551.789660,-0.357237400,0.220274270,9.835927010,0.017257030,-0.028286880,-0.002008680
1640844551.797010,-0.402530760,0.323580090,9.749849320,-0.033152110,0.078128280,0.007717310
1640844551.797870,-0.142696680,0.348697810,10.136782650,0.014598670,-0.017914180,-0.004751980
1640844551.798740,-0.249033870,0.427547840,10.787674900,0.081071280,-0.037376590,-0.011543930
1640844551.799810,-0.034643200,0.651005030,9.661352160,0.055946420,-0.013923650,-0.013154750
1640844551.803090,-0.051809010,0.740219950,10.155716900,-0.018961730,-0.031472740,0.002668800
1640844551.803610,-0.305805300,0.583778200,10.548422810,-0.059087570,0.006271900,0.016851720
1640844551.808340,-0.101426080,0.330704600,9.828201290,-0.013469160,-0.039719050,0.012935700
1640844551.809650,-0.156215650,0.278829100,10.138053890,0.059579310,-0.063410410,0.006265940
1640844551.813220,-0.306363580,0.313717630,9.981066700,0.033088030,0.028155740,0.004437570
1640844551.814500,-0.141236660,0.423053560,10.044966700,-0.073391210,-0.011150540,0.013710560
1640844551.818300,-0.387991790,0.321594270,10.669438360,-0.094158950,-0.055420400,0.005730990
1640844551.819640,-0.252102910,0.287145970,9.877541540,-0.027145450,-0.067293650,-0.013598800
1640844551.823330,0.134889810,0.546415330,9.392494200,0.022342810,-0.016710170,-0.004687910
1640844551.824710,-0.174393100,0.565578580,10.369191170,-0.028997660,0.046169760,0.006279350
1640844551.831860,0.071372600,0.313927350,10.247506140,-0.089466590,0.012919310,0.006531180
1640844551.832690,0.041913640,0.044735960,10.142171860,-0.029653310,-0.085683170,0.023821000
1640844551.833110,-0.306364570,-0.199311940,10.046641350,0.019732120,-0.078101460,0.006616120
1640844551.833560,-0.068681670,-0.226389750,9.285079960,-0.004623830,-0.013732910,0.003747640
1640844551.838900,-0.305174530,-0.175440280,10.010380740,-0.007152560,0.001034140,-0.007526580
1640844551.840340,-0.248145400,-0.038278470,10.258925440,-0.052803750,0.039547670,-0.017830730
1640844551.843220,0.035941170,0.161396190,9.927632330,-0.021927050,-0.021456180,-0.006130340
1640844551.844190,-0.378381460,0.168624910,10.597756390,0.041909520,-0.071741650,-0.010845060
1640844551.848130,-0.198781400,0.232610360,9.515751840,0.039041050,-0.047729900,-0.015257300
1640844551.848670,-0.201616440,0.265264630,9.277277950,0.026950240,-0.058203940,-0.010004640
1640844551.853570,-0.373333280,0.147594060,10.186003680,-0.010178980,0.037027890,0.004243850
1640844551.855330,0.042565830,-0.014947830,9.950826640,0.010085110,0.033463540,-0.004366040
1640844551.858240,-0.238708230,0.027908220,10.842391970,0.081548090,-0.092680760,-0.006230180
1640844551.862940,-0.119973860,0.122741860,10.030012130,0.045970090,-0.043609740,-0.014317040
1640844551.864480,0.076509800,0.085497600,9.374690060,0.020495050,-0.038099290,-0.016587970
1640844551.865080,-0.361953940,0.278238800,10.457031250,0.030209130,0.011675060,-0.005103650
1640844551.868130,-0.099673700,0.481090780,9.715589520,0.007325410,-0.000613930,-0.004827980
1640844551.868650,-0.150873880,0.472865730,10.130232810,0.038588050,-0.105990470,-0.003971160
1640844551.876780,-0.313131270,0.635789810,10.265247340,0.043313220,-0.001540780,-0.005047020
1640844551.878970,-0.279889520,0.574183340,9.998448370,0.008744000,-0.011633340,-0.014361740
1640844551.879470,-0.635219340,0.460246350,10.848100660,0.011311470,-0.111043450,-0.007233030
1640844551.879950,-0.259888230,0.646883370,9.628815650,-0.013260540,-0.052629410,-0.013095140
1640844551.883900,0.088333940,0.636610270,9.546468730,-0.033687050,-0.031881040,-0.010022520
1640844551.884610,-0.010093600,0.783882860,10.535224910,-0.047826780,0.052140660,0.015112760
1640844551.888560,0.241248220,0.504295050,10.121745110,-0.042682890,-0.001055000,0.001223390
1640844551.889310,0.067863700,0.092718770,10.645924570,0.016690790,-0.126484040,-0.003629920
1640844551.893200,-0.152929830,0.179220570,9.839142800,0.022591650,-0.046437980,-0.000111760
1640844551.894950,-0.059458740,0.161285880,9.378262520,-0.075149530,-0.048252930,-0.004762410
1640844551.898260,-0.256620590,0.080517180,10.365364070,-0.110495110,0.012366470,-0.000715260
1640844551.898930,-0.054900540,0.234798670,9.876592640,-0.054977840,0.056321920,-0.024968390
1640844551.903300,-0.122765450,0.282752280,10.559347150,0.014245510,-0.060501690,-0.021797420
1640844551.904970,-0.310402510,0.330026720,10.336990360,0.015932320,-0.049789250,0.001683830
1640844551.908570,0.035974740,0.329753370,9.069972990,-0.035688280,-0.060831010,-0.013391670
1640844551.909230,-0.054265780,0.279982860,9.900464060,-0.079663100,0.007219610,0.005882980
1640844551.917280,0.018606940,0.125842140,9.948557850,-0.063069170,0.106261670,0.002385680
1640844551.918690,0.151647630,-0.074500010,10.456726070,0.019288060,-0.015634290,-0.021667770
1640844551.920660,-0.283702220,-0.104961500,10.900802610,0.082197790,-0.071686510,-0.020392240
1640844551.921140,-0.127581160,-0.139744950,9.088809970,0.020648540,-0.057528920,-0.019097330
1640844551.923180,-0.251176150,-0.026909590,9.502695080,-0.047416990,-0.029972200,-0.016015770
1640844551.923810,-0.437629910,0.037447460,10.124520300,-0.040793420,0.093685090,-0.017081200
1640844551.928110,-0.075788840,0.183454750,10.137441640,0.029037890,0.005681810,-0.027345130
1640844551.928630,-0.337475840,0.437605320,10.832733150,0.101320450,-0.067347300,-0.016656510
1640844551.933210,-0.313915340,0.435471300,9.963299750,0.050246720,-0.026066610,-0.022937360
1640844551.935000,-0.195945620,0.457852240,9.738286970,-0.016270580,-0.051018600,-0.008344650
1640844551.938210,-0.532667990,0.472222000,10.276915550,-0.020584470,-0.024019180,-0.006991630
1640844551.938950,-0.050477750,0.278281360,9.572480200,0.012041630,-0.006446240,-0.022649770
1640844551.944190,0.133670790,0.527670200,9.992423060,0.067339850,0.004366040,-0.020201510
1640844551.945890,-0.080630940,0.671521900,10.674673080,0.011472400,0.025671720,-0.020192570
1640844551.948390,0.200696690,0.521855060,10.191768650,-0.078332430,-0.026638810,-0.007113810
1640844551.949520,-0.117418870,0.415568980,10.226226810,-0.025242570,-0.074785950,0.003510710
1640844551.953280,-0.238197670,0.280754480,9.987682340,0.014618040,-0.026722250,-0.024488560
1640844551.954040,-0.001286340,0.456798170,9.437465670,0.000254810,0.014150140,-0.009396670
1640844551.958670,-0.423074040,0.416651100,10.558165550,-0.042004880,-0.000101330,-0.014247000
1640844551.959650,-0.232090640,0.305739850,10.243124960,-0.084389760,-0.001713630,-0.028809910
1640844551.963510,-0.123130020,0.316654150,9.794801710,-0.029625000,-0.058811910,-0.010535120
1640844551.964370,-0.406257630,0.315560400,10.323380470,-0.004900990,-0.030082470,-0.014843050
1640844551.968510,0.138896910,0.317831870,9.299771310,-0.047200920,0.024083250,-0.007687510
1640844551.969400,0.114934190,0.307522890,9.904026990,-0.049935270,0.009790060,-0.004442040
1640844551.974480,0.100058440,0.294249920,10.300344470,-0.073204940,0.070911650,-0.005021690
1640844551.975270,0.239545760,-0.077340660,10.043342590,-0.035926700,0.004464390,0.002671780
1640844551.978190,-0.424532680,-0.332895990,10.731929780,0.057198100,-0.078813720,-0.017605720
1640844551.978700,-0.358972430,-0.273192940,9.298714640,0.039137900,-0.059105460,-0.025255980
1640844551.983890,-0.310793520,-0.198847140,9.120085720,-0.012187660,0.003051760,-0.026069580
1640844551.984870,-0.483208060,0.022535910,10.349299430,-0.056298080,0.129373390,-0.028325620
1640844551.988210,-0.170207440,0.143369850,10.394461630,-0.024475160,0.030662120,-0.039647520
1640844551.992660,-0.310503720,0.211349250,10.732961650,0.094293060,-0.111836190,-0.037868320
1640844551.993190,-0.191665810,0.330704390,9.486656190,0.104801380,-0.054849690,-0.024864080
1640844551.993820,-0.151504610,0.300610660,9.392956730,0.031121080,-0.009325150,-0.023768840
1640844551.998230,-0.430711090,0.298347890,10.483886720,-0.017921620,0.038778770,0.001500550
1640844552.002050,0.017697210,0.229734270,9.746492390,-0.000239910,-0.001974400,0.000293550
1640844552.003070,-0.010499380,0.066707030,10.445232390,0.099906330,-0.057554250,-0.023740530
1640844552.003520,-0.169033780,0.315095070,10.312579150,0.106118630,0.015439100,-0.025717920
1640844552.008160,-0.200836970,0.454010960,9.823381420,0.023594500,-0.066073260,-0.021474070
1640844552.010430,-0.472839360,0.358744320,10.360123630,-0.038881600,-0.083203620,-0.018779930
1640844552.013240,-0.162217200,0.461341710,9.288804050,-0.007964670,0.026078520,-0.009977820
1640844552.014070,-0.193688740,0.576538210,10.232501980,0.059877340,-0.018434230,-0.023582580
1640844552.018200,-0.450030710,0.587902190,10.953608510,0.048382580,0.007933380,-0.008799140
1640844552.018880,-0.134057340,0.418647470,9.649986270,0.008551780,-0.097739700,-0.003941360
1640844552.025320,-0.286279050,0.150884880,10.287586210,0.006118420,-0.107397150,-0.000980500
1640844552.026270,-0.257195590,0.152975190,9.653903960,0.006580350,0.038540360,0.012387340
1640844552.030260,0.086378660,0.208868040,9.623387340,-0.002402070,-0.050979860,0.001840290
1640844552.032760,0.079200700,0.279096840,10.547328000,-0.009284920,-0.000527500,-0.022727260
1640844552.034370,0.308542790,0.321802380,9.638163570,-0.007165970,0.035016240,-0.018897650
1640844552.035540,0.084171230,0.220543310,10.446667670,0.034454470,-0.082558390,-0.001676380
1640844552.038290,-0.348811980,-0.019641150,10.438023570,0.045613950,-0.049796700,-0.006394090
1640844552.039020,-0.154524210,-0.016914320,9.079522130,0.039418050,-0.085908180,0.002066790
1640844552.043180,-0.304489580,0.049828290,9.709626200,0.018095970,-0.002442300,0.008659070
1640844552.046550,-0.275526200,-0.033042970,9.921352390,-0.014601650,0.112880770,-0.008079410
1640844552.048480,-0.115787730,0.000274640,10.400828360,0.047931080,-0.032560530,-0.000366570
1640844552.050580,-0.354348780,0.086256530,10.530456540,0.117543340,-0.085705520,-0.011532010
1640844552.053200,-0.118334170,0.102127430,9.215046880,0.064268720,-0.059738760,-0.025270880
1640844552.055400,-0.151126700,0.128761750,9.603173260,0.038844350,-0.019079450,-0.012969970
1640844552.058710,-0.270997260,-0.000471760,10.190723420,0.050517910,0.054936110,-0.027136510
1640844552.059330,-0.055818250,-0.011218130,10.094944950,0.095759340,-0.021758680,-0.023257730
1640844552.063390,-0.266205520,0.031392210,10.302483560,0.151975450,-0.080123550,-0.008662050
1640844552.066240,-0.281579730,-0.157774690,9.700607300,0.125429050,-0.056715320,-0.029896200
1640844552.069040,-0.266602220,0.070098940,9.610460280,0.086644310,-0.038696830,-0.014337900
1640844552.069940,-0.411988290,0.267340720,9.978583340,0.066593290,-0.011080500,-0.013777620
1640844552.073860,-0.055275120,0.240182640,9.936568260,0.075052690,-0.000961120,-0.036199390
1640844552.075990,-0.067232800,0.510676320,10.487087250,0.153714420,-0.012442470,-0.030575690
1640844552.079210,-0.353042480,0.598127010,10.544330600,0.150468960,-0.067238490,-0.036312640
1640844552.082580,-0.274234270,0.486322250,9.833518980,0.072076920,-0.110568110,-0.033983590
1640844552.083560,-0.429729310,0.418105870,9.616291050,0.077250600,-0.069752340,-0.016902390
1640844552.084730,-0.343779740,0.326814060,9.833319660,0.083690870,-0.004851820,-0.026883190
1640844552.088120,-0.088954570,0.460380320,10.199643140,0.087094310,0.002813340,-0.015909970
1640844552.088610,0.008974880,0.456551880,10.500616070,0.088012210,-0.041612980,-0.018540020
1640844552.093140,0.218161110,0.426551430,10.178771970,0.040227170,-0.034588570,-0.029727810
1640844552.096000,0.060637760,0.454725470,10.147413250,0.043180580,-0.046525910,-0.019387900
1640844552.098390,-0.235072870,0.240499660,10.097794530,0.065088270,-0.085672740,-0.015340750
1640844552.100940,-0.082590530,0.282072870,9.290744780,0.076214980,-0.067254910,-0.029440230
1640844552.103180,-0.176512030,0.376689790,9.735129360,0.058531770,-0.000077490,-0.026121740
1640844552.104010,-0.201902170,0.385107640,10.296202660,-0.001370910,0.060471890,-0.008761880
1640844552.108190,-0.145901770,0.142731610,10.388789180,0.019003450,-0.045238440,-0.023016330
1640844552.108860,-0.299399910,0.031585060,10.454724310,0.111092630,-0.096790490,-0.032101580
1640844552.113220,-0.035552690,0.331963450,9.003241540,0.089909120,-0.046865650,-0.019653140
1640844552.114350,-0.061203010,0.233248010,9.540310860,0.001840290,0.007984040,-0.032871960
1640844552.118460,-0.081675910,0.081524450,10.244626050,-0.001490120,0.089800360,-0.031553210
1640844552.119360,0.013485170,0.062421570,10.100455280,0.089316090,-0.043074800,-0.040707000
1640844552.123170,-0.257609520,-0.120444720,10.579734800,0.152739880,-0.094734140,-0.037267800
1640844552.124000,-0.229702560,0.083257010,9.423342700,0.101576750,-0.020016730,-0.023517010
1640844552.128520,-0.307183950,0.082337430,9.697194100,0.032670800,-0.056338320,-0.030605500
1640844552.129940,-0.392556280,-0.035601650,10.090669630,0.023575130,0.047408050,-0.041016940
1640844552.133180,-0.007570390,0.253202380,9.410354610,0.100448740,0.004002450,-0.050173700
1640844552.135720,-0.280018090,0.291943880,10.859981540,0.167877990,-0.043819840,-0.056339800
1640844552.138640,-0.276672180,0.552390990,9.998321530,0.110524920,-0.013451280,-0.048874330
1640844552.139840,-0.265687110,0.637694300,9.623276710,0.032897290,-0.132110690,-0.030463930
1640844552.150190,-0.560950880,0.315697880,10.350519180,0.019001960,-0.010517240,-0.034740570
1640844552.151520,-0.193079110,0.357617380,9.504866600,0.096257030,0.021025540,-0.043329600
1640844552.152000,-0.295874890,0.425784230,10.623206140,0.152082710,-0.075723220,-0.039246680
1640844552.152770,-0.208486080,0.409037470,10.162332530,0.065034640,-0.017574430,-0.035429000
1640844552.154040,0.219268220,0.423137520,9.266239170,0.005550680,-0.066430870,-0.023017830
1640844552.154640,-0.199861450,0.393656820,10.726018910,0.014220180,-0.020307300,-0.027574600
1640844552.158310,-0.159234290,0.411276520,9.998873710,0.039790570,-0.006434320,-0.046801560
1640844552.159000,-0.109120180,0.477267320,9.936086650,0.093115880,-0.139825050,-0.040334470
1640844552.166480,-0.301129820,0.632290840,10.106137280,0.053758920,-0.022043280,-0.040140750
1640844552.167500,0.020767940,0.631071930,9.336051940,-0.039049980,0.033082070,-0.023311370
1640844552.168090,-0.226315440,0.443985730,10.722113610,-0.031678380,-0.032843650,-0.011427700
1640844552.168520,-0.279394360,0.196137650,10.290413860,0.035364930,-0.042550270,-0.027281040
1640844552.176280,0.083012870,0.152781580,9.298086170,0.088405630,-0.094257310,-0.021123890
1640844552.177690,-0.200969220,0.251179010,10.004198070,0.031773750,-0.001862650,-0.017607210
1640844552.178250,-0.012738270,0.057185960,9.714044570,-0.065201530,0.046506520,-0.026381020
1640844552.178780,0.108380620,0.048148030,10.174006460,-0.015124680,-0.028799480,-0.031800570
1640844552.183210,-0.205513750,0.113100730,10.436387060,0.065995760,-0.025711960,-0.043214860
1640844552.183820,-0.060163190,-0.011815620,9.688924790,0.073549160,-0.056113300,-0.047922130
1640844552.188400,-0.395060240,0.110979860,9.898580550,0.068193670,-0.062742840,-0.034905970
1640844552.188920,-0.415803310,0.084644760,9.433894160,0.011891130,-0.006876890,-0.040233140
1640844552.194450,-0.134968370,0.098726730,9.597440720,-0.008834900,0.016044080,-0.032535200
1640844552.195520,-0.316813770,0.241227190,10.469272610,0.055336960,0.029982630,-0.028514860
1640844552.198180,-0.109925280,0.188936800,10.278509140,0.091786690,-0.047229230,-0.051012640
1640844552.198760,-0.171114060,0.285636660,10.133935930,0.095923250,-0.082308050,-0.025372210
1640844552.203260,-0.315810920,0.216431950,9.643161770,0.053748500,-0.043973330,-0.023655600
1640844552.204740,-0.174286920,0.037595030,9.738363270,0.019314890,-0.019596520,-0.034052140
1640844552.208590,-0.326211480,0.256764650,10.190285680,0.067344310,0.004483760,-0.028304760
1640844552.209490,-0.174311060,0.337321880,10.018251420,0.078786910,-0.036869940,-0.038769840
1640844552.213150,-0.046433140,0.472847880,10.093477250,0.058683760,-0.055058300,-0.036755210
1640844552.216280,-0.260200500,0.618991850,10.132429120,0.040383640,-0.018389520,-0.036834180
1640844552.218240,-0.205515400,0.603283880,10.026147840,0.006318090,-0.046837330,-0.038431580
1640844552.218820,-0.228848650,0.654552100,10.029180530,0.034277140,-0.068670520,-0.026601550
1640844552.224560,-0.114177330,0.697233680,9.682756420,0.029884280,-0.014814740,-0.020338590
1640844552.226490,0.006901600,0.644027170,10.061700820,-0.015461450,0.012387340,-0.025263430
1640844552.228110,-0.216765420,0.370351400,10.608813290,-0.011627370,-0.029113890,-0.017678730
1640844552.228690,-0.027234750,0.210279410,9.852671620,0.018957250,-0.061732530,-0.026594100
1640844552.233170,-0.105628790,0.223051190,9.779090880,0.026541950,-0.061611840,-0.024415550
1640844552.233940,-0.235730780,0.230296520,9.870346070,-0.029306120,-0.004164870,-0.013452770
1640844552.238300,0.111067420,0.206062480,9.522819520,-0.069132450,0.022965670,-0.014424320
1640844552.239370,-0.080595590,0.129768490,10.335472110,-0.003109870,-0.010122360,-0.028964880
1640844552.243210,-0.058555220,0.101595460,10.105046270,0.047525760,0.016279520,-0.022149090
1640844552.244480,-0.069987300,0.112599070,9.890250210,0.040437280,-0.053343180,-0.025537610
1640844552.248520,-0.519735990,-0.035157210,10.336859700,0.011953710,-0.077591840,-0.023929770
1640844552.249750,-0.044510060,0.117960360,8.796193120,-0.027115650,-0.001022220,-0.026625400
1640844552.253230,-0.130066100,0.199691410,9.702350620,-0.015616420,0.020569560,-0.032942000
1640844552.255600,-0.145043760,0.134434690,10.550622940,0.025875870,0.097244990,-0.035013260
1640844552.258700,0.101781180,0.228046220,10.008456230,0.089366740,-0.053545830,-0.039166220
1640844552.259190,-0.275327060,0.182777790,10.316926000,0.078287730,-0.113219020,-0.015011430
1640844552.263320,-0.091140190,0.118062300,9.107558250,-0.014387070,0.026221580,-0.012499090
1640844552.265090,-0.287786220,0.018623900,9.787599560,0.008282070,0.001533330,-0.028394160
1640844552.268380,-0.598485830,-0.037367960,10.697117810,0.058099630,0.021804870,-0.035785140
1640844552.269070,-0.108903880,0.165445760,9.431461330,0.092978770,-0.020577020,-0.035364930
1640844552.275000,-0.369073270,0.324999300,10.309319500,0.084048520,-0.071907060,-0.023160880
1640844552.276850,-0.327932030,0.557313740,9.994430540,-0.015124680,0.046584010,-0.028148300
1640844552.278120,-0.131169240,0.628809030,9.664562230,-0.022995470,-0.045603520,-0.020489100
1640844552.280470,-0.475723390,0.511817100,10.685620310,0.046093760,-0.052227080,-0.019694860
1640844552.283850,0.069732610,0.641374590,9.218568800,0.072097800,0.016911330,-0.035066910
1640844552.284640,0.054412220,0.735491390,10.026864050,0.037017460,-0.039447850,-0.013118980
1640844552.288400,-0.197235910,0.490391170,10.530974390,-0.064983960,0.049971040,0.000101330
1640844552.290700,0.113117090,0.105067330,9.589480400,-0.029948360,-0.050887470,-0.017593800
1640844552.293070,-0.356709960,-0.009750310,10.393478390,0.073702640,-0.093805790,-0.014153120
1640844552.296200,-0.147899790,0.096175620,9.198416710,0.032490490,0.025226180,-0.028444830
1640844552.298240,0.049495160,0.077657840,9.478035930,-0.017251080,-0.005419550,-0.019457940
1640844552.299070,-0.239414890,0.142294170,10.488229750,-0.034131100,0.070478010,-0.018543000
1640844552.303280,0.100095920,0.225970800,9.831277850,-0.013975800,0.010402500,-0.029501320
1640844552.304820,-0.220239420,0.089422520,10.553620340,0.062057390,-0.089548540,-0.011692940
1640844552.308140,-0.375156160,0.116459560,9.611029620,0.080479690,-0.030934810,-0.030185280
1640844552.308680,-0.160676320,0.122118160,9.017151830,0.038185720,-0.042515990,-0.035423040
1640844552.313650,-0.411054670,0.219144300,9.947731970,-0.013753770,0.062738370,-0.019213560
1640844552.315570,-0.141495170,0.182783590,9.939569470,-0.025288770,0.049558290,-0.043539710
1640844552.318120,-0.090097320,0.167799520,10.549100880,0.071424250,-0.062128910,-0.024549660
1640844552.318640,-0.191521080,0.297486310,9.769828800,0.099614260,-0.034309920,-0.028194490
1640844552.323140,-0.080183770,0.132333820,9.572200780,0.042495140,-0.034160920,-0.049851850
1640844552.324000,-0.444779490,0.106446490,10.239205360,0.030973560,0.005607310,-0.012119110
1640844552.328630,-0.254242000,0.283016090,9.580304150,0.020554660,-0.016707180,-0.040996080
1640844552.333670,-0.158130780,0.277112780,10.094797130,0.029645860,-0.035142900,-0.040808320
1640844552.334430,-0.188288870,0.517997320,9.891828540,0.055341430,0.017634040,-0.039020180
1640844552.335040,-0.089219730,0.569747330,10.010206220,0.038957600,-0.032384700,-0.048410900
1640844552.338120,-0.268356650,0.527166550,10.422495840,0.009569530,-0.032716990,-0.026227540
1640844552.338640,-0.118636340,0.601908450,9.390893940,0.007703900,-0.031855710,-0.017222760
1640844552.345620,-0.011863580,0.458280740,9.937032700,0.003564360,-0.014092030,-0.021399560
1640844552.346280,-0.095795420,0.478547130,10.056042670,-0.001069900,0.056377050,-0.015030800
1640844552.348170,0.059284170,0.378242520,9.785824780,-0.011481350,-0.031346080,-0.027886040
1640844552.348950,-0.075928580,0.135091830,10.352208140,-0.002390150,-0.031787160,-0.030434130
1640844552.354580,-0.028578580,0.154577520,9.397634510,0.006335970,0.015926360,-0.014109910
1640844552.355530,-0.078085500,0.079583820,9.890192030,-0.008089840,-0.018785890,-0.015011430
1640844552.358230,-0.120095450,0.046359110,10.000495910,-0.021642450,0.032210350,-0.028936560
1640844552.358890,0.223647240,0.246648330,9.165250780,-0.008748470,0.031639640,-0.025050350
1640844552.363910,0.038699180,0.284903110,10.276803970,-0.005482140,0.055474050,-0.027102230
1640844552.364620,-0.134610120,0.155391020,10.152956010,-0.002063810,0.051097580,-0.034239890
1640844552.368480,-0.121064880,0.140993010,9.764959340,0.046172740,-0.075274710,-0.027503070
1640844552.370520,-0.339750770,0.104157690,9.575971600,0.040574380,-0.008854270,-0.029490890
1640844552.373130,-0.058020610,0.060571950,8.973294260,-0.027902420,0.102426120,-0.029195850
1640844552.373780,-0.179977210,0.148680780,10.401466370,-0.011776390,0.079630320,-0.028307740
1640844552.378380,-0.188506360,0.104782360,10.420937540,0.036939980,0.029987090,-0.024056430
1640844552.379230,0.141056120,0.149578990,9.558777810,0.057925300,-0.026012960,-0.016081330
1640844552.383410,-0.159522520,0.253367540,9.938432690,0.039914250,0.037488350,-0.020450350
1640844552.384910,-0.202320280,0.106154670,9.678661350,0.000883640,0.070510800,-0.033031400
1640844552.388580,-0.202356460,0.304005030,9.915036200,0.021918120,0.014048820,-0.042048100
1640844552.389020,-0.377036540,0.455940930,10.090575220,0.024090710,0.036872920,-0.042787200
1640844552.393120,-0.088778820,0.446084380,9.732178690,0.022248920,0.031156840,-0.034393380
1640844552.395390,-0.232860540,0.724157750,10.200979230,0.030869250,0.044761600,-0.026351220
1640844552.400400,-0.287508430,0.650420730,10.089419360,-0.031816960,0.049006930,-0.023882090
1640844552.401360,0.012481710,0.527250770,9.804603580,-0.029179450,0.002168120,-0.000004470
1640844552.403330,-0.077320920,0.472795460,9.926154140,0.019235910,0.056992470,-0.005133450
1640844552.405290,0.056267640,0.330682720,9.847108840,-0.015273690,0.071984540,-0.018359720
1640844552.408660,0.022068950,0.277290400,9.886160850,-0.027854740,0.018349290,-0.011661650
1640844552.410460,-0.175682200,0.058256980,9.917025570,-0.031164290,0.042253730,-0.033649800
1640844552.413170,-0.126806810,0.061488570,9.838705060,-0.019019840,0.035125020,-0.027230380
1640844552.415700,-0.363738270,0.196524200,9.994937900,-0.010803340,0.017614660,-0.015895070
1640844552.419350,-0.110809040,0.111014310,9.598771100,-0.036148730,0.048013030,-0.029315060
1640844552.419930,0.093976610,0.351961200,9.560968400,-0.018011040,0.092871490,-0.012938680
1640844552.423100,-0.108799830,0.418576420,10.203822140,-0.017164650,0.107091670,-0.001424550
1640844552.423790,0.096686200,0.130679010,10.082183840,-0.019185250,0.040005150,-0.010490420
1640844552.432270,-0.187774720,-0.016692940,9.912692070,0.048097970,-0.018659230,-0.007438660
1640844552.433410,-0.167936590,0.011130700,9.146620750,0.028428430,0.037008520,-0.023356080
1640844552.434430,-0.170179490,-0.042487100,9.611091610,-0.037629900,0.105178360,-0.034709280
1640844552.434940,-0.477075640,-0.016084710,10.371496200,-0.014407940,0.103032590,-0.029520690
1640844552.438100,-0.080144870,0.107104890,9.913988110,0.025390090,0.015693900,-0.040560960
1640844552.438750,-0.133868860,0.230871750,9.883840560,0.051915650,0.048993530,-0.024424500
1640844552.443180,-0.228443120,0.420446540,9.738252640,0.018887220,0.084429980,-0.020061440
1640844552.445870,-0.157234980,0.402683500,9.871893880,-0.016193090,0.028215350,-0.028553610
1640844552.449280,-0.325762810,0.349708680,9.986832620,0.001625720,0.030377510,-0.025163590
1640844552.449930,0.017048680,0.468354430,9.429024700,0.018109380,0.083924840,-0.029531120
1640844552.453990,-0.193135500,0.448924060,10.273996350,0.028748810,0.063568360,-0.036296250
1640844552.455510,-0.300479590,0.653722580,10.273669240,-0.026834020,0.067694490,-0.023338200
1640844552.458230,-0.020765240,0.587540750,9.636102680,-0.080884990,0.024642050,-0.013105570
1640844552.458780,-0.337411170,0.195356340,10.086913110,-0.016753380,0.030630830,-0.019553310
1640844552.463310,-0.109168660,0.348565040,9.365008350,0.030089910,0.087641160,-0.015121700
1640844552.467250,0.016929720,0.448141160,9.575507160,-0.027006860,0.055927030,-0.010882320
1640844552.468180,-0.063691530,0.147931580,10.198725700,-0.099377330,0.107404600,-0.003615020
1640844552.468500,0.115158410,0.086993660,9.722007750,-0.053828950,0.090530510,-0.012613830
1640844552.473170,-0.330937740,-0.083065760,10.451717380,0.035674870,-0.014138220,-0.025294720
1640844552.473950,-0.389497490,-0.039797370,9.584122660,0.017906730,0.032372770,-0.017604230
1640844552.478300,-0.163136750,0.222921160,8.898821830,-0.032417480,0.036439300,-0.029858950
1640844552.478980,-0.249118360,0.144948180,9.801718710,-0.077028570,0.134979190,-0.019779800
1640844552.483540,0.175088110,0.291358110,9.693085670,-0.060775870,0.169385940,-0.011751050
1640844552.484890,-0.006396020,0.231393500,10.706597330,0.041969120,0.026020410,-0.033304100
1640844552.488320,-0.166617570,0.153066470,10.146101000,0.056816640,0.002919140,-0.021418930
1640844552.489260,-0.006170590,0.235880820,8.811733250,0.003857910,0.015513600,-0.009259580
1640844552.501650,-0.449690280,-0.013540790,9.834155080,-0.060884670,0.112642360,-0.019319360
1640844552.503100,-0.343632430,-0.083845950,9.924243930,-0.031316280,0.138762610,-0.018563870
1640844552.504420,-0.203793730,0.020751340,10.193318370,0.083334740,0.015586620,-0.032687190
1640844552.504820,-0.302662460,0.257149010,10.072969440,0.054569550,0.050140920,-0.032460690
1640844552.505240,0.045669090,0.542369310,9.274283410,-0.031347580,0.071534530,-0.020802030
1640844552.506350,-0.408888370,0.488803600,10.413158420,-0.051634020,0.067420300,-0.022473930
1640844552.508180,-0.273765890,0.552697420,9.890933040,-0.032432380,0.045749550,-0.028023130
1640844552.508720,-0.038236010,0.535302160,9.553601260,0.056171420,0.007505720,-0.017222760
1640844552.513120,-0.170456110,0.635982100,10.066525460,0.017385180,0.117215520,-0.018319490
1640844552.513630,0.028447560,0.726219830,9.840058330,-0.081531710,0.098565220,0.001661480
1640844552.518230,-0.239490630,0.247634290,10.602987290,-0.098262750,0.023169820,0.011283160
1640844552.518670,-0.125940860,-0.059393940,9.775557520,-0.022892660,0.039446360,-0.014933940
1640844552.523600,0.024235910,0.027790100,9.309151650,0.070235130,0.024510930,-0.016283990
1640844552.524850,-0.140330780,0.290047350,9.632884030,-0.016468760,0.125573590,-0.010170040
1640844552.528500,0.203812420,0.334213670,9.451728820,-0.159595920,0.135354700,-0.016754870
1640844552.531660,-0.119873640,0.118176660,10.588150020,-0.086873770,0.070934000,-0.008851290
1640844552.533230,-0.287508850,0.125274030,10.073944090,0.044785440,0.027640170,-0.022742150
1640844552.534740,-0.318355500,0.176616610,9.370968820,0.067245980,-0.027221440,-0.029622020
1640844552.538440,-0.538966240,0.195806640,9.560245510,-0.024354460,0.097258400,-0.006395580
1640844552.540470,-0.136412650,0.176875200,9.236254690,-0.118558090,0.148932610,-0.017231700
1640844552.543940,-0.153221350,0.039097420,10.382914540,-0.061051550,0.095777210,-0.010479990
1640844552.545350,0.055042300,0.097689050,9.997144700,0.038895010,0.090320410,-0.017461180
1640844552.548340,0.139546450,0.047154720,9.628276820,0.083757920,-0.009328130,-0.034201140
1640844552.549080,-0.217319320,0.072015350,9.797231670,0.027278060,0.059579320,-0.010155140
1640844552.553180,-0.055581690,0.128817020,9.037676810,-0.071969640,0.096397120,-0.012004380
1640844552.554110,-0.378643900,-0.080435130,10.432320590,-0.035923730,0.068531950,-0.028944020
1640844552.558200,-0.455699210,0.242028950,10.194930080,0.054283440,0.093837070,-0.033544000
1640844552.558800,-0.300847500,0.448966680,9.633964540,0.075364110,-0.017626580,-0.042915350
1640844552.563500,-0.634789170,0.451307680,10.180960660,0.009192530,0.039538740,-0.016468760
1640844552.564520,-0.201348590,0.674036860,9.148659710,-0.047269460,0.096257040,-0.011752550
1640844552.568190,-0.254699050,0.527058120,10.316381450,-0.041258340,0.023733080,-0.016778710
1640844552.568720,-0.132593750,0.518558260,10.190250400,0.001461800,0.082390010,-0.011003020
1640844552.573180,0.392549220,0.527614240,9.345374110,0.029753150,0.037418310,-0.020363930
1640844552.574800,-0.068395340,0.375855330,10.647277830,-0.002367790,0.055934490,-0.012956560
1640844552.578490,-0.004092560,0.346262810,9.597686770,-0.072969500,0.079970070,0.002104040
1640844552.579540,-0.102334640,0.011695030,9.779877660,-0.051601230,-0.047811870,-0.005367400
1640844552.583400,-0.362957120,0.006999730,9.838095660,-0.000606480,0.069808960,-0.014074150
1640844552.584370,0.102935870,0.504867490,8.962787630,-0.026872760,0.102327760,-0.016751880
1640844552.588220,-0.256785330,0.465798650,10.737600330,-0.082550940,0.090219090,-0.010821220
1640844552.588880,-0.097517830,0.453377250,10.050461770,-0.092002750,0.096867980,-0.002282860
1640844552.593220,0.008907660,0.313500970,9.735606190,0.016330180,-0.017248090,-0.015023350
1640844552.594440,-0.527225550,0.324710940,10.075510030,0.019063060,0.033059720,-0.000494720
1640844552.598530,-0.078326310,0.345719580,8.658869740,-0.057278580,0.062397130,0.004392860
1640844552.600530,-0.087368630,0.048934400,9.864989280,-0.087052580,0.091364970,0.000700350
1640844552.603060,0.025834480,0.026081970,9.948239330,-0.061164800,0.172470520,-0.003898140
1640844552.603590,0.309868400,-0.080941840,9.950960160,0.027948620,0.045728690,-0.004318360
1640844552.608560,-0.157090510,-0.111210950,10.502531050,0.039298830,0.037293140,-0.018483400
1640844552.609140,-0.073518470,0.085856210,9.015293120,-0.027659530,0.022003050,-0.004239380
1640844552.613130,-0.301355870,-0.052712750,9.424646380,-0.049126150,0.045381490,-0.012183190
1640844552.613860,-0.498470400,-0.021268860,9.761750220,-0.028176610,0.161837060,-0.018994510
1640844552.618100,-0.461944130,0.040917970,10.186013220,0.070489940,0.063940890,-0.011691450
1640844552.618640,-0.692591430,0.210583050,10.646572110,0.104287270,-0.004827980,-0.012815000
1640844552.623480,-0.399223630,0.464403810,9.179553030,-0.004510580,0.008241830,-0.009626150
1640844552.624790,-0.223589030,0.440029140,9.621107100,-0.055876370,0.066477050,0.001300870
1640844552.628150,-0.187894720,0.518304170,10.011844640,-0.028897820,0.159008820,-0.008194150
1640844552.628800,0.166285740,0.544038300,9.986763000,0.039666890,0.011593100,-0.018952790
1640844552.634910,0.169868600,0.548171160,10.096962930,0.076015300,0.009441380,0.000901520
1640844552.635970,0.112479610,0.568247800,9.528043750,-0.020384790,0.055781000,-0.013138350
1640844552.638210,-0.261661890,0.287523210,10.347835540,-0.063887240,0.017377740,0.015257300
1640844552.639390,-0.615438100,0.140875060,10.174412730,-0.035585460,0.022266810,0.010742250
1640844552.643680,-0.389315660,0.164717080,9.397734640,0.016646090,-0.027094790,-0.016355510
1640844552.644610,-0.386775580,0.449550630,9.803146360,0.020937620,0.068174300,0.006067750
1640844552.653280,-0.179230380,0.708973110,9.614745140,-0.074745720,0.128540400,0.005024670
1640844552.653780,-0.058672040,0.432062240,10.442329410,-0.095441940,0.011126700,0.001095240
1640844552.654260,-0.030365640,0.456168120,10.108734130,-0.017389660,0.013987720,0.004169350
1640844552.654690,0.240671920,0.499488890,9.158920290,0.008733570,-0.003553930,-0.007674100
1640844552.658120,-0.040880780,0.336588200,10.055444720,-0.046724070,0.057205560,0.011380020
1640844552.660040,0.001929730,0.249233350,9.545730590,-0.095051530,0.094230470,0.009822850
1640844552.663320,0.065134570,-0.206779320,9.853903770,-0.049032280,0.002831220,0.006134810
1640844552.665040,-0.183617670,-0.131741570,9.944420810,0.021548570,0.093869890,0.007237500
1640844552.668600,-0.177830590,0.033975960,9.450901990,-0.004529950,0.036594280,0.002367790
1640844552.669440,-0.500089290,-0.039865160,10.292072300,-0.053605430,-0.018985570,0.000669060
1640844552.673200,-0.303526130,0.198264960,9.015138630,-0.059638920,0.068622830,-0.009082260
1640844552.673780,-0.174470630,0.292848200,9.542313580,-0.023423140,0.044682620,-0.020167230
1640844552.678240,-0.401745650,0.332547960,10.582864760,0.011222060,0.132541370,-0.003068150
1640844552.678940,-0.179998860,0.506700750,9.915518760,0.013999640,0.013020640,-0.012452900
1640844552.683120,-0.295437870,0.340880450,10.244912150,-0.009141860,-0.078389050,0.020375850
1640844552.684340,-0.183217700,0.210323050,9.034232140,-0.040803850,0.077879440,0.025719410
1640844552.689080,0.022171320,0.254376710,9.449340820,-0.033718360,0.063486420,0.003258880
1640844552.690700,-0.311936200,0.254689960,10.699539180,-0.001585480,0.072649130,0.007689000
1640844552.693150,0.106944910,0.444290880,9.428628920,-0.021362300,0.010891260,-0.002950430
1640844552.693730,0.004257230,0.433073760,10.086238860,-0.038838390,-0.021204350,-0.008028750
1640844552.698540,-0.395161000,0.442423730,10.135313990,-0.056907550,0.097708400,0.001819430
1640844552.699120,-0.416245130,0.407628800,9.952535630,-0.047117480,-0.030478840,0.008320810
1640844552.703290,-0.688779230,0.244095130,10.228122710,-0.014516710,-0.061309350,0.019510090
1640844552.704330,-0.282470610,0.369261380,8.867627140,-0.019600980,0.042188160,0.014267860
1640844552.708160,-0.014050440,0.615554630,9.781256680,-0.066836190,0.082691010,0.026957690
1640844552.708760,-0.145112010,0.548005400,10.595126150,-0.122351940,0.111517310,0.029557950
1640844552.713200,0.236357880,0.448666450,9.996037480,-0.085535650,-0.044877830,0.016543270
1640844552.713960,0.096159910,0.370411100,9.894486430,0.002394620,-0.056365140,0.006681680
1640844552.718500,-0.014262540,0.345232990,9.120469090,-0.041450560,0.051234670,0.007824600
1640844552.719180,-0.059572410,0.239618210,9.675722120,-0.110781200,0.045111780,0.034464900
1640844552.723180,-0.383029370,-0.125157390,10.229886050,-0.106251250,0.050662460,0.024756790
1640844552.723890,-0.190511810,-0.184398930,9.673600200,-0.041720270,-0.000159440,0.015883150
1640844552.729800,-0.380797330,-0.096263890,10.048601150,0.019769370,0.001151860,0.033049290
1640844552.730600,-0.427921380,-0.015191160,9.626199720,-0.036391620,0.025326010,0.007125730
1640844552.733170,-0.039878710,0.226108820,9.364436150,-0.092041490,-0.002762670,0.016915800
1640844552.734040,-0.023080740,0.348811840,9.636783600,-0.079974540,0.091262160,0.017520790
1640844552.738540,0.076155080,0.196868150,10.008508680,-0.026936830,0.058388700,-0.002284350
1640844552.739240,-0.181826290,0.274692770,10.524646760,0.058367850,-0.032594800,0.014987590
1640844552.743170,-0.388941410,0.231867330,9.490048410,0.018779940,-0.065267090,0.006915630
1640844552.743910,-0.355815080,0.058777220,9.260581020,-0.077845160,-0.032320620,0.023725630
1640844552.748160,-0.539057790,-0.007189530,9.696412090,-0.065304350,0.087483230,0.032743820
1640844552.748680,-0.327975060,-0.021235780,9.957877160,0.001260640,0.032342970,-0.000274180
1640844552.753420,-0.224533600,0.232693310,10.396342280,0.058293350,-0.025731330,0.013488530
1640844552.754900,-0.074487460,0.460196850,9.487988470,0.005705660,-0.013287370,0.016584990
1640844552.758360,-0.071004700,0.461056560,9.838254930,-0.062753270,-0.036056340,0.013437870
1640844552.759260,-0.457164320,0.506583870,10.172059060,-0.046910350,0.003257390,0.030308960
1640844552.763090,-0.325093240,0.438904490,9.519667630,-0.001932680,-0.078931450,0.012221940
1640844552.763860,-0.213303830,0.522533180,9.921315190,0.019115210,-0.040659310,0.010760130
1640844552.768510,-0.140001540,0.684196890,9.628450390,-0.027053060,0.081077230,0.024610760
1640844552.770040,-0.088957280,0.552126410,10.325604440,-0.101222100,-0.012102720,0.021675230
1640844552.773170,-0.269919900,0.461375030,10.436333660,-0.079068540,-0.060570240,0.035174190
1640844552.774020,0.079480970,0.461643370,8.966904640,-0.032448760,-0.068743530,0.031736490
1640844552.778220,0.024433620,0.485901270,9.578396800,-0.045049190,-0.006483500,0.030553340
1640844552.778920,-0.163632480,0.430117490,9.844148640,-0.097936390,0.081928060,0.045870250
1640844552.783370,0.002564710,0.047807630,10.061411860,-0.098148000,-0.043794520,0.022940340
1640844552.784900,-0.300535500,-0.051178660,10.418216710,-0.025992100,-0.065195560,0.017598270
1640844552.788090,-0.263696220,-0.010865210,9.258574490,-0.011681020,-0.027619300,0.031444430
1640844552.788630,-0.249691870,0.010451500,9.596286770,-0.063852970,-0.032185020,0.023613870
1640844552.793200,-0.322608380,0.171194910,9.701683040,-0.099824380,0.036816300,0.029191380
1640844552.794030,0.286243500,0.341787220,9.282527920,-0.099250670,0.036817790,0.034993880
1640844552.799340,0.277253930,0.161189880,10.416419980,-0.025846060,0.047920650,0.042074920
1640844552.801990,0.524756190,-0.204112660,9.962320330,0.042611360,0.042423610,0.061152880
1640844552.803630,1.019401190,-0.761528310,9.488564490,0.107944000,0.012767320,0.081464630
1640844552.804350,1.059706090,-1.431615590,9.423986430,0.123335440,0.147481260,0.071297590
1640844552.808610,1.400649310,-1.813152070,9.508369450,0.134788450,0.229688030,0.064505640
1640844552.809180,1.014447930,-1.938464280,10.517070770,0.220096110,0.210340290,0.056597590
1640844552.813100,0.724059520,-1.414116380,9.877730370,0.261043040,0.121389330,0.035455830
1640844552.813960,0.262301590,-0.596333090,9.606647490,0.242514910,0.100307170,0.047464670
1640844552.818390,-0.399684490,0.357063380,9.378605840,0.197626700,0.236384600,0.053416200
1640844552.819060,-0.705140710,0.909686800,10.175143240,0.202098460,0.230920280,0.046168260
1640844552.823260,-1.020452620,1.241121650,10.732344630,0.291322200,0.255955760,0.070777540
1640844552.825100,-0.642376420,1.300221680,9.949593540,0.349955200,0.170455860,0.083705780
1640844552.828080,-0.256010060,0.900464060,10.120224000,0.306032600,0.217254470,0.100694600
1640844552.828680,0.361562070,0.358514670,9.178952220,0.228066760,0.344091680,0.119048360
1640844552.833690,0.672791840,-0.434080090,10.144071580,0.236424820,0.266504290,0.100304190
1640844552.835090,0.670896950,-0.824977820,10.286999700,0.331439110,0.282512610,0.061185660
1640844552.838080,0.849896850,-0.539250790,9.021420480,0.340527330,0.192058090,0.018733740
1640844552.838730,0.096751300,-0.163315970,10.141418460,0.246512920,0.208786160,0.010520220
1640844552.843110,-0.241673650,0.211222070,9.356739040,0.170932730,0.308421250,0.003474950
1640844552.843730,-0.609080370,0.539306580,10.010503770,0.254133340,0.199399900,0.002251570
1640844552.848180,-1.217959400,0.765952940,10.801651000,0.352677760,0.274753600,0.028760730
1640844552.848960,-0.819080890,0.748434960,9.519142150,0.346657660,0.236178950,0.044997030
1640844552.853130,-0.777541220,0.533740520,10.142222400,0.307901230,0.199368600,0.073690720
1640844552.855090,-0.224247160,0.262628790,9.136222840,0.232988600,0.340934070,0.064644210
1640844552.859110,0.587073500,-0.091306950,9.308088300,0.246574000,0.304241480,0.041933360
1640844552.860560,0.560176250,-0.241919640,10.512037280,0.332200620,0.328867170,0.029684610
1640844552.864620,0.800906600,-0.422301620,9.711259840,0.363633040,0.248923910,0.001630190
1640844552.866240,0.395895630,-0.366053190,9.898357390,0.366307820,0.178101660,-0.004297490
1640844552.868170,-0.466263470,-0.062130690,9.746208190,0.275358650,0.247754190,-0.028002270
1640844552.868710,-0.707396390,0.122366670,9.411238670,0.247946380,0.197823320,-0.030544400
1640844552.873120,-1.164114360,0.594217540,9.899648670,0.328430560,0.232654810,-0.019778310
1640844552.874280,-0.950716080,0.969374840,9.686257360,0.334474380,0.282454520,-0.027333200
1640844552.878300,-0.507382630,1.178780440,10.135753630,0.317282970,0.266917080,0.012396280
1640844552.879270,-0.443885650,1.174150110,10.484427450,0.278537060,0.266188470,0.020307310
1640844552.883210,0.306771070,0.770911100,9.752299310,0.212924180,0.218459980,0.019404290
1640844552.883890,0.567703070,0.357192960,9.704085350,0.265862050,0.237849400,0.046233840
1640844552.888460,0.598599310,-0.075101260,9.701684950,0.314092670,0.301650170,0.007790330
1640844552.889580,0.566147270,-0.264147010,9.891036990,0.288243560,0.269255010,-0.015559790
1640844552.893200,-0.028288280,-0.205957520,9.988267900,0.247126820,0.206942870,-0.022487340
1640844552.894040,-0.300034880,-0.043249990,9.576771740,0.198552030,0.209251050,-0.053612890
1640844552.898950,-0.676874820,0.493085290,9.523670200,0.215289010,0.247016520,-0.038962070
1640844552.899510,-1.109483360,1.056138520,9.970519070,0.221070660,0.227488620,-0.040742750
1640844552.903260,-0.665417970,1.557513240,9.561368940,0.160282850,0.257827370,-0.059151650
1640844552.904060,-0.413709370,1.656367060,9.827128410,0.153030460,0.261241230,-0.031830370
1640844552.908240,-0.258495570,1.272099020,10.325103760,0.153490900,0.300130280,-0.017939510
1640844552.910210,0.154770300,0.586393360,9.914259910,0.177040700,0.214117770,-0.034564740
1640844552.913250,0.214071230,-0.110042910,9.789376260,0.225356220,0.155049580,-0.017289820
1640844552.915510,0.699673300,-0.437710910,8.553357120,0.149621040,0.296804280,-0.018800790
1640844552.918060,0.711382690,-0.849637390,9.491176610,0.106054560,0.337894350,-0.034421680
1640844552.918520,0.194842060,-0.889202650,10.560585020,0.149543600,0.328387350,-0.049781800
1640844552.923550,0.090208070,-0.477592890,9.544854160,0.226034250,0.167833280,-0.085851550
1640844552.927610,-0.777629380,-0.037958700,9.888426780,0.226807580,0.132402750,-0.092510860
1640844552.928820,-1.166821840,0.616061810,8.843583110,0.146298110,0.258669290,-0.099667910
1640844552.929440,-1.383537770,0.910282490,9.502484320,0.127577800,0.175817330,-0.121542830
1640844552.933240,-1.454505090,1.233931900,9.982141490,0.151333230,0.238703190,-0.100593280
1640844552.933950,-0.523241700,1.343103410,9.081587790,0.172831130,0.225050780,-0.096194450
1640844552.938750,-0.294367400,1.017336850,10.599433900,0.174328680,0.186243670,-0.067296610
1640844552.940360,0.325273250,0.731343090,9.580608370,0.135535000,0.254037980,-0.053496660
1640844552.943190,0.862096250,0.248064590,9.334379200,0.073899330,0.140714660,-0.060769920
1640844552.944850,0.666151170,-0.291132630,9.990948680,0.096996130,0.242787610,-0.073377800
1640844552.948790,0.680615430,-0.391955670,9.136792180,0.150746110,0.229007020,-0.108438730
1640844552.949260,-0.023442020,-0.271868620,9.992254260,0.148673390,0.104819250,-0.116571810
1640844552.953210,-0.715213480,-0.030151550,9.606320380,0.087584560,0.170165320,-0.132019820
1640844552.956900,-1.096087460,0.405263160,9.283837320,0.050704180,0.143305960,-0.123213250
1640844552.958130,-1.687969680,0.997775670,10.185093880,0.070410990,0.118951510,-0.112807770
1640844552.958920,-1.372772220,1.351128580,9.421496390,0.052377590,0.143431130,-0.127369180
1640844552.963180,-0.633797880,1.707411050,9.122387890,0.046491630,0.150544940,-0.123779480
1640844552.964850,-0.220252080,1.699765800,9.849185940,0.017504390,0.212033140,-0.119581840
1640844552.968190,0.554582950,1.142995480,9.668997760,-0.052483380,0.207318370,-0.105619440
1640844552.969010,0.754223110,0.410986210,9.841747280,0.010041890,0.091132520,-0.099711130
1640844552.973610,0.572570740,-0.413218800,9.755030630,0.063556430,0.061663990,-0.113646690
1640844552.976880,0.558981000,-0.710453870,8.541745190,0.022445620,0.134068730,-0.120003520
1640844552.978200,-0.089834220,-0.777025580,9.450965880,-0.051227220,0.137841700,-0.140428560
1640844552.978990,-0.593019370,-0.733433660,9.927518840,-0.071363150,0.180581210,-0.171864050
1640844552.983100,-0.665809570,-0.044029750,9.190262790,0.021931530,0.079283100,-0.177514540
1640844552.983710,-1.330534700,0.606861470,10.087903980,0.032725930,0.050200520,-0.193627180
1640844552.988620,-1.155984280,1.106410150,8.970858570,-0.031816960,0.106103700,-0.184686500
1640844552.990150,-0.983686860,1.239200830,9.355761530,-0.039710100,0.037075580,-0.176513240
1640844552.993340,-0.875114860,1.082645180,9.847343440,-0.032733380,0.125038620,-0.174932200
1640844552.994870,-0.095676910,0.802289250,9.222512250,0.000377000,0.095759350,-0.167916740
1640844552.998340,0.051285100,0.530853150,10.214653970,0.004865230,0.029750170,-0.163179640
1640844553.000580,0.260343040,0.195275630,9.526371000,-0.070215770,0.039696700,-0.158831480
1640844553.003140,0.600854520,-0.086313020,8.914414410,-0.126822290,0.024303800,-0.155727570
1640844553.005250,0.194421530,-0.262065500,9.749948500,-0.072315340,0.084306300,-0.176042320
1640844553.008390,-0.204936760,-0.155160920,9.899800300,-0.018505750,0.044180460,-0.196473300
1640844553.010100,-0.462427140,0.309763040,9.491976740,-0.038804110,-0.044207270,-0.195169430
1640844553.015730,-1.155569310,0.572455700,9.776152610,-0.119590780,-0.060978530,-0.209297250
1640844553.016480,-1.189503310,0.858131770,9.262162210,-0.168359280,0.023576620,-0.213220730
1640844553.019100,-1.163089870,1.045295000,9.631002430,-0.110660500,-0.027708710,-0.216457260
1640844553.021790,-1.142933130,1.036238910,10.282528880,-0.078192360,-0.027662510,-0.226791200
1640844553.024020,-0.105514840,1.079407100,8.627697940,-0.094525520,-0.018343330,-0.213685630
1640844553.025780,0.223422970,0.962944510,9.473101620,-0.172126290,-0.051735350,-0.183819250
1640844553.028160,0.555419210,0.539418100,9.434350970,-0.278748570,0.107374790,-0.181257690
1640844553.029480,0.816707970,-0.005242150,9.354650500,-0.200869140,-0.072538850,-0.191864390
1640844553.033280,0.012234990,-0.425048110,10.415825840,-0.071230530,-0.127191860,-0.213749740
1640844553.034310,-0.107799560,-0.529454530,8.608932500,-0.097157080,-0.083704310,-0.239090650
1640844553.038210,-0.754608870,-0.492486830,9.404368400,-0.172001140,-0.122684260,-0.236867410
1640844553.039400,-1.167808650,-0.291830750,9.543251990,-0.228676210,0.004090370,-0.260774790
1640844553.043360,-0.827532710,0.163566490,9.197260860,-0.192223500,-0.072067980,-0.272239710
1640844553.044290,-1.019140720,0.729475920,10.159869190,-0.107456750,-0.096498430,-0.253236290
1640844553.048240,-0.685089590,0.924397350,9.298029900,-0.117687900,-0.107651970,-0.267249350
1640844553.049030,-0.400443880,1.133003590,9.241861340,-0.156256560,-0.187493860,-0.248101370
1640844553.053210,-0.307359520,0.984165910,9.169811250,-0.215747970,-0.097467020,-0.244598140
1640844553.054070,0.005782960,0.352030010,9.512569430,-0.207440540,-0.110033150,-0.254184010
1640844553.059380,-0.101899460,0.203207460,9.957693100,-0.120176370,-0.150331870,-0.241763920
1640844553.060860,-0.160213950,-0.113507450,9.562087060,-0.137190540,-0.212377350,-0.251488390
1640844553.063400,-0.140698890,-0.387190340,9.206723210,-0.207382490,-0.171278420,-0.249317300
1640844553.064350,-0.459932450,-0.353065730,9.485861780,-0.183276850,-0.148443880,-0.255100430
1640844553.068200,-0.850641190,-0.058626960,9.940619470,-0.174646080,-0.224623100,-0.278854370
1640844553.069250,-0.474675890,0.597186210,8.886087420,-0.196769880,-0.228007180,-0.287041070
1640844553.073460,-0.629998090,1.053260920,9.657073020,-0.226032780,-0.195768510,-0.289073620
1640844553.074640,-0.583663400,1.356886860,9.865678790,-0.246855620,-0.140655060,-0.288288330
1640844553.078120,-0.301738500,1.303292390,9.709538460,-0.225584250,-0.279606880,-0.282846420
1640844553.078810,-0.452164560,1.145145890,9.884092330,-0.208459780,-0.273683700,-0.257956920
1640844553.083170,0.153829140,0.871601340,8.507535930,-0.257873560,-0.214642290,-0.260813560
1640844553.084140,0.084016620,0.477743800,9.550450330,-0.313834820,-0.193496020,-0.239832700
1640844553.088320,0.037683340,0.165791590,9.580269810,-0.338605140,-0.178031620,-0.254887370
1640844553.089740,0.309592780,-0.323245880,9.390522960,-0.287087350,-0.274013010,-0.288914140
1640844553.093760,-0.331847190,-0.365459020,9.873262410,-0.203658640,-0.253903900,-0.287945570
1640844553.094990,-0.525616350,-0.301275490,9.258867260,-0.256149560,-0.294280110,-0.315013590
1640844553.098880,-0.730180500,-0.278832820,9.352052690,-0.297848970,-0.307048920,-0.308916060
1640844553.099550,-0.841811950,0.133226340,9.088623050,-0.280319180,-0.261852230,-0.309842880
1640844553.103170,-0.508732620,0.493597840,9.264093400,-0.289146600,-0.208075390,-0.324489240
1640844553.105360,-0.492552400,0.803585710,9.986490250,-0.245291020,-0.244987060,-0.309377940
1640844553.108170,-0.319669370,0.927669170,9.846529010,-0.235433910,-0.334918590,-0.314471190
1640844553.109670,0.074325580,0.852895320,8.884649280,-0.274196270,-0.357692000,-0.298421170
1640844553.113120,0.020793180,0.595113580,9.054321290,-0.319342370,-0.274799850,-0.294883610
1640844553.114860,0.051681740,0.192478180,9.355628970,-0.323590700,-0.215266690,-0.303097160
1640844553.118110,-0.235871270,-0.188461990,9.985074040,-0.233496740,-0.363142790,-0.315161080
1640844553.119130,-0.517776130,-0.386653450,9.576839450,-0.210000590,-0.386703040,-0.324682890
1640844553.123230,-0.553273200,-0.408515600,8.842913630,-0.263842940,-0.370776680,-0.329133870
1640844553.124760,-1.063714980,-0.350017250,9.972900390,-0.280801950,-0.334245060,-0.331755010
1640844553.130380,-0.945297360,0.182245250,9.410238270,-0.290590580,-0.335346250,-0.347712700
1640844553.130880,-0.620539490,0.624963520,9.548532490,-0.275057550,-0.436036290,-0.358265670
1640844553.133130,-0.431070240,0.982490660,9.590501790,-0.251451130,-0.340896930,-0.345377680
1640844553.133620,0.034604560,1.354027510,9.113824840,-0.275823500,-0.363789500,-0.340591370
1640844553.138200,-0.097919110,1.196044680,10.177328110,-0.325431020,-0.403824510,-0.323411910
1640844553.138720,0.144337360,0.871342720,9.212291720,-0.325413080,-0.393806490,-0.312787290
1640844553.143240,0.104326440,0.558617830,9.366374020,-0.294990870,-0.450508360,-0.321294400
1640844553.144030,-0.172627000,0.193267550,9.567346570,-0.321713120,-0.348335500,-0.311939420
1640844553.148200,-0.055825380,-0.148224730,8.957358360,-0.356084200,-0.394064250,-0.323315050
1640844553.148720,-0.240417320,-0.385648850,9.671871190,-0.329154790,-0.402145150,-0.358024330
1640844553.153820,-0.356696310,-0.347601890,9.403141980,-0.290851380,-0.367401600,-0.355281030
1640844553.154480,-0.445953700,-0.205901880,9.441755290,-0.299465660,-0.430050520,-0.357751580
1640844553.158180,-0.551248910,-0.075306050,9.635241510,-0.301489320,-0.442847670,-0.372141690
1640844553.160270,-0.462685470,0.170608920,9.095562930,-0.286550850,-0.435628090,-0.364241060
1640844553.164510,-0.163748890,0.604608120,8.897479060,-0.301660690,-0.377203580,-0.353421360
1640844553.166960,-0.211562890,0.480856600,9.938231470,-0.298051540,-0.375472040,-0.356361360
1640844553.168500,-0.128604260,0.543934700,9.626822470,-0.263008510,-0.418430630,-0.338591670
1640844553.169960,0.061410000,0.539334770,9.053967480,-0.246098700,-0.526891710,-0.338475500
1640844553.174440,-0.191440930,0.239800330,9.365253450,-0.312973650,-0.399018880,-0.350536500
1640844553.176470,-0.038892280,0.181547110,9.021101000,-0.326919560,-0.353370640,-0.361441110
1640844553.178110,-0.462721970,-0.100521170,10.359094620,-0.257103200,-0.489251410,-0.379094540
1640844553.178800,-0.525472460,-0.038464180,9.467703820,-0.247836190,-0.448669580,-0.386649490
1640844553.183270,-0.323611290,0.175459300,8.827146530,-0.259669130,-0.515902100,-0.387080070
1640844553.185150,-0.914091230,0.208255560,10.149954800,-0.306336670,-0.424717430,-0.382378760
1640844553.188200,-0.391009930,0.501110370,8.846500400,-0.326132770,-0.442846210,-0.395098390
1640844553.188940,-0.331113550,0.602496860,9.879404070,-0.275960590,-0.536973890,-0.383971630
1640844553.193800,-0.132133950,0.855093000,9.451946260,-0.269927110,-0.375874400,-0.387397440
1640844553.195080,0.301557390,1.058297160,9.305730820,-0.322327110,-0.489820600,-0.376828070
1640844553.198430,-0.119979540,0.923968020,10.210121150,-0.366517990,-0.484654430,-0.348195520
1640844553.199120,0.152358280,0.444126190,8.965210910,-0.363643620,-0.477007120,-0.362739030
1640844553.203180,-0.028714050,0.092739710,9.526025770,-0.258249040,-0.516937790,-0.344179570
1640844553.204150,-0.417669390,0.022939350,9.521845820,-0.267122690,-0.444337820,-0.347361060
1640844553.210930,-0.102784780,-0.295259210,9.134309770,-0.353260370,-0.487312730,-0.348542720
1640844553.212490,-0.381052700,-0.249563250,9.653470990,-0.336937670,-0.452488780,-0.348673850
1640844553.213280,-0.286254140,-0.059444300,9.361865040,-0.326007660,-0.456366090,-0.367902340
1640844553.214370,-0.277440010,0.086891470,9.628974910,-0.284621180,-0.498162300,-0.358046680
1640844553.218080,-0.562400580,0.377977850,9.543251990,-0.240299150,-0.523056150,-0.373427660
1640844553.218470,-0.262874420,0.461823080,8.921218870,-0.294543890,-0.538718880,-0.362464850
1640844553.223260,-0.094341230,0.503287140,9.057413100,-0.320218530,-0.427679720,-0.336368410
1640844553.224790,-0.090240300,0.234100180,9.875438690,-0.309357080,-0.394767580,-0.330014530
1640844553.229410,0.168952840,-0.008520560,9.968442920,-0.216972870,-0.516091350,-0.303313230
1640844553.231980,0.064809530,-0.174721670,9.379509930,-0.179898780,-0.531174360,-0.297614930
1640844553.235760,0.155234040,-0.267619550,8.859673500,-0.266209240,-0.474722710,-0.304748120
1640844553.236710,-0.299753310,-0.423447220,9.701371190,-0.264863760,-0.450767640,-0.303886830
1640844553.238480,-0.491130020,-0.169413980,9.644363400,-0.232979690,-0.486050640,-0.328776300
1640844553.239380,-0.516472880,0.308546570,9.459175110,-0.215213050,-0.562262710,-0.340323210
1640844553.243190,-0.763476670,0.536415700,9.677223210,-0.211037740,-0.498534800,-0.325010750
1640844553.244210,-0.657455330,0.947083530,9.361239430,-0.245153950,-0.488324520,-0.320915940
1640844553.248740,-0.825672980,1.048018810,10.017103200,-0.266228650,-0.572130080,-0.286850360
1640844553.250770,-0.398979160,0.831039130,9.333219530,-0.269880950,-0.512646200,-0.255182470
1640844553.253160,0.162640470,0.751373890,9.051339150,-0.226922380,-0.500354170,-0.259262350
1640844553.253910,0.076821040,0.486545680,10.114132880,-0.235343010,-0.480656420,-0.241467400
1640844553.258320,0.614347990,0.201449200,9.166051860,-0.301867750,-0.479383830,-0.239402100
1640844553.259090,0.442485360,-0.260575260,9.610574720,-0.272683890,-0.561872180,-0.256915390
1640844553.267460,0.079783160,-0.428367790,9.752507210,-0.233480350,-0.483310220,-0.254242150
1640844553.268220,0.092168220,-0.292512390,8.946446420,-0.223998760,-0.525415000,-0.252004000
1640844553.268720,-0.575249730,-0.333585140,9.991890910,-0.230245340,-0.549598100,-0.251421420
1640844553.269190,-0.317351670,0.091279710,8.775013920,-0.258371320,-0.444468950,-0.243383680
1640844553.274280,-0.404022310,0.504880370,9.488615040,-0.247375710,-0.504872200,-0.224891350
1640844553.274970,-0.672633470,0.541691780,10.393999100,-0.256131650,-0.438961480,-0.213168610
1640844553.278320,-0.207626570,0.604296030,9.246494290,-0.192725670,-0.559651850,-0.217610610
1640844553.278940,-0.393969630,0.412727090,9.668299670,-0.146627460,-0.590713380,-0.209869490
1640844553.283390,0.076365630,0.415686340,8.647286420,-0.241424140,-0.406993960,-0.205755230
1640844553.284120,0.150949450,0.133490380,9.582536700,-0.259806250,-0.458201770,-0.183325980
1640844553.289860,-0.013047280,-0.296470520,10.515329360,-0.216093690,-0.476712080,-0.174598430
1640844553.290410,0.424260140,-0.312943280,9.085762020,-0.149956350,-0.537850020,-0.178548710
1640844553.293100,-0.001587130,-0.398049650,9.552261350,-0.127318530,-0.531482880,-0.164267450
1640844553.300860,-0.087468040,-0.231949420,9.492959020,-0.194360320,-0.416778120,-0.174824940
1640844553.302530,-0.299396540,0.069582370,9.836910250,-0.192983480,-0.497050670,-0.170142980
1640844553.303030,-0.510794280,0.384789620,9.960233690,-0.187854480,-0.523902600,-0.157906120
1640844553.303480,-0.232654780,0.765330790,9.156288150,-0.172190380,-0.481090010,-0.175608710
1640844553.304010,-0.470025000,1.055373070,9.790450100,-0.155177730,-0.462816720,-0.143246350
1640844553.308160,-0.400795880,1.053654190,9.940843580,-0.214354720,-0.469268950,-0.137457280
1640844553.309230,-0.139004290,0.636116980,9.659321780,-0.197444890,-0.515002130,-0.121286530
1640844553.314420,0.072062830,0.424964580,9.413453100,-0.160944460,-0.483860160,-0.096485020
1640844553.316180,0.271282940,0.288587660,9.449763300,-0.187389600,-0.426489170,-0.095848750
1640844553.318560,0.229061840,0.026220300,9.760327340,-0.234569640,-0.426045150,-0.078001630
1640844553.319190,0.170339790,-0.136280060,9.761486050,-0.234536860,-0.510506390,-0.091089330
1640844553.323180,-0.189526740,-0.298044560,9.706809040,-0.161835550,-0.516063030,-0.093764080
1640844553.324600,-0.230985640,-0.119574700,9.074052810,-0.145162660,-0.481262860,-0.089068730
1640844553.329280,-0.548155430,0.153599400,9.825755120,-0.193029690,-0.472013710,-0.098173340
1640844553.330120,-0.454921100,0.344118060,9.592787740,-0.225172970,-0.430899920,-0.080886490
1640844553.333180,-0.057645540,0.591988090,9.316950800,-0.209103570,-0.458106460,-0.066082200
1640844553.334360,-0.262815450,0.489612580,10.178412440,-0.153721910,-0.430911840,-0.056703400
1640844553.338270,0.094630110,0.467304200,9.411979680,-0.128880140,-0.466293190,-0.037977100
1640844553.339130,-0.040296900,0.394497160,9.655377390,-0.151291530,-0.530892790,-0.034056610
1640844553.343140,0.016095110,0.183946130,9.185441970,-0.235435400,-0.409266440,-0.018413360
1640844553.344490,0.116639900,-0.081969290,9.558222770,-0.217318560,-0.408867090,-0.022941830
1640844553.348560,-0.388926600,-0.229036090,10.536856650,-0.124146060,-0.447233110,-0.025542080
1640844553.350120,-0.050686270,-0.050784570,9.369215010,-0.105308010,-0.495174590,-0.017091640
1640844553.353120,-0.318705080,0.043977600,9.542524340,-0.145187970,-0.479033680,-0.005072360
1640844553.353820,-0.433471860,0.170759450,9.512557030,-0.206427310,-0.408990770,-0.003921990
1640844553.358350,-0.229898960,0.413656090,9.787373540,-0.180782390,-0.437743960,-0.009192530
1640844553.359480,-0.324073280,0.671770990,10.035553930,-0.148269560,-0.452227950,-0.010417400
1640844553.364580,0.163981720,0.807751060,9.471315380,-0.141376290,-0.451207250,0.003319980
1640844553.365390,0.171145350,0.932137190,9.785727500,-0.155708190,-0.424554970,0.017575920
1640844553.368520,0.137065050,0.823176260,9.706014630,-0.240042840,-0.402042360,0.049111250
1640844553.369480,0.214684170,0.367299740,9.909387590,-0.217442260,-0.446888890,0.074890260
1640844553.373090,-0.128897130,0.130625980,9.756678580,-0.148355990,-0.438930180,0.062239180
1640844553.373680,0.044984640,0.165395020,9.313662530,-0.166395340,-0.452502160,0.078415880
1640844553.378440,-0.094599510,0.144681870,9.706401820,-0.229038300,-0.357352230,0.097173450
1640844553.379080,0.023611990,0.016370590,9.638412480,-0.258721410,-0.357161460,0.068151960
1640844553.383480,0.064043780,0.028306180,10.128100400,-0.170177210,-0.400109530,0.084522360
1640844553.384650,-0.047779530,0.257212250,9.707830430,-0.133535280,-0.375792380,0.081035490
1640844553.388080,-0.031375150,0.267688870,9.580842020,-0.176060210,-0.429029820,0.080254680
1640844553.388540,-0.194391670,0.362059830,9.491257670,-0.205731440,-0.396652610,0.114344080
1640844553.393160,0.124324280,0.344021680,8.870147710,-0.230282530,-0.345607040,0.098793220
1640844553.394070,0.105775230,0.181439060,10.037684440,-0.178062960,-0.294362070,0.114770250
1640844553.402720,0.093941600,0.334075360,10.148374560,-0.138726830,-0.311118330,0.131343310
1640844553.403390,0.139790950,0.121082300,10.052664760,-0.152315210,-0.437842400,0.133855670
1640844553.404180,0.036324530,0.024386090,9.443047520,-0.197339100,-0.349056720,0.154827550
1640844553.405090,0.019832380,-0.062372910,9.117740630,-0.195446630,-0.315880780,0.146308540
1640844553.408310,-0.355885420,-0.372812720,10.396658900,-0.131429750,-0.307868420,0.135986520
1640844553.408920,-0.169417460,0.086410980,9.573910710,-0.110772270,-0.313858750,0.139997910
1640844553.413440,-0.300026090,0.292285410,10.081734660,-0.149293260,-0.397531690,0.137895360
1640844553.416260,-0.279961820,0.464010720,9.872762680,-0.209689190,-0.276352470,0.162868230
1640844553.418100,-0.155446560,0.853220820,9.675361630,-0.200335670,-0.335076390,0.174559640
1640844553.418620,-0.357977510,0.794106190,10.471371650,-0.170944650,-0.346936320,0.175559520
1640844553.426400,0.261338440,0.932720660,9.015056610,-0.155341630,-0.310555130,0.204245750
1640844553.427200,0.156632590,0.879212500,9.729879380,-0.179311630,-0.318942990,0.216387230
1640844553.428320,0.222607170,0.474391970,10.079937930,-0.260835890,-0.219409180,0.232902200
1640844553.428850,0.330123540,0.080941630,9.814559940,-0.232458140,-0.324535430,0.243562500
1640844553.433440,-0.064657200,-0.407224630,10.209676740,-0.140969460,-0.357675580,0.231343540
1640844553.435960,0.181958590,-0.426568000,9.217758180,-0.145895790,-0.264418180,0.228543610
1640844553.438070,-0.023444580,-0.196850640,9.586399080,-0.196644660,-0.261597370,0.235231220
1640844553.438570,-0.039160770,-0.105525200,9.943881030,-0.272209970,-0.228248550,0.234837830
1640844553.443250,0.191485320,0.204894860,9.599221230,-0.206738730,-0.249618290,0.240075600
1640844553.444030,-0.098390270,0.401990180,9.952675820,-0.121866170,-0.265741380,0.245432570
1640844553.448140,-0.094484040,0.498717430,10.018527980,-0.122067350,-0.278705390,0.238698750
1640844553.448730,-0.144964550,0.619347330,9.543367390,-0.156742350,-0.268150900,0.267353650
1640844553.453900,-0.026102950,0.533435290,9.461667060,-0.242319700,-0.229811650,0.265215280
1640844553.454820,0.093008560,0.392425420,10.129106520,-0.225055250,-0.159873080,0.283712180
1640844553.459600,0.116831600,0.289991590,10.022581100,-0.159624260,-0.196653630,0.280894430
1640844553.460320,0.146807910,0.125113110,10.174044610,-0.131006540,-0.292617080,0.274257390
1640844553.464860,0.068067110,0.134119390,9.496281620,-0.170117620,-0.209467130,0.288081170
1640844553.465780,0.089526240,-0.020125060,9.462218280,-0.232283800,-0.200343150,0.288505880
1640844553.468660,-0.270075170,-0.090264380,10.657999990,-0.201147840,-0.178055470,0.300486480
1640844553.469230,-0.231934670,0.240854760,9.944388390,-0.161667180,-0.204938670,0.294999780
1640844553.473200,-0.184634540,0.320605160,9.980789180,-0.163272040,-0.285434720,0.292542610
1640844553.473740,-0.210387080,0.553245900,9.709465030,-0.186249610,-0.153654830,0.322635500
1640844553.478070,0.037825050,0.658177970,9.563625340,-0.220908240,-0.147059560,0.328691330
1640844553.479150,-0.073654460,0.456822400,10.703525540,-0.201393710,-0.190325130,0.349724350
1640844553.483120,0.423485310,0.591640470,9.335704800,-0.172978610,-0.168561950,0.361460450
1640844553.484000,0.572712180,0.498373450,9.673861500,-0.193420070,-0.179359320,0.363698600
1640844553.489420,0.339994430,0.197297680,10.162398340,-0.246357960,-0.051748760,0.392603960
1640844553.490280,0.276967880,-0.128558870,9.858779910,-0.205506400,-0.167372840,0.371179040
1640844553.493140,-0.256708950,-0.477093940,10.465660100,-0.121094310,-0.254197480,0.353111420
1640844553.493750,-0.184084300,-0.289674760,8.815105440,-0.133389250,-0.144705180,0.357630850
1640844553.498600,-0.371924520,-0.044090110,9.729215620,-0.208902370,-0.129018720,0.347121090
1640844553.500240,-0.354317400,0.032406410,10.333538060,-0.250761210,-0.022615490,0.361299540
1640844553.503880,0.172307670,0.408379970,9.765993120,-0.175030530,-0.129690780,0.366990270
1640844553.504880,-0.020467110,0.482046930,10.586054800,-0.103957950,-0.140775760,0.385344060
1640844553.508140,0.271549610,0.463085060,9.500606540,-0.136360530,-0.100210320,0.395706300
1640844553.509000,0.082882460,0.382208560,9.697928430,-0.149300690,-0.170335200,0.406718340
1640844553.513120,0.033081650,0.173570620,9.668185230,-0.207677500,-0.085997580,0.412264500
1640844553.514530,0.273048910,-0.075982880,9.504587170,-0.182233750,-0.045536460,0.405296770
1640844553.518240,-0.191925260,-0.121168260,10.919877050,-0.101557370,-0.082494330,0.388903920
1640844553.519010,-0.085060890,0.114693110,10.243358610,-0.128552330,-0.116810210,0.374925140
1640844553.523350,-0.089838130,0.298204000,9.568655010,-0.173933830,-0.157322030,0.399217070
1640844553.524320,-0.280904740,0.441136630,9.875414850,-0.226637750,-0.046411160,0.390905230
1640844553.532480,-0.104415500,0.536266510,9.842884060,-0.192162410,-0.033007560,0.406015010
1640844553.535160,-0.165168240,0.613853510,10.217308040,-0.113756960,-0.106091820,0.429080490
1640844553.535690,0.093512620,0.621659760,10.054382320,-0.150981560,-0.080588460,0.416612710
1640844553.537620,0.178523180,0.487064330,9.967176440,-0.183621090,-0.041295600,0.436396960
1640844553.538560,-0.016667330,0.358558600,10.282937050,-0.218926400,-0.059710450,0.456288520
1640844553.539030,0.154183830,0.128618820,10.045692440,-0.227852210,-0.076766330,0.440460500
1640844553.543150,0.220249850,0.065553920,9.547076230,-0.151875660,-0.052262850,0.442087740
1640844553.544000,0.341627690,0.339099050,9.513946530,-0.173400370,-0.010758640,0.437849850
1640844553.548570,0.216144370,0.294303600,10.203666690,-0.246648520,0.048127780,0.456495640
1640844553.549240,0.040864170,0.005169700,10.319295880,-0.237470900,-0.020395220,0.460459380
1640844553.553620,-0.095488130,-0.254015480,10.434903140,-0.118784630,-0.123851020,0.446711570
1640844553.556660,-0.310582580,-0.231823790,9.615330700,-0.078089540,-0.017555060,0.432430300
1640844553.558260,-0.183487590,0.127056720,9.201472280,-0.179217800,-0.002285840,0.444778890
1640844553.559130,-0.242608380,0.094222230,10.245335580,-0.257831870,0.043135890,0.451238600
1640844553.563160,0.110359040,0.244146750,9.788109780,-0.210957270,0.053191180,0.449672370
1640844553.566400,0.272326020,0.410202650,10.210679050,-0.107473150,-0.045098380,0.466643360
1640844553.568640,0.116976390,0.288639370,10.252820010,-0.089071700,0.019034740,0.454384180
1640844553.570750,0.456227180,0.293021740,9.464526180,-0.160716500,0.010527670,0.460533890
1640844553.573110,0.085281890,0.053195480,10.341582300,-0.195850450,0.030580170,0.494529400
1640844553.574190,-0.003027680,-0.387575510,10.061534880,-0.163205010,0.075858850,0.475110170
1640844553.578120,-0.022303520,-0.369130910,10.103547100,-0.054344540,-0.023742030,0.469268920
1640844553.578650,-0.593715070,-0.044315000,10.250560760,-0.058704630,-0.006869440,0.456017320
1640844553.583500,-0.427503290,0.280466710,9.413627620,-0.195933910,0.002384190,0.457841220
1640844553.584300,-0.551200030,0.572849510,10.094602580,-0.221249510,0.004650650,0.471033220
1640844553.588120,-0.392775090,0.739494980,10.243665700,-0.168186430,0.050951550,0.457182530
1640844553.588760,0.175005270,1.046095610,10.225559230,-0.112667700,0.033816700,0.464367930
1640844553.594600,0.043752420,0.986951230,10.633360860,-0.121800620,0.031024220,0.481861920
1640844553.595270,0.205431510,0.577401460,10.099890710,-0.186550660,-0.009512900,0.486771820
1640844553.599270,0.259793370,0.252899590,9.928474430,-0.201739420,-0.015744570,0.527381960
1640844553.600650,-0.069945030,-0.140966760,9.854608540,-0.196269180,0.021062800,0.512121740
1640844553.603530,0.174945790,-0.232534570,9.667758940,-0.171621190,0.018936400,0.488303690
1640844553.604690,0.056540760,0.073313440,9.962188720,-0.165224110,0.074036440,0.484444290
1640844553.608130,-0.072321070,0.267162980,10.302389140,-0.240963730,0.072979950,0.457826320
1640844553.608940,-0.107971650,0.275205020,10.651450160,-0.240807250,0.011007490,0.475737450
1640844553.613110,-0.494493630,0.287982490,10.166030880,-0.152947010,-0.031434000,0.474858340
1640844553.613740,-0.359957130,0.439868270,9.401277540,-0.140821950,-0.044180450,0.475411180
1640844553.618930,-0.276761080,0.443254650,9.647939680,-0.201194000,0.085584820,0.500492870
1640844553.619880,-0.245432480,0.105616760,10.216063500,-0.228691120,0.112625960,0.502861980
1640844553.623170,0.083992610,-0.180826310,10.679936410,-0.160071270,-0.000664590,0.498567610
1640844553.623870,0.208871900,-0.186355590,9.969169620,-0.103473690,0.012831390,0.508619900
1640844553.633050,0.380230490,-0.168072420,9.575040820,-0.150309550,0.017981230,0.483797580
1640844553.633780,0.231850030,-0.119155660,10.146492960,-0.200197120,0.070023530,0.491712990
1640844553.634590,0.123772360,-0.055268460,9.791314130,-0.189369930,0.078876320,0.474083450
1640844553.636210,-0.062863820,0.012060550,10.411798480,-0.127984580,0.000339750,0.467836950
1640844553.638100,-0.486901580,0.164981220,10.508844380,-0.073972370,0.032290820,0.471891550
1640844553.638790,-0.617812990,0.397185300,9.850086210,-0.114834330,-0.019103290,0.474560320
1640844553.643090,-0.753972890,0.541289930,10.155364040,-0.196100800,-0.021527710,0.485512670
1640844553.643640,-0.448892860,0.404118360,9.680555340,-0.197343570,0.094880180,0.490112660
1640844553.648350,0.043227230,0.551058470,10.164600370,-0.127767040,0.078617050,0.489577740
1640844553.649140,0.090824880,0.646258350,10.972611430,-0.113813590,0.055283320,0.497958150
1640844553.653140,0.475646560,0.410339590,10.003405570,-0.170813530,0.007502740,0.495176080
1640844553.653950,0.558176340,0.231433690,9.980196000,-0.190983710,-0.003625450,0.501731100
1640844553.658270,-0.012128190,-0.011450010,10.545486450,-0.176872330,0.066216290,0.494095770
1640844553.660070,-0.008510370,-0.097298880,9.924276350,-0.167155280,0.011710820,0.502109530
1640844553.663350,-0.293977350,0.075103070,10.189689640,-0.141894850,-0.029416390,0.499203860
1640844553.665060,-0.353448960,0.322980850,9.986907960,-0.186006740,0.082483890,0.495860040
1640844553.668240,-0.156333580,0.623133000,10.098761560,-0.252482320,0.096447780,0.502918780
1640844553.669040,-0.519847810,0.645774420,11.084003450,-0.219465790,0.024309750,0.496394960
1640844553.673140,-0.195677090,0.478490200,10.092820170,-0.160847650,-0.023466350,0.488819270
1640844553.674750,0.176387610,0.569365020,9.261371610,-0.144547220,0.008876620,0.485953780
1640844553.678290,-0.049873280,0.452735960,10.245675090,-0.226064060,0.110857210,0.486874640
1640844553.679080,0.243027550,-0.116279680,10.327922820,-0.269733400,0.104393070,0.497922300
1640844553.683210,0.133834760,-0.351098630,10.448973660,-0.159004330,-0.031290950,0.494584500
1640844553.683950,-0.082988850,-0.485837310,10.335044860,-0.116263350,-0.012964010,0.489336310
1640844553.688290,0.108009970,-0.396708160,9.264283180,-0.163623690,0.067029900,0.498117570
1640844553.689050,-0.305960710,-0.139464710,10.311820030,-0.201763240,0.038416690,0.478983010
1640844553.693160,-0.131463350,-0.026912680,10.234753610,-0.225454570,0.091584030,0.469020010
1640844553.693940,0.069100170,0.168417070,9.928949360,-0.136126580,0.048908590,0.459113750
1640844553.698170,-0.509319190,0.370780530,11.211452480,-0.070752210,-0.003767010,0.460152360
1640844553.699200,-0.287360130,0.478225770,9.909003260,-0.130632530,0.004555290,0.471687380
1640844553.703680,-0.328606010,0.340011690,9.762290000,-0.175139340,-0.047101090,0.489464460
1640844553.705480,-0.322281450,0.121228350,10.410378460,-0.184315490,0.110489140,0.494390790
1640844553.708030,0.167103740,0.028765220,10.030008320,-0.129391250,0.120496770,0.490181210
1640844553.708470,0.039586950,0.285213590,11.086166380,-0.096136350,-0.017745800,0.491465690
1640844553.713330,0.166603830,0.355459390,10.215195660,-0.187197330,0.032663350,0.482426640
1640844553.715210,0.248227510,0.221245360,9.593527790,-0.217852030,-0.005684790,0.476773110
1640844553.718120,-0.308335390,0.166040000,10.872352600,-0.153997590,0.021263960,0.480838210
1640844553.718860,-0.271596760,0.146138410,10.138151170,-0.111866020,0.057147450,0.463184770
1640844553.724110,-0.223669620,0.201032130,10.301413540,-0.117735580,-0.033900150,0.471033220
1640844553.725150,-0.354696660,0.424632280,10.680759430,-0.190080730,0.060278190,0.484731880
1640844553.728500,-0.054241390,0.384249630,10.037580490,-0.245466860,0.061793640,0.479900900
1640844553.730120,-0.034887330,0.263137730,10.646902080,-0.192999850,-0.023715200,0.475369450
1640844553.733140,0.120379180,0.351281110,10.022761340,-0.115637500,0.039725010,0.468131990
1640844553.733840,0.448991090,0.341486480,9.567955020,-0.143474370,0.042185200,0.468529850
1640844553.738540,0.274012420,0.278932180,10.612246510,-0.225260870,0.084726510,0.496798780
1640844553.739250,0.148913590,-0.061700650,10.449820520,-0.236663250,0.074970720,0.482790260
1640844553.743350,-0.020367140,-0.332477060,10.529201510,-0.153857480,-0.039660930,0.470350770
1640844553.747300,-0.440947860,-0.360161870,10.161079410,-0.088785610,0.008784240,0.466747640
1640844553.748070,-0.388320620,-0.384074330,9.553741460,-0.127236560,0.035291910,0.435844150
1640844553.750090,-0.412437380,-0.211565410,10.279946330,-0.168214740,0.067269800,0.437547360
1640844553.753600,-0.249200310,0.057782370,10.147539140,-0.171999660,0.094877210,0.435808360
1640844553.760460,0.076731210,0.198063600,10.386689190,-0.150823610,0.046801570,0.443923530
1640844553.762090,0.042834180,0.294447420,10.815458300,-0.091651080,0.029902170,0.451743660
1640844553.764200,-0.023801230,0.206847310,10.152671810,-0.066307210,0.005653500,0.457966390
1640844553.764950,-0.070416850,0.125596340,9.883340840,-0.109785810,-0.018447640,0.461004730
1640844553.766480,-0.318025230,-0.072339390,10.238143920,-0.137864100,0.049437590,0.454372230
1640844553.768950,-0.204601260,-0.095331360,10.208327290,-0.128367540,0.056999930,0.440786780
1640844553.769610,-0.161646800,0.161146450,10.418218610,-0.102670510,0.009956960,0.435687660
1640844553.773610,-0.230811370,0.217735350,10.616815570,-0.118882950,0.006952880,0.426742430
1640844553.775420,-0.065104190,0.313771400,10.112715720,-0.130090160,0.041627890,0.437678460
1640844553.778610,-0.226988900,0.339548770,10.501356120,-0.123864430,-0.008048120,0.434342120
1640844553.779290,-0.379737470,0.168922840,10.744278910,-0.112301130,-0.012965500,0.436879750
1640844553.783190,-0.062063660,0.219944580,9.596133230,-0.094199190,-0.012640660,0.448365540
1640844553.785440,-0.137981640,0.233046990,10.327643390,-0.112950820,0.002548100,0.432866900
1640844553.788230,-0.103243890,0.116922680,10.689975740,-0.165167500,0.089553000,0.442004290
1640844553.792980,0.097285650,0.069166580,10.280163760,-0.130580380,-0.018985570,0.435924590
1640844553.793740,-0.049841890,0.123586680,10.847437860,-0.078378630,-0.054673860,0.424052800
1640844553.794490,0.193886760,0.412172680,9.569196700,-0.131584700,0.048400470,0.426645670
1640844553.798260,0.231315400,0.559037390,9.879304890,-0.212134470,0.022196770,0.434005350
