timestamp,accel_x,accel_y,accel_z,gyro_x,gyro_y,gyro_z
1640842565410820096,0.238286420,0.455588250,9.844115260,-0.102588530,0.089609630,-0.006155670
1640842565411949824,0.116664090,0.148629740,9.794807430,-0.071515140,0.052839530,-0.014914570
1640842565415840000,-0.084858040,0.177195160,9.942240720,-0.066234170,0.051318110,-0.010925530
1640842565417569792,-0.075441140,0.408492890,9.240995410,-0.086727740,0.030028830,-0.003103910
1640842565421059840,-0.058806580,0.250465210,9.114903450,-0.153692070,0.083878640,-0.013592840
1640842565422370048,0.177107810,0.246347410,9.679090500,-0.109146540,0.168333960,-0.017863510
1640842565425859840,-0.030406040,0.055234730,10.111875530,-0.019519030,0.104118890,-0.029845540
1640842565426980096,-0.004862090,0.287922950,9.897563930,-0.014096500,-0.004878640,-0.016361480
1640842565437829888,0.129665360,0.205639930,9.162843700,-0.081153210,0.059449680,0.008261200
1640842565438390016,-0.040886950,-0.192936780,9.491651540,-0.135757030,0.121198620,0.002348420
1640842565438979840,-0.192163560,-0.267737300,10.168827060,-0.009185080,0.110356510,-0.008788710
1640842565439360000,0.008443900,-0.181518330,9.328258510,0.063681610,0.049284100,-0.032413010
1640842565440819968,-0.071822500,0.312418520,9.569987300,-0.009435420,0.059898210,-0.033475460
1640842565442070016,-0.101280340,0.467892500,9.609660150,-0.095610330,0.124216090,-0.006927550
1640842565445839872,-0.204593030,0.329981950,9.870594980,-0.090840470,0.043278930,-0.013275450
1640842565447079936,-0.185038920,0.563977300,9.818108560,0.033862890,0.049047170,-0.022855400
1640842565451119872,0.214212570,0.803369940,9.092990880,0.029453640,0.111016640,-0.019842390
1640842565452989696,-0.224012550,0.858519970,10.466636660,-0.051593780,0.118756280,-0.007590650
1640842565455879936,-0.000729340,0.713968810,9.824888230,-0.099231320,0.060959170,0.012795630
1640842565456969984,0.105295580,0.275171280,9.450568200,-0.062820320,-0.021414460,-0.001867120
1640842565460769792,-0.022134550,0.259874580,9.460799220,0.016112630,0.144875060,-0.024569040
1640842565461999872,0.081012200,0.443337290,9.689754490,-0.022143130,0.119534130,-0.019353630
1640842565465910016,-0.387205210,0.296826960,10.748973850,-0.089514240,0.059427320,0.005376340
1640842565467279872,0.209822740,0.499445440,9.108979230,-0.107707100,0.050593920,-0.006119910
1640842565470899712,0.139902010,0.514695170,9.654864310,-0.096705560,0.063748670,-0.019326810
1640842565472219904,0.033179070,0.750709530,9.573670390,-0.049301990,0.197380780,-0.009198490
1640842565475759872,0.194612350,0.831156310,9.733708380,-0.069461780,0.048352790,-0.005909800
1640842565476909824,-0.187611360,0.504037200,10.348291400,-0.086061680,0.088073330,0.025038420
1640842565480949760,0.151074260,0.488730850,8.915225030,-0.094942750,0.081215810,0.008498130
1640842565482060032,-0.173561810,0.324183430,9.986283300,-0.099585960,0.054880980,0.014853480
1640842565487249920,0.231678250,0.287868590,8.996729850,-0.122979280,0.214672090,0.026528540
1640842565487869952,0.455453340,-0.044073500,9.820838930,-0.091505050,0.146308560,-0.003199280
1640842565490759936,0.023787230,-0.188841060,10.660787580,-0.017052890,0.166161370,0.002290310
1640842565491989760,0.359979180,0.162264960,8.852004050,-0.016734000,0.017955900,0.002162160
1640842565495800064,-0.122397000,0.102748890,9.646341320,-0.113439570,0.050453850,0.007388000
1640842565497560064,0.019531240,0.225238050,8.901086810,-0.140668420,0.246636550,0.016652040
1640842565500999936,-0.114754450,0.008958970,9.962738040,-0.023327770,0.141806930,-0.009605290
1640842565502029824,-0.300039110,0.202624680,10.371505740,0.069852180,0.143250820,-0.000607970
1640842565505839872,0.071782890,0.515833620,8.985312460,0.028686230,0.084117080,0.019344690
1640842565506969856,-0.309201120,0.231140610,9.939088820,-0.106516490,0.114750880,0.031031670
1640842565510769920,-0.062554120,0.135817480,9.379688260,-0.088609760,0.167785600,0.039178140
1640842565512039936,0.038734340,-0.153928530,9.286348340,0.061640140,0.103318700,0.000523030
1640842565515980032,0.082766000,0.052822920,9.865844730,0.099281960,0.176879750,-0.010800360
1640842565516929792,0.028976780,0.375127700,9.876728060,0.024437910,0.153882800,0.018912560
1640842565520779776,-0.304628490,0.065294220,10.093495370,-0.064322340,0.032787020,0.022433700
1640842565521959936,-0.192168240,0.108300720,9.416390420,-0.008510050,0.053247800,0.018103420
1640842565525729792,-0.220096200,0.251990620,9.027511600,0.081406530,0.143343210,-0.002491470
1640842565526939904,-0.295810160,0.684892710,10.127219200,0.058479610,0.174908340,0.004336240
1640842565530929920,-0.218037770,0.954696660,10.189140320,-0.002931060,0.112569350,0.033506750
1640842565532399872,-0.066554850,0.815566900,9.645390510,-0.057242810,0.021359330,0.036098060
1640842565536599808,0.113306730,0.797725560,9.609700200,-0.010222200,0.101397940,0.034107270
1640842565537299968,-0.064488200,0.719456080,9.651987080,0.023218990,0.154744100,0.026962160
1640842565540769792,-0.123305760,0.619256440,10.303640370,0.006578860,0.065974900,0.030218070
1640842565541979904,0.082063820,0.509635980,9.607612610,-0.027625270,0.084306310,0.026904050
1640842565546219776,0.094669950,0.468118400,9.320028310,-0.083275150,0.075718770,0.030358140
1640842565547350016,0.066814230,0.495920330,9.890934940,-0.072181220,0.128981490,0.031928720
1640842565550819840,0.055723470,0.480687770,9.639735220,-0.070595740,0.128261760,0.021955370
1640842565553819904,-0.120995240,0.346544740,10.207978250,-0.030031800,0.053939230,0.022730230
1640842565555779840,-0.082658210,0.432605950,9.661062240,-0.003798310,0.103166720,0.018192830
1640842565556959744,-0.134393740,0.636586790,9.449837680,-0.098006430,0.042414670,0.035819410
1640842565560789760,-0.031374510,0.513742330,9.694667820,-0.130102050,0.121612850,0.054280460
1640842565562119936,0.261498660,0.229638410,9.356370930,-0.094977030,0.176265840,0.030221050
1640842565565979904,0.025179610,0.196056930,10.236242290,0.017045440,0.102624300,0.024896860
1640842565567020032,0.228666750,0.393344040,9.432263370,0.021912160,0.093971190,0.046625740
1640842565570849792,0.218016890,0.375105800,9.408598900,-0.129602850,0.061795120,0.057148940
1640842565571960064,0.048395910,0.100287970,9.641514780,-0.145958380,0.170870160,0.057818010
1640842565575739904,0.249108600,-0.151653380,9.344141010,-0.031518940,0.151839870,0.006563960
1640842565576959744,-0.224331480,-0.024461680,10.232416150,0.073674330,0.108046840,-0.012674930
1640842565581049856,-0.082255510,0.303007190,9.260224340,0.025919080,0.115868450,0.014586750
1640842565582029824,-0.324809040,-0.090180930,9.913100240,-0.098967560,0.057594480,0.012078880
1640842565585769984,-0.570061560,-0.141776110,9.587391850,-0.030735140,0.136299450,0.023108720
1640842565586939904,-0.045116030,0.051156970,8.952360150,0.054454810,0.058454280,0.013002760
1640842565590799872,-0.155641820,0.277537230,9.999931340,0.051361330,0.198948380,0.009319190
1640842565591970048,0.271787290,0.625543180,9.512349130,0.004045670,0.197108090,0.029577310
1640842565595879936,0.025343220,0.212430790,10.618627550,0.001637640,0.018146640,0.030399860
1640842565597430016,-0.002178960,0.311071520,9.273851390,0.060962140,0.071512150,0.027620790
1640842565602690048,0.038570080,0.452725950,8.957324980,0.057978930,0.048762550,0.000981990
1640842565603239936,-0.579392850,0.292146650,10.311462400,0.000739100,0.178949580,0.007784370
1640842565605739776,-0.271403490,0.440998700,9.451101300,0.009134410,0.092767180,0.009691720
1640842565606950144,-0.383059860,0.297577740,10.348430630,0.051212310,0.001046060,0.006093080
1640842565611320064,-0.113373950,0.704728780,9.394023900,0.038811570,0.164467100,0.020422040
1640842565612399872,-0.116291080,0.881130990,9.785279270,-0.019119680,0.055028500,0.014734270
1640842565615879936,-0.287335130,0.677612420,10.410569190,-0.052486360,0.083965060,0.030887130
1640842565617769984,0.265281620,0.712557910,8.881838800,0.014019010,0.057369470,0.025400520
1640842565620749824,-0.113714590,0.590746880,10.166733740,0.044094030,0.046336650,0.017979740
1640842565621959936,-0.045237520,0.788503530,9.701084140,-0.043663390,0.130978230,0.034269690
1640842565626220032,-0.052728350,0.577323910,9.720029830,-0.096106540,-0.002729890,0.030997400
1640842565626979840,-0.145145180,0.118293570,10.148830410,-0.057843320,0.079980490,0.042833380
1640842565630839808,0.225896340,0.344170480,9.192141530,0.023816530,0.127166550,0.016705700
1640842565632000000,-0.251349960,0.510044570,10.301076890,0.002130870,0.014291700,0.019769370
1640842565635820032,0.232876120,0.706901250,9.169556620,-0.123916570,0.068432090,0.041468440
1640842565636979712,0.284191280,0.402667280,9.146072390,-0.125296410,0.102402290,0.024880470
1640842565640780032,-0.004597770,0.078936910,10.414663310,-0.025551030,0.135582690,0.026421250
1640842565642799872,-0.019176550,0.285140010,9.910125730,0.089108930,0.042772300,0.020954010
1640842565646129920,-0.354240390,0.387865720,9.592327120,-0.017602740,-0.057658560,0.032845140
1640842565647009792,0.028716030,0.237682490,9.079667090,-0.163020210,0.097578760,0.053317850
1640842565650739968,-0.033625670,-0.174460770,9.474908830,-0.089830160,0.190140320,0.025039910
1640842565651969792,-0.054654140,-0.122389230,10.255211830,0.072377930,0.073941050,0.007653240
1640842565655729920,0.228740980,0.350572790,9.531183240,0.097018490,0.047750770,0.015448040
1640842565656969984,0.011765700,0.340337900,9.367426870,-0.064800690,0.041715800,0.033952300
1640842565661259776,-0.062315820,0.037012010,9.825925830,-0.101137170,0.067874790,0.054307280
1640842565662690048,-0.229201020,-0.221814800,9.387694360,0.041939320,0.075954200,0.015865270
1640842565666070016,-0.263280960,0.110935670,9.683192250,0.117811580,0.030526520,-0.005120040
1640842565666970112,-0.254422580,0.449814470,9.848736760,0.065757330,0.119365770,0.016206500
1640842565670779904,-0.364147960,0.394889300,9.819795610,-0.060555340,0.037626930,0.018590690
1640842565672000000,-0.252817300,0.365151380,9.936483380,-0.019760430,-0.012129550,0.024382770
1640842565676470016,-0.029300390,0.425202640,9.014710430,0.066375740,0.063408920,0.016643110
1640842565677049856,-0.001895630,0.653665010,9.820384030,0.062341990,0.080628690,0.007577240
1640842565680879872,-0.094916160,0.650773760,10.356626510,0.028885910,0.107042490,0.031858680
1640842565681999872,-0.029956140,0.332778130,9.812680240,-0.012266640,-0.057578100,0.030201680
1640842565685750016,-0.178466320,0.129443840,9.802920340,0.047835710,-0.034925340,0.031831860
1640842565686939904,-0.213318270,0.288970920,9.171368600,0.048553950,0.066952410,0.005654990
1640842565690949888,-0.502565860,0.502441530,10.159746170,-0.003114340,0.009979310,0.009347500
1640842565692000000,-0.310339870,0.471478430,9.967686650,0.005343560,0.021612650,0.020089750
1640842565696159744,0.111568950,0.686450540,9.393082620,-0.004898010,-0.013861060,0.008873640
1640842565696940032,-0.061497060,0.961787520,10.153670310,0.005993250,0.056272750,0.025184450
1640842565701040128,0.133353750,1.091840620,9.630007740,-0.036670260,0.009548660,0.025349850
1640842565702139904,0.036466740,0.797600390,10.011960030,-0.074370200,-0.055921080,0.036649410
1640842565707399936,0.091580260,0.350080280,9.470362660,0.003592670,0.045888130,0.040137770
1640842565707859968,0.000540710,0.205560360,9.734036450,0.032405560,-0.013390190,0.012166800
1640842565710789888,-0.215023380,0.296093340,10.005912780,-0.020919740,-0.000692900,0.033423300
1640842565712260096,0.342103210,0.226774930,8.979271890,-0.127097980,0.027294460,0.033402450
1640842565716589824,0.137893810,-0.137327100,10.165068630,-0.095964980,0.072419650,0.026082990
1640842565717020160,0.105831710,-0.002422200,9.801427840,0.051902240,0.083522500,0.016690790
1640842565720779776,0.040074740,0.372221590,9.752492900,0.066380200,-0.108161590,0.006362800
1640842565722050048,-0.085917140,0.575566050,9.309937480,-0.072005380,0.005917250,0.031444420
1640842565725750016,0.146386270,0.368550630,8.840947150,-0.124622900,0.092181590,0.021673740
1640842565726949888,-0.346335530,0.011819920,10.660033230,0.002951920,0.057366490,0.005897880
1640842565730899712,-0.075175120,0.348090440,9.512834550,0.116196300,0.040227180,0.008349120
1640842565732009984,-0.075053950,0.428942860,9.663830760,0.041817140,-0.072802630,0.005258620
1640842565736069888,-0.195492510,0.244252710,9.602432250,-0.090199700,0.079724200,0.037851920
1640842565738339840,0.211189270,-0.006681820,8.892574310,-0.047230720,0.038419670,0.009709600
1640842565740849920,-0.057016400,-0.108905120,10.191084860,0.062277920,0.024479630,-0.018946830
1640842565742019840,0.202964110,0.267394690,9.293857570,0.097589190,0.098589050,0.000369550
1640842565746119936,-0.125757690,0.136598650,10.249269490,0.034828490,-0.039231780,-0.005126000
1640842565746990080,-0.464480190,0.017118560,10.119170190,-0.011175870,-0.020259620,0.022837520
1640842565750749952,-0.247147750,0.081632900,8.887695310,0.056472420,-0.046433510,0.011669100
1640842565752039936,-0.654110970,0.152870030,10.056101800,0.076240300,0.019533930,-0.019092860
1640842565755820032,-0.309372510,0.768520300,9.555435180,0.044056780,0.083567220,-0.009824340
1640842565756989952,-0.148362870,0.772955060,9.959526060,0.022952260,-0.057116150,-0.008502600
1640842565760769792,0.101358610,0.871224880,9.883427620,-0.000664590,0.016047060,-0.000885130
1640842565762289920,0.384652200,1.109153270,9.358288760,0.018204750,0.011537970,0.002625580
1640842565766510080,-0.089122970,0.727218390,10.546604160,0.007456540,-0.020921230,0.000326340
1640842565767200000,-0.028807230,0.617627380,9.813475610,0.005199010,-0.029917060,0.022424750
1640842565771049984,-0.171383130,0.251741860,9.489305500,0.026020410,-0.084079820,0.009851160
1640842565772079872,-0.307114060,0.207060710,9.788334850,-0.019414720,0.019975010,-0.002068280
1640842565775800064,-0.128860520,0.496978700,9.417274480,-0.045618420,0.019411740,0.007043780
1640842565776979968,-0.134799630,0.261396350,10.087809560,-0.071865320,-0.029113890,0.001749400
1640842565780890112,0.169187130,0.477559950,9.855541230,-0.018729270,0.023466350,0.004465880
1640842565782449920,0.112037130,0.618779360,9.591015820,0.032316150,-0.022737680,0.000935790
1640842565786069760,-0.024180490,0.841761170,9.964876170,-0.056698920,-0.059525670,0.006781520
1640842565787049984,0.172432970,0.781997560,9.179758070,-0.122286400,0.012569130,0.023891030
1640842565790789888,0.105191580,0.107622060,9.529612540,-0.075018390,0.029259920,0.003784890
1640842565792019968,-0.096478010,0.052288540,10.287965770,0.066672270,0.029952830,-0.003384050
1640842565796709888,-0.038717430,0.249542580,9.297569270,0.042903420,-0.045228000,-0.000774860
1640842565797449728,-0.009147400,0.214225770,9.626713750,-0.128027810,-0.046770280,0.016303370
1640842565800959744,0.059386630,0.026418480,9.624482150,-0.139050200,0.106212500,0.015550850
1640842565802049792,0.094645720,-0.250908230,9.672371860,0.003941360,0.005584960,-0.014957790
1640842565805929984,-0.057426550,0.135941360,10.176404000,0.129504520,-0.028064850,-0.024271010
1640842565807099904,0.006887350,0.536712290,8.985630040,0.020258130,0.008368490,-0.008687380
1640842565811209984,-0.365710850,0.268881650,10.076278690,-0.123327990,-0.059588260,0.000491740
1640842565812399872,-0.473983320,-0.007990980,9.904215810,-0.034412740,0.016655030,0.006493930
1640842565815820032,-0.145774630,0.043495780,9.082545280,0.091387330,-0.061655050,-0.044906140
1640842565816959744,-0.249434050,0.513994280,10.213102340,0.099216400,0.039631130,-0.029419370
1640842565820839936,0.059200550,0.854808630,9.564087870,-0.046375410,0.074814270,-0.004690890
1640842565821959936,-0.028019940,0.509492280,10.332348820,-0.099308790,-0.115127870,0.000496210
1640842565825739776,0.112352190,0.478567840,9.545949940,0.018496810,-0.035169710,-0.006204840
1640842565826989824,0.197532400,0.533750770,9.049002650,0.060497230,-0.021159650,-0.035226350
1640842565830899968,-0.440199080,0.480037510,10.766426090,0.032265490,0.010879340,-0.015030800
1640842565832130048,-0.209474240,0.448152600,9.763521190,-0.041738150,-0.036683680,-0.006209310
1640842565836249856,-0.259102200,0.158145010,9.901120190,-0.052951290,-0.146245970,-0.007040800
1640842565838150144,-0.210887570,0.271291790,9.499269490,0.002931060,0.029909610,-0.016641610
1640842565840750080,-0.065983850,0.697679520,9.502683640,-0.012734530,-0.002966820,-0.037842990
1640842565841969920,-0.363038450,0.707030950,10.634284020,-0.042077890,-0.047665830,-0.007905070
1640842565845850112,0.281167830,0.829373840,9.311928750,-0.066857050,-0.041486330,-0.008332730
1640842565846969856,0.108628260,0.735670800,9.814706800,-0.060319900,-0.066918120,-0.008666510
1640842565851209984,0.089123010,0.764277400,9.694869040,-0.051780050,0.010199840,-0.000514090
1640842565852000000,0.203258470,0.557560920,9.601699830,-0.074824690,-0.041115290,-0.006248060
1640842565855749888,-0.191785530,-0.032792520,10.384422300,-0.050264600,-0.034156450,0.003199280
1640842565856959744,0.051721380,-0.133453160,9.410533910,0.006359820,-0.033684070,-0.008107720
1640842565860790016,-0.290094380,-0.016985430,9.730465890,-0.033514200,-0.096066300,-0.023767350
1640842565862149888,0.072484370,0.160293520,9.055508610,-0.129619240,0.018145150,-0.003290180
1640842565868569856,0.203399120,0.089914200,9.763592720,-0.105379530,0.057899960,-0.030861790
1640842565869400064,-0.098555540,0.005195030,10.561342240,0.016924740,-0.005687770,-0.033624470
1640842565870919936,0.188179660,0.316806380,9.497705460,0.104917590,-0.106327240,-0.017090140
1640842565872019968,-0.223098670,0.424407360,9.554221150,-0.014552470,-0.081114470,-0.010076170
1640842565875709952,-0.221195520,0.343136490,9.247032170,-0.130894750,0.022864340,0.015415250
1640842565877019904,-0.268626360,-0.026042360,9.839144710,-0.032681230,-0.024874510,-0.029362740
1640842565880930048,-0.254294040,0.029666030,9.782019620,0.090977550,-0.027051570,-0.038722160
1640842565882139904,0.223096340,0.460464750,9.323580740,0.104254500,-0.026714810,-0.026495760
1640842565885769728,-0.148927880,0.427744810,10.377194400,-0.052984070,0.004363060,-0.027632720
1640842565886999808,0.007077340,0.335862640,9.813986780,-0.113600510,-0.063994530,-0.007338820
1640842565890769920,-0.000244160,-0.097168940,9.568542480,0.049528490,-0.101394970,-0.026948750
1640842565892000000,-0.089941290,0.121352170,9.554147720,0.131188300,0.007416310,-0.058250110
1640842565895879936,-0.254199420,0.625017400,9.959504130,0.082178400,-0.017760690,-0.025899710
1640842565900489728,-0.416231240,0.503783520,10.194377900,-0.070489940,-0.090666120,0.001449880
1640842565901600000,-0.062459830,0.467368630,9.550911900,-0.082260370,-0.072930760,-0.000895560
1640842565902259712,0.009436180,0.449441190,9.646737100,0.064665080,0.019331280,-0.019417700
1640842565905769728,-0.215159540,0.856371580,10.504173280,0.074253980,-0.016450880,-0.031377380
1640842565907019776,0.066167420,1.139288660,9.733716010,-0.014699990,-0.088337050,0.002942980
1640842565910739968,0.283015490,0.640148040,9.243019100,-0.104257460,-0.065672410,-0.001764300
1640842565912199936,0.139394480,0.508927820,9.954853060,-0.060381000,0.023409730,-0.017523770
1640842565916079872,0.035678580,0.380109760,9.759471890,0.038714710,-0.012139980,-0.024001300
1640842565918099968,-0.212852610,0.274093300,10.324026110,0.000411270,-0.137923660,-0.017248100
1640842565920749824,-0.038014610,0.252004030,9.469226840,-0.050555170,-0.021375720,0.002923610
1640842565922019840,0.139856060,0.081544200,9.218240740,-0.083071000,-0.012925270,-0.000542400
1640842565925720064,0.012500110,0.211938430,10.463811870,-0.048008560,0.011992460,-0.013421480
1640842565926980096,0.459596870,0.466345340,9.169220920,-0.011843440,0.034865730,-0.011959670
1640842565931109888,0.299765590,0.259202120,10.165542600,-0.018909570,-0.063678640,-0.020110610
1640842565932250112,-0.059140660,0.300875280,10.058290480,0.007243450,0.038366010,-0.002373760
1640842565937329920,0.081239260,0.281047880,8.895309450,-0.015877190,-0.099593400,-0.007556380
1640842565937959936,-0.329549550,0.121488900,10.176134110,-0.050766770,-0.032672290,-0.013470650
1640842565940780032,0.049920980,0.192559880,9.025003430,-0.039677330,0.153808300,-0.017648940
1640842565942040064,-0.047350340,-0.232609820,10.448857310,0.047495960,-0.032392150,-0.030362610
1640842565946149888,-0.175082760,0.126087220,10.260583880,0.099682810,0.020273030,-0.014625490
1640842565947099904,0.337446150,0.450587780,8.551491740,-0.000131130,-0.075507150,-0.025163590
1640842565951049984,-0.133154750,0.035309850,10.258785250,-0.070784990,0.006866460,-0.007413330
1640842565952160000,0.084904020,0.167182000,9.310823440,0.017543140,0.120499730,-0.026953220
1640842565955749888,-0.022784140,0.065441600,10.095183370,0.140681880,-0.082311040,-0.039999190
1640842565956950016,-0.250042650,0.484139410,10.268846510,0.099533800,0.032068790,-0.015158950
1640842565960739840,-0.008290590,0.775598290,9.176200870,-0.043165680,-0.004385410,-0.017844140
1640842565962080000,-0.554123160,0.197962210,10.542907710,-0.061680390,-0.043685740,-0.007320940
1640842565969379840,-0.127542720,0.420824680,9.253704070,0.064726160,0.031429520,-0.029113890
1640842565969939968,-0.025254970,0.601083340,9.503571510,0.116308020,-0.007416310,-0.054241710
1640842565970899712,-0.116426870,0.901186820,10.321189880,0.004990400,0.079929840,-0.011025370
1640842565972009984,0.194710750,0.918454650,9.791192050,-0.088113530,-0.005762280,-0.011985000
1640842565975770112,0.053564590,0.324525480,10.050935750,-0.047424430,-0.061972440,-0.011791290
1640842565976979968,0.136809830,0.411643360,9.562396050,0.068587070,0.028802450,-0.020897390
1640842565981329920,-0.139355260,0.606714960,9.711997030,0.060857840,0.012546780,-0.034715240
1640842565982099968,-0.191266640,0.557296570,10.065223690,-0.077271460,-0.014823680,0.000865760
1640842565985750016,0.095810080,0.509134170,9.507135390,-0.113970050,0.028774140,0.000007450
1640842565986979840,0.146994410,0.230723440,9.676314350,-0.053410230,0.046497590,-0.028014180
1640842565990739712,0.197584140,0.444317190,10.033902170,0.047744810,0.038762390,-0.025531650
1640842565991999744,-0.032395950,0.503052950,9.793620110,0.015266240,0.005760790,-0.030696390
1640842565995859968,0.035100920,0.291956160,9.690948490,-0.094217070,-0.019088390,-0.005134940
1640842565997419776,-0.081979110,0.044501160,9.703223230,-0.059938420,0.043198460,-0.000129640
1640842566000919808,-0.061787590,0.008697830,9.334659580,-0.007648770,0.042940680,-0.031094260
1640842566003099904,0.050681960,0.157881500,9.945789340,0.023432080,0.049823520,-0.017212330
1640842566005719808,-0.031345490,0.037255480,9.836947440,0.002071260,0.088407110,-0.008997320
1640842566006990080,-0.050767160,-0.175400850,9.941082000,-0.005523860,-0.011387470,-0.016364460
1640842566010860032,-0.128576560,-0.045027320,9.651531220,0.052531070,-0.003972650,-0.018261370
1640842566012009984,0.017488150,0.245335980,8.958246230,0.000333790,0.042328240,-0.038218500
1640842566015859968,-0.109973690,0.231113520,10.100134850,-0.009141860,0.100928540,-0.040811300
1640842566018199808,-0.165995430,0.246592580,10.101774220,0.053688880,0.071461490,-0.044894210
1640842566020759808,-0.132419630,0.284202990,9.923167230,0.106963520,-0.074860460,-0.032936040
1640842566021959936,-0.006394210,0.459605870,9.229631420,0.076232850,0.040183970,-0.016684830
1640842566025869824,-0.040190690,0.562213120,9.658481600,-0.033316020,0.078122330,-0.018650300
1640842566027379968,-0.273636640,0.349738240,10.606279370,-0.006076690,0.066429380,-0.014263390
1640842566031159808,0.135542330,0.254371080,9.515920640,0.094088920,-0.006686150,-0.032562020
1640842566032029952,-0.039883880,0.548094150,9.950001720,0.104653840,-0.011466440,-0.049087410
1640842566035810048,0.134074110,0.759383320,9.380703930,0.005270540,0.117656590,-0.028803950
1640842566036999936,-0.087358560,0.599841480,10.230952260,-0.087435570,0.002276900,-0.030006470
1640842566040789760,-0.345819770,0.398384090,10.384860040,-0.008510050,0.028069320,-0.021934510
1640842566042189824,0.156331640,0.374770910,9.009645460,0.099770750,-0.007179380,-0.032085180
1640842566045779968,-0.381141840,0.748134080,10.293876650,0.055833170,0.034314400,-0.025002660
1640842566047409920,0.085123170,0.931147930,9.204293250,-0.093153130,0.105854870,0.017783050
1640842566051059968,0.221460430,0.293847560,10.108798030,-0.121533870,0.008285050,-0.007931890
1640842566052009728,-0.038542930,0.192945060,10.327211380,0.033491850,0.107599790,-0.016796590
1640842566055709952,0.333039370,0.364788710,9.301940920,0.105205180,-0.009512900,-0.035300850
1640842566057029888,-0.282365230,0.389029150,10.312068940,-0.016695260,-0.018456580,-0.029738240
1640842566060760064,0.186599060,0.492087930,8.626325610,-0.142139200,0.100994120,-0.011904540
1640842566062009856,0.147278980,-0.029259050,9.795555110,-0.084194550,0.059650840,-0.033229590
1640842566065879808,-0.122911050,0.123608070,10.335704800,0.068177280,0.134822730,-0.030761960
1640842566066989824,0.253312590,0.434963580,9.400153160,0.089435290,0.001470740,-0.029675670
1640842566070819840,-0.256120890,0.083834220,10.419891360,-0.034515560,0.013482570,-0.000974540
1640842566071980032,-0.025612740,0.184354590,9.062947270,-0.080618250,0.091353040,0.001971420
1640842566075749888,-0.117733970,-0.124551240,9.567533490,0.011119250,0.016558170,-0.037559870
1640842566076959744,-0.153176560,0.110459660,10.002284050,0.062237690,0.126943010,-0.047922130
1640842566080859904,0.007156900,0.482682140,9.697094920,0.066748270,0.083164870,-0.044612590
1640842566082029824,-0.352371990,0.179103630,10.514039040,-0.003063680,0.001297890,-0.033073130
1640842566085749760,-0.109563190,0.413808550,9.506234170,-0.000849370,0.014711920,-0.023001430
1640842566087009792,-0.055141110,0.389899370,9.261718750,0.021627550,0.046011810,-0.033055250
1640842566090819840,-0.061093820,0.432801250,10.231673240,0.019948190,0.133629140,-0.024130940
1640842566092019968,0.047224100,0.623913110,10.030808450,0.059205290,0.090807680,-0.007881220
1640842566096109824,0.072538330,0.386471360,9.957506180,0.031204520,-0.024235250,-0.026591120
1640842566097159936,0.077762630,0.624118270,9.712610240,-0.007389490,0.050170720,-0.023731590
1640842566101859840,-0.211453770,0.584873260,9.663413050,-0.036561490,0.080123540,-0.037924950
1640842566102629888,-0.341352880,0.380311040,10.439220430,-0.026933850,0.018848480,-0.031192600
1640842566105870080,-0.179597850,0.411595880,9.842756270,0.050415090,0.049993390,-0.023943180
1640842566107190016,-0.040826710,0.466058640,9.536788940,0.023038690,0.045962630,-0.029349330
1640842566110779904,0.037844430,0.663829150,10.114780430,-0.046224880,0.095979860,-0.009223820
1640842566112329984,0.061698340,0.501937390,9.677474020,-0.092628590,0.084210930,-0.004377960
1640842566116899840,0.155589860,0.163765590,10.017947200,-0.026954710,-0.002914670,-0.008666520
1640842566117440000,0.193114220,0.197737160,9.578342440,0.084248190,0.086987020,-0.016319750
1640842566120760064,0.112870570,0.501182790,9.414889340,-0.000718240,0.044673680,-0.028789040
1640842566122129920,0.060639380,0.398995550,10.074893000,-0.101403910,0.107507410,0.005322700
1640842566125769728,0.106093930,-0.013215140,9.751144410,-0.082939860,0.135090950,-0.023995340
1640842566126979840,-0.212157150,-0.080202100,10.437369350,0.058783590,0.011014940,-0.033955270
1640842566130880000,-0.132825720,0.176411420,9.396784780,0.121355060,0.055982180,-0.024725500
1640842566132039936,-0.037754590,0.324786250,9.045229910,-0.040721890,0.053642690,-0.026804210
1640842566135789824,-0.218840660,0.209022720,10.018207550,-0.098109250,0.165361170,-0.006107990
1640842566136999936,0.119308260,0.032751650,9.677258490,-0.001250210,0.115092100,-0.017589330
1640842566140760064,-0.176495540,0.058619560,10.440402030,0.128158940,0.011774900,-0.020006300
1640842566142030080,-0.069812330,0.421013000,9.408367160,0.106084350,0.070048850,-0.012159350
1640842566146149888,-0.151473190,0.267792670,9.702752110,-0.045649710,0.038053100,-0.001081820
1640842566147399936,-0.461871450,0.002140780,10.142766000,-0.019893050,0.119219740,-0.001074370
1640842566150830080,0.106372480,0.228941100,9.250856400,0.074012580,0.054092710,-0.039406120
1640842566151990016,-0.133723050,0.551285150,10.329929350,0.087557730,0.092200940,-0.036947430
1640842566155759872,0.108099330,0.966537480,9.582325940,0.008714200,0.134232660,-0.023294990
1640842566157009920,-0.012399440,0.715578790,10.323053360,-0.053048150,-0.015738610,-0.021386150
1640842566160759808,-0.250024260,0.502168770,9.897743230,0.016435980,0.074075180,-0.002837180
1640842566162020096,0.050619220,0.633051690,9.250807760,0.066432360,0.023965540,-0.032112010
1640842566165900032,-0.523915170,0.607578160,10.626147270,0.004051630,0.095766790,-0.006118420
1640842566168160000,-0.058357530,0.562532420,9.347436900,-0.067134210,0.088931640,0.020709640
1640842566170889728,-0.028812550,0.156799670,10.336833000,-0.042504080,-0.003132220,-0.007948280
1640842566172389888,0.027140070,0.242198440,9.717319490,0.020356480,0.148937110,-0.015981500
1640842566175760128,0.183326020,0.612648130,9.462365150,0.011663140,0.018204750,-0.026270750
1640842566176999680,-0.165083010,0.463256390,10.582494740,-0.071986030,0.058451290,0.000569220
1640842566180940032,0.322661310,0.444440130,8.993981360,-0.083798180,0.102347140,0.008939210
1640842566182030080,-0.027687120,0.211782590,10.207201960,0.003357230,0.031518940,-0.013388690
1640842566185849856,-0.143499200,0.369206520,10.005796430,0.023131070,0.136268140,-0.008325280
1640842566187680000,-0.089055100,0.478683680,9.422630310,-0.025904180,0.008580090,0.004693870
1640842566190759936,-0.334347370,-0.076934730,10.199254990,-0.062383720,0.063680110,0.024062400
1640842566192019968,0.018505710,-0.062029340,9.317392350,-0.003275280,0.144129980,-0.000113250
1640842566196260096,-0.095634010,0.045433210,9.740940090,0.045804680,0.039501490,-0.017872450
1640842566197110016,0.153596880,0.226572360,9.779574390,-0.002710520,0.136224940,-0.009982290
1640842566203699712,0.129150580,0.108592600,9.893716810,-0.019060080,0.119854520,-0.016653540
1640842566204249856,-0.315234240,-0.321529420,10.437130930,0.053180760,0.016917290,-0.011257830
1640842566205709824,-0.162511450,-0.082894100,9.372505190,0.122600820,-0.000874700,-0.018762050
1640842566206990080,-0.311310560,0.131822080,8.998276710,0.058010220,0.073249640,-0.014323000
1640842566210769920,-0.312407170,0.225179760,9.982313160,-0.024817890,0.168231140,-0.009112060
1640842566212299776,-0.298992690,0.105373280,10.362853050,0.041523570,0.096093110,-0.022260840
1640842566217799936,-0.226954090,0.215048510,9.880077360,0.132516040,-0.041091450,-0.020860140
1640842566219319808,0.013518760,0.588329550,9.347081180,0.133965920,0.041860340,-0.019563730
1640842566220759808,-0.091456340,0.488360080,9.502157210,0.000983480,0.135527520,-0.017985700
1640842566222009856,-0.301380280,0.217532870,10.509732250,0.004720690,0.048168000,0.001174210
1640842566225730048,-0.102499430,-0.014119980,9.802211760,0.136534880,0.009144840,-0.006575880
1640842566226959872,-0.137882230,0.202145380,9.463839530,0.151087360,0.003987550,-0.023508070
1640842566230840064,-0.371069880,0.500822840,10.036347390,0.074772540,0.067856920,-0.016921760
1640842566232039936,-0.348702580,0.401968000,9.946702000,-0.028721990,0.048094990,-0.035175680
1640842566237829888,-0.325347160,0.426827880,10.059721950,0.035643580,-0.026015940,-0.033380090
1640842566238409984,-0.045312030,0.776618180,9.488735200,0.124034290,0.043576960,-0.038957600
1640842566240729856,-0.057670350,1.095276000,9.920945170,0.045560300,0.071731210,-0.032651420
1640842566242019840,-0.285513940,1.071939950,10.365650180,-0.024507940,0.012476740,0.002118950
1640842566246139904,-0.071881860,0.585778470,9.895897870,-0.039453810,-0.046174230,0.002335010
1640842566247389952,-0.212365760,0.250342850,9.951290130,0.056771930,0.006611650,-0.004453960
1640842566253039872,-0.161548300,0.411391590,9.587325100,0.079359120,0.029489400,-0.015816090
1640842566253659904,-0.117492740,0.574270730,10.124940870,-0.064076490,0.006078180,-0.004959110
1640842566255719936,0.135296520,0.551966730,9.664826390,-0.129267570,0.067676600,0.005735460
1640842566256989952,0.335339780,0.266951920,9.883576390,-0.062829250,0.013916190,-0.032360850
1640842566260749824,-0.028286090,0.418157190,10.478465080,0.061574590,0.047607720,-0.042177750
1640842566262060032,0.033668770,0.784707550,9.262504580,0.027224420,-0.047285850,-0.021347400
1640842566267239936,-0.142952230,0.680023730,10.018013000,-0.136078910,-0.048212710,0.014021990
1640842566271279872,-0.034134940,0.326974810,9.454150200,-0.149077180,0.163957490,0.030846890
1640842566271699968,-0.038404570,-0.044538700,10.079535480,-0.018501280,0.023506580,-0.008587540
1640842566272079872,-0.341701600,0.073135470,10.736956600,0.098524970,0.011475380,-0.011196730
1640842566275719936,0.196941570,0.350336640,8.615982060,-0.011800230,0.003604590,-0.004538890
1640842566276979968,0.064812210,0.015500550,9.924425130,-0.142262890,0.012823940,0.009357930
1640842566282860032,0.252383350,-0.014900960,9.460397720,-0.086280700,0.196856280,-0.003664200
1640842566283660032,0.417127940,-0.057215260,9.720460890,0.043797500,0.004482270,-0.030335790
1640842566286469888,-0.188607770,0.091969930,10.852177620,0.111167130,0.042544300,-0.012789670
1640842566289639936,0.008587640,0.278210460,9.176070210,-0.001053510,0.027135010,-0.006838140
1640842566290749952,-0.540497600,-0.313631740,10.099007610,-0.054743880,-0.041981030,0.009728970
1640842566292019968,-0.363585260,-0.186301320,9.127393720,0.030089910,0.110279030,-0.009015200
1640842566295790080,-0.069186870,0.131217630,9.263841630,0.080783670,0.063645840,-0.042670970
1640842566297560064,-0.325079560,0.220394600,10.596313480,0.071607520,0.123865900,-0.008630750
1640842566300979968,0.121041200,0.301172640,9.824504850,0.044819720,0.041237470,-0.013728440
1640842566302500096,-0.177040640,0.029104820,10.126395230,0.072482240,-0.052656230,-0.011746580
1640842566305779968,0.056517470,0.320155980,9.203861240,0.089122360,0.030766430,-0.008746980
1640842566306989824,-0.034084900,0.299162980,9.527899740,0.050932170,0.085993110,-0.022713840
1640842566310729984,-0.317776830,0.070155630,10.348876950,0.062550610,0.095844270,-0.002631550
1640842566312039936,-0.095903910,0.117637240,9.958825110,0.142316540,-0.016815960,-0.005088750
1640842566316160000,-0.431892280,0.192511280,9.844613080,0.121420630,-0.043685730,-0.023859740
1640842566317220096,-0.226103280,0.642031310,9.157088280,0.036996600,0.025735800,-0.022275750
1640842566320740096,-0.479309830,0.608175870,10.186420440,-0.001244250,0.047121950,-0.033392020
1640842566322099968,-0.279576240,0.604095340,10.203695300,0.049300500,0.047262020,-0.030958650
1640842566325769984,0.042072660,0.703534660,10.023997310,0.159640640,-0.018180910,-0.019770860
1640842566326989824,-0.295851350,0.724114950,10.286436080,0.100828710,-0.001151860,-0.021730370
1640842566331059968,-0.053555150,0.943252620,9.379217150,-0.034709270,-0.032049410,0.002166630
1640842566332640000,-0.241808670,0.278698830,9.979475020,-0.038912890,-0.054994230,0.017508860
1640842566337979904,-0.050442620,0.006098770,9.665308950,0.066949430,0.048556920,-0.009760260
1640842566338660096,0.183353290,0.337095530,9.688982010,0.153838110,0.001879040,-0.026901070
1640842566340780032,-0.146691890,0.572610260,10.504553790,0.019714240,-0.007556380,-0.012944640
1640842566342080000,0.232634110,0.789749260,9.468391420,-0.118410590,-0.007237490,0.008389350
1640842566346159872,-0.077888320,0.154360830,10.078887940,-0.058101130,-0.028002270,0.001999740
1640842566347820032,-0.353311060,0.118413630,10.173367500,0.118067850,0.007346270,-0.008669490
1640842566350800128,-0.201524120,0.451091440,9.071324350,0.166891500,-0.072270620,-0.016556680
1640842566352079872,-0.259264800,0.503429350,9.498781200,-0.036165120,-0.011458990,0.013855100
1640842566355769856,0.024191950,0.336957960,9.847443580,-0.144615740,0.130298730,0.048616520
1640842566356999936,0.034916870,-0.401789220,10.375471120,0.004629790,0.026391450,0.012288990
1640842566360819712,-0.028580130,-0.181894420,10.514519690,0.212536770,-0.093255940,-0.010094040
1640842566362560000,0.294769610,0.436250450,8.759459500,0.155718640,-0.041227040,-0.012764340
1640842566365909760,0.300103070,0.339369390,9.056527140,-0.109301530,0.053249310,0.008493660
1640842566368719872,-0.022316540,0.084740150,10.385458950,-0.087961560,0.128081440,0.022895640
1640842566370729984,-0.010780660,-0.335973440,10.004727360,0.140865160,-0.011496250,-0.021624570
1640842566372099840,-0.334107280,0.125698750,10.128727910,0.273312660,-0.133389230,-0.030960140
1640842566375749888,-0.386985450,0.669881220,8.941507340,0.091806050,0.001339610,0.012983380
1640842566377059840,-0.296579300,0.180216970,9.292847630,-0.129257140,0.060418250,0.009644030
1640842566380819968,-0.443485560,-0.061528000,10.559743880,0.012943150,0.071886190,0.005324190
1640842566382560000,0.092214930,0.124538350,9.571550370,0.221993030,-0.026212640,-0.022211670
1640842566386279936,0.045444860,0.376193850,9.925425530,0.230000900,-0.038254260,-0.018335880
1640842566387019776,-0.131232160,0.580871400,9.637953760,0.038321320,0.024919210,0.002594290
1640842566390769920,-0.176834430,0.098720880,9.769380570,-0.055308650,-0.062224280,0.003276770
1640842566392069888,-0.134054080,-0.158952210,9.687537190,0.107771160,-0.014686590,-0.011621420
1640842566395879936,0.077043060,0.282356260,9.404578210,0.212852670,0.015980010,-0.027972460
1640842566397039872,-0.331880750,0.566847150,10.507987020,0.145460680,0.026339300,-0.013805930
1640842566402789888,-0.263182820,0.608371970,9.912088390,0.013567510,-0.072442000,0.004214050
1640842566403419904,-0.325273330,0.446087480,9.829611780,0.001595910,-0.133377330,-0.003755090
1640842566405750016,-0.187908780,0.511391580,9.142553330,0.109283620,0.034672030,-0.022932890
1640842566406999808,-0.151124520,0.813277240,9.951150890,0.119121370,0.005573030,-0.030033290
1640842566411299840,-0.490624730,0.842738870,10.921113010,0.066822770,-0.006280840,0.000189240
1640842566412160000,-0.000879610,0.573491690,9.418316840,0.023272640,-0.123275820,0.014328960
1640842566415859968,-0.329275940,0.335873900,10.134926800,0.021283330,-0.134992610,-0.001274050
1640842566417039872,-0.088129160,0.604940470,9.055950160,0.044073170,0.041323900,-0.006534160
1640842566420719872,-0.018233440,0.561738310,10.086790080,0.013729930,-0.078782450,-0.005814430
1640842566422040064,-0.136344810,0.685650830,10.634614940,-0.001958010,0.004979970,0.015124680
1640842566425799936,0.451683730,0.684883180,9.175409320,-0.016003850,-0.075829030,0.000426170
1640842566427170048,-0.216687470,0.433417260,10.720792770,-0.007249410,-0.101622950,-0.011479850
1640842566431150080,-0.208483920,0.820893230,9.319443700,-0.022582710,-0.038604440,-0.007830560
1640842566432449792,-0.235465200,0.497275770,9.793182370,-0.068576640,-0.163593890,0.007288160
1640842566437189888,-0.359831600,0.308091940,10.108391760,-0.035722560,0.019551820,0.024548180
1640842566437629952,0.122831400,0.459863720,9.300301550,-0.019010900,-0.018069150,-0.009298320
1640842566440739840,-0.147554250,0.263245970,10.880476000,-0.027158860,-0.081512330,0.004659590
1640842566442179840,0.145354690,0.422347520,9.562470440,-0.060360130,-0.023032730,0.028693680
1640842566445779968,0.197957460,0.005168750,9.701964380,-0.066737830,-0.127224620,0.015188750
1640842566447069952,0.013934680,-0.074366550,9.837847710,-0.000125170,-0.014904140,0.020760300
1640842566450879744,0.365874350,0.317787890,8.838438030,-0.009040540,-0.041526560,-0.003097950
1640842566452940032,-0.015242360,0.221135800,10.388607980,-0.054755810,-0.014570360,0.002899770
1640842566455770112,0.073266960,0.130355540,10.011240010,-0.047509380,0.025409470,0.015495720
1640842566457100032,-0.298900960,-0.104929860,10.204699520,0.036397580,-0.136058050,-0.008720160
1640842566460739840,-0.385959210,0.141962480,9.527547840,0.076141960,-0.079016370,0.000476840
1640842566462019840,-0.142451660,0.515000820,8.786673550,-0.032924110,-0.036653880,0.002287330
1640842566468469760,-0.433985080,0.283669110,10.091885570,-0.100195430,0.041627900,0.004889070
1640842566469600000,0.029964470,0.058369080,9.875824930,0.017052890,-0.005151330,-0.005538760
1640842566471319808,-0.196866240,-0.067811510,10.384405140,0.154149530,-0.140792180,-0.003430250
1640842566472450048,-0.064267660,0.169874130,9.404858590,0.105153020,-0.078523170,0.013066830
1640842566475960064,0.008432840,0.109746990,9.391875270,-0.032863020,-0.055857010,0.016488140
1640842566476999936,-0.321072730,-0.190250070,10.278444290,-0.058618200,-0.003375110,0.007741150
1640842566481169920,0.210522400,0.020471580,9.439622880,0.099475700,-0.044190890,-0.019419200
1640842566482359808,-0.118684310,0.280588950,10.139398570,0.170591490,-0.095345080,-0.029200320
1640842566485799936,-0.226974770,0.836134490,9.739534380,0.049620870,-0.033342840,-0.006440280
1640842566487030016,-0.339322600,0.723384200,9.770505910,-0.050218410,-0.138869900,-0.003227590
1640842566490899968,-0.460527090,0.409289180,9.895641330,-0.025561450,-0.096587840,-0.002962350
1640842566492100096,-0.086764060,0.681783260,9.382625580,0.113117690,-0.017678740,-0.025111440
1640842566495739904,-0.402330340,0.816517710,10.626259800,0.086057180,-0.070124860,-0.033271310
1640842566497009920,-0.188565970,0.966444250,10.109680180,-0.056506700,-0.112198320,0.000318880
1640842566500869888,0.067190860,0.530949950,9.461257930,-0.084221370,-0.143529470,0.005316730
1640842566502159872,0.041772420,0.199752090,9.891529080,-0.013345480,-0.055013600,-0.011834500
1640842566506009856,0.188395530,0.564091150,9.674260140,0.058400630,-0.035731490,-0.023117660
1640842566507619840,0.079529670,0.641309320,10.208024020,-0.031854220,-0.127288700,-0.007899110
1640842566510779904,0.406218890,0.644217730,9.841216090,-0.145390640,-0.047186010,0.023852290
1640842566512079872,0.182102800,0.297740160,9.800558090,-0.082142660,-0.045259300,-0.002111490
1640842566515800064,-0.241213830,0.398061190,10.387250900,-0.000087920,-0.125314300,-0.029544540
1640842566517079808,-0.217869040,0.790703480,9.408731460,-0.011163950,-0.103363380,-0.009812410
1640842566520759808,-0.366334970,0.573217210,9.414398190,-0.135689940,-0.094489760,0.004483760
1640842566522129920,-0.125870180,0.390395250,9.980760570,-0.147421670,0.006544590,0.011433660
1640842566525789952,0.076714550,0.211066660,9.696064950,-0.046299410,-0.007541480,-0.012463330
1640842566527020032,0.156089530,0.315802570,10.157909390,-0.018101930,-0.106452410,-0.015586610
1640842566531100160,0.354400010,0.212841230,9.855428700,-0.054484620,-0.035482650,0.019872190
1640842566532290048,0.196731120,-0.297343790,9.600621220,-0.111481530,-0.060759480,0.013320150
1640842566537449728,0.030141160,-0.448806430,9.993000030,-0.014814740,-0.087785720,0.011131170
1640842566537969920,0.126309830,-0.252854080,9.016399380,0.025738780,-0.039581950,-0.014932450
1640842566540859904,-0.026329640,0.176822020,9.750827790,-0.056704890,-0.030435630,-0.024938590
1640842566542059776,-0.280206320,0.122813020,10.390797620,-0.063131750,0.024026630,-0.002150240
1640842566546149888,-0.333772960,-0.048349470,9.991483690,0.001250210,-0.119934980,-0.027988850
1640842566547419904,-0.446694490,0.424004080,9.860720630,0.091773260,-0.126555530,-0.013141330
1640842566550799872,-0.135761500,0.806660000,8.878161430,-0.013151760,0.005714600,0.000825520
1640842566552179712,-0.219535860,0.668239470,10.216377260,-0.124078990,0.013525780,-0.003710390
1640842566555779840,-0.284665670,0.322922170,10.586732860,-0.008681420,-0.023648140,0.007504230
1640842566556999936,0.112035580,0.055413850,9.696880340,0.113421680,-0.189749940,-0.012914840
1640842566560740096,-0.071833930,0.242990700,9.691169740,0.091132520,-0.064569720,-0.011800230
1640842566562099968,0.002985150,0.594926890,9.387768750,-0.096720440,-0.000539420,0.002807380
1640842566565819904,-0.152372360,0.194828570,10.657086370,-0.161781920,-0.081193450,0.014930960
1640842566567099904,0.133407790,0.186630700,9.722269060,0.006458160,-0.028018660,-0.001780690
1640842566570960128,0.177238810,0.529218670,9.876493450,0.111465160,-0.115627070,-0.019203130
1640842566572349952,-0.212568090,0.911678190,10.056511880,0.002466140,-0.008241840,-0.002026560
1640842566575739904,-0.082043860,1.099642040,9.322751050,-0.166541320,-0.097803780,0.014925000
1640842566577029888,-0.402983010,0.397808370,10.647604940,-0.157229600,-0.097489360,0.037455560
1640842566580859904,-0.097543970,0.182996060,9.340858460,0.029534110,0.020173190,-0.001652540
1640842566582059776,-0.196005900,0.505636750,10.027392390,0.084806980,-0.150504720,-0.011014940
1640842566586129920,-0.018179900,0.590834560,9.739515300,-0.094380980,0.007313490,0.019308920
1640842566587040000,0.537452820,0.308247720,9.058317180,-0.227019220,-0.008867680,0.022611020
1640842566590759936,0.058365310,-0.403968930,11.176288600,-0.089442720,-0.032055380,0.018893180
1640842566592059904,0.387912720,-0.231395900,9.421483040,0.112213210,-0.033020980,-0.004829470
1640842566596079872,0.070225690,0.197503920,9.507730480,0.071559850,-0.188018380,-0.010555980
1640842566597129728,-0.073303070,0.315204110,9.482197760,-0.146684070,0.047507880,0.028041010
1640842566600819712,0.007394310,-0.060279260,9.434633260,-0.171624140,0.052860380,0.010755660
1640842566602309888,-0.621438320,-0.404281770,11.089940070,0.060598550,-0.079810630,-0.004178290
1640842566605839872,-0.229384450,0.373247000,9.315382960,0.164985660,-0.088952500,-0.012110180
1640842566607019776,-0.232155860,0.689908980,9.144794460,-0.010083620,-0.082157560,-0.008340180
1640842566610789888,-0.263310640,0.493840220,9.952380180,-0.182989220,0.069427480,0.031751390
1640842566612279808,-0.030322310,0.130947690,10.024189950,-0.053669520,0.000798700,0.002157690
1640842566616979712,-0.001374530,0.048114470,10.107579230,0.137351420,-0.121422100,-0.018912550
1640842566617430016,0.299499420,0.506048800,9.299629210,0.131687490,-0.040099020,0.005960460
1640842566620770048,-0.187764410,0.391940590,9.930721280,-0.070182990,-0.012305380,0.000633300
1640842566622089984,-0.352013590,0.014497780,10.374090190,-0.134640920,-0.072559700,0.028190010
1640842566625710080,-0.241533910,-0.161193860,9.859636310,0.041720270,-0.114882000,-0.003661220
1640842566627030016,-0.117301150,0.331782820,9.411114690,0.113648200,-0.016184150,-0.034263730
1640842566630889984,-0.091898710,0.949518560,10.030991550,0.015357140,0.022479890,0.003856420
1640842566635129856,-0.275572630,0.767028870,10.483433720,-0.118939600,-0.053116690,0.009372830
1640842566638180096,0.108924760,0.542945090,9.669016840,-0.085119910,-0.119814300,0.015977030
1640842566638649856,0.008728540,0.363200310,9.649298670,0.078554460,-0.059080120,0.008524960
1640842566640719872,-0.302514790,0.652941940,9.898379330,0.047898300,-0.012585520,-0.002960860
1640842566642030080,-0.102364540,0.781662110,9.789248470,-0.077316170,-0.096680220,0.036923590
1640842566645809920,0.026426730,0.141330480,9.814737320,-0.154079500,-0.036314130,0.036288800
1640842566647049984,0.206642520,-0.116056930,9.913693430,-0.026568770,0.022418800,0.018966200
1640842566650810112,0.185295400,-0.019400920,10.084308620,0.108462570,-0.031743950,-0.016823410
1640842566652089856,-0.080204380,0.389293670,10.078177450,0.001309810,-0.111770640,0.002898280
1640842566655769856,0.106004800,0.416468020,9.194280620,-0.137177110,-0.078761580,0.028102100
1640842566657159936,0.125246260,-0.181026160,9.341712000,-0.125899910,0.000494720,0.016243760
1640842566660719872,-0.179723290,-0.072712910,10.346567150,0.069545210,0.016355510,-0.013335050
1640842566662449920,0.016685620,0.348977800,9.592017170,0.136883560,-0.064039240,-0.008651610
1640842566667459840,-0.103297620,0.442159030,10.088242530,-0.055485970,-0.066244610,0.017410520
1640842566669379840,-0.229148120,0.131844610,9.997131350,-0.122810910,0.035035610,0.039784610
1640842566670810112,-0.130544160,-0.464835670,9.658771510,0.010138750,-0.090807660,0.007943810
1640842566672059904,-0.324323120,-0.206955190,9.928252220,0.173498690,-0.067672140,-0.020594890
1640842566675729920,0.066862190,0.476919380,8.607059480,0.079907480,0.035466250,-0.011773410
1640842566677069824,-0.135927980,0.058203180,10.547719000,-0.091907370,-0.023703280,0.008293980
1640842566680909824,-0.285271560,-0.095399120,10.511595730,-0.015708800,-0.006583330,0.016219910
1640842566682169856,0.054216670,-0.185570880,9.491390230,0.152961910,-0.178973390,-0.019869210
1640842566685710080,-0.237650590,0.213130160,10.113166810,0.188301520,-0.047174100,-0.014229120
1640842566687000064,-0.052052830,0.874094130,9.212902070,0.000397860,0.058040020,0.006170570
1640842566690719744,-0.188461410,0.370939140,10.628421780,-0.083531430,-0.077439840,0.020553170
1640842566692039936,-0.094370010,0.320693580,10.005407330,0.066894290,-0.045724220,0.018292670
1640842566695819776,0.152136830,0.584356010,9.106464390,0.166860240,-0.125052050,-0.005401670
1640842566697110016,-0.252000900,0.730738220,10.298872950,0.081519780,-0.000980500,0.013169650
1640842566702679808,-0.106048420,0.766929090,9.882667540,-0.074483450,0.011302530,0.024460260
1640842566703169792,-0.223136990,0.093055930,10.707302090,-0.043937560,-0.124105800,0.037290150
1640842566705699840,0.063753660,0.013101220,9.680207250,0.114621220,-0.007148090,0.013571980
1640842566707029760,0.026883180,0.497739850,9.399833680,0.108546010,-0.079244360,0.003941360
1640842566710759936,-0.195953670,0.469169350,9.974248890,-0.020913790,-0.025844570,0.037156050
1640842566712250112,0.338334320,0.179616910,9.171680450,-0.077216310,-0.002551080,0.029888750
1640842566716029952,-0.108000650,-0.166434990,10.710231780,0.039722030,-0.043211890,0.008863210
1640842566718589952,0.119836840,0.198550220,9.786525730,0.155693310,-0.010350350,-0.002385680
1640842566720710144,0.087029200,0.570697670,9.717990880,0.040444740,-0.110213470,-0.009021160
1640842566722159872,-0.086676610,0.308163460,9.849170680,-0.078690050,0.044213240,0.036452710
1640842566725719808,0.207757340,-0.159050210,9.567526820,0.006595250,0.036281350,0.007571280
1640842566727309824,-0.448228750,-0.259759010,10.690554620,0.174917300,-0.086414810,0.007176400
1640842566731190016,0.000477430,0.234724490,8.857772830,0.163984300,-0.065238780,0.027862190
1640842566732159744,-0.076005400,0.238335090,9.502824780,-0.017170610,-0.022599100,0.013357400
1640842566736739840,-0.194961090,0.008423100,10.159873010,-0.057055060,0.100004670,0.028252610
1640842566737390080,0.166570860,-0.033301370,9.897358890,0.130683180,-0.034654140,-0.006568430
1640842566740749824,-0.224915970,0.157627200,10.555319790,0.223460790,-0.068582600,-0.019595030
1640842566742060032,0.073535830,0.652663950,9.098639490,0.116670120,-0.019346180,0.012576580
1640842566745869824,-0.358728230,0.362389360,10.034597400,-0.018282230,-0.047659870,0.005228820
1640842566747409920,-0.369943530,0.142004550,9.901420590,0.013668840,-0.002831220,0.017046930
1640842566751020032,0.019094290,0.215435490,9.347450260,0.176247970,-0.043985250,-0.010710950
1640842566752049920,-0.292612220,0.539231180,10.580309870,0.161001090,0.007539990,-0.012110170
1640842566755679744,0.040495790,0.921631040,9.915929790,0.020772220,0.007249410,0.021259490
1640842566757059840,-0.111108850,0.484386150,10.201395990,-0.039565570,-0.091961030,0.017435850
1640842566761139968,-0.034252830,0.280523360,9.939496040,0.040537120,-0.035563120,0.000588600
1640842566762840064,-0.024393060,0.477506460,9.423665050,0.146861370,-0.013668840,-0.017561020
1640842566765809920,-0.454801890,0.654729010,10.217194560,0.065357980,-0.061047080,0.001110140
1640842566767160064,0.003343690,0.690768900,9.572217940,-0.050604340,-0.021524730,0.029516220
1640842566770779904,-0.045838410,0.184028570,9.798354150,-0.039000800,-0.000481310,0.007911030
1640842566772059904,-0.146702860,0.278007420,10.502283100,0.067660210,-0.008080900,-0.002194940
1640842566775749888,-0.100286330,0.559926150,9.852621080,0.098763400,-0.061324240,-0.002881880
1640842566777319936,-0.014827450,0.488573400,9.499128340,-0.027117140,-0.090506680,0.008621810
1640842566780849920,0.265234560,0.367106530,9.454391480,-0.057879090,0.042393800,0.019986930
1640842566782249984,0.158631890,0.059919030,9.742753030,0.005932150,0.044487420,-0.007557870
1640842566785799936,0.126043770,0.157124590,10.252447130,0.074018520,-0.056609500,0.003081560
1640842566787020032,0.107219880,0.131088390,9.847809790,0.073528300,-0.018067660,0.016155840
1640842566790720000,-0.024565220,-0.151865480,9.770800590,-0.016841290,-0.019520520,0.021351880
1640842566792069888,-0.185605020,-0.159041660,10.035181050,0.027644630,-0.015503170,0.024074320
1640842566796249856,-0.054932530,-0.019770480,9.169891360,0.052569810,0.000570710,-0.005538760
1640842566797699840,0.014842930,0.227263870,9.707522390,0.043584400,0.022940330,-0.014346840
1640842566801679872,-0.170815540,0.236660150,10.184103010,0.052620470,0.066107520,0.002922120
1640842566802170112,-0.218785270,0.108411700,10.128170970,0.074450670,-0.068932780,0.002105530
1640842566805709824,-0.230034260,0.203019870,9.688908580,0.125601890,-0.071163480,0.017200410
1640842566807020032,-0.139306350,0.411914380,9.355618480,0.050197550,0.017349420,-0.003752110
1640842566811219968,-0.286523910,0.400373910,10.335758210,0.013430420,0.060819090,0.011473890
1640842566813050112,-0.146979790,0.233593400,10.105858800,0.081858050,-0.014649330,0.008055570
1640842566815769856,-0.004765920,0.369805690,9.833552360,0.133860110,-0.102928280,-0.000767410
1640842566817549824,0.067753510,0.634316740,9.348417280,0.097334370,0.032028560,-0.000986460
1640842566820760064,-0.015261260,0.653262260,10.001926420,-0.028808410,0.008009380,0.011618440
1640842566822080000,-0.352815780,0.460026140,10.906969070,-0.011879210,-0.016072390,0.019733610
1640842566825850112,0.162413640,0.264521180,9.377689360,0.096580390,-0.048437710,0.008751450
1640842566827369984,-0.251315680,0.469543130,10.334412570,0.118500000,-0.057698790,0.005744400
1640842566831329792,-0.228093280,0.762176510,9.559334750,0.019897520,0.047171120,0.023257730
1640842566832109824,-0.083776800,0.525529560,9.771662710,-0.095878550,-0.084026160,0.005440410
1640842566836329984,-0.256937090,0.407091260,10.383133890,-0.023181740,0.029371680,0.023539360
1640842566837039872,0.234768720,0.460939020,9.330515860,0.083230440,0.009289380,-0.010327990
1640842566840719872,-0.265223030,0.793371320,10.853149410,0.045454500,-0.065645580,-0.002603230
1640842566842389760,0.113372940,1.098734380,9.194898610,-0.101879240,0.002376740,0.043328110
1640842566845839872,0.379838500,0.223864500,9.563758850,-0.144650060,-0.031818450,0.028471650
1640842566847079936,-0.057952840,-0.049731870,10.604286190,0.023816530,0.110724570,0.018842520
1640842566850729984,0.066269580,0.232176230,9.495219230,0.116746130,-0.047287350,0.008925800
1640842566852059904,-0.216158230,0.150711130,10.265096660,-0.017723440,-0.115890810,0.026771430
1640842566855729920,0.199478540,0.243079500,8.788784980,-0.171005740,0.095356990,0.043401120
1640842566857139712,0.177103950,-0.252331260,9.923170090,-0.106292990,0.070348380,0.010338430
1640842566860800000,-0.152795790,-0.102996070,10.859891890,0.107626620,0.077268480,-0.001731510
1640842566862530048,0.174479010,0.560192880,9.275203700,0.104710470,-0.076092790,-0.005586450
1640842566866349824,-0.212705140,0.468383580,9.921322820,-0.071084490,-0.031587480,0.028216840
1640842566867089920,-0.128678170,0.171670590,9.237751960,-0.129871090,0.104264930,0.032587350
1640842566870769920,-0.260624650,-0.123995130,9.911409380,0.024792550,-0.021272900,0.000047680
1640842566872079872,-0.106759300,0.090624940,9.829017640,0.133137420,0.074660780,-0.011903050
1640842566875779840,0.252249570,0.398863760,9.542400360,0.047992170,0.067037340,-0.001427530
1640842566877100032,-0.390738400,-0.028490980,10.915492060,-0.056260830,0.016330180,0.021891300
1640842566880859904,0.054911340,-0.095143560,9.261316300,-0.000001490,-0.046429050,0.019015380
1640842566883089920,-0.082275530,-0.143213000,9.372019770,0.078336890,-0.038744510,-0.002574920
1640842566885749760,-0.126776320,0.233369410,9.610433580,0.081929560,0.162710230,-0.006857510
1640842566887009792,-0.031292990,0.431804180,10.267827990,0.032474100,0.042301410,-0.010581310
1640842566890769920,-0.384648620,0.261063280,10.642799380,0.018264350,-0.046949090,0.010019540
1640842566892259840,0.085083340,0.455620200,9.068763730,0.062817340,-0.031715640,0.015604500
1640842566896149760,-0.387062190,0.379357130,10.048649790,0.058037050,0.024732950,-0.006425380
1640842566900480000,-0.398510430,0.633138900,9.780095100,0.023031240,0.080224890,0.015579170
1640842566902799872,-0.210511070,0.559032080,9.966161730,0.024792550,-0.060229010,-0.007113810
1640842566903379968,-0.275519580,0.476782770,10.111284260,0.004743040,0.025962300,-0.002019110
1640842566905799936,0.029350600,0.702898680,9.493930820,0.013291840,0.017300250,0.007136170
1640842566907189760,-0.357682500,0.445864350,10.687876700,-0.004434590,-0.029046830,0.003337860
1640842566910739968,0.002491920,0.426780610,9.554672240,-0.016985830,0.016520910,0.012744960
1640842566912339968,0.068298420,0.309763610,9.806627270,0.017899270,-0.027707220,-0.003014500
1640842566915769856,-0.207491870,0.422032360,10.509951590,-0.014881790,0.051526740,-0.001245740
1640842566917049856,0.165564720,0.787116770,9.409987450,-0.066941990,-0.033636390,0.007241970
1640842566920749824,-0.025811580,0.471426370,10.104736330,-0.085844080,-0.036245580,0.004640220
1640842566922220032,0.189758150,0.530900420,9.617047310,-0.046867130,0.107301780,-0.004677470
1640842566925699840,-0.039438090,0.615827260,9.960029600,0.005708630,-0.015094880,-0.010348860
1640842566927079936,-0.317489620,0.514976980,10.371210100,-0.068044670,-0.033319000,0.028388200
1640842566930840064,0.031472470,0.260774910,9.265269280,-0.110870620,0.003322960,0.028365850
1640842566933399808,-0.228353590,-0.246693150,9.966693880,-0.075021390,0.026068090,0.003893670
1640842566935809792,-0.066939350,-0.134894970,9.930094720,0.003205240,0.061106690,0.000944730
1640842566937079808,0.098641430,-0.048624030,9.558500290,-0.005033610,0.030161440,-0.010147690
1640842566940790016,0.001858590,-0.132206100,10.228435520,-0.077502440,0.021170080,0.006505850
1640842566942099712,0.024130200,-0.034667440,9.948143010,-0.049401820,0.026479360,0.009608270
1640842566945829888,-0.054967400,-0.119729700,9.437523840,-0.001300870,-0.033006070,-0.006961820
1640842566948219904,0.044622260,0.312771920,9.540200230,0.019788740,0.032247600,-0.012119120
1640842566950719744,-0.034552010,0.429660770,9.822724340,-0.031705200,0.134648380,-0.017306210
1640842566952179968,-0.228001460,0.175765770,10.560963630,-0.031997270,0.016154350,0.003522630
1640842566955760128,-0.351117640,0.192103970,10.061977390,0.059628490,-0.063896190,0.007097420
1640842566957039872,-0.214394930,0.211109270,8.899087910,0.028054420,-0.018210710,0.006049870
1640842566961059840,-0.298876880,0.121798020,9.831274030,-0.020106130,0.088834750,0.001806020
1640842566962230016,-0.402375700,0.025613780,10.276547430,-0.008818510,0.074318050,-0.010161100
1640842566965779968,-0.145376710,-0.016763100,10.077287670,0.043401120,-0.065000360,-0.013476610
1640842566967089920,0.060098380,0.189257800,9.630478860,0.075216590,0.009413060,-0.014455620
1640842566970979840,-0.124534550,0.444509600,9.978031160,-0.017139320,0.045661630,-0.017856060
1640842566972119808,-0.290061680,0.487250830,10.422599790,-0.035341080,-0.015409290,-0.003108380
1640842566975699968,-0.165536090,0.385042340,9.608246800,0.006917120,-0.061483680,-0.006972250
1640842566977299968,-0.109305750,0.718936860,9.606151580,0.025893750,0.009588900,-0.016002360
1640842566981779712,-0.164158850,0.906301500,9.865070340,-0.000379980,0.074380620,-0.003999470
1640842566982220032,-0.288792970,0.858988400,10.478176120,-0.085811300,-0.060124700,0.012056530
1640842566985750016,-0.157247190,0.622351290,9.861503600,-0.052869320,-0.030411780,0.013436380
1640842566987340032,0.091547160,0.332429830,9.379616740,-0.026674570,-0.006748740,-0.010652840
1640842566990739712,-0.323275630,0.460450260,10.694745060,-0.026765470,0.049698350,-0.008910890
1640842566992069888,-0.116052580,0.545638800,9.801117900,-0.076685850,-0.024913250,0.005203490
1640842566995879936,0.069566380,0.254456220,9.980966570,-0.145521760,-0.106255730,0.004507600
1640842566997169920,0.122964640,0.303510160,9.465961460,-0.077056880,0.097273300,0.009772180
1640842567002959872,0.120005710,0.253215070,9.716948510,-0.040835150,0.003080070,-0.017170610
1640842567004070144,-0.190894810,0.453156980,10.699809070,-0.058329110,-0.012713670,0.011080500
1640842567005779968,0.134307820,0.620820160,9.180814740,-0.138098000,-0.012999770,0.015540420
1640842567007099904,0.086652230,0.171678950,10.149463650,-0.158198180,-0.026455520,0.016638640
1640842567011289856,-0.052473580,0.240271090,9.843213080,-0.056582700,0.112032910,0.019040700
1640842567012369920,0.145793660,0.342991950,9.465947150,-0.049677490,-0.046558680,-0.012046100
1640842567015759872,-0.057143390,0.117538310,10.377335550,-0.098581620,0.040578850,0.031119590
1640842567017159936,0.115699340,-0.059334690,9.226313590,-0.116056200,0.073020170,0.012208520
1640842567021289728,-0.275614770,-0.239977240,10.307450290,-0.048145660,-0.077305730,-0.003023450
1640842567022129920,-0.093964660,-0.037911250,9.291394230,-0.033332410,0.032196930,0.011369590
1640842567025729792,0.168349920,0.076510560,9.095321660,-0.095133480,0.067627430,-0.017783050
1640842567027299840,-0.282983780,-0.016261850,10.859246250,-0.059501830,0.122226790,0.014647840
1640842567031299840,-0.040096200,0.017148390,9.750421520,-0.008524960,-0.008074940,-0.006760660
1640842567032349952,-0.322233530,0.136745630,9.860815050,0.011906030,-0.118188570,0.006389620
1640842567038369792,-0.101641890,0.108404260,9.046270370,-0.040465600,0.101865840,0.018031890
1640842567039180032,-0.213963240,-0.247907190,10.000082020,-0.058875990,0.082306570,-0.011058150
1640842567040769792,-0.583935320,-0.751659150,10.820803640,0.065177690,0.032402580,-0.009386240
1640842567042199808,-0.003593440,-1.144662140,9.162600520,0.195835530,-0.065308820,-0.025239590
1640842567046840064,-0.702156420,-1.739987020,10.165888790,0.227399220,-0.061322760,-0.030438600
1640842567047350016,-0.688913460,-2.195406200,9.398524280,0.236359280,-0.003255900,-0.006148220
1640842567052259840,-0.684779580,-2.989412550,9.799071310,0.350463450,-0.102220500,-0.011928380
1640842567052999936,-0.798817750,-2.668714050,10.491292950,0.474257860,-0.017911200,-0.010535120
1640842567055840000,-0.170477000,-1.307082300,9.837412830,0.483256670,-0.012153390,-0.011916460
1640842567057060096,-0.449246530,-0.275897980,11.022737500,0.363154710,-0.099575530,-0.004926320
1640842567060779776,-0.029311410,0.972509090,9.917328830,0.349548550,-0.123313080,-0.008857250
1640842567062340096,0.356380670,1.672538760,9.160935400,0.460641150,-0.114409650,-0.035601850
1640842567065920000,0.085179080,2.129118200,10.182902340,0.504490730,-0.008441510,-0.022891170
1640842567067249920,0.016063860,2.274495120,10.307862280,0.469248090,-0.027687850,0.012975930
1640842567070849792,-0.152635230,1.221398590,10.465386390,0.351548140,-0.184208140,0.038076930
1640842567072160000,-0.163526950,0.096408730,10.073310850,0.370077790,-0.121893000,0.044783950
1640842567075800064,-0.207064670,-0.904238520,9.578783990,0.475923780,-0.017116970,-0.011894110
1640842567077090048,-0.721669080,-1.275718210,10.946207050,0.483417570,-0.086432720,-0.063598160
1640842567080859904,-0.660838480,-0.827964010,10.249236110,0.418940280,-0.136975940,-0.065459310
1640842567082549760,-0.368148030,-0.578385950,9.587183000,0.321026150,-0.181080450,-0.089605150
1640842567086710016,-0.337502990,0.462182460,10.271845820,0.335890080,-0.080768770,-0.075992940
1640842567087369984,-0.067203930,1.535758610,9.964840890,0.401507410,-0.064390910,-0.059333450
1640842567090790144,0.320952680,1.978980900,10.608968730,0.362899930,-0.110973420,-0.044585760
1640842567092140032,0.572754560,2.139030930,10.555269240,0.355786170,-0.025177000,0.014285750
1640842567095840000,0.621710360,1.508134960,9.982860570,0.337803360,-0.090892610,0.001735990
1640842567097189888,0.336938080,0.901715460,10.355104450,0.318004220,-0.155000390,-0.003710390
1640842567102850048,0.240488510,0.186814130,9.131456380,0.290392340,-0.074100500,-0.019900500
1640842567103499776,-0.085098330,-1.059356570,9.694866180,0.290684400,-0.064362590,-0.069895390
1640842567105860096,-0.714555030,-1.437018630,10.810316090,0.417535040,-0.022818150,-0.102621330
1640842567107179776,-1.020345690,-1.149462340,10.156618120,0.421050250,-0.181466360,-0.128924850
1640842567110980096,-1.211467740,-0.578711990,10.355491640,0.304885180,-0.225430730,-0.107826290
1640842567112219904,-0.984614970,-0.028260800,9.659336090,0.247193870,-0.073498490,-0.093990560
1640842567116379904,-0.528545800,0.313612790,9.845289230,0.348633560,-0.099150860,-0.113238390
1640842567118969856,0.035640740,1.135885480,10.458696370,0.508891110,-0.072573130,-0.101034360
1640842567120729856,0.709681330,1.666332360,9.915839200,0.417186350,-0.069314240,-0.063920020
1640842567122139904,0.788577850,1.282323480,10.717074390,0.256046650,-0.141344980,-0.052116820
1640842567125720064,0.628390190,0.390709670,10.306540490,0.307996570,-0.130489470,-0.059890750
1640842567127800064,0.395119610,-0.463407160,9.466953280,0.439404010,-0.200685900,-0.118155790
1640842567130970112,-0.306535120,-0.622032050,10.128223420,0.497220520,-0.108669720,-0.137835760
1640842567132489984,-0.718872250,-0.703703760,9.818440440,0.377379360,-0.049763930,-0.135713820
1640842567136149760,-1.357154970,-0.938797650,10.822715760,0.295877460,-0.230237870,-0.136871650
1640842567137359872,-1.454363580,-0.584406850,10.217102050,0.413148130,-0.220930580,-0.131806750
1640842567140819968,-1.194866900,0.093116410,9.395646100,0.463679490,-0.220888900,-0.159049050
1640842567142139904,-1.130826470,1.058950660,10.558545110,0.420074250,-0.140345100,-0.157825690
1640842567145759744,-0.419683810,1.666397450,10.424427990,0.333942470,-0.134634970,-0.141938050
1640842567147749888,0.323852750,1.680021170,10.530241970,0.290134550,-0.255918530,-0.143539880
1640842567150810112,0.749977470,1.678863170,10.304907800,0.370295380,-0.179632010,-0.136913360
1640842567152119808,0.996415970,1.517602320,9.833344460,0.337950920,-0.162528460,-0.152063380
1640842567155750144,0.776581760,0.952180860,10.490152360,0.259518650,-0.212681340,-0.115607690
1640842567157039872,0.621201630,0.101973560,9.937511440,0.263093440,-0.158286090,-0.106684890
1640842567160839936,0.164502560,-0.440030130,10.140485760,0.272218970,-0.195963710,-0.153122870
1640842567162200064,-0.646840330,-0.377911390,10.470647810,0.285056170,-0.200761870,-0.172007080
1640842567166050048,-1.122351880,-0.225301580,10.021038060,0.227881940,-0.246719990,-0.205714990
1640842567168229888,-1.440816760,-0.016742370,10.399811740,0.195904090,-0.259853900,-0.205364870
1640842567170820096,-1.368137720,0.438226280,9.986017230,0.269918140,-0.181187700,-0.198949890
1640842567172189952,-0.964006130,1.263854740,10.127508160,0.253824920,-0.261977310,-0.208474740
1640842567175709952,-0.059168860,1.875103590,10.009469030,0.162711750,-0.196999330,-0.153984130
1640842567177110016,0.925056640,1.577559470,9.835715290,0.112357740,-0.098554800,-0.134330990
1640842567181599744,1.317573070,0.910037880,10.980413440,0.181542350,-0.141347940,-0.157463550
1640842567183800064,1.406073330,0.466747580,10.447089200,0.301812560,-0.194697080,-0.165927400
1640842567185730048,1.204054950,0.156920980,9.455059050,0.208808450,-0.289174910,-0.184375030
1640842567187079936,0.636251510,-0.382013500,9.703119280,0.048471990,-0.171169620,-0.178585950
1640842567190779904,-0.082784600,-1.133969660,9.515851970,0.098903480,-0.029742720,-0.208649050
1640842567192179968,-0.951059040,-1.162625670,10.764635090,0.278882680,-0.246979340,-0.252954720
1640842567196179968,-1.476881980,-0.359545290,10.242793080,0.334692090,-0.224654420,-0.237631860
1640842567197259776,-1.397880080,0.290147840,9.126304630,0.161603090,-0.237363620,-0.214229550
1640842567201099776,-1.505967970,0.589147330,10.492424010,0.051683190,-0.188733680,-0.214840490
1640842567202259968,-0.689765930,0.828846750,9.547303200,0.185935200,-0.108538580,-0.228312610
1640842567205809920,0.198158090,1.085314270,9.985145570,0.317344100,-0.238563170,-0.248612490
1640842567207500032,0.557944240,1.279179220,10.621719360,0.285619530,-0.117026280,-0.214777930
1640842567211030016,1.127593400,0.715301330,9.577062610,0.139565740,-0.178962930,-0.207597000
1640842567212139776,0.794880930,-0.198155220,10.671298030,0.125509500,-0.307051870,-0.220994680
1640842567215790080,0.701301870,-0.577311520,9.264289860,0.235450310,-0.154866320,-0.243124400
1640842567217120000,0.427463000,-0.604256570,9.364584920,0.264739990,-0.189533840,-0.290243330
1640842567220909824,-0.755067940,-0.267417430,11.238855360,0.208862160,-0.143203180,-0.269967410
1640842567222099968,-0.793256520,0.020870620,9.648996350,0.141620640,-0.240150080,-0.274394450
1640842567225769984,-1.330371260,0.175809550,10.388947490,0.175371800,-0.362117650,-0.275351200
1640842567227469824,-1.526409150,0.848106740,9.810516360,0.229810220,-0.170168310,-0.268234340
1640842567230739712,-1.105890040,1.273860220,9.576958660,0.198622050,-0.240699960,-0.289467010
1640842567232159744,-1.004018430,1.415801640,11.059067730,0.150433180,-0.271987940,-0.259546880
1640842567238700032,0.195581510,1.455701230,9.324852940,0.126902740,-0.207439080,-0.256121160
1640842567239130112,0.740453480,1.033540130,10.182398800,0.118067880,-0.264720650,-0.268340110
1640842567240829952,0.844146610,0.898230910,10.621051790,0.114288930,-0.169529020,-0.260472300
1640842567242149888,1.291458130,0.535855000,9.510242460,0.086355220,-0.259947810,-0.277657870
1640842567246080000,0.741882740,-0.110544990,10.721982960,0.079111740,-0.291541220,-0.280562070
1640842567247389952,0.328514460,0.065318320,9.624745370,0.077530750,-0.163088740,-0.289170470
1640842567250759936,-0.312687930,0.068957140,10.069963460,0.032536680,-0.312577220,-0.296203760
1640842567253629952,-1.090543150,0.239822980,10.679450990,0.004108250,-0.240083080,-0.289453630
1640842567255869952,-0.988781810,0.600267170,9.278870580,0.016456840,-0.226590050,-0.305294990
1640842567257309952,-1.332664970,0.747942330,10.750428200,0.051844120,-0.276581970,-0.306662920
1640842567260789760,-0.897973600,1.399626260,9.907334330,0.018846990,-0.196291510,-0.294055040
1640842567262329856,-0.003200470,1.428899290,9.496389390,-0.075244900,-0.291524800,-0.295311210
1640842567265689856,0.508236230,1.005024080,10.437527660,-0.082486870,-0.154964630,-0.283284520
1640842567267079936,1.184648990,0.644607420,9.483332630,-0.011898580,-0.132533920,-0.307300690
1640842567270880000,1.001181240,0.040579680,10.599860190,0.044426330,-0.302411620,-0.312295560
1640842567272229888,0.696114900,-0.231727840,10.092513080,-0.003950300,-0.218872770,-0.289706950
1640842567275820032,0.539446180,-0.684818510,9.027226450,-0.091978920,-0.264854760,-0.296993550
1640842567277169920,-0.338754530,-1.045257690,10.405925750,-0.037173930,-0.209038000,-0.305970070
1640842567280809984,-0.453101930,-0.479385260,9.320963860,0.037701440,-0.124500710,-0.334945410
1640842567282169856,-0.787786780,0.152259360,10.280239110,0.024534770,-0.266209330,-0.337235630
1640842567285679872,-1.062022210,0.553059820,10.629902840,-0.025506320,-0.170201090,-0.320951670
1640842567287149824,-0.688581350,0.894107880,9.319031720,-0.031329700,-0.267158450,-0.338412910
1640842567290999808,-0.693670270,0.993271470,10.149716380,0.015985970,-0.302499590,-0.334353800
1640842567292460032,0.103689660,1.116503950,9.088728900,-0.004270670,-0.101785370,-0.336918230
1640842567296320000,0.383003860,0.638237710,10.145335200,-0.010538100,-0.174079850,-0.333876910
1640842567297499904,0.299233230,0.006780150,10.990776060,0.041022900,-0.214061160,-0.309070940
1640842567300750080,0.783008640,-0.208466530,9.094546320,0.040271880,-0.295966860,-0.319574770
1640842567302170112,0.354674100,-0.639528040,9.809641840,-0.006642940,-0.260560180,-0.314465110
1640842567305840128,0.017382990,-0.615932820,9.869747160,-0.025020540,-0.087888540,-0.323572780
1640842567307249920,-0.352704260,-0.472754180,10.120264050,0.031949590,-0.263279770,-0.365473390
1640842567310829824,-0.906697090,0.051457720,10.486986160,0.079524530,-0.303843650,-0.373365010
1640842567312399872,-0.733457270,0.907808720,9.192204480,0.011560320,-0.244757530,-0.358055560
1640842567315879936,-1.221547720,1.119771120,10.371468540,-0.058329110,-0.255268870,-0.363876010
1640842567317179904,-0.944257740,1.361067890,10.308032990,-0.037449600,-0.233256830,-0.331893560
1640842567320770048,-0.177358060,1.383499380,9.647498130,0.015591080,-0.272561640,-0.349253450
1640842567322399744,-0.000028330,1.347590090,10.368049620,-0.010485950,-0.211217970,-0.345440180
1640842567325850112,0.600384950,1.368921760,9.849400520,-0.110375900,-0.223909320,-0.318659870
1640842567327149824,0.615578830,0.528183700,10.085424420,-0.165404410,-0.305372570,-0.331975580
1640842567331140096,0.593554260,-0.109597600,9.757029530,-0.086508690,-0.250531760,-0.341634480
1640842567332130048,0.302089600,-0.257520410,9.710472110,-0.011999910,-0.254239230,-0.367888870
1640842567335810048,-0.527056630,-0.311326830,10.523258210,-0.071647790,-0.279447530,-0.362598960
1640842567337080064,-0.505052270,-0.037440620,9.778854370,-0.176572810,-0.309526920,-0.324635240
1640842567340839936,-0.655045810,-0.091512520,9.878392220,-0.168640960,-0.251816210,-0.353311060
1640842567342159872,-0.600331600,0.283980070,9.972681050,-0.068424630,-0.186252560,-0.359471110
1640842567346319872,-0.343150730,1.081665040,9.996305470,-0.030218070,-0.275637210,-0.365290140
1640842567347800064,-0.183862600,1.254931810,9.937635420,-0.139120250,-0.271949260,-0.338676630
1640842567350849792,0.530320530,1.161949870,9.374829290,-0.217838620,-0.239220310,-0.326816830
1640842567352199936,0.332525550,0.655990300,10.290774350,-0.152707100,-0.221340370,-0.340048910
1640842567355719936,0.583693800,0.387321590,9.688776020,-0.074829160,-0.230957600,-0.344161720
1640842567357149952,0.576835990,0.082913330,9.722856520,-0.082460060,-0.280125470,-0.352695580
1640842567360809984,-0.047849390,-0.483161060,10.220586780,-0.160443780,-0.200837900,-0.338181880
1640842567362269952,-0.077029280,-0.858942870,9.538644790,-0.133223880,-0.261640610,-0.347197150
1640842567365799936,-0.713954330,-0.938954000,10.045193670,-0.046470760,-0.312834980,-0.376907080
1640842567367189760,-0.626686040,-0.313657130,9.223082540,-0.067487370,-0.206013070,-0.393551650
1640842567370919936,-0.553261640,0.193319250,9.869002340,-0.116838540,-0.202612610,-0.398099480
1640842567372429824,-0.901774230,0.384220840,10.920518880,-0.099775200,-0.247585800,-0.380528000
1640842567375769856,-0.139640380,0.942717370,9.355859760,-0.034701830,-0.319302140,-0.368389580
1640842567377189888,-0.084271030,1.100935340,9.797102930,-0.051225730,-0.283595920,-0.360730380
1640842567381069824,0.078560480,1.243024230,9.923878670,-0.137676310,-0.158736110,-0.337974730
1640842567382139904,0.300276760,0.830585720,10.115594860,-0.119347890,-0.277412000,-0.349386130
1640842567385809920,0.167763980,0.357336010,10.135650630,-0.076609860,-0.314532280,-0.359529350
1640842567387259904,0.543040340,0.480616000,8.919023510,-0.080379830,-0.235147790,-0.364682020
1640842567390759936,-0.120115120,0.153886090,10.387498860,-0.160756750,-0.222221050,-0.384242890
1640842567392109824,-0.477817180,0.052123920,10.566002850,-0.204117630,-0.255033460,-0.374022190
1640842567395809792,-0.477689330,-0.094108380,9.773047450,-0.103920710,-0.367625120,-0.389567110
1640842567397110016,-0.845442060,-0.002688090,10.136285780,-0.072613380,-0.285589750,-0.402343360
1640842567400780032,-0.584832370,0.796112780,9.448151590,-0.124156490,-0.224091160,-0.375306700
1640842567402319872,-0.583364900,0.947579740,10.247028350,-0.233247910,-0.312851460,-0.365945760
1640842567405900032,0.078151930,0.978670240,9.893932340,-0.255063240,-0.246654480,-0.349259470
1640842567407169792,0.576551140,0.891649190,9.617841720,-0.126098100,-0.224566440,-0.359593270
1640842567410749952,0.292383490,0.886753740,10.788306240,-0.102242840,-0.259824130,-0.364828140
1640842567412279808,0.731648390,1.129528640,9.493843080,-0.220987250,-0.289855960,-0.328554300
1640842567415739904,0.601793230,0.418740240,9.415493010,-0.325061380,-0.282457470,-0.329236720
1640842567417229824,0.360574190,-0.212987270,9.951748850,-0.260621310,-0.144737970,-0.342495740
1640842567420780032,-0.029356630,-0.471140860,9.808963780,-0.076837840,-0.225597630,-0.383457570
1640842567422200064,-0.676456030,-0.339362000,10.201582910,-0.102749480,-0.350694390,-0.388057590
1640842567425720064,-0.448091180,-0.049752430,9.256657600,-0.255234630,-0.252144130,-0.349582790
1640842567427160064,-0.496486340,-0.279411730,9.476510050,-0.314120980,-0.153072180,-0.363375280
1640842567430830080,-0.370712310,0.036591250,10.441260340,-0.176742670,-0.185431580,-0.383330910
1640842567432129792,0.124380420,0.525712250,9.793063160,-0.042167320,-0.212100180,-0.392532440
1640842567437530112,0.164642690,0.771804930,9.757414820,-0.126981770,-0.258806350,-0.369097380
1640842567438299904,0.263386700,0.621720370,9.836153980,-0.224480060,-0.218202220,-0.333160220
1640842567440860160,0.211276370,-0.022985460,9.359932900,-0.183764130,-0.219894990,-0.344024690
1640842567442200064,0.257257640,-0.076413440,9.599570270,-0.087563720,-0.240151610,-0.370441470
1640842567445880064,0.173841690,0.003351410,9.805275920,-0.071164970,-0.120718800,-0.386595790
1640842567447079936,-0.177918030,-0.180107860,10.343471530,-0.170996810,-0.187514770,-0.399556820
1640842567451049984,-0.536290110,-0.183838200,10.513951300,-0.135318980,-0.290356580,-0.380475880
1640842567452590080,-0.564972280,0.000196290,9.123360630,-0.107371830,-0.297310950,-0.411959080
1640842567455760128,-0.587207730,0.457576190,9.335544590,-0.126117480,-0.226867240,-0.406956730
1640842567457179904,-0.689247850,0.662444000,10.096973420,-0.131973640,-0.117962080,-0.391706850
1640842567460749824,-0.411000790,0.638546410,10.411175730,-0.137737390,-0.237974570,-0.393234220
1640842567462540032,-0.044488470,0.778393630,10.245314600,-0.075627870,-0.288090110,-0.360651340
1640842567465869824,0.233829320,0.823468330,9.540955540,-0.125063970,-0.242845760,-0.366362930
1640842567467680000,0.393674910,0.802692650,9.833377840,-0.209723440,-0.193971440,-0.368161560
1640842567471159808,0.305085510,0.480554490,10.051777840,-0.184921920,-0.189191120,-0.364366200
1640842567472349952,0.283750860,0.162268590,10.106676100,-0.132007910,-0.267325340,-0.388869670
1640842567475739904,0.141103680,0.310858340,9.673748970,-0.082363210,-0.222560810,-0.388169350
1640842567477110016,-0.180192960,0.423938100,9.575106620,-0.193464790,-0.256034820,-0.378057420
1640842567480839936,-0.377071320,0.312951060,10.012424470,-0.278642860,-0.212994250,-0.372956750
1640842567482749952,-0.277443350,-0.066567840,9.666056630,-0.176113830,-0.161449580,-0.377359960
1640842567485760000,-0.601274910,-0.024715790,10.740781780,-0.054195530,-0.271026820,-0.388115640
1640842567487190016,-0.433750540,0.524832840,9.722945210,-0.067801780,-0.242775710,-0.377787680
1640842567490959872,0.048556910,0.706850230,8.864850040,-0.266581770,-0.273129370,-0.362853740
1640842567492159744,0.206806020,0.402320980,10.086977960,-0.307379750,-0.107771170,-0.344346490
1640842567495849728,0.606239440,0.098956390,9.609827040,-0.108717390,-0.083115700,-0.379443170
1640842567497179904,0.347045630,0.145248010,10.696595190,0.015816090,-0.319772960,-0.379799340
1640842567500749824,0.331058290,0.360503670,9.481908800,-0.080181670,-0.215852260,-0.343652070
1640842567502240000,0.248488490,-0.094827980,9.056746480,-0.279298450,-0.214669140,-0.363199500
1640842567505859840,-0.580743310,-0.524391170,10.744706150,-0.206826640,-0.179609670,-0.352090600
1640842567507170048,-0.309152100,-0.346520160,9.001180650,-0.021334000,-0.173218590,-0.412817360
1640842567510799872,-0.500517550,0.067795020,10.037364010,0.006885830,-0.272229370,-0.420492950
1640842567512179968,-0.577974980,0.550515650,9.987335210,-0.117743030,-0.105878720,-0.352399050
1640842567516059904,-0.342199090,0.401265680,9.787812230,-0.209416480,-0.233328370,-0.373858300
1640842567517159936,-0.511984940,0.341388940,10.714997290,-0.109674060,-0.276091690,-0.358645710
1640842567520749824,0.137000800,0.663662550,8.931018830,-0.024096660,-0.184436130,-0.376962100
1640842567522259968,-0.022511220,0.637151900,10.221042630,-0.050310800,-0.186608730,-0.384080500
1640842567525740032,-0.032906760,0.758666160,10.355457310,-0.135123730,-0.165961680,-0.346969100
1640842567527239936,0.300360890,0.418528500,9.547882080,-0.171637580,-0.307944480,-0.351703260
1640842567530839808,0.035790070,0.116892760,10.053195950,-0.107367340,-0.217643380,-0.365823450
1640842567532480000,0.060788300,0.360638230,9.569588660,-0.078299640,-0.138135270,-0.374956430
1640842567535719936,-0.574684680,0.364316400,10.825567250,-0.111584370,-0.275750490,-0.371909140
1640842567537079808,-0.308455590,0.378654420,9.627088550,-0.150057700,-0.241346700,-0.355665390
1640842567540719872,-0.204451620,0.468747970,9.490258220,-0.174641650,-0.258855580,-0.367811380
1640842567542139904,-0.558060770,0.595285120,10.354412080,-0.147767350,-0.149393080,-0.370573970
1640842567545909760,-0.016161870,0.802993420,9.624333380,-0.134561970,-0.233511670,-0.364829600
1640842567547340032,-0.235208870,0.627236190,10.619761470,-0.145675260,-0.270047840,-0.353629980
1640842567550720000,0.260311220,0.713328480,9.373105050,-0.154840950,-0.160838680,-0.344562560
1640842567552110080,0.306638570,0.633116540,9.894596100,-0.187519210,-0.262063740,-0.349666210
1640842567555719936,0.311434950,0.542792860,9.885946270,-0.211739530,-0.151863710,-0.334821580
1640842567557199872,0.786585750,0.250550720,9.189523700,-0.186298800,-0.152640040,-0.350840420
1640842567560839936,0.019139510,-0.286063250,11.074922560,-0.116653730,-0.184960660,-0.351208450
1640842567562199808,-0.080298560,-0.082269920,9.542346950,-0.084035110,-0.204154850,-0.353270800
1640842567567569920,-0.362072140,-0.068241490,9.684719090,-0.165674140,-0.337624640,-0.358453450
1640842567568419840,-0.500928820,-0.113947500,9.578957560,-0.235724450,-0.087952620,-0.337906240
1640842567570899968,-0.160548330,-0.076539580,9.386435510,-0.149269420,-0.092114510,-0.376713280
1640842567572179968,-0.552946330,0.083128450,11.117621420,-0.022126730,-0.204926740,-0.386875870
1640842567575769856,0.188203660,0.719757970,9.094275470,-0.049164890,-0.201685740,-0.344194470
1640842567577250048,0.185419050,0.592505280,9.514058110,-0.178110600,-0.223137450,-0.333878400
1640842567580819968,0.171618920,0.184943970,10.080800060,-0.192347180,-0.075164440,-0.317353010
1640842567582409984,0.271661820,-0.031329880,9.747577670,-0.041358180,-0.179432330,-0.361074540
1640842567585760000,0.045141030,-0.090657880,10.084660530,0.033202770,-0.230498610,-0.377944140
1640842567587190016,0.124648890,0.099461410,9.491814610,-0.063945360,-0.122475640,-0.356595310
1640842567590720000,-0.492384700,-0.235270100,10.224682810,-0.144730520,-0.189256670,-0.356984140
1640842567592160000,-0.517872100,-0.380592970,9.939718250,-0.077088180,-0.220978260,-0.359535250
1640842567596259840,-0.318943170,-0.068168140,9.406762120,0.031328210,-0.206896680,-0.380691890
1640842567597260032,-0.548055890,0.338813720,10.073017120,0.007009510,-0.107808430,-0.386779040
1640842567601619968,-0.312422340,0.701735500,10.204302790,-0.059662770,-0.155268620,-0.364123370
1640842567602210048,-0.387621460,0.545289990,10.355000500,-0.075715780,-0.276602830,-0.363957880
1640842567605729792,-0.016231800,0.805103600,9.339526180,-0.031714140,-0.224959850,-0.359550150
1640842567607089920,0.088243870,0.959332760,9.599108700,-0.018218160,-0.166769340,-0.376623870
1640842567610839808,-0.243102920,0.887483000,10.536685940,-0.089927020,-0.139164940,-0.367279380
1640842567613600000,0.102603670,0.799303530,10.046558380,-0.091394770,-0.238592920,-0.358466770
1640842567615789824,0.025075030,0.408637580,10.122497560,-0.072386860,-0.238722560,-0.358875130
1640842567617819904,0.004200850,0.505164210,9.695855140,-0.083579120,-0.156675290,-0.359709560
1640842567620770048,-0.168514160,0.522493480,9.979949950,-0.104369220,-0.219897940,-0.366120070
1640842567622200064,-0.164653750,0.147998290,10.076523780,-0.150278230,-0.195442140,-0.354993310
1640842567625769728,-0.090919420,0.093686010,9.819226260,-0.075414780,-0.152738410,-0.372746590
1640842567627179776,-0.464266390,0.232555840,10.570636750,-0.037321450,-0.250026670,-0.383198320
1640842567630990080,-0.149959150,0.770345750,9.581575390,-0.138786450,-0.229167940,-0.354917350
1640842567632239872,0.216623980,0.870702210,9.104559900,-0.210401420,-0.180318970,-0.344382230
1640842567636160000,0.339133800,0.577906010,10.218005180,-0.179296720,-0.067916510,-0.344695090
1640842567637609984,0.430693720,0.630409300,10.217640880,-0.027476250,-0.113324830,-0.360165540
1640842567640699904,0.129822750,0.579851570,10.171350480,-0.030182310,-0.299952950,-0.353451160
1640842567642210048,0.232009800,0.424403880,9.511924740,-0.179553050,-0.207363070,-0.327064130
1640842567645740032,0.001566990,-0.191267800,9.275191310,-0.205759700,-0.092403590,-0.333462740
1640842567647199744,-0.215622220,-0.605094080,10.218226430,-0.079126680,-0.131529600,-0.370568130
1640842567650810112,-0.133285780,-0.292258830,10.087637900,0.038659570,-0.126838670,-0.396689800
1640842567652529920,-0.063810170,-0.005156370,9.566272740,-0.055970250,-0.155447440,-0.381995740
1640842567656160000,-0.159948240,0.023134660,10.292375560,-0.133471190,-0.143794720,-0.345762100
1640842567658419968,-0.161412090,-0.015793810,9.695029260,-0.085468610,-0.140017270,-0.353911610
1640842567660699904,-0.020473560,0.321713150,9.454013820,-0.003011520,-0.198081150,-0.373052090
1640842567662179840,-0.002078050,0.560224650,9.834103580,0.038419680,-0.050704190,-0.361108870
1640842567666789888,-0.059226080,0.570970240,10.200028420,-0.054654490,-0.080142920,-0.368465540
1640842567670739968,-0.375617270,0.433797630,10.717362400,-0.048388540,-0.223183600,-0.342151550
1640842567671360000,-0.116089280,0.245781080,9.309061050,-0.007185340,-0.211867690,-0.356628000
1640842567672179968,-0.149332940,0.290055390,9.531210900,-0.025150190,-0.125278530,-0.383634900
1640842567676960000,-0.334274890,0.334829990,10.303716660,-0.015522540,-0.033050780,-0.361767500
1640842567677459968,-0.088068630,0.121308900,10.350963590,-0.017628070,-0.171296280,-0.375500320
1640842567680719872,-0.160912220,0.335305150,10.308629040,0.006489460,-0.204700250,-0.367376240
1640842567682169856,0.075509380,0.548415720,9.281206130,-0.025439270,-0.160147260,-0.352203850
1640842567685920000,-0.202372510,0.440436180,10.367738720,-0.075936320,-0.129555180,-0.360962750
1640842567687650048,-0.412414280,0.634159920,10.137481690,-0.025476520,-0.123782470,-0.341665770
1640842567691020032,-0.117669550,0.576161740,9.848668100,-0.000019370,-0.241980000,-0.356869490
1640842567692199936,-0.275627370,0.856226380,10.260377880,-0.025764110,-0.117784760,-0.354778770
1640842567695719936,0.103874420,1.169938920,9.224435810,-0.119587800,-0.123828660,-0.343702730
1640842567697100032,0.046514510,0.761274460,10.563076970,-0.152289870,-0.175164630,-0.341139730
1640842567701750016,0.352438420,0.558227720,9.680600170,-0.055192410,-0.038054580,-0.346298520
1640842567706859776,0.248372790,0.283717220,10.086265560,0.013765700,-0.190804900,-0.354717700
1640842567708839936,-0.265327690,0.147687460,10.732734680,-0.019524990,-0.150400420,-0.332357050
1640842567709449984,0.030238430,0.014218730,8.995229720,-0.142444690,-0.167341530,-0.330649350
1640842567710700032,-0.204993780,-0.468023690,10.137635230,-0.126162190,-0.146679580,-0.332623720
1640842567712329984,-0.017915700,-0.403251980,9.771486280,0.021743770,0.016734000,-0.341683600
1640842567715669760,0.109798150,0.084698540,9.946763990,0.058868530,-0.149536150,-0.363409520
1640842567717229824,-0.003648020,0.495515020,10.304244040,-0.034640730,-0.113517050,-0.320382450
1640842567720759808,0.424253280,0.474036340,9.283810620,-0.126385730,-0.085587810,-0.327883720
1640842567722509824,-0.098660760,0.222161490,10.414091110,-0.029967730,-0.120171920,-0.347434010
1640842567725849856,0.015788280,0.508517320,9.391487120,0.095407660,-0.095115620,-0.356349440
1640842567727219712,-0.047185570,0.551987590,9.672435760,0.038824980,-0.125089300,-0.362694260
1640842567730850048,-0.430497620,0.136025460,10.367755890,-0.048194830,-0.028735400,-0.321741400
1640842567732189952,-0.205236420,-0.363819540,9.870055200,0.016625230,-0.128681970,-0.329707560
1640842567736069888,-0.592439060,-0.588444170,10.476852420,0.120539960,-0.182230740,-0.353525550
1640842567737229824,-0.002511970,-0.033161340,8.826366420,0.090745090,-0.075787310,-0.348474090
1640842567741590016,-0.019835400,0.149577290,10.105149270,-0.006829200,-0.051727890,-0.367514880
1640842567742279936,-0.097890630,0.290467950,10.704482080,-0.011818110,-0.018419330,-0.352883340
1640842567746150144,0.291417450,0.571351950,9.730995180,0.107680270,-0.190942000,-0.358107690
1640842567747170048,-0.218233120,0.753579440,10.410386090,0.146463500,-0.175473060,-0.366756290
1640842567750700032,-0.181124720,1.084780930,9.364660260,0.046570600,-0.058120500,-0.340764220
1640842567752430080,-0.536375760,0.789350930,10.169214250,-0.011104350,-0.161168020,-0.330083130
1640842567755849728,-0.497262780,0.467473600,10.341055870,0.025969750,-0.098338740,-0.323361250
1640842567757189888,0.070384230,0.604776260,9.404116630,0.099529350,-0.086337340,-0.343798190
1640842567760749824,-0.261284890,0.631815200,10.782887460,0.052554910,-0.102970030,-0.351402190
1640842567762209792,0.217274080,0.602933880,9.977097510,-0.043269990,-0.082512210,-0.315095480
1640842567765679872,0.124544860,0.093864710,9.929968830,-0.001329180,-0.148975850,-0.338400930
1640842567767200000,-0.101467620,0.097434600,10.155534740,0.083319850,-0.127872820,-0.349138770
1640842567771259904,-0.035338060,0.509284500,9.748976710,0.085057320,-0.133290900,-0.327301060
1640842567774720000,-0.232238020,0.474042450,10.006525040,-0.031919780,-0.123351830,-0.315445750
1640842567776109824,0.156746860,0.525814180,9.852939610,-0.046370930,-0.044225160,-0.298985840
1640842567777169920,0.072197650,0.405951440,10.405464170,0.051692140,-0.063468520,-0.325031610
1640842567780769792,-0.005280190,0.814947780,10.129211430,0.080364960,-0.115333510,-0.327683990
1640842567782189824,0.275764700,1.029167060,9.496632580,0.009211900,-0.149935510,-0.311842590
1640842567786249984,0.217972990,0.459010210,9.692065240,-0.082783400,-0.021949410,-0.302840800
1640842567787379968,0.230867830,0.211329390,9.892177580,0.011165440,-0.007110830,-0.308397380
1640842567790839808,-0.043636820,-0.117807460,10.331977840,0.124663140,-0.118608790,-0.318718020
1640842567792269824,-0.013643400,-0.126028720,9.638266560,0.083063540,-0.080782180,-0.308734150
1640842567795790080,-0.114809720,-0.192480530,9.578502660,0.016379360,-0.061146920,-0.302813950
1640842567797199872,-0.368006260,-0.486909000,10.283413890,0.007224080,-0.052751600,-0.309820500
1640842567800799744,-0.165963370,-0.069112760,9.690704350,0.113838920,-0.059856470,-0.327533420
1640842567802379776,-0.029799260,0.456555870,9.529722210,0.124812150,-0.074332950,-0.354161890
1640842567805879808,0.056159810,0.804109390,10.128993990,0.027398760,0.025650860,-0.326217710
1640842567807159808,-0.037764200,0.688866970,10.184819220,0.058655450,-0.021429360,-0.306020680
1640842567810749952,-0.206029040,0.355112640,10.181806560,0.149537670,-0.171688230,-0.304657280
1640842567812199936,-0.142726080,0.369102150,9.686171530,0.182485580,-0.085982700,-0.303965810
1640842567815719936,-0.225055050,0.347929510,9.371109010,0.093257440,0.013670330,-0.304026930
1640842567817189888,-0.335049990,0.099354700,10.724454880,0.035712120,-0.033909070,-0.303365260
1640842567821219840,-0.113023770,0.069352060,10.183416370,0.117236390,-0.047752260,-0.323179390
1640842567822229760,0.111469430,0.338319960,9.519018170,0.150825100,-0.135964160,-0.335758950
1640842567825690112,-0.089128140,0.669986010,10.172390940,0.128009920,-0.029496850,-0.324866210
1640842567827200000,-0.173309880,0.812385140,9.852230070,0.040666760,-0.039492550,-0.322321090
1640842567830759936,-0.326168420,0.702450340,10.465201380,0.053685900,-0.148087750,-0.305730130
1640842567832229888,-0.212476690,0.748075010,10.008412360,0.143226980,-0.056758530,-0.303271410
1640842567836969728,-0.198205680,1.020493030,9.868218420,0.098776820,-0.069728490,-0.306411120
1640842567838150144,-0.121903200,1.129754190,10.253459930,0.032374270,-0.066125390,-0.270944860
1640842567840739840,0.308382330,0.733502810,9.734268190,-0.010485950,-0.023755430,-0.279603870
1640842567842180096,0.385687890,0.524006310,10.235659600,0.041574240,-0.030392410,-0.304239990
1640842567846129920,0.298427730,0.704012330,10.057849880,0.111074750,-0.045342750,-0.296679140
1640842567847379968,0.242451920,0.628539740,9.781672480,0.003282730,-0.104030980,-0.296409460
1640842567850989824,0.100465510,0.384750810,9.803939820,-0.047239660,-0.033900150,-0.278948280
1640842567852229888,0.030789810,-0.032644480,9.683004380,0.024962430,0.011907520,-0.291749840
1640842567855849984,-0.447336440,-0.070961660,10.837496760,0.119014080,-0.046922270,-0.300040870
1640842567857209856,-0.474038450,0.358149650,9.693137170,0.115902730,-0.071242450,-0.274501770
1640842567860699904,-0.255424590,0.353778270,9.485800740,-0.032803420,-0.124000020,-0.272475210
1640842567862239744,-0.168072060,0.382011770,9.890125270,-0.046862660,0.066727410,-0.280459230
1640842567865749760,0.327700670,0.528166000,9.267529490,0.070263450,0.042922790,-0.307965280
1640842567869410048,0.201069680,0.643066760,10.878562930,0.142253980,-0.054346030,-0.316420290
1640842567870759936,0.403111370,0.861477730,9.876534460,0.068104270,0.012056530,-0.288692120
1640842567872640000,0.204430640,0.333413360,9.835437770,-0.023382900,-0.110562150,-0.281026990
1640842567875709952,-0.401165010,-0.209089320,10.469929700,0.060443590,-0.039231780,-0.265882940
1640842567877289984,-0.181098920,-0.130050970,8.851965900,0.133065890,-0.025315590,-0.301949710
1640842567880800000,-0.447292860,0.048059530,10.081507680,0.108475980,-0.035172700,-0.306934150
1640842567882329856,-0.383047130,0.250339420,10.212920190,0.043348970,0.086313510,-0.285358730
1640842567886629888,-0.146501030,0.375623490,10.138397220,0.029228630,-0.074762110,-0.309459890
1640842567887310080,-0.351825800,0.688950840,10.614514350,0.101886690,-0.084880000,-0.296308100
1640842567890789888,0.064612090,1.068063500,9.292359350,0.092087680,-0.021754200,-0.309881510
1640842567892310016,-0.284431160,1.156260850,10.402108190,0.037752100,-0.055435300,-0.304229590
1640842567895729920,-0.223892350,0.940690280,10.151400570,0.049446530,0.000548360,-0.265195970
1640842567897189888,0.215277540,0.554020050,9.734086040,0.080220410,-0.097502770,-0.273793970
1640842567900819968,-0.057961950,0.461560990,10.354503630,0.094780330,0.005820390,-0.269953940
1640842567902870016,0.235429700,0.683099990,9.601881980,0.015357140,-0.000204150,-0.266288250
1640842567905750016,0.117609110,0.316744240,10.546013830,-0.041593610,-0.059321530,-0.262005630
1640842567907419904,0.020779630,0.207681720,10.061866760,0.035259130,0.023013350,-0.271919400
1640842567910779904,0.180116120,0.444735940,9.653003690,0.099243250,-0.067445640,-0.298926230
1640842567912219904,-0.329760430,0.621261240,10.397987370,0.038328780,-0.013868510,-0.280726050
1640842567916049920,-0.030183250,0.912933890,9.221342090,-0.051161640,-0.001734500,-0.257377300
1640842567917209856,-0.009919840,0.355493280,10.407098770,-0.022919480,-0.021696090,-0.254483520
1640842567920749824,-0.143395290,0.233913620,10.509098050,0.092256080,0.082907080,-0.259117780
1640842567923569920,0.228126300,0.640197040,9.506814960,0.135882210,-0.078651310,-0.266529650
1640842567925900032,0.160702560,0.603937510,9.939659120,-0.010129810,-0.021256510,-0.269207390
1640842567927170048,0.495066970,0.631579220,9.186489110,-0.120177870,0.135473920,-0.246994230
1640842567930869760,0.232134510,-0.004419430,10.381358150,0.010293720,0.039920210,-0.273831190
1640842567932189952,-0.152596710,-0.208205860,10.727060320,0.190757230,-0.020705160,-0.286950200
1640842567935779840,-0.082644050,0.262515600,9.275421140,0.166747000,-0.073401630,-0.282999900
1640842567937280000,-0.566336930,0.110769700,9.803045270,-0.028693680,0.013619660,-0.269292320
1640842567941219840,-0.523627820,-0.092378130,10.156694410,-0.075848420,0.089591740,-0.248035820
1640842567942259968,-0.411440760,-0.088135060,10.013975140,0.126557040,0.012570620,-0.279235810
1640842567945699840,-0.151764150,0.493384750,9.905609130,0.224648450,-0.027138000,-0.284530310
1640842567947549696,0.261673060,1.253907800,9.507029530,0.096754730,0.043411560,-0.263474880
1640842567950700032,0.071118320,1.162119030,10.149615290,-0.069654000,0.061678890,-0.255759060
1640842567952239872,0.178102200,0.813922460,10.381086350,-0.015816090,-0.015367570,-0.273323060
1640842567955719936,0.174441320,0.734792950,10.020725250,0.159817950,-0.026451050,-0.301870700
1640842567957600000,-0.262766900,0.775609730,10.043568610,0.145840660,0.011539460,-0.287614790
1640842567960819968,-0.250244500,0.814760390,9.855416300,0.009706620,0.001236800,-0.257392260
1640842567962349824,-0.433651210,0.162267180,10.137577060,-0.076536830,-0.005897880,-0.228969780
1640842567965740032,-0.190867800,-0.043943890,9.950379370,0.022780890,0.033511220,-0.245809530
1640842567967209728,-0.025152720,0.285432850,10.090167050,0.153471560,0.031758850,-0.273463190
1640842567970789888,-0.193155560,0.766995730,10.482917790,0.050497070,-0.001432000,-0.265736880
1640842567972219904,0.303208860,1.076204180,9.738228800,-0.079034280,0.007422270,-0.242787610
1640842567976809984,0.430565090,0.626021680,9.804697990,-0.058583920,0.055575370,-0.264845820
1640842567977370112,0.052149760,0.638194740,10.379654880,0.066629060,0.043107570,-0.280763240
1640842567981920000,0.022709990,0.993611870,9.729089740,0.123478490,-0.026963650,-0.266575810
1640842567982449920,-0.262274740,0.686088680,9.832815170,-0.040529660,-0.035709140,-0.238466280
1640842567985649920,-0.245284590,0.307183410,9.950275420,-0.114172700,0.062607240,-0.221249430
1640842567987180032,-0.076609510,-0.155452090,9.747274400,0.019706780,0.094082940,-0.255747080
1640842567990749952,-0.107317710,-0.065120810,10.376989360,0.099498030,0.017388170,-0.278583200
1640842567992219904,0.133353110,0.438574110,9.862524990,0.054341560,0.055840620,-0.261732940
1640842567995709952,0.155104640,-0.032706370,9.731352810,-0.046055020,0.042930240,-0.256790160
1640842567997220096,-0.206440610,-0.325707500,10.733896260,0.031656030,0.002980230,-0.244376090
1640842568000699904,-0.133972440,-0.091277890,9.368192670,0.179795970,0.002938510,-0.273370740
1640842568002199808,-0.039607420,0.189303500,9.414592740,0.116641810,-0.001382830,-0.285221610
1640842568005799936,-0.294374610,0.542394940,10.658493040,0.026023390,0.159741920,-0.249499080
1640842568007219968,-0.151485160,0.325214890,9.963793750,0.036166610,0.073935090,-0.271655650
1640842568011299840,-0.189211090,0.364090530,10.363185880,0.152987260,-0.118464250,-0.271728630
1640842568013009920,-0.076097770,0.744751390,9.326850890,0.183160620,0.063718860,-0.253042610
1640842568017299968,-0.046825060,0.647599100,9.429835320,0.064061580,0.090019400,-0.276054470
1640842568017730048,-0.548926230,0.328470650,11.187826160,0.068554290,0.016160310,-0.245381910
1640842568021009920,-0.186733950,0.013755950,9.716107370,0.148147330,-0.003823640,-0.266401470
1640842568022199808,-0.154628200,0.067788650,9.859875680,0.189016760,-0.045353180,-0.286367540
1640842568025779968,-0.456431600,0.364606020,10.500930790,0.151443500,0.067853940,-0.247551530
1640842568027819776,-0.132720470,0.366386180,9.821512220,0.061976920,0.022234020,-0.268669430
1640842568030749952,-0.179186730,0.475473760,10.353658680,0.105224550,-0.047305230,-0.261333610
1640842568032219904,0.134124160,0.982000290,9.735515590,0.163213910,0.050437450,-0.262129310
1640842568035729920,0.122746270,1.343196030,10.049198150,0.098550320,0.006550550,-0.280688730
1640842568037240064,-0.215264530,1.461179140,10.683136940,0.037084520,-0.020025670,-0.243407490
1640842568040760064,0.058046780,1.102919820,9.716710090,0.045438100,-0.016067920,-0.248399360
1640842568042639872,-0.261513770,0.624248740,10.436699870,0.096535680,-0.018595160,-0.264529850
1640842568045819904,-0.489839850,0.705019240,10.204789160,0.122642520,0.025886300,-0.259916480
1640842568047279872,-0.287668680,0.643329740,9.827175140,0.013892350,-0.050807000,-0.260235370
1640842568050899968,-0.078425240,0.318482160,10.079379080,-0.061149890,-0.003124770,-0.244809660
1640842568052219904,0.385143760,0.064318590,9.599592210,0.032810860,0.124688440,-0.245174770
1640842568055719936,0.380397110,-0.038429210,10.610916140,0.141146790,0.025990610,-0.278469920
1640842568057209856,0.078628380,0.389446050,10.653751370,0.120970610,-0.014841550,-0.262300640
1640842568060770048,0.200716410,0.541496930,9.323940280,-0.008849800,-0.074929000,-0.235104590
1640842568062359808,-0.079704280,0.082740630,10.131707190,-0.034172840,-0.008800630,-0.245249320
1640842568065729792,-0.247577830,0.137806390,9.826893810,0.109267230,0.120358170,-0.254747300
1640842568067200000,-0.088944170,0.465464770,9.919240950,0.204852220,-0.010338420,-0.274850370
1640842568070789888,-0.175207290,0.627075910,10.595428470,0.101785360,0.046277040,-0.252395900
1640842568072419840,0.034666070,0.580759050,9.654064180,-0.008705260,0.074271860,-0.230908410
1640842568075689984,-0.057261600,0.012528820,10.265385630,0.065051000,-0.051404530,-0.251017480
1640842568077169920,-0.089673910,-0.139248270,9.939955710,0.205722420,0.030151000,-0.284473540
1640842568080809728,0.140195210,0.260078580,9.264732360,0.212508470,0.050127520,-0.290237400
1640842568082629888,-0.265753450,0.014701630,10.709936140,0.107805430,0.053980940,-0.276590880
1640842568085899776,-0.319103870,-0.168921190,10.479428290,0.089877840,0.006832180,-0.256438550
1640842568087200000,-0.117680620,-0.055906960,9.528720860,0.214339760,-0.077548620,-0.266651750
1640842568090729984,-0.251637730,0.182073440,9.920534130,0.238430510,0.013551120,-0.258435310
1640842568092219904,-0.057855160,0.747058870,9.901708600,0.169687000,0.120922950,-0.256910920
1640842568095799808,-0.021798320,0.763534780,10.429097180,0.129005310,0.040622060,-0.273691150
1640842568097230080,0.086062060,0.757736500,10.651836400,0.160874470,-0.032711030,-0.259782400
1640842568102139904,0.202020960,1.014626620,9.650113110,0.230230390,0.013975800,-0.261418550
1640842568102769920,-0.262274120,0.897609350,10.074563030,0.181427580,-0.004471840,-0.280091200
1640842568105779968,-0.463613060,0.690590320,10.607936860,0.115951920,-0.025972730,-0.252306460
1640842568107699968,-0.436727290,0.315923720,9.893703460,0.174917310,0.008951130,-0.254796450
1640842568110699776,-0.398454870,0.133606180,10.216868400,0.206178440,-0.033259390,-0.275778770
1640842568112199936,-0.235630530,0.757806240,10.254097940,0.171254610,0.035062440,-0.241169360
1640842568115749888,-0.005929730,0.885539950,9.952204700,0.064572690,0.016374890,-0.251936940
1640842568117189888,0.332370430,0.629643800,10.483144760,0.051994630,-0.024105600,-0.244489330
1640842568120770048,0.275134860,0.616644920,10.382759090,0.212755800,0.050753360,-0.244735200
1640842568122289920,0.021250540,0.712057410,10.199868200,0.247061270,-0.053364050,-0.279329750
1640842568125779968,-0.151702930,1.012911080,10.236428260,0.110468260,-0.103852150,-0.234328180
1640842568127189760,-0.182236210,0.724745750,9.602279660,0.000447030,0.007185340,-0.217856470
1640842568130689792,0.060327980,0.027204790,9.833745960,0.071433190,0.062021620,-0.256596540
1640842568132259840,-0.114750710,0.205658870,10.913507460,0.272664520,0.060990460,-0.257256720
1640842568135749888,-0.045972500,0.601693270,10.222198490,0.244542970,-0.042459370,-0.262698530
1640842568137219840,0.146008280,0.502011120,9.787301060,0.032179060,-0.073775660,-0.236390580
1640842568140919808,-0.123571990,0.170699280,10.134906770,0.019109250,0.044649840,-0.225722830
1640842568143689984,-0.105868860,-0.246690010,9.808615680,0.196018820,0.014929480,-0.273504850
1640842568145740032,-0.214273070,0.064694200,10.447554590,0.330257420,-0.048457080,-0.291912290
1640842568147199744,-0.294560790,0.516291260,10.266227720,0.229766980,0.016456840,-0.251877340
1640842568150779904,-0.172602650,0.062529650,10.175262450,0.066182020,-0.022120770,-0.244368640
1640842568152259840,-0.341697960,-0.033922450,10.708775520,0.149680640,-0.057460360,-0.233526530
1640842568155859968,0.036760110,0.247190640,9.708822250,0.291153820,-0.010390580,-0.264100730
1640842568157229824,0.236022170,0.623247800,9.933630940,0.272955000,0.016976890,-0.285887720
1640842568160790016,-0.124394750,0.996496620,10.820791240,0.182588380,0.041176380,-0.256843810
1640842568162210048,0.164900660,0.669472580,10.122444150,0.146256400,-0.054256630,-0.245061560
1640842568165659904,-0.042894860,0.403264250,10.305375100,0.234875100,-0.088250640,-0.256271660
1640842568167219968,-0.333023700,0.656368200,10.152270320,0.297752020,-0.021041930,-0.261947450
1640842568170899968,-0.254935500,0.719555970,10.106127740,0.198954340,-0.010229650,-0.260773330
1640842568172259840,-0.428436100,0.461167840,10.890427590,0.151900960,-0.033062700,-0.232024510
1640842568175719936,-0.053527380,0.359968510,10.239711760,0.217534620,-0.011375550,-0.248712270
1640842568177350144,0.260672450,0.617500250,10.057706830,0.231230260,-0.026962160,-0.264443460
1640842568180770048,0.130036820,1.006947520,10.433259960,0.185042650,-0.022061170,-0.256302980
1640842568182200064,0.378548290,0.878161370,9.950547220,0.124733150,0.017462670,-0.248219040
1640842568185869824,0.205352780,0.303253530,10.647358890,0.191307070,-0.038959090,-0.257766280
1640842568187249920,-0.088037550,0.212498990,10.612016680,0.309072460,-0.028677280,-0.250446830
1640842568191820032,0.055023900,0.492388490,9.670301440,0.265373290,-0.046987840,-0.249093820
1640842568192529920,-0.094024820,0.495895150,10.044973370,0.108458100,-0.011734670,-0.241942700
1640842568195819776,-0.046116310,0.264420960,10.122266770,0.104790930,0.094467390,-0.235253590
1640842568197289984,0.179981890,0.013522690,10.325807570,0.270393580,0.015679010,-0.273466200
1640842568200790016,-0.164290460,0.287829910,10.733959200,0.371451740,-0.052885720,-0.282052250
1640842568203249920,0.082914530,0.812176880,9.613780980,0.245112210,-0.048519680,-0.267826020
1640842568205779968,0.110130700,0.531014440,9.769346240,0.081174080,0.031913820,-0.276050000
1640842568207269888,-0.257050310,0.006295060,10.821488380,0.164918600,0.055830180,-0.273571910
1640842568211309824,0.021280260,0.024436830,10.235753060,0.405354800,-0.021097070,-0.289757580
1640842568212409856,-0.050006510,0.269761410,10.034372330,0.424003660,-0.063204770,-0.285916090
1640842568215759872,-0.084395920,0.410930070,9.987396240,0.221073640,0.025576360,-0.240333380
1640842568217259776,0.129657670,0.232828650,10.124252320,0.143055590,0.062599770,-0.250062350
1640842568220749824,0.064475280,-0.042190800,10.573119160,0.274418290,-0.006030500,-0.281448690
1640842568222249984,0.241340560,0.515239480,10.215085030,0.421491350,0.020705170,-0.294926790
1640842568225769984,0.094844970,1.052675490,10.214272500,0.359250660,0.034235420,-0.286576240
1640842568227549952,-0.278182240,0.997006240,10.609316830,0.180043270,-0.028900800,-0.268080800
1640842568230840064,-0.194436040,0.782010610,10.205095290,0.190243120,-0.027795140,-0.253601400
1640842568232209920,-0.117950040,0.504739700,10.014227870,0.338825670,0.007517640,-0.281770560
1640842568235849984,-0.129813510,0.832972110,10.372247700,0.372010560,0.066570960,-0.294986430
1640842568237210112,0.138931930,1.277589560,10.477119450,0.249381390,0.042112180,-0.273211300
1640842568240790016,0.437458100,0.969558660,10.236647610,0.112769000,0.045229490,-0.259855330
1640842568242230016,0.626656530,0.590059520,10.353389740,0.161826630,0.040525200,-0.261551110
1640842568245789952,0.465340820,0.502620400,10.476546290,0.344108050,0.065822900,-0.294557240
1640842568247229696,-0.069548410,0.625062290,10.343670850,0.311405960,0.000382960,-0.309506060
1640842568251819776,-0.293026180,0.604346510,10.347433090,0.164945420,-0.040955850,-0.262807340
1640842568252339712,-0.245419640,0.143075760,9.951075550,0.133614240,0.084146860,-0.259068610
1640842568255719936,-0.214480740,0.008992030,10.204555510,0.220583410,0.101199750,-0.285285740
1640842568257220096,-0.015816910,0.532952430,10.669737820,0.316701830,0.086627910,-0.288374720
1640842568260759808,0.237310590,0.936824620,10.195389750,0.250683750,0.097101930,-0.290255250
1640842568262259968,0.450127570,0.790406760,10.201200490,0.131981070,0.032939020,-0.272655490
1640842568265760000,0.417582600,0.535512090,10.365276340,0.193727020,0.103963910,-0.283135500
1640842568270049792,0.382683840,0.449054450,9.759563450,0.292366740,0.072817510,-0.317053500
1640842568270779904,0.286348970,0.546464200,10.104829790,0.281628970,0.060430170,-0.314004750
1640842568272249856,-0.093774330,0.412203040,10.591650010,0.216247160,0.154051180,-0.299048450
1640842568275719936,-0.225001250,-0.191618930,10.386871340,0.203219100,0.070676230,-0.294180270
1640842568277220096,-0.418897060,-0.361503450,10.632905010,0.324817030,0.001290440,-0.283408190
1640842568280759808,-0.254286380,0.101324340,9.730564120,0.356262920,0.102825490,-0.307405020
1640842568282409984,0.035690000,0.501097260,9.669024470,0.220693660,0.154180790,-0.324924260
1640842568285719808,-0.063793390,0.462288140,11.193034170,0.200291020,0.142166030,-0.318172570
1640842568287190016,0.232002350,0.486859170,10.407689090,0.329877500,0.093123340,-0.330816270
1640842568290710016,0.339882880,0.935012760,9.971547130,0.386947450,0.000777840,-0.320088950
1640842568292429824,0.026956020,1.221421000,10.512261390,0.276419550,0.095990290,-0.302045020
1640842568295810048,-0.040259950,1.161193490,10.093917850,0.143533960,0.167198490,-0.301504140
1640842568297199872,-0.141751720,0.653346900,10.826851840,0.218492750,0.032588840,-0.300559400
1640842568302860032,-0.052868930,0.470265420,10.598493580,0.370298390,0.117196170,-0.312247900
1640842568303619840,0.117643590,0.940579000,9.673942570,0.330868390,0.141325590,-0.326423380
1640842568305769984,0.015488690,0.950653670,10.683404920,0.151521010,0.078263900,-0.318503440
1640842568307239936,0.055037370,0.713394820,10.604489330,0.091184660,0.148499030,-0.300486390
1640842568310700032,0.320756910,0.393204810,10.003879550,0.230874140,0.098842380,-0.318823750
1640842568312249856,0.044854590,0.408119770,11.072438240,0.370535340,0.086708380,-0.325158330
1640842568316920064,0.014835020,1.008463740,10.294121740,0.270709430,0.149381180,-0.315758590
1640842568317890048,0.380485770,1.095078710,9.680603980,0.060565780,0.105133680,-0.285844500
1640842568320979712,0.349845860,0.641482470,10.730132100,0.054822870,0.205092160,-0.285004140
1640842568322219776,0.530903700,0.628639880,10.119585990,0.240206730,0.248330830,-0.324487720
1640842568325729792,0.344594000,0.918313500,10.479484560,0.335185320,0.071187320,-0.338688550
1640842568327200000,0.113626590,1.060750010,10.353969570,0.177979510,0.121594980,-0.316606550
1640842568330899968,0.312550840,0.766776320,9.364727020,-0.002752240,0.222554820,-0.306326180
1640842568332239872,0.025901210,-0.076468360,10.789416310,0.104689620,0.212197010,-0.329959420
1640842568336999936,-0.223287870,-0.167529540,11.016275410,0.314883980,0.206032440,-0.353908600
1640842568337560064,0.015272710,0.330423330,9.797016140,0.331564310,0.119228680,-0.334066210
1640842568340760064,-0.131807360,0.225226880,10.280136110,0.137768690,0.152586420,-0.316575200
1640842568342469888,0.052075250,0.128822460,9.927587510,0.045067070,0.271055130,-0.307992100
1640842568345719808,0.477428080,0.301510630,9.927761080,0.206974190,0.227284450,-0.338748100
1640842568347319808,0.380722080,0.688125250,10.808134080,0.309741530,0.234319300,-0.366763800
1640842568350819840,0.427266540,1.269811270,10.425851820,0.235031590,0.235950980,-0.344002310
1640842568352219904,0.145321490,1.034756780,10.553348540,0.131289660,0.160807420,-0.326114890
1640842568355749888,-0.311240080,0.501446720,10.524363520,0.137978790,0.146353240,-0.326177510
1640842568357209856,-0.196828600,0.535953400,9.537409780,0.241592560,0.198337480,-0.348514380
1640842568360679936,-0.357240710,0.714571240,10.258479120,0.241614910,0.253424080,-0.373889540
1640842568362809856,-0.287677080,0.813255550,10.776280400,0.111012180,0.269834730,-0.354027810
1640842568366479872,0.177931990,0.824130420,10.481532100,0.087472800,0.207343730,-0.337296750
1640842568367950080,0.308651800,0.594080750,10.660323140,0.154934790,0.199173410,-0.355504390
1640842568370789888,0.291620790,0.776710630,10.489282610,0.191353260,0.241771360,-0.367964830
1640842568372229888,0.129447490,1.080766560,10.538174630,0.161297620,0.189732030,-0.352957840
1640842568375969792,0.124816350,0.780585470,10.342082020,0.065363950,0.181506590,-0.336222350
1640842568377260032,0.198614940,0.699766640,10.093273160,0.070394580,0.268338620,-0.334163040
1640842568380879872,0.180572350,0.956896600,10.562771800,0.129690800,0.260491700,-0.349244560
1640842568382220032,0.124573770,1.127894640,10.693313600,0.075021410,0.260841910,-0.368316560
1640842568385720064,0.346066210,1.375887040,10.292827610,0.004231930,0.241163420,-0.356315080
1640842568387349760,0.323384400,1.090721610,10.483224870,0.006620590,0.287327170,-0.353604640
1640842568390939904,0.073190250,0.860414740,10.518379210,0.042298440,0.263036820,-0.372299580
1640842568392230144,0.138217360,1.049708840,10.053984640,0.053301460,0.207960610,-0.356864960
1640842568395699968,0.201645520,0.722358170,9.800364490,-0.025694080,0.339280130,-0.349333970
1640842568397179904,0.134017170,0.191386490,10.604241370,-0.044214730,0.343546360,-0.343571660
1640842568400790016,0.152409270,0.068199150,10.875873570,0.073988740,0.302819940,-0.341251520
1640842568402259712,0.225577040,0.206276370,10.035959240,0.082112830,0.247363730,-0.362649500
1640842568406179840,0.495413120,0.668014410,9.793565750,-0.050207980,0.297929440,-0.369846880
1640842568408399872,0.496069070,0.832937000,10.045387270,-0.124125200,0.450678230,-0.373347190
1640842568411219712,0.404014050,0.470616610,10.514714240,-0.020018230,0.363379780,-0.405947920
1640842568412570112,0.185446230,0.735075410,10.764488220,0.135648270,0.253227350,-0.399886160
1640842568415719936,-0.016828360,1.000677470,9.773988720,0.081670290,0.297200710,-0.371906220
1640842568417219840,-0.297318340,0.479321870,9.984338760,-0.099875060,0.325022700,-0.365178380
1640842568420669952,-0.606286410,0.101629940,10.901124950,-0.070254510,0.360007640,-0.345316590
1640842568422230016,-0.234223950,-0.077299780,9.965711590,0.083376470,0.348949460,-0.376023290
1640842568425760000,0.005779820,0.335620020,10.349658970,0.112420340,0.319194790,-0.397329120
1640842568427529728,0.119560920,0.933574260,10.617603300,-0.012281540,0.389587970,-0.370384810
1640842568430799872,0.332923080,0.705739200,10.101309780,-0.109124200,0.333094690,-0.379587740
1640842568432219904,0.293660280,0.653559920,10.676043510,-0.017774110,0.258426430,-0.374938640
1640842568435770112,0.362142120,1.046022420,10.118750570,0.098601010,0.395658700,-0.388956070
1640842568437239808,0.141309650,1.291743990,10.296148300,0.022359190,0.358654620,-0.391988550
1640842568441149952,-0.129806580,1.307427530,11.147209170,-0.110806540,0.294087860,-0.342315470
1640842568442329856,0.001468870,0.860518520,10.049974440,-0.110517460,0.352291760,-0.344608750
1640842568446209792,-0.010063590,0.514649630,10.048869130,-0.015944250,0.327076080,-0.374309810
1640842568450589952,-0.218153510,0.856004660,10.787386890,0.022938850,0.387884680,-0.370675300
1640842568450979840,-0.073048490,1.084475640,10.172300340,-0.099509970,0.367079700,-0.371857080
1640842568452229888,0.172787830,0.679732860,10.533052440,-0.196214050,0.296174020,-0.351475180
1640842568455699968,0.204294990,0.430113320,10.730301860,-0.100678210,0.404617220,-0.353692470
1640842568457600000,0.297179520,0.518023190,10.043636320,0.002169610,0.379350810,-0.384512540
1640842568461099776,0.196944150,0.749263700,10.516298290,-0.049723690,0.302684310,-0.366210940
1640842568462289920,0.111096020,0.807252710,10.271376610,-0.163239240,0.380796220,-0.343793630
1640842568465699840,0.283422890,0.420524510,9.831390380,-0.171042990,0.375185940,-0.352436300
1640842568467219712,0.123391130,0.448786200,10.628711700,-0.065700710,0.361007540,-0.366133510
1640842568470779904,0.279565570,0.860202790,9.977757450,-0.030685970,0.425918460,-0.388608930
1640842568472239872,0.360825240,0.948150460,10.114592550,-0.147849320,0.411102270,-0.380474390
1640842568476179712,-0.033038690,0.467874800,11.295064930,-0.177663560,0.405949350,-0.348739360
1640842568477540096,-0.186089500,0.023426660,10.201680180,-0.048995030,0.348666370,-0.367708590
1640842568481279744,-0.198066100,0.094309630,9.617213250,0.021645430,0.250415500,-0.376321430
1640842568482230016,-0.237490400,0.316832990,9.922195430,-0.086532560,0.422851800,-0.371030060
1640842568485659904,-0.063595290,0.292113570,9.978800770,-0.182172660,0.518943310,-0.376825060
1640842568487200000,0.036794280,0.074666010,11.233496670,-0.090809190,0.352677760,-0.384609490
1640842568490929920,0.169668730,0.516787290,10.630094530,0.043405600,0.334286690,-0.382794440
1640842568494729984,0.389566870,1.137112740,9.368369100,-0.020699210,0.332067970,-0.370515970
1640842568495719936,0.141453070,1.040504460,10.372422220,-0.179176060,0.393967390,-0.359441430
1640842568497210112,-0.274259330,0.648826960,10.710412030,-0.143672560,0.418257800,-0.359514420
1640842568501570048,-0.070816350,0.463263630,10.019659040,0.015062100,0.297899540,-0.376178380
1640842568502240000,-0.253276650,0.604294420,10.485347750,0.043204430,0.321547690,-0.385478230
1640842568506019840,-0.298129770,0.968453110,10.163087840,-0.120550420,0.423058900,-0.372335310
1640842568508219904,-0.013787660,0.799629630,10.274596210,-0.238567640,0.360673730,-0.359113600
1640842568510819840,-0.029665680,0.452030270,10.982324600,-0.143118220,0.361068610,-0.356511830
1640842568512270080,0.312028350,0.780275230,10.001111980,0.009508430,0.398846060,-0.379908140
1640842568515849728,0.237676260,1.173022630,10.306660650,-0.037004060,0.330565960,-0.368885760
1640842568517230080,-0.050181530,1.178608660,10.726673130,-0.210690540,0.334101970,-0.336904910
1640842568520749824,0.222323000,0.758222760,9.725354190,-0.244343330,0.365450980,-0.318673250
1640842568522469888,0.191988010,0.211890920,10.563555720,-0.096410540,0.373037220,-0.357684580
1640842568525830144,-0.167784390,0.629086850,10.951255800,-0.002236660,0.419850710,-0.375284340
1640842568527249920,0.086430420,1.042448880,10.146551130,-0.129182640,0.321050020,-0.358735020
1640842568530729984,0.220350830,0.949502650,10.190547940,-0.314375820,0.325299890,-0.347390860
