timestamp,accel_x,accel_y,accel_z,gyro_x,gyro_y,gyro_z
1640787724545440000,-0.065759870,0.440892730,9.725732800,0.010849540,-0.080467760,-0.026643280
1640787724546769920,-0.258430000,0.342442300,9.922976490,-0.002004210,-0.062975290,-0.031031670
1640787724550459904,-0.279127390,0.262805520,9.918646810,0.001741950,-0.094184290,-0.023831430
1640787724551800064,-0.409256280,0.201918530,10.033437730,0.022797290,-0.090295080,-0.009478630
1640787724555640064,-0.478257600,0.178371770,9.895530700,-0.003571810,-0.090369580,0.008156900
1640787724556769792,-0.385769640,0.243854020,9.856287000,-0.028990210,-0.102920830,0.010868910
1640787724560809728,-0.332128490,0.187705130,9.900524140,-0.027094780,-0.071515140,0.001491610
1640787724561879808,-0.186894830,0.313490990,9.921201710,-0.007197260,-0.069667400,-0.012552740
1640787724571779840,-0.114840970,0.617562230,10.040378570,0.001625720,-0.112962740,-0.022506720
1640787724572849920,-0.062950160,0.695876720,9.941363330,-0.056320440,-0.101223600,-0.014905630
1640787724573429760,0.058398590,0.709542160,9.682827000,-0.099359470,-0.081484030,0.002454220
1640787724575109888,-0.246650010,0.404146220,10.376570700,-0.061957540,-0.099805000,-0.008137530
1640787724575429888,-0.328367770,0.225301430,10.090352060,-0.002333520,-0.100323560,-0.005906820
1640787724576730112,-0.255067560,0.152092620,9.466230390,-0.001901390,-0.149327500,0.013569000
1640787724580519936,-0.369950120,-0.216868030,9.912092210,-0.067271300,-0.097513210,0.008074940
1640787724582779904,0.063986350,-0.114242290,9.060908320,-0.075660650,-0.012461840,0.004906950
1640787724585539840,-0.072971420,0.002931820,10.148673060,-0.053589050,-0.083734100,-0.000391900
1640787724586880000,-0.116801520,0.237698020,10.372759820,-0.075906520,-0.055220730,0.007113810
1640787724590779904,0.067720670,0.344647790,9.579847340,-0.063364220,-0.158828510,0.003178420
1640787724593489920,-0.494136150,0.017153450,10.506316180,-0.019975010,-0.160390140,-0.010114910
1640787724595840000,-0.305898250,0.084504930,8.993215560,0.025680670,-0.047154730,-0.002273920
1640787724597309952,-0.495564280,-0.063369680,9.953575130,0.013346970,-0.123277310,-0.016266110
1640787724605839872,-0.595960560,0.064294900,10.476107600,-0.044254960,-0.056022410,0.009390710
1640787724606839808,0.010261760,0.366537510,9.156020160,-0.084663910,-0.129318220,0.019569690
1640787724607329792,-0.307439000,0.387365430,10.597293850,-0.101695940,-0.142659230,0.001221900
1640787724607699968,0.025233830,0.608931010,9.564042090,-0.067630420,-0.021392110,0.002823770
1640787724610469888,0.005685200,0.448280720,10.192874910,-0.005848710,-0.155030210,-0.021097060
1640787724612609792,-0.407182750,0.314213310,10.782989500,-0.002241130,-0.124821070,-0.003571810
1640787724615680000,0.140346010,0.192563730,8.845207210,-0.028195980,-0.129753350,0.009593370
1640787724616780032,-0.213269560,-0.000366880,10.167406080,-0.082616510,-0.111219290,0.008518990
1640787724620649728,-0.289301900,0.146933960,9.773270610,-0.120528050,-0.002168120,0.037035340
1640787724622279936,-0.085767840,0.109998630,9.782134060,-0.092214350,-0.179435330,0.028665360
1640787724626070016,-0.300772010,0.035322820,10.455287930,-0.033091010,-0.126001240,0.018115340
1640787724626989824,0.146988500,0.179403770,8.917695050,0.006538630,-0.071969640,-0.008158390
1640787724630470144,-0.207090200,0.242233040,10.507102010,-0.032223760,-0.104202330,-0.011740630
1640787724631820032,-0.235614090,0.257634130,9.971506120,-0.109297040,-0.045298040,0.009702150
1640787724635729920,0.028659390,0.160502600,9.520887370,-0.087924300,-0.183843090,0.001466270
1640787724636740096,-0.382922770,0.099656980,10.330240250,-0.030206150,-0.103293360,0.015808640
1640787724640419840,-0.122527640,0.044216100,8.923989300,-0.016056000,-0.072443490,0.006364290
1640787724641769984,-0.337093710,-0.098758620,10.481615070,-0.008909400,-0.158797220,0.001518430
1640787724645540096,-0.208730300,0.025948920,9.746059420,-0.039279460,-0.022716820,0.000821050
1640787724646769920,0.089480150,0.161237170,9.491326330,-0.071159010,-0.144940630,-0.010633470
1640787724650429952,-0.242357840,0.440672220,10.711534500,-0.073331590,-0.074596700,-0.000202660
1640787724652199936,0.045555110,0.652798770,9.266916280,-0.099006300,-0.076204550,-0.015716250
1640787724655389952,-0.270533800,0.562486950,10.494438170,-0.061078380,-0.203557340,-0.004366040
1640787724656739840,-0.470304490,0.363109860,9.971350670,-0.034204130,-0.059047350,-0.006207820
1640787724660819968,-0.224192260,0.038858200,9.460188870,-0.017070780,-0.150738700,-0.020477180
1640787724662599936,-0.582194860,0.181156580,10.793169980,-0.019600990,-0.117611890,0.019443040
1640787724665689856,-0.028371310,0.306387130,9.133664130,-0.139610470,-0.053848340,0.006157160
1640787724666829824,0.215492280,0.303180190,9.771732330,-0.188466920,-0.137284400,0.015163420
1640787724670519808,0.057674960,0.520305450,10.298931120,-0.112482930,-0.025528670,0.013613700
1640787724671729920,0.395141720,0.346718580,9.568689350,-0.057932730,-0.100824240,-0.019592050
1640787724675459840,-0.116950540,0.184651970,10.721455570,-0.014026460,-0.178150830,0.010696050
1640787724676719872,-0.193676290,-0.175031070,9.752388000,-0.044259430,-0.090783840,-0.015924870
1640787724680519936,-0.095525530,-0.431589370,9.403851510,-0.078408430,-0.118798020,-0.010520220
1640787724683229952,-0.482975040,-0.249637340,10.109148980,-0.073632610,-0.027304890,0.014874340
1640787724685639936,-0.069419230,-0.155292320,9.612396240,-0.110453370,-0.029633940,-0.014050300
1640787724687069952,0.002239870,0.184207980,10.127981190,-0.069922210,-0.125053540,0.007256870
1640787724690449920,-0.117854820,0.293621780,9.965497020,-0.033326450,-0.080530350,-0.002902750
1640787724691799808,0.098212350,0.262532110,9.684095380,-0.041800740,-0.072871160,-0.033450130
1640787724695819776,-0.322978470,0.311564270,10.549618720,-0.008098780,-0.090278690,-0.017309190
1640787724697659904,-0.270422460,0.260906520,9.981398580,-0.034159430,-0.105038290,-0.010047850
1640787724700489984,-0.145249040,0.310795130,9.676921840,-0.080409650,-0.107657910,0.002247100
1640787724703109888,-0.261168750,0.309112190,9.882461550,-0.094294550,-0.052072110,0.002433360
1640787724705400064,-0.089723050,0.356431370,10.033954620,-0.086471440,-0.057806080,0.004611910
1640787724706759936,-0.166920210,0.397309840,10.215769770,-0.046306850,-0.085315110,-0.000733140
1640787724710490112,-0.001268770,0.336664440,9.794959070,-0.052106390,-0.110988330,-0.005911290
1640787724711959808,0.159631430,0.484840330,9.829621320,-0.082747630,-0.056612490,-0.013197960
1640787724715659776,0.039416490,0.450527400,9.892819400,-0.128746050,-0.025537610,-0.010406970
1640787724719030016,0.116967840,0.309114340,9.950700760,-0.153133290,-0.064617400,0.002013150
1640787724720409856,-0.116123170,0.056229610,10.157361030,-0.087538370,-0.065232820,-0.006037950
1640787724721789952,-0.186622250,-0.201609910,9.727200510,-0.015474860,-0.098177810,-0.005073850
1640787724725410048,-0.349904450,-0.137495590,9.758756640,-0.020202990,-0.081278390,-0.001628700
1640787724726709760,-0.403490570,-0.197096290,9.737825390,-0.121821470,-0.030770900,-0.010117890
1640787724730919936,0.022353510,-0.100697930,9.536861420,-0.140087320,-0.012774770,-0.004737080
1640787724733600000,0.003593510,0.229879890,10.274558070,-0.079262260,0.009006260,-0.013397630
1640787724735679744,0.089348350,0.506314990,10.157823560,-0.077484530,-0.011755530,-0.018413360
1640787724736739840,0.096064190,0.549927120,9.959838870,-0.079914930,-0.116048770,-0.008173290
1640787724740419840,-0.268400850,0.093033760,10.117636680,-0.058548160,-0.075297070,-0.018320980
1640787724741789696,-0.145197050,-0.152800410,9.294645310,-0.016961990,-0.012920800,-0.025112930
1640787724745869824,-0.418076930,-0.133750140,10.238976480,0.003378090,-0.029113890,-0.023119150
1640787724747510016,-0.390618410,0.040307790,10.402589800,-0.088202960,0.008825960,-0.022169950
1640787724750469888,0.136838660,0.489823340,9.485186580,-0.167942060,-0.038760900,0.002506380
1640787724751770112,-0.044322720,0.508413200,10.454218860,-0.175680240,-0.021208820,-0.005207960
1640787724755409920,0.178521750,0.629845020,9.792331700,-0.089995560,0.051051380,-0.027751920
1640787724756759808,-0.026693440,0.594036460,10.182232860,0.019218030,-0.092224780,-0.025232140
1640787724760959744,-0.376700460,0.241019760,10.380821230,-0.034408270,-0.051595270,-0.004950170
1640787724761869824,0.063605000,-0.049596080,8.888096810,-0.116089010,-0.006760660,0.002622600
1640787724765519872,-0.208984660,-0.378940400,10.343395230,-0.109718730,0.010411440,0.004033740
1640787724766919936,-0.140125440,-0.230212110,10.118940350,-0.095781680,0.102400790,0.005598370
1640787724770419712,0.128744170,0.005437370,9.850663190,-0.070303680,-0.060924900,-0.013253090
1640787724771739904,-0.162648830,-0.050508440,10.545112610,-0.069980340,-0.025013090,-0.020319220
1640787724775499776,0.259963070,0.130199020,8.919932370,-0.032970310,0.031505530,-0.028595330
1640787724776839936,-0.123259780,0.182148830,10.199599270,-0.017791990,-0.008407240,-0.046084820
1640787724780689920,-0.245247440,0.320982430,10.115403180,-0.074437250,0.086358180,-0.031901890
1640787724781839872,-0.086046290,0.378567790,9.794045450,-0.082784890,-0.051443290,-0.021950900
1640787724785629952,-0.455430150,0.122099740,10.612392430,-0.053852800,-0.021925570,-0.001855190
1640787724786749952,-0.087739780,0.091124630,9.131868360,-0.027500100,0.047458710,-0.013487040
1640787724790390016,-0.353829210,-0.108342280,10.587582590,0.010108950,-0.007765000,-0.018243490
1640787724791980032,-0.316619190,-0.065676580,10.358717920,-0.009596350,0.069576510,-0.015178320
1640787724795960064,0.122956280,0.098390980,9.457525250,-0.056703390,-0.056874760,-0.023347140
1640787724797179904,-0.071799700,0.184154000,10.404502870,-0.072813030,0.026383990,-0.010974710
1640787724801189888,0.306763860,0.587979140,9.243425370,-0.097657760,0.104625540,-0.032128400
1640787724801799936,-0.093418250,0.544512510,10.796302800,-0.062914190,-0.039131940,-0.027027730
1640787724805399808,-0.312365110,0.421560650,10.397778510,-0.022011990,0.023996830,-0.014197820
1640787724806809856,-0.029124830,0.159163800,9.288102150,0.009916720,-0.053571160,-0.030490750
1640787724810519808,-0.477021930,-0.021434460,10.466938020,0.021600720,0.017550590,-0.004677470
1640787724811950080,0.038125820,0.225647960,9.004832270,-0.082778940,0.145880880,-0.006018580
1640787724815490048,0.134347390,0.064070360,10.181470870,-0.153465580,0.020009280,0.007346270
1640787724816779776,0.130197450,0.184558630,10.520902630,-0.088062870,0.105224530,0.010818240
1640787724820410112,0.453284110,0.195914480,9.410423280,-0.006352370,0.012685360,-0.042410200
1640787724821819904,-0.277551260,0.060566810,10.780291560,0.020469730,-0.019578640,-0.035455820
1640787724825619968,-0.223002340,-0.036568570,9.471079830,-0.015154480,0.077636550,-0.053544350
1640787724826759936,-0.284114120,-0.383718790,9.791241650,-0.013111530,-0.014564390,-0.054375830
1640787724830509824,-0.544936950,-0.163324850,10.243528370,0.002825260,0.105650730,-0.024151800
1640787724831830016,0.003177070,0.248978380,9.398429870,-0.037649270,0.092202420,-0.033600620
1640787724835779840,-0.220567270,0.440441160,10.783947940,-0.082062190,0.033147630,-0.000645220
1640787724836789760,0.049196300,0.643780950,9.748220440,-0.063502800,0.085392590,-0.007723270
1640787724840679936,0.106219700,0.451523420,9.925956730,-0.005541740,0.003412370,-0.047953430
1640787724842010112,-0.279711040,0.411481410,10.467317580,0.045309960,0.065977860,-0.040979680
1640787724845870080,-0.049297510,0.394609810,9.457644460,0.016248230,0.037398930,-0.044694540
1640787724846759936,-0.250737880,0.221164060,10.353699680,-0.093632940,0.039602820,-0.030598050
1640787724850419968,-0.136006800,0.162226140,9.648511890,-0.126963840,0.141334520,-0.002817810
1640787724851789824,-0.009874550,0.059397160,10.056461330,-0.050902370,0.025372210,-0.026014450
1640787724855379712,-0.243501280,0.191516000,10.466570850,0.012776260,0.087092810,-0.029873850
1640787724856900096,0.107679540,0.248320480,9.098052980,-0.012752410,0.037798290,-0.020463770
1640787724860460032,-0.026927780,-0.011947920,10.299094200,-0.056053710,0.040487950,-0.035198040
1640787724863449856,0.120579200,0.058350380,9.407245640,-0.057607890,0.186854600,-0.036360330
1640787724866240000,0.013163840,0.189123500,10.058137890,-0.029532610,0.041729210,-0.043183570
1640787724866809856,-0.481751650,0.176395450,10.877699850,-0.048820680,0.081165130,-0.029817230
1640787724870519808,-0.151807760,0.035344040,9.028710370,-0.037394460,0.019468370,-0.025877360
1640787724872069888,-0.557430620,-0.290468570,10.502817150,0.036628540,-0.002963840,-0.029510260
1640787724877219840,-0.389842510,-0.163025750,9.481121060,0.048832600,0.196856280,-0.045393400
1640787724877840128,-0.039132530,0.068076060,9.808256150,0.002677740,0.048136710,-0.046280030
1640787724880479744,-0.242975940,0.469280720,11.067349430,-0.067974630,0.092676300,-0.012131040
1640787724881949952,0.483251960,0.806327160,8.869530680,-0.138224680,0.101689990,-0.022046270
1640787724885479936,0.101940560,0.780775190,10.519928930,-0.068309900,0.016897920,-0.017248100
1640787724886739968,-0.302000610,0.754236880,10.372122760,0.005728010,0.131447630,-0.039374820
1640787724890449920,-0.230375930,0.384752040,9.496013640,0.029891730,-0.025765600,-0.045228010
1640787724891789824,-0.848528920,-0.035742190,10.796319960,0.000724200,0.005643070,-0.002312660
1640787724895849984,-0.423651190,-0.305421710,9.145966530,-0.069025160,0.120914000,-0.030940770
1640787724896800000,-0.163882540,-0.170228870,9.777363780,-0.077472630,0.045578190,-0.013896820
1640787724900470016,-0.256073950,0.241507930,10.388637540,-0.104154650,0.163006800,-0.007987020
1640787724901870080,0.407564400,0.329099180,9.404077530,-0.114294890,0.068645160,-0.037942820
1640787724905580032,0.082765260,0.266476240,10.757061960,-0.017242140,-0.012904410,-0.031442940
1640787724906779904,0.046531290,0.142222300,9.565382000,0.047533210,0.074936460,-0.062260040
1640787724910769920,-0.057951000,-0.093424400,9.696269040,0.029890240,0.010848050,-0.064894560
1640787724911840000,-0.678756120,-0.043145760,10.513682370,-0.035080320,0.094991920,-0.028017170
1640787724915389952,-0.393822310,-0.168793410,9.485297200,-0.092756760,0.040838120,-0.029134750
1640787724916809984,-0.491211500,0.053894480,10.255147930,-0.041338810,0.002904240,-0.005811450
1640787724920529920,-0.405993250,0.397196770,9.662753110,-0.013878940,0.113315880,-0.024698680
1640787724921880064,-0.146830380,0.461716150,10.034449580,-0.019291040,0.026030840,-0.043818350
1640787724925429760,-0.321586460,0.652396440,10.758410450,-0.018645820,0.061677400,-0.028999150
1640787724927009792,0.036358150,0.421338920,9.662489890,-0.042133040,0.020290910,-0.044548520
1640787724931150080,-0.031532600,0.279624550,10.345998760,-0.027024750,-0.027704240,-0.038436060
1640787724933859840,-0.004622250,0.406620830,9.484044080,-0.045822550,0.102263700,-0.033327940
1640787724935420160,0.049907200,0.081649570,9.782842640,-0.082600120,0.032223760,-0.021356340
1640787724936780032,-0.338121770,-0.013254360,10.706363680,-0.041259820,0.043290850,0.004012880
1640787724940440064,-0.021407860,-0.201528700,9.422366140,-0.003190340,0.010989610,-0.033004580
1640787724941809920,-0.104654980,-0.148982300,10.015797620,0.011478360,-0.004988910,-0.029605630
1640787724945469952,-0.238206280,0.222152190,9.838810920,-0.060006980,0.159476710,-0.024315720
1640787724947059968,-0.030448020,0.099062160,9.919935230,-0.112374130,0.037357210,-0.045053660
1640787724950409984,-0.424022500,0.219322500,10.817626000,-0.024197990,-0.007145110,-0.028112530
1640787724952019968,-0.179755400,0.325670960,9.152410510,0.020042060,0.020517410,-0.045371060
1640787724955409920,-0.339226070,0.032539930,9.946129800,0.010855500,-0.019627810,-0.042088330
1640787724956739840,-0.535311640,0.126952860,10.300122260,0.009973350,0.105263300,-0.030925870
1640787724961069824,0.000301240,0.011065530,9.604245190,-0.017258520,0.035573540,-0.033538050
1640787724961939712,-0.134908040,0.203168140,10.715924260,-0.034846370,0.022394960,-0.025250020
1640787724968099840,0.212644710,0.769826950,9.566584590,-0.076141980,0.076301400,-0.033958260
1640787724968639744,0.233818590,0.739843670,10.007277490,-0.108321010,-0.001242760,-0.028839710
1640787724970500096,-0.242176320,0.754896640,10.399874690,-0.070844600,0.048828140,-0.032979250
1640787724971779840,-0.064574300,0.486079780,9.505406380,-0.011776390,0.001336630,-0.051200400
1640787724975450112,-0.486689900,0.067285710,10.622104640,0.030349200,-0.006511810,-0.036951900
1640787724977210112,-0.432683440,0.080658850,9.642453190,-0.024861100,0.069794060,-0.028409070
1640787724980620032,-0.165322230,-0.068343450,9.834887500,-0.126270920,0.001591440,-0.003626940
1640787724981760000,-0.170966610,-0.116503890,10.215639110,-0.128830980,0.110976380,-0.001436470
1640787724985679872,0.246936540,0.183570730,9.487965580,-0.055186450,0.049485260,-0.025744730
1640787724986789888,-0.041330440,0.305773380,10.689318660,-0.018322470,0.009299810,-0.034298010
1640787724990399744,-0.023455160,0.316888570,9.532698630,-0.057126580,0.035774710,-0.053186730
1640787724991780096,-0.099222910,0.118251770,9.886810300,-0.045210120,-0.051543130,-0.051766630
1640787724995520000,-0.495887640,-0.103736710,10.330009460,-0.015421210,0.106932220,-0.049744550
1640787724996780032,-0.187759440,0.089314090,9.383380890,-0.019693370,0.036166610,-0.039152800
1640787725002499840,-0.478744600,0.181048570,11.006109240,-0.061950090,0.000396370,-0.015482310
1640787725003350016,-0.125394150,0.411514850,9.428776740,-0.117710260,0.095881520,-0.014241040
1640787725005420032,-0.024245280,0.403275490,9.859455110,-0.084717570,-0.052896150,-0.026100880
1640787725006789888,-0.338895770,0.432656940,10.672748570,-0.022991000,0.079798700,-0.044378640
1640787725010569728,0.098252380,0.566425200,9.223193170,-0.021584330,0.020268560,-0.069744880
1640787725011899904,-0.307976070,0.374680040,10.937644960,-0.045749550,-0.061765320,-0.032785540
1640787725015399936,-0.195503580,0.195462390,9.732571600,-0.111973310,0.104668750,-0.033780930
1640787725017009920,0.016755360,-0.070464520,9.536990170,-0.080803030,-0.042767820,-0.034558770
1640787725020519936,-0.575394930,-0.156447800,11.006930350,-0.017203390,0.018121300,-0.021392110
1640787725021799936,-0.047662790,-0.016198370,8.959799770,-0.043624640,0.034518540,-0.034996870
1640787725025809920,-0.116637350,-0.134224100,10.186152460,-0.054195530,-0.074143710,-0.030899050
1640787725026959872,-0.150060890,0.055215940,10.062627790,-0.064957140,0.119617590,-0.050461290
1640787725030409728,0.249685180,0.302373860,9.401801110,-0.055429350,0.013363360,-0.071485360
1640787725031960064,-0.384436610,0.404679540,11.088706970,-0.048685070,-0.024101130,-0.028528270
1640787725035800064,-0.185993400,0.299359950,9.487258910,-0.068891040,0.010980670,-0.046220420
1640787725036779776,-0.410171210,-0.069705010,10.099671360,0.009749830,-0.108709930,-0.039759280
1640787725040410112,-0.798262120,-0.175878760,10.259927750,0.052808230,0.026158990,-0.032301250
1640787725042080000,-0.398333010,-0.129785300,9.378041270,0.008037690,-0.010566410,-0.059689580
1640787725045500160,-0.580095710,0.142806900,10.858543400,-0.044314560,-0.031206010,-0.017061830
1640787725046860032,-0.083060530,0.584070500,9.610478400,-0.121693310,0.033555930,-0.020289420
1640787725050479872,0.215410410,0.714159490,9.941705700,-0.112248940,-0.067478400,-0.034961110
1640787725051790080,0.002021940,0.887306810,10.457820890,-0.038221480,0.027231870,-0.035789610
1640787725055379968,0.129311200,0.676435050,9.729771610,0.009819860,-0.043618680,-0.053538390
1640787725056769792,-0.410548600,0.247990710,10.834444050,0.016242270,-0.109869240,-0.028170650
1640787725060629760,-0.235942010,-0.046322730,9.370662690,-0.054042050,-0.032378740,-0.012718140
1640787725061839872,-0.194478240,-0.470774950,9.630163190,-0.061306360,-0.064718720,-0.028181080
1640787725065519872,-0.305585800,-0.141223360,10.195211410,-0.056897100,0.078980630,-0.015990440
1640787725068270080,0.127704670,0.135614050,9.556664470,-0.098524990,0.010339920,-0.022098420
1640787725070400000,-0.187658970,0.000707980,10.927684780,-0.065626200,-0.090339780,-0.018057230
1640787725071849728,0.003672020,0.235605120,9.657868390,0.015285610,-0.037847460,-0.043046470
1640787725075869952,-0.197308960,0.119165500,9.577501300,0.043746830,-0.113037250,-0.060948730
1640787725076819968,-0.661712170,0.108940480,10.405307770,-0.000193720,-0.003688040,-0.043147800
1640787725080430080,-0.260237510,0.237810580,9.513879780,-0.050909820,-0.019277630,-0.035320230
1640787725082119936,-0.449970100,0.082774870,10.666718480,-0.042743980,-0.089044870,-0.023506580
1640787725085440000,-0.115514410,0.404856350,9.745380400,-0.031460830,-0.005535780,-0.016061960
1640787725086819840,0.121874480,0.486844840,9.727899550,-0.031457850,-0.051873920,-0.046548250
1640787725090390016,-0.248224750,0.371071340,10.709902760,-0.025786460,-0.023347140,-0.026154520
1640787725092409856,0.042446400,0.506588280,9.671068190,-0.019539890,-0.070378180,-0.038349630
1640787725095459840,-0.143732040,0.222797040,10.054731370,-0.026749070,-0.111790010,-0.050033630
1640787725096859904,-0.000696340,0.271541030,9.501774790,-0.037129220,0.003136690,-0.029155620
1640787725101469952,-0.111486160,0.391622360,9.990883830,-0.058440870,-0.010257960,-0.038015850
1640787725102680064,-0.387149130,0.132949900,10.621918680,-0.088900330,-0.039072340,-0.016264620
1640787725105379840,-0.084982560,0.055492090,9.765179630,-0.032608200,-0.102192170,-0.011427700
1640787725106759936,-0.214421180,-0.077615980,9.934171680,0.031270090,-0.061586500,-0.045375530
1640787725110579968,0.044208910,0.025711020,9.325084690,-0.009490550,0.031591950,-0.038112700
1640787725112839936,0.049041810,0.175172580,10.166795730,-0.060147050,-0.013574960,-0.027596950
1640787725115650048,0.010973680,0.061168150,10.317285540,-0.084306310,0.005348030,-0.029832130
1640787725116780032,0.293025050,0.169159070,9.590941430,-0.016500060,-0.083650660,-0.029051300
1640787725120409856,-0.362147300,0.184013130,10.425225260,0.031560660,-0.059038400,-0.031043590
1640787725121829888,-0.188184830,-0.010486780,9.469617840,-0.003694000,-0.016032160,-0.034396350
1640787725126119936,-0.459368440,-0.072953380,10.212838170,0.037625430,-0.065837810,-0.024427480
1640787725127239936,-0.574690220,0.025863960,10.202385900,0.024475160,0.010199850,-0.035198030
1640787725130470144,0.065401750,0.317015440,9.353743550,-0.035563110,-0.037960710,-0.032575430
1640787725131859968,-0.232610430,0.696827170,10.412235260,-0.063076620,-0.006961820,-0.023794180
1640787725135849984,0.066521420,0.832083170,9.860340120,-0.106260180,0.011594590,-0.030341750
1640787725137019904,0.037887940,0.595119420,10.265721320,-0.029955810,-0.086569770,-0.028851630
1640787725140450048,-0.275201140,0.288277390,10.333026890,0.063163040,-0.041510160,-0.033123790
1640787725142239744,-0.020741020,0.054963390,9.600269320,0.067697470,-0.053620340,-0.029729310
1640787725145619968,-0.364405510,-0.095551400,10.088179590,-0.020031630,-0.029513240,-0.000683960
1640787725146779904,-0.064270060,-0.214779000,9.542460440,-0.129665420,0.009891390,0.001524390
1640787725150429952,0.017206440,-0.237891080,10.095952990,-0.081594290,-0.016197560,-0.001731510
1640787725151779840,-0.058125240,0.044103570,9.904541020,0.028917190,0.012567640,-0.032055380
1640787725155399936,0.049062270,0.236602900,9.889308930,0.027839850,-0.076112150,-0.044630470
1640787725156760064,-0.280097310,0.171344860,10.230906490,0.007186830,-0.022861360,-0.050550700
1640787725160519936,-0.128361210,0.126766920,9.386059760,-0.000528990,-0.027300420,-0.054807960
1640787725161839872,-0.498092170,0.146717520,10.561023710,0.011835990,-0.040377670,-0.030191240
1640787725165890048,-0.384987150,0.318846430,9.688995360,-0.013728440,0.026063620,-0.016468760
1640787725167279872,-0.179029840,0.244304880,9.947507860,-0.028525290,-0.094035250,-0.005520880
1640787725170379776,-0.408782900,0.189565360,10.538429260,0.000534950,0.000028310,-0.003348290
1640787725171869952,0.205434440,0.204219620,9.033350940,0.024549660,-0.013861060,-0.027324260
1640787725176069888,-0.126720190,0.108308410,10.827261920,0.046506530,-0.059811770,-0.038570170
1640787725176849920,-0.017803970,0.373252900,9.917884830,0.004498660,0.032994150,-0.036793950
1640787725182210048,0.197910310,0.441394750,9.632623670,-0.061680380,-0.112935920,-0.023925310
1640787725182859776,-0.307150960,0.300447080,10.527200700,-0.067445640,-0.013168160,-0.011993940
1640787725185369856,0.082778170,0.345467570,9.172368050,-0.006344910,0.002841650,-0.035853680
1640787725186789888,-0.430146190,0.131416400,10.848134990,0.076647110,-0.089797380,-0.020644070
1640787725190400000,-0.456288370,0.028093810,9.808456420,0.034113230,-0.001612310,-0.010356310
1640787725192760064,0.068564250,-0.151696070,9.190554620,-0.003504750,-0.092057880,-0.004819040
1640787725195819776,-0.100629840,-0.171426920,10.336608890,-0.012668970,0.067913540,0.006234650
1640787725196839936,0.378984660,0.271945120,9.290996550,-0.029413410,0.064308950,-0.002774600
1640787725200489984,0.027588860,0.358452980,10.895691870,-0.018742680,-0.089673700,-0.007745620
1640787725203109888,0.031610160,0.224351320,9.807024960,-0.011013450,-0.016970930,-0.015963610
1640787725205410048,-0.065470300,-0.066519410,9.604318620,0.087359540,-0.108698010,-0.036416950
1640787725206810112,-0.704906340,-0.280147110,10.605314250,0.137306730,0.015226010,-0.042821460
1640787725210959872,-0.360361190,-0.167471110,9.264776230,0.072979930,-0.001892450,-0.043556090
1640787725212359936,-0.526503440,0.044953480,10.602751730,0.013677780,-0.075410330,0.000530480
1640787725215809792,-0.030452530,0.480176990,9.554121970,-0.067116330,0.071278210,0.022526090
1640787725216780032,0.373184920,0.678764940,9.539094920,-0.033433740,-0.031834840,0.002358850
1640787725220419840,-0.001154000,0.827617940,10.977957730,0.055867440,0.014087560,0.000743570
1640787725221799936,0.328160490,0.806462050,9.573012350,0.075028830,-0.019454950,-0.026410820
1640787725225989888,-0.181443800,0.273440690,10.491719250,0.063504280,-0.127558430,-0.022271280
1640787725230530048,-0.285492360,-0.016585010,9.937397000,0.012910370,0.004258750,-0.010980670
1640787725231159808,-0.099078510,-0.272182230,9.262034420,0.005184110,-0.022745130,-0.017735360
1640787725232450048,-0.357503120,-0.219404830,10.242648120,0.012059510,0.026062130,0.001080330
1640787725235489792,0.086493520,0.096370730,9.784123420,-0.024637580,0.069063910,0.015479330
1640787725236780032,0.032805240,-0.042833290,10.321097370,0.015246870,-0.034216050,0.017443300
1640787725240999936,0.098925460,0.076934870,10.037910460,0.083042700,-0.038920350,0.002375250
1640787725241939968,0.127190350,0.238894100,9.570876120,0.077877940,0.003446640,-0.021696090
1640787725245479936,-0.133976680,0.051292290,9.879751210,0.029283760,0.039625170,-0.016583500
1640787725247849984,-0.156557070,0.085605750,10.181304930,0.041726230,-0.015230480,0.001168250
1640787725250409728,-0.380048160,-0.058946820,10.112060550,0.079211590,-0.001510980,-0.003735720
1640787725251840000,-0.182125370,-0.036656440,9.525322910,0.084082790,-0.022444130,0.014941400
1640787725255470080,-0.432042090,0.101447410,10.429425240,0.076563660,0.014200810,0.011754040
1640787725256950016,-0.202523540,0.117471830,9.769995690,0.053136060,0.060927880,-0.002846120
1640787725260859904,0.077622020,0.278832440,10.027414320,0.066229690,-0.041607010,0.007043780
1640787725262349824,-0.098596980,0.505764900,10.417994500,0.078320500,0.047823780,0.000678000
1640787725265679872,0.400402220,0.637274150,9.289110180,0.031271580,0.020138920,-0.011959670
1640787725267709952,-0.057179750,0.653329010,10.624773980,0.033020980,-0.011608000,0.011315940
1640787725270419712,-0.191600230,0.351928530,9.904542920,0.029829150,0.050745920,0.011043250
1640787725271819776,-0.055703890,-0.003541580,9.862546920,0.103126470,-0.063930460,0.009396670
1640787725275599872,-0.507406770,0.055719280,10.377958300,0.134316090,0.043877970,0.011700390
1640787725276779776,0.039978060,0.118603290,9.036570550,0.023379930,0.064802190,0.016532840
1640787725280549888,-0.008386200,0.189233740,10.362375260,-0.039336090,0.058637560,0.036242610
1640787725282269952,0.191659390,0.233840540,9.902717590,-0.013855100,0.126041490,0.006350880
1640787725285539840,0.345489890,0.255206790,9.966251370,0.096425410,-0.029113890,-0.010485950
1640787725286979840,-0.149576930,0.365840170,10.262923240,0.128220040,0.028459730,-0.002205370
1640787725291139840,0.013962320,0.081995920,9.146764760,0.046019260,0.017474600,-0.013794010
1640787725295279872,-0.531047340,-0.168900090,10.596503260,0.056678060,0.011970100,0.010606650
1640787725295719936,-0.465057880,-0.028719610,9.569703100,0.066865990,0.097815690,0.011612470
1640787725297029888,-0.202459230,0.135896150,9.909585000,0.062721980,-0.011880700,0.010532140
1640787725300480000,-0.249905510,0.615659300,10.342203140,0.021493440,0.120407350,0.031445920
1640787725301969920,0.307791440,0.704444350,9.383202550,-0.021013620,0.076171760,0.008846820
1640787725305929984,-0.079314370,0.563298520,10.959443090,0.040102000,-0.001513960,0.013963880
1640787725306819840,0.139042110,0.619943980,9.601177220,0.094328830,0.085295740,-0.008139020
1640787725310400000,0.091894390,0.344491270,9.816871640,0.084833800,-0.024797030,-0.019307440
1640787725311869952,-0.381562530,0.367814060,10.522052760,0.002352890,0.087238830,0.028736890
1640787725315579904,0.157021950,0.226612960,9.185709000,-0.062786040,0.084252660,0.026415290
1640787725316849920,-0.181465430,-0.096824310,10.468296050,-0.001077350,0.044551490,0.030404330
1640787725320399872,-0.101219690,0.214398150,9.769853590,0.058786580,0.121846820,0.027392810
1640787725322229760,0.006147620,0.112631520,9.770534520,0.050634150,0.005817410,0.026369090
1640787725325379840,-0.250660360,-0.161392670,10.200516700,0.022380060,0.063857440,0.038668510
1640787725326819840,0.152675060,-0.024656410,9.189187050,0.040026010,0.097915540,-0.001105670
1640787725330839808,-0.076735640,-0.059659820,10.307514190,0.051291290,0.105500220,-0.000120700
1640787725333849856,-0.057711750,0.178570000,9.981664660,0.030510130,0.128868220,0.014668710
1640787725335520000,-0.106354680,0.212890700,10.150763510,0.027649110,0.002627070,0.009317700
1640787725337619968,-0.205821870,-0.007086080,9.920331950,0.050298870,0.066117950,0.021691620
1640787725340459776,0.037755300,0.008755250,9.205053330,0.114791080,0.077901770,0.018982590
1640787725341819904,-0.341432270,-0.069744290,10.453649520,0.128160420,0.128370540,-0.000584130
1640787725345369856,0.028282810,0.202015120,9.728849410,0.062184030,0.121913840,0.018349290
1640787725347020032,-0.102123780,0.405210260,10.313134190,0.020278990,0.020487600,0.029987090
1640787725351349760,-0.117347880,0.403510840,9.925329210,-0.003783410,0.113609440,0.013270970
1640787725352310016,0.052175930,0.505487320,9.510519980,0.065866110,0.065106160,0.001779200
1640787725355419904,-0.536795850,0.381261050,10.736075400,0.131911050,0.080856680,0.004383920
1640787725356819968,-0.177919370,0.167038860,9.661178590,0.095626720,0.097930450,0.013132400
1640787725360409856,-0.291494520,-0.054025800,10.113080980,0.098212070,0.015330320,0.027698280
1640787725361809920,-0.088259740,-0.021667770,9.748215680,0.056451560,0.138500350,0.025820730
1640787725365520128,0.473882170,0.240930750,9.215201380,-0.000588600,0.142405940,0.026313960
1640787725366959872,0.216665910,0.282617870,10.395215990,0.006836650,0.150884690,0.036956370
1640787725371029760,0.398826240,0.136296480,10.105307580,0.064085420,0.125204030,0.011087950
1640787725372529920,0.063964260,0.059523370,10.289133070,0.174826370,0.018462540,0.004102290
1640787725375719936,-0.363092810,-0.145806190,9.675021170,0.166320800,0.065924230,0.005581980
1640787725376789760,-0.395984590,-0.262824120,9.500402450,0.080931190,0.096929080,-0.000356140
1640787725380839936,-0.716139730,-0.206788050,10.047287940,0.062789020,0.170741980,0.020416080
1640787725382210048,-0.281645720,-0.041583990,9.616363530,0.091251730,0.114287460,0.019636750
1640787725385779968,-0.218845320,0.384948700,10.395771030,0.123134260,0.120523580,0.008490680
1640787725386779904,0.087025030,0.705528440,9.675565720,0.100237130,0.144779700,0.020082290
1640787725390569984,0.087059360,0.521149640,10.452145580,0.091983380,0.059500330,0.022862850
1640787725391929856,-0.180230530,0.326334420,10.367568020,0.139619410,0.126466170,0.009360910
1640787725395409920,0.099479030,0.245677610,9.395188330,0.162638740,0.044222180,0.000788270
1640787725396950016,-0.365092990,0.210387500,10.504737850,0.127500300,0.086204720,0.015732640
1640787725400969984,-0.068827070,0.392925560,9.101953510,0.032278900,0.181695820,0.026617950
1640787725404809984,-0.028980960,0.183804450,10.153139110,0.015242400,0.069871540,0.030536950
1640787725405359872,-0.271582160,0.216567260,10.569947240,0.102511070,0.174340610,0.022055210
1640787725406779904,0.158696650,0.412332920,9.335424420,0.159464790,0.073337550,0.006048380
1640787725410320128,-0.356059430,0.267870010,10.718326570,0.119556510,0.057466340,0.031211980
1640787725411849984,-0.112007520,0.173389300,9.282880780,0.032863020,0.159297900,0.020469730
1640787725415510016,0.049802790,-0.106459250,9.769735340,0.068900000,0.076623260,0.011037290
1640787725417280000,-0.321185230,-0.135301860,10.394780160,0.142337380,0.196956110,0.004005430
1640787725420440064,0.132214580,0.107062380,9.214741710,0.145779550,0.100995620,0.006096070
1640787725421809920,-0.311727020,-0.038272600,10.771733280,0.105871270,0.050389770,0.027568640
1640787725425419776,-0.187929960,-0.061998660,9.505740170,0.096079710,0.149898230,0.029182430
1640787725426779904,-0.136280550,-0.038537280,9.830675130,0.161451090,0.054045020,0.014196340
1640787725430469888,-0.416798290,0.136432560,10.420986180,0.161758070,0.197674330,-0.002585350
1640787725432000000,0.054930190,0.634406030,9.386691090,0.106230390,0.121235850,-0.018544500
1640787725436090112,-0.327508510,0.666528400,10.962082860,0.074446210,0.071999430,0.004436080
1640787725437419776,-0.051610140,0.643913750,9.394132610,0.063134740,0.136101250,0.001935660
1640787725440419840,-0.101288320,0.373150500,9.893016820,0.150756550,0.016932190,-0.007048250
1640787725441809920,-0.487010090,0.186775490,10.659976010,0.183063760,0.180566310,0.020749870
1640787725446159872,-0.123149810,0.014678210,9.442883490,0.134760140,0.097763550,0.016789140
1640787725447459840,-0.435505810,-0.181305170,10.798403740,0.108657780,0.016175210,0.032378740
1640787725450840064,0.187698170,0.018186890,9.039944650,0.060635820,0.196099300,0.008201600
1640787725451869952,0.411255390,0.153165070,9.383982660,0.078104440,0.128278150,-0.014019010
1640787725455440128,-0.072041300,0.412136410,10.900345800,0.115500410,0.185324250,-0.001321730
1640787725456809984,0.251399070,0.350514080,9.482806210,0.136232390,0.104324520,-0.015661120
1640787725460339968,-0.510624710,0.038500310,10.615146640,0.203531980,-0.033357740,-0.008897480
1640787725461870080,-0.732830580,-0.008889170,9.629418370,0.169909020,0.105369110,0.001294910
1640787725465769984,-0.625850860,-0.293413790,9.216593740,0.128431620,0.098912430,-0.008223950
1640787725467089920,-0.811344210,-0.237690080,10.542932510,0.144198550,0.140756370,-0.004233420
1640787725471259904,-0.026371770,0.192498250,9.551815990,0.151763860,0.178995730,-0.016650560
1640787725472169984,0.170763270,0.435633960,10.180898670,0.149293260,0.093388560,-0.010363760
1640787725475379968,0.213945980,0.701214490,10.294476510,0.113762930,0.122182090,-0.000849370
1640787725476819968,0.239901830,0.658442020,9.849169730,0.126981750,0.055810810,-0.016631190
1640787725480529920,-0.223024850,0.237922420,10.209826470,0.187002170,0.039291390,-0.011190770
1640787725481839872,-0.335501850,0.253146140,9.733140950,0.213095550,0.087405750,-0.028987230
1640787725485449984,-0.631645620,0.194607230,10.038355830,0.163392770,0.083538890,-0.035080320
1640787725487119872,-0.523061340,0.254795430,9.764614110,0.075708330,0.108139240,-0.002242620
1640787725490360064,-0.306090440,0.381937710,9.918980600,0.050319730,0.109468410,-0.006479020
1640787725491840000,-0.149984760,0.274680640,10.042236330,0.114262130,0.128759440,-0.008127090
1640787725495950080,0.170372290,0.579027650,9.765478130,0.185693820,0.076282020,-0.015798210
1640787725500849920,-0.098658950,0.497512190,10.233755110,0.149367760,0.085030500,-0.010786950
1640787725501669888,0.114240330,0.215596240,9.635058400,0.075310450,0.095103670,-0.014579300
1640787725505159936,-0.012277980,-0.041209530,10.014315610,0.105553870,0.067028410,-0.035722550
1640787725505519872,-0.300278720,-0.194361900,9.952298160,0.168608160,0.128865260,-0.042612860
1640787725506769920,-0.068694910,-0.004719290,9.483082770,0.165148090,0.071944300,-0.022536520
1640787725510370048,-0.477338400,-0.031994350,10.364996910,0.114879030,0.093002630,-0.015969580
1640787725512849920,-0.214593990,0.000830760,9.665058140,0.104264910,0.101855400,-0.014460090
1640787725515439872,-0.248448830,0.220146490,10.101065640,0.166179250,0.076858700,-0.034652650
1640787725518509824,-0.458192680,0.502496660,10.147289280,0.161509190,0.126999630,-0.054526330
1640787725520399872,-0.172201720,0.841541110,9.837395670,0.111171590,0.048334900,-0.048865380
1640787725521849856,-0.418902340,0.832297380,10.261116030,0.074157120,0.066120930,-0.033180410
1640787725525399808,-0.096191260,0.596618060,9.309047700,0.082407890,0.080645090,-0.021362310
1640787725526860032,-0.103356650,0.371263030,10.138531680,0.160731390,0.083041190,-0.020946560
1640787725531139840,-0.355115350,0.217177840,10.275868420,0.167249160,0.142917020,-0.016562640
1640787725532679936,-0.113458280,0.122357100,9.900784490,0.106556710,-0.006790460,0.012969970
1640787725535869952,-0.260916110,0.016098170,10.062937740,0.046703220,0.045831490,-0.002709030
1640787725537390080,0.228460180,0.071908270,8.737139700,0.040000680,0.127056260,-0.037559870
1640787725540439808,0.003123260,0.402369080,10.214957240,0.110231340,0.117371980,-0.030477350
1640787725541839872,-0.219985310,0.545494850,10.333473210,0.094185750,0.166477280,-0.047607720
1640787725545779968,-0.157741960,0.335162850,9.897370340,0.089286270,-0.041623420,-0.024978820
1640787725547459840,-0.741764780,0.098107410,10.458603860,0.148969870,-0.018407400,-0.005742910
1640787725550569984,-0.508836150,-0.201532170,8.679279330,0.135374080,0.102591540,-0.034303960
1640787725552549888,-0.658227500,-0.139154480,9.958053590,0.133384760,0.046388810,-0.008539860
1640787725555419904,-0.565232990,0.037364630,10.248334880,0.085872410,0.157763080,-0.014303630
1640787725556819968,0.238536630,0.241920810,9.309573170,0.062625120,0.045105810,-0.030362610
1640787725560609792,-0.053231430,0.578252020,10.784931180,0.096324100,0.026793780,-0.006400050
1640787725562819840,0.181165500,0.580089390,9.532563210,0.094179820,0.101791320,-0.043167170
1640787725568919808,0.028515320,0.422282190,10.117257120,0.150054720,-0.027489670,-0.037290160
1640787725569700096,-0.573173340,0.385938230,10.462784770,0.162069510,0.053206090,-0.018897650
1640787725570540032,-0.216314030,0.100939560,9.050081250,0.109313430,0.008705260,-0.034113230
1640787725571849728,-0.569844960,0.223571880,10.184762950,0.088232760,0.016769770,-0.015814600
1640787725575449856,-0.320033460,0.535421190,9.371210100,0.013633080,0.132463870,-0.013580920
1640787725576929792,-0.096181670,0.472149730,10.045425420,0.014930960,0.033225120,-0.008167320
1640787725580829952,-0.230665950,0.485535800,10.545400620,0.092503410,0.068666030,-0.007906560
1640787725581859840,0.203895290,0.381407380,9.378397940,0.137679280,0.002418460,-0.034677980
1640787725585399808,-0.135077300,0.151222320,10.267877580,0.131948260,0.014816230,-0.006434320
1640787725586829824,-0.092852780,-0.016751530,9.352014540,0.040248040,0.111451750,-0.008195640
1640787725590439936,-0.065572540,-0.446993860,9.885080340,0.059586760,0.001071390,-0.006350870
1640787725591859712,-0.278553220,-0.263930500,10.186429980,0.138717900,0.093461560,-0.007443130
1640787725595480064,0.009787560,0.058662810,9.111852650,0.120329860,0.034354620,-0.025925040
1640787725597039872,-0.375668620,0.132601630,10.542284010,0.081636020,0.016959010,-0.013417010
1640787725602449920,-0.162034110,0.433258530,9.560022350,0.066877920,0.119517770,-0.036247080
1640787725603200000,-0.162862580,0.448744830,9.980018620,0.114934150,-0.011949240,-0.047034020
1640787725605379840,-0.441614150,0.739162090,10.428339960,0.139562770,0.073578940,-0.025032460
1640787725606870016,-0.013972000,0.929533960,9.135289190,0.057701780,0.055679690,-0.030206150
1640787725610409984,-0.382802220,0.690712870,10.467192650,0.013296310,-0.001735990,0.006280840
1640787725612119808,-0.245399070,0.548986970,9.712762830,0.030156970,0.096489500,0.008498130
1640787725615469824,-0.044964270,0.111738320,9.694001200,0.094440580,0.008788710,-0.021934510
1640787725617339904,-0.305081040,0.064397970,10.403641700,0.145374250,0.058408080,-0.009159740
1640787725620389888,0.142174240,0.246435690,9.192784310,0.049208110,0.072065000,-0.021889810
1640787725621870080,0.031172030,0.054057850,10.040942190,-0.048646320,0.034601990,-0.020751350
1640787725625739776,0.079377220,0.195306540,9.709108350,-0.019760430,0.107200450,-0.014145670
1640787725627349760,0.009747060,0.302190840,9.783591270,0.075061620,0.021865970,-0.047373770
1640787725630800128,-0.443629320,0.295273810,10.156526570,0.100694600,0.018039350,-0.022740660
1640787725631909888,-0.349380020,0.279120330,9.351061820,0.057193640,0.030313430,-0.011605020
1640787725636849920,-0.578125480,-0.135644750,10.123777390,0.046372420,0.044292200,-0.030215080
1640787725637329920,-0.292182530,0.013492800,9.496578220,0.066857040,0.114990780,-0.013008710
1640787725640529920,-0.161969690,0.324272300,9.771781920,0.051452230,0.058303780,-0.015026330
1640787725642210048,-0.176937250,0.388235000,10.190626140,-0.013604760,0.079619890,-0.011223550
1640787725645390080,0.200100240,0.601064500,9.359565730,-0.003699960,0.031971930,-0.004932280
1640787725647150080,-0.251531930,0.332847090,10.328870770,0.050610310,0.010168550,-0.035873060
1640787725651419904,-0.218350260,0.294843170,9.685400010,0.099986790,0.076088310,-0.040593740
1640787725652000000,-0.374202700,0.373418570,9.973701480,0.098101810,-0.004139540,-0.032785530
1640787725655379968,-0.609978850,0.283763590,10.288357730,-0.010199840,0.036251540,-0.017048420
1640787725656930048,-0.076370840,0.458031540,9.079885480,-0.060403340,0.052700930,-0.001023710
1640787725660369920,-0.283853590,0.472705130,10.037798880,-0.028447810,0.062845650,-0.020836300
1640787725662139904,-0.116058250,0.691166820,9.875913620,0.014856460,0.090621430,-0.020581490
1640787725665489920,-0.023958730,0.754206180,9.854788780,0.021995600,-0.014588240,-0.012356040
1640787725668949760,-0.241513920,0.273217920,10.052444460,-0.028812890,0.010673700,-0.011444090
1640787725670369792,0.050805840,0.050326140,9.340471270,0.000797210,0.044158100,-0.009365380
1640787725671969792,-0.357255490,-0.091785590,10.092308040,0.030481820,0.060378020,-0.027406220
1640787725675399936,-0.297661480,-0.093631140,9.673515320,-0.032123930,0.041170420,-0.018930440
1640787725676809984,-0.191805590,0.001439810,9.808717730,-0.044950850,-0.010055300,-0.006315110
1640787725680509952,-0.325738910,-0.122041960,9.799105640,-0.017826260,0.065793090,-0.029194360
1640787725681829888,-0.213865430,0.064696270,9.712697030,0.048710410,0.006799400,-0.035741930
1640787725685339904,-0.568453850,0.468109700,10.454707150,0.044833130,0.035762790,-0.045423210
1640787725686810112,-0.211745080,0.620375810,9.415743830,-0.055943430,0.031724570,-0.036996610
1640787725690549760,-0.252426800,0.799961030,10.158713340,-0.058612230,-0.023034220,-0.009933110
1640787725691830016,-0.280704410,0.776663540,9.903366090,-0.054071850,0.073516370,-0.024583940
1640787725695849984,0.164294390,0.635645270,9.329139710,-0.014650820,-0.001153350,-0.013072790
1640787725697139968,-0.303799330,0.612982570,10.578236580,0.010040400,0.037814670,-0.008900460
1640787725701499904,-0.083163770,0.240643560,9.521557810,-0.072994810,0.059343870,-0.005604330
1640787725703300096,-0.085695540,-0.041698020,10.041172980,-0.058187560,-0.060503190,0.008128580
1640787725705479936,-0.319075730,0.006845510,9.930613520,-0.044430800,0.050644580,-0.025831160
1640787725707140096,0.157309730,0.089546880,8.829530720,-0.082877260,0.033600620,-0.036254530
1640787725710369792,-0.285016090,0.226308150,10.373391150,-0.095073860,0.065974890,-0.017918650
1640787725711849984,-0.185519680,0.113244790,9.917826650,-0.075535480,0.084741410,-0.031848260
1640787725715440128,-0.242089610,-0.024707440,10.170230870,0.036384170,-0.092093650,-0.023770330
1640787725717769984,-0.587479050,0.126893090,9.725568770,0.028298800,-0.001019240,-0.033727290
1640787725720559872,-0.193062370,0.137308510,8.878505710,-0.073380760,0.027368960,-0.027127560
1640787725722089984,-0.398493500,0.221073180,10.440773960,-0.090071570,0.090047720,0.002217290
1640787725725339904,-0.034089640,0.483528670,9.760623930,-0.075979530,0.086258360,-0.020483140
1640787725726850048,0.092191600,0.603603360,10.233433720,-0.036981700,-0.056144610,-0.015002490
1640787725730769920,-0.074928690,0.736710610,9.892673490,-0.054927180,0.057202590,-0.018106400
1640787725732000000,-0.030262910,0.437058450,9.420065880,-0.074996060,-0.008901950,-0.035090750
1640787725736460032,-0.600402060,0.147793560,10.654929160,-0.024248670,-0.011520090,-0.019802160
1640787725737189888,-0.278860930,0.089147310,9.178656580,-0.029090050,0.043199960,-0.047706070
1640787725740439808,-0.260014830,0.182124450,9.908596990,-0.060103840,-0.028494000,-0.034794210
1640787725741849856,-0.309786380,0.538508710,9.974029540,-0.153797880,0.125512480,-0.006471570
1640787725745420032,0.167769460,0.353059320,9.300480840,-0.192002970,0.033526120,-0.021272900
1640787725747069952,-0.216353550,0.222907750,10.694018360,-0.044129790,-0.026817620,-0.014835600
1640787725750809856,0.028390930,0.377274360,9.299628260,0.023224950,0.035575040,-0.044457610
1640787725751859968,-0.084449600,0.059896910,9.514062880,-0.030450520,-0.031259660,-0.040879850
1640787725755409920,-0.441055920,0.023846620,10.239508630,-0.118111100,0.078177450,-0.015923380
1640787725756809984,-0.057575420,-0.022840240,9.442523000,-0.144249220,0.042368470,-0.027571620
1640787725760339968,-0.286145540,-0.024092330,10.297344210,-0.065773730,-0.018447640,-0.007858870
1640787725761859840,-0.120571490,0.380530270,9.653245930,-0.056895620,0.059653820,-0.025077170
1640787725765539840,-0.132548560,0.345702620,9.841555600,-0.075514620,0.001376870,-0.036272410
1640787725767760128,-0.410089050,0.274665980,10.245686530,-0.051824750,0.011597570,-0.023178750
1640787725770520064,-0.269998640,0.443714380,9.619161610,-0.067372610,0.000070040,-0.064215050
1640787725771899904,-0.413687380,0.441691430,10.133198740,-0.090226530,0.000840430,-0.051918630
1640787725775460096,-0.205671610,0.679878470,9.612679480,-0.123353300,0.035990770,-0.034518540
1640787725776869888,-0.134715140,0.642538960,9.990380290,-0.156730410,0.007958710,-0.037384030
1640787725780539904,-0.054901380,0.398332120,9.990713120,-0.119975210,0.061678890,-0.008741020
1640787725781900032,0.076001340,0.316899000,9.895032880,-0.060431660,-0.000616910,-0.019907950
1640787725785479936,-0.217485960,0.044298440,10.227488520,-0.056603550,-0.009125470,-0.012514000
1640787725787129856,0.124218640,-0.099774330,9.191856380,-0.115752230,0.026586650,0.001695750
1640787725790419712,-0.078577480,-0.232609290,9.965174670,-0.143420710,0.032253570,-0.027827920
1640787725791849728,-0.102413550,-0.114709030,9.930775640,-0.109738120,0.089134280,-0.044630470
1640787725795439872,-0.046664460,0.245175750,9.847885130,-0.087694830,0.006078180,-0.057037170
1640787725797189888,-0.514420810,0.249649080,10.368845940,-0.103543710,-0.003024940,-0.044132770
1640787725800619776,-0.288573800,0.207512050,9.493003850,-0.088091200,-0.017228720,-0.037184360
1640787725802889728,-0.609389960,0.152032480,10.050815580,-0.036011640,-0.006683170,-0.044479970
1640787725805579776,-0.479781060,0.243404330,9.558005330,-0.060597060,0.064989920,-0.032866000
1640787725806949888,-0.180143360,0.553053500,10.058650970,-0.124023850,0.028111050,-0.023403760
1640787725810380032,-0.201141010,0.569089830,10.353196140,-0.183473570,0.056754060,-0.010088090
1640787725811939840,0.287279010,0.525423410,9.568370820,-0.142347810,-0.024104120,-0.005903840
1640787725815500032,-0.027207060,0.374031420,10.375558850,-0.057360520,0.010384620,-0.027962030
1640787725817119744,0.004313750,0.216235100,9.468107220,-0.051581860,0.055143240,-0.036148720
1640787725820799744,-0.284993650,0.061962390,10.300413130,-0.068487230,-0.064477330,-0.021277370
1640787725821879808,-0.495645580,-0.102973580,9.968667980,-0.148658470,0.050289930,-0.017037990
1640787725825369856,-0.004764040,-0.089513710,8.807320590,-0.149658340,-0.013701620,-0.030191240
1640787725826880000,-0.403894900,0.209777710,10.557997700,-0.106059010,0.047752260,-0.032334030
1640787725830839808,-0.114958610,0.418300360,9.410634040,-0.128331750,0.127196280,-0.027270610
1640787725832710144,-0.274644140,0.256949040,10.511645320,-0.092363360,-0.092354420,-0.007623440
1640787725835619840,-0.637373980,-0.050499470,10.538719180,-0.040480500,-0.013412540,-0.005503000
1640787725837309952,-0.035923750,-0.127790570,8.441816330,-0.016464290,-0.047330560,-0.026331840
1640787725840600064,-0.526700790,-0.091174820,10.242311480,-0.056378550,0.018969180,-0.019915400
1640787725841859840,-0.157083210,0.200874780,9.595719340,-0.170259220,0.149865450,-0.023756930
1640787725845389824,0.107984600,0.226073210,10.216953280,-0.129935160,-0.065828860,-0.013457240
1640787725847179776,-0.207148780,0.368704170,10.670679090,-0.064127140,-0.021724400,-0.019501150
1640787725850599936,0.187110930,0.532710080,9.005084990,-0.032514330,-0.022184850,-0.034838920
1640787725852289792,-0.517569660,0.383166190,10.698518750,-0.031836330,-0.038962070,-0.016191600
1640787725855399936,-0.562638700,0.288440380,9.919888500,-0.097478930,0.024640560,-0.004892050
1640787725856809728,-0.419623880,0.234947860,9.670868870,-0.102680920,-0.100284820,-0.010098520
1640787725860379904,-0.433758170,0.315219610,9.983618740,-0.104869920,0.026085970,-0.009860100
1640787725861899776,0.060862510,0.613262710,9.241682050,-0.130814280,0.054971870,-0.018931920
1640787725865540096,-0.217731270,0.518417780,10.777239800,-0.118979830,-0.023746500,-0.011891130
1640787725866929920,0.101011160,0.292488570,9.855820660,-0.108566880,-0.022394960,-0.005786120
1640787725870519808,0.088086550,-0.033128300,9.747493740,-0.022092460,-0.097924490,-0.008663540
1640787725872209920,-0.163664430,-0.208696960,9.887517930,-0.021688640,0.025340910,-0.008684400
1640787725875379968,-0.010024080,-0.123438280,9.387637140,-0.114668910,0.017969310,0.000138580
1640787725876819968,-0.371494350,-0.181374560,10.413022040,-0.132800640,-0.022152070,0.015454000
1640787725880659712,-0.036715220,-0.042598760,9.598662380,-0.098051140,0.000482800,-0.008746980
1640787725882949888,-0.203626190,0.121727340,9.843985560,-0.012113150,-0.037810200,-0.017865000
1640787725885479936,-0.498771310,0.314042750,10.055015560,-0.010238590,-0.006632510,-0.029592220
1640787725887729920,-0.318539710,0.408795150,9.841119770,-0.058110070,-0.044628980,-0.042524940
1640787725890470144,-0.489780550,0.454074050,9.925657270,-0.067734730,-0.024789580,-0.019603970
1640787725891879936,-0.217872290,0.599350810,9.613842010,-0.085107990,-0.017373260,-0.015734140
1640787725895609856,-0.249827890,0.655139740,10.184781070,-0.088042010,-0.005774200,-0.006632510
1640787725896950016,-0.065219520,0.655829910,9.677579880,-0.094841420,-0.010672210,-0.001224880
1640787725901169920,-0.054094590,0.393378380,10.335312840,-0.098319350,-0.067460540,0.006034970
1640787725902179840,-0.170146820,0.066017400,9.972036360,-0.053896010,0.008279090,-0.009725990
1640787725906070016,-0.061177250,-0.076103730,9.636357310,-0.026121740,-0.097119790,-0.019554790
1640787725906889984,-0.359116820,-0.077636980,10.293316840,-0.064161430,-0.026153030,-0.008735060
1640787725910339840,0.034853570,0.139044460,8.798089980,-0.156727400,0.037384030,-0.009958450
1640787725911919872,-0.131040750,0.007273800,10.366571430,-0.142692030,-0.050602860,-0.004093350
1640787725915479808,-0.331829040,0.205852760,10.193547250,-0.039172180,0.035628670,-0.015555320
1640787725917569792,-0.076543510,0.352883730,9.283278470,0.000014900,-0.123682640,-0.030083960
1640787725920499968,-0.611711920,0.061352220,10.515276910,-0.036853560,-0.076818470,-0.001041590
1640787725921839872,-0.073101280,0.153789510,8.844597820,-0.069238250,0.040754680,-0.018075110
1640787725925359872,-0.159587000,0.016810150,10.197889330,-0.044977660,-0.039953000,-0.019975010
1640787725926970112,-0.205793690,0.325135830,10.196194650,-0.073702630,0.040067720,-0.000746550
1640787725930889728,0.215446950,0.552675370,9.369186400,-0.101733210,-0.075441600,-0.014856460
1640787725932189952,-0.332474980,0.246755690,10.691817280,-0.089918070,-0.069957960,-0.007364150
1640787725935520000,-0.142040970,0.211944940,9.246828080,-0.016790630,-0.029680130,-0.007081030
1640787725936919808,-0.487417160,-0.114624680,10.182180400,0.048750640,-0.094200660,-0.034315890
1640787725940399872,-0.577333570,-0.031179740,10.117127420,-0.001415610,0.006757680,-0.012747940
1640787725941880064,-0.264686470,0.340882840,9.514249800,-0.090229520,-0.064669550,0.006379190
1640787725945550080,-0.414724590,0.314787240,10.336581230,-0.169341280,-0.035105650,0.004076960
1640787725946859776,0.124430830,0.587509100,9.167392730,-0.118739910,-0.003667180,-0.004345180
1640787725950539776,-0.188938920,0.617617610,10.328086850,-0.000064070,-0.079822540,-0.021131340
1640787725951879936,-0.185508030,0.469746920,10.038820270,-0.002147260,-0.025692580,-0.006410480
1640787725955379968,-0.040637010,0.201953020,9.599426270,-0.030586120,-0.117981440,0.014291700
1640787725956899840,-0.352999240,-0.321236370,10.225616460,-0.058351460,-0.044055280,0.025270880
1640787725960369920,0.094293300,-0.254518780,9.151058200,-0.061608850,0.008948150,0.017496940
1640787725962380032,-0.296827410,-0.105915400,10.114391330,-0.055249040,-0.045952200,0.029875340
1640787725965859840,-0.159451440,-0.103553730,9.735713960,-0.082391500,-0.032359370,0.015039740
1640787725967259904,-0.052800850,-0.052845090,9.674067500,0.000832970,-0.101582730,-0.013799970
1640787725971500032,-0.471701650,-0.063683670,10.003623010,0.068791220,-0.042846800,-0.030204650
1640787725972469760,-0.273896600,0.088511330,9.625130650,0.047238170,-0.057974460,-0.034441060
1640787725975369984,-0.588182450,0.294723180,10.344179150,-0.003185870,-0.051926080,0.000655650
1640787725976960000,-0.268179300,0.406065020,9.508850100,-0.084754820,-0.061002380,0.021591780
1640787725980449792,-0.204255060,0.406983140,10.091791150,-0.032866000,-0.084251170,0.041331350
1640787725982050048,-0.195478230,0.434777800,9.702496530,0.024688250,-0.002130870,0.013841690
1640787725985519872,0.001446940,0.339079830,9.820034030,0.045926870,-0.103902820,0.012668970
1640787725987259904,-0.344210390,0.210768270,10.508937840,0.031979380,-0.048771500,0.035160780
1640787725990489856,0.031802120,-0.020368030,9.291503910,-0.037749110,-0.073017180,0.005768240
1640787725991940096,-0.132529270,-0.091751710,10.236571310,0.004835430,-0.117978460,0.032965840
1640787725995399936,-0.014770260,0.219774370,9.370522500,-0.000274180,0.043638050,0.015972550
1640787725996879872,0.036988430,0.175733970,9.614350320,-0.031159820,-0.061309350,0.005368890
1640787726000579840,-0.475316110,0.091145020,10.799369810,0.009289380,-0.064370040,0.042662020
1640787726001959936,-0.098983270,-0.079314910,9.216548920,0.071695450,-0.089602180,0.000318880
1640787726005489920,-0.327031730,-0.163963150,9.792136190,0.118081290,-0.122827310,0.004184250
1640787726006860032,-0.331881550,0.243524630,9.459754940,0.033742190,0.042907900,0.027126070
1640787726010599936,-0.024292570,0.175759610,9.761093140,-0.059027970,-0.022152070,0.022837520
1640787726011930112,-0.179253700,0.255192820,10.518143650,-0.011539460,-0.045728680,0.041835010
1640787726015689728,0.109011310,0.469752880,9.471119880,0.055640940,-0.084123020,0.034990910
1640787726017120000,-0.179208950,0.174228610,10.004472730,0.096754730,-0.095096220,0.009454790
1640787726020819968,-0.199009760,0.201795820,9.602783200,0.077959900,-0.015886130,0.008565190
1640787726021929984,-0.323568430,0.123193200,10.123525620,0.043129920,-0.066442790,0.001901390
1640787726025569792,-0.362344350,0.027998580,10.147120480,0.023497640,-0.042885540,0.015611950
1640787726026939904,0.048967630,0.477187900,9.288666730,0.024142860,-0.070390110,0.010836130
1640787726030409728,-0.223243950,0.698448720,10.053607940,-0.026763980,-0.018598140,0.011789800
1640787726032209920,0.132151290,0.779018940,9.459476470,-0.054794550,0.014606120,0.034424670
1640787726035859712,-0.092565250,0.415298430,10.321502690,0.037841500,-0.087104750,0.017465650
1640787726038400000,-0.231627240,0.076727930,10.089496610,0.125160830,-0.057661540,0.011815130
1640787726040619776,0.019655520,0.118738370,9.234745980,0.099954010,-0.083556770,0.020387770
1640787726042240000,-0.406693280,-0.075417500,9.916790960,-0.051108000,-0.005535780,0.027082860
1640787726045399808,0.104282240,-0.062405080,9.366449360,-0.099091250,0.021493430,0.035305320
1640787726046889984,-0.101138690,-0.041057840,10.293748860,0.020417570,-0.026853380,0.011371080
1640787726050560000,-0.051014290,0.166048060,9.549057010,0.099731990,-0.031428040,-0.009427960
1640787726052889856,-0.035903940,0.319319070,9.693157200,0.093217190,-0.087685880,-0.008828940
1640787726055399936,-0.438269970,0.207099140,10.012567520,0.013311210,0.031517450,-0.013229250
1640787726056959744,-0.264443960,0.239244390,9.664587970,0.003841520,-0.055426360,-0.000186260
1640787726060349952,-0.593543890,0.415088150,10.549610140,0.048384070,-0.049442050,0.000578160
1640787726061879808,-0.142526950,0.641979100,9.009477620,0.007137660,0.009708110,-0.012516980
1640787726065779968,-0.136342940,0.808663370,10.042428970,-0.013051930,-0.062561040,0.020451850
1640787726067759872,-0.345299390,0.599932130,10.229587550,-0.026659670,0.053755940,0.015975530
1640787726070400000,0.149745080,0.158123220,9.403155330,0.030557820,-0.084994740,-0.002507870
1640787726072039936,-0.282587290,0.168818580,10.634130480,0.100371260,-0.066699090,0.003148620
1640787726075379968,0.098605570,0.262296560,8.926541330,-0.010448690,0.045475360,-0.004263220
1640787726076869888,0.163600760,0.137989710,9.689090730,-0.095647580,-0.042915340,0.021402540
1640787726080359936,-0.099435510,0.098140180,10.301120760,-0.081554060,0.076624740,0.013384220
1640787726082039808,0.240650030,-0.007841350,9.311635970,0.040057310,-0.029778480,-0.019763410
1640787726086200064,-0.392671940,0.037486930,10.508671760,0.125889500,-0.082476440,0.002352890
1640787726086860032,-0.342233870,-0.011178300,9.340482710,0.044673680,0.015664100,-0.009927150
1640787726090459904,-0.342256340,-0.163939150,9.709813120,0.004103780,-0.047971310,-0.007927420
1640787726091949824,-0.396561620,0.122273700,10.052618030,-0.002227720,0.076094270,-0.002910200
1640787726095330048,0.053553670,0.508910300,9.411531450,-0.006446240,0.022295120,-0.019560750
1640787726096900096,-0.074692090,0.795080300,10.404828070,-0.000806150,-0.010770560,-0.003764030
1640787726100479744,0.154617850,0.865866070,9.518182750,-0.025466090,0.027078400,0.001853700
1640787726102340096,-0.102213030,0.423569170,10.109505650,0.030003480,-0.067193800,-0.002357360
1640787726105999872,-0.287773460,0.067797820,9.985050200,0.078350310,0.026507680,-0.012825430
1640787726107529984,-0.147646050,0.016150170,9.472315790,0.057940190,-0.002585350,-0.026582180
1640787726110390016,-0.466614870,-0.018898110,10.388771060,-0.009192530,0.017902260,-0.002667310
1640787726111889920,0.062454350,0.232869220,9.333994870,-0.103291870,0.057865690,-0.013798480
1640787726115520000,-0.061073760,0.278669450,10.037774090,-0.059701500,0.004841390,-0.026398900
1640787726116930048,0.004373120,0.455361930,9.852407460,0.038959090,0.051268940,-0.023314360
1640787726120359936,0.035364610,0.541235740,9.650219920,0.057263680,0.019297000,-0.033947830
1640787726122030080,-0.407544610,0.172924760,10.256526950,0.025653840,-0.002215800,-0.002335010
1640787726125389824,-0.134780300,-0.070799660,9.594805720,0.013183060,-0.014033910,-0.004701320
1640787726126889984,-0.243685260,-0.175951790,9.654918670,0.021955370,0.050586470,-0.016902390
1640787726130949888,-0.049120200,0.050305430,9.455275540,0.001731520,0.098083920,-0.000801680
1640787726135309824,-0.090682130,0.239833850,10.425630570,-0.026342270,0.059902660,-0.009866060
1640787726137069824,-0.068546980,0.247100700,9.955392840,-0.008869170,0.043824320,-0.012364980
1640787726138319872,0.048310550,0.341405450,9.729141240,0.048996510,-0.051213810,-0.019750000
1640787726140389888,-0.495635660,0.290287050,10.215322490,0.065989800,0.054666400,-0.046509500
1640787726141909760,-0.209124970,0.480420650,9.119483950,0.023998320,0.031135980,-0.040970740
1640787726145419776,-0.552539830,0.426013950,10.723879810,-0.024472180,0.003999470,-0.015689430
1640787726147089920,-0.292358160,0.408639520,9.670749660,-0.048460070,0.102815040,-0.008897480
1640787726150470144,0.127163100,0.427019240,9.602138520,0.008292500,-0.037308040,-0.010199840
1640787726152410112,-0.285674120,0.396162930,10.605425830,0.031776730,0.093849000,-0.010289250
1640787726155899904,0.292448460,0.449029450,9.007220270,0.000263750,0.054751340,0.002947450
1640787726156879872,-0.078167090,0.045169440,10.651082990,-0.006935000,-0.027230380,0.004751980
1640787726160389888,0.142039080,0.091356810,9.465826030,-0.011466440,0.113689920,-0.010892750
1640787726161929728,0.390160260,0.145676750,9.283580780,0.013393170,0.031259660,-0.020466750
1640787726166009856,-0.295536850,0.173504350,10.731815340,-0.026442110,0.120903550,-0.022506710
1640787726166929920,-0.023577390,0.205726210,9.334254260,-0.039777160,0.050140920,-0.015312440
1640787726170449920,-0.473021300,-0.167891730,10.521003720,0.048772990,-0.060778860,-0.014011560
1640787726172169984,-0.380484430,-0.146904010,9.248153690,0.097037850,0.100590300,-0.023953610
1640787726175419904,-0.347198990,0.060334160,9.425786020,0.075404350,0.052785880,-0.025574860
1640787726176899840,-0.587827980,0.212647810,10.678663250,-0.024198000,0.132621820,-0.013127930
1640787726180749824,0.087340610,0.633995890,9.420177460,-0.068311390,0.062866500,0.006434320
1640787726182019840,-0.177652510,0.623621820,10.587533000,-0.007864830,-0.002430380,0.004060570
1640787726185380096,0.096064790,0.656559230,9.573600770,0.025199350,0.095815960,-0.004555290
1640787726186859776,-0.089904270,0.488236370,9.957495690,0.087441510,0.019608440,0.007151070
1640787726190429952,-0.523320910,0.103943550,10.597209930,0.055333980,0.053915390,0.022287670
1640787726191849984,-0.081589750,-0.011656200,9.266879080,0.002025070,0.024032590,0.015920400
1640787726195360000,-0.376562270,0.053674460,9.978405000,-0.001111630,0.022916500,0.010967250
1640787726197299968,0.021251220,0.431387690,9.270570760,-0.074888770,0.135453060,-0.005231800
1640787726200499968,0.143913540,0.648057760,9.870614050,-0.071039800,0.097487870,-0.002624090
1640787726202809856,-0.131869640,0.448741290,10.624498370,-0.001849230,0.080306830,0.009633600
1640787726205600000,-0.021279330,0.215862040,10.160164830,0.091666010,-0.012157860,0.001223390
1640787726206909952,-0.433216810,0.040213880,9.802808760,0.119403030,-0.001467760,0.015586620
1640787726210379776,-0.389447060,-0.192802160,9.182472230,-0.013445320,0.046847760,0.036484010
1640787726212009984,-0.404384550,-0.212925180,9.857699390,-0.062456730,0.123143200,0.037367640
1640787726215449856,-0.128212390,0.022307320,9.557335850,-0.023576620,0.134374220,0.019931800
1640787726216999936,0.013440130,0.390064950,10.386569980,0.029395520,0.019466880,0.004200640
1640787726220950016,-0.033336720,0.850855290,10.053205490,0.024849180,0.089196850,0.003188850
1640787726221989888,0.051766830,0.676741660,9.671523090,-0.020933150,0.015218560,-0.014908610
1640787726225369856,-0.568112080,0.437435570,10.735067370,0.028404590,0.042954090,0.010988120
1640787726226899968,-0.362309220,0.390084420,9.263515470,0.055255000,0.065645580,0.004073980
1640787726230530048,-0.413266570,0.173774230,9.939853670,0.031529370,-0.005882980,0.011697410
1640787726231959808,-0.460884450,0.515635130,9.826607700,-0.047990680,0.130711500,0.046882030
1640787726235999744,0.027877170,0.427740070,9.414228440,-0.122264040,0.059553990,0.028708580
1640787726238339840,-0.218765300,0.213350650,10.699553490,-0.046366450,0.042569640,0.036907200
1640787726240409856,0.090442750,0.431527440,9.598073010,0.060756500,0.063256920,0.007927420
1640787726241929984,0.015271080,0.323823840,10.023616790,0.052489340,-0.013051930,0.008773800
1640787726245379840,-0.080655610,0.353498340,9.703256610,-0.055870420,0.092320140,0.046861170
1640787726247049728,0.143409120,0.197092280,9.348911290,-0.110298400,0.066189480,0.031302870
1640787726251289856,-0.230885710,-0.019233150,10.393369670,-0.038078430,0.090594590,0.033298140
1640787726252059904,-0.112569740,0.182321980,9.522856710,0.040107970,0.057150420,0.028836730
1640787726255470080,-0.434741200,-0.025381830,10.155638690,0.024548170,-0.006242100,0.005874040
1640787726256859904,-0.398441970,-0.057719680,9.658667560,-0.006966290,0.092345480,0.014793870
1640787726260369920,-0.313444470,0.059617560,9.604234700,0.009201470,0.049763920,0.008377430
1640787726261910016,-0.533566710,0.165562640,10.396504400,-0.008572640,0.087304410,0.000831480
1640787726265529856,0.083141410,0.715838610,9.268320080,-0.028224290,0.071622440,0.014108420
1640787726267309824,-0.252732870,0.733272190,10.410990720,-0.059045850,0.036385660,0.014111400
1640787726272259840,-0.098131760,0.674647630,9.834001540,-0.041444600,0.071971130,0.024996700
1640787726272859904,-0.176437600,0.437153220,9.934014320,0.044433770,-0.016739970,0.026929380
1640787726275349760,-0.520856740,0.065986970,10.210624690,0.061887500,0.044824190,0.026269260
1640787726276890112,-0.096122140,0.077360120,9.274160390,0.016207990,0.038070980,0.045514110
1640787726280619776,-0.368195620,-0.050206030,10.194304470,-0.064100310,0.065962960,0.044836110
1640787726284009984,0.094250320,0.024040640,9.355590820,-0.093622510,0.098560750,0.031839310
1640787726287180032,0.081389370,0.256383840,10.066422460,-0.010095540,0.039574500,0.008919840
1640787726287579904,-0.228869590,0.357957750,9.906115530,0.008188190,0.077468160,-0.007112330
1640787726290499840,-0.155751050,0.205444720,9.684967990,0.028565530,-0.052724780,0.013208390
1640787726291929856,-0.713804300,-0.127650040,10.265303610,0.056543950,0.026366120,0.018118320
1640787726295379968,-0.306280910,-0.205091600,8.877956390,0.053171810,0.043995680,0.018332900
1640787726297189888,-0.524092610,-0.055288850,10.384689330,0.031492120,0.050072360,0.045098360
1640787726300930048,-0.275747300,0.223581210,9.710591320,-0.061929230,0.145539640,0.043009230
1640787726302269952,0.064764320,0.242825310,9.869760510,-0.030514600,-0.041918460,0.050194570
1640787726305369856,-0.286329930,0.347318110,10.475540160,0.070419920,0.031064450,0.015877190
1640787726306860032,0.204658810,0.493155750,8.702098850,0.077772130,0.023911890,-0.022614000
1640787726310360064,-0.292991280,0.489773690,10.505279540,0.072304900,-0.001561640,0.006522240
1640787726311939840,-0.277762260,0.599681680,9.969825740,-0.034147500,0.122074790,0.014686580
1640787726316109824,-0.062355830,0.375582960,9.639063840,-0.047637520,-0.040233140,0.036562980
1640787726317119744,-0.567754980,0.227578030,10.535003660,0.017447780,0.004422660,0.042685870
1640787726320729856,-0.160901430,0.226705550,8.951166150,0.043752790,0.048914560,0.009095670
1640787726321889792,-0.458335610,0.118263110,10.057085990,0.070206820,-0.022749600,0.042159860
1640787726325349888,-0.433587370,-0.027741420,9.975615500,0.000476840,0.063905120,0.042790170
1640787726326899968,0.107579860,-0.128526870,9.355086330,0.013756750,0.004497170,0.026822090
1640787726330429952,-0.162152340,-0.034814580,10.328873630,0.055666260,0.047601760,0.028382240
1640787726332259840,0.055858000,0.321072340,9.563062670,0.013355910,0.065271560,0.023952130
1640787726335699968,-0.196091180,0.199606360,10.121822360,0.008183720,-0.032192460,0.032132860
1640787726337029888,-0.257094530,-0.043577670,9.832548140,0.057192150,0.001402200,0.027978420
1640787726340410112,-0.364955430,-0.148389580,9.630433080,0.154954200,-0.025804340,0.009484590
1640787726341979904,-0.615266320,-0.073378550,9.873000140,0.157509740,0.027883050,0.003367660
1640787726345899776,-0.366532950,0.352007030,9.578780170,0.026710330,0.015826530,0.017365820
1640787726346940160,-0.429201390,0.517470120,10.205999370,-0.052991510,0.016912810,0.038489700
1640787726350469888,-0.061464250,0.717483940,9.737656590,-0.026439130,0.012134020,0.031779710
1640787726351939840,-0.130358710,0.722523390,10.078291890,0.086307520,-0.034981970,0.008471310
1640787726355360000,-0.278682530,0.678697880,9.957341190,0.140297410,0.003167990,0.014285740
1640787726357080064,-0.239781620,0.471894440,9.818582530,0.062493990,-0.050915790,0.033611060
1640787726360819712,-0.494718970,-0.091957490,10.024545670,0.008870660,-0.025804340,0.066447270
1640787726362639872,-0.032369990,-0.261402250,9.210179330,0.032480060,-0.007335840,0.037537510
1640787726365900032,-0.021721940,-0.049791360,9.885984420,0.059594230,0.031749900,0.032414500
1640787726367200000,0.101102450,0.291925460,9.534888270,0.017602740,0.068745020,0.033514200
1640787726370869760,0.130648690,0.318116640,10.275667190,-0.023342670,-0.041085480,0.023505090
1640787726372019968,-0.308290570,0.036631840,10.339455600,0.049518050,-0.027021760,0.015899540
1640787726375449856,-0.297807510,-0.005861830,9.188285830,0.168608140,-0.120705380,-0.001899900
1640787726377120000,-0.891831040,-0.091720830,10.100201610,0.148950520,-0.042779750,-0.008560720
1640787726380379904,-0.579892400,0.090133990,8.932882310,0.045014920,0.071468970,0.025993590
1640787726383520000,-0.546735230,0.150745020,10.398028370,-0.001423060,-0.059911600,0.043646990
1640787726386620160,-0.381993410,0.379799490,10.328152660,0.027662520,0.031338640,0.049644710
1640787726387019776,0.325042930,0.754032430,8.996696470,0.070480990,-0.077411530,0.031781200
1640787726390390016,-0.139588520,0.632215200,10.951493260,0.091910360,-0.031952560,0.015716260
1640787726392400128,0.180775700,0.719158470,9.305530550,0.067353260,0.044135760,0.027860710
1640787726395399936,-0.054396250,0.294963330,10.142471310,0.073380760,-0.152172120,0.020036100
1640787726396960000,-0.369912890,0.106669840,10.169689180,0.062808400,-0.010071690,0.021409990
1640787726400519936,0.055493190,0.197650570,8.513522150,0.050294400,-0.034452970,0.014364720
1640787726401979904,-0.598265770,-0.039195510,10.662772180,0.024749340,-0.034958120,0.041410330
1640787726405390080,-0.278854280,0.064205480,9.619482040,0.027792160,0.042650100,0.040768090
1640787726406909952,-0.170298000,-0.039753240,9.946703910,0.109477350,-0.128516550,0.024674830
1640787726410379776,-0.401197640,0.094652110,10.211636540,0.114129500,-0.009861590,0.024737420
1640787726411929856,0.041190150,0.480830580,8.953865050,0.046688320,-0.017923110,0.021094080
1640787726415569920,-0.299360190,0.261554990,10.319153790,0.003051760,-0.039641560,0.019334260
1640787726416879872,-0.012777330,0.302074040,9.600914000,0.055247550,0.003731250,0.026464470
1640787726420369920,-0.122047010,0.320157890,9.953010560,0.149789470,-0.099799040,0.024613740
1640787726421939968,-0.315207030,0.149988290,10.009114270,0.107024620,-0.027237830,0.026877220
1640787726425819904,-0.116205730,0.241745770,9.489575390,0.059881810,-0.053027280,0.038129090
1640787726426899968,-0.485491190,0.161340850,10.434026720,0.038486720,-0.023402280,0.024893880
1640787726430729984,-0.089752040,0.389088720,9.401988980,0.022995470,-0.016641620,0.015206630
1640787726434799872,-0.197066780,0.840382100,9.940857890,0.051435830,-0.085769590,0.003014500
1640787726436189952,-0.140167270,0.932824610,9.713470460,-0.006993120,0.014090540,0.008286540
1640787726437829888,-0.004735810,0.815205750,9.667976380,-0.012391810,-0.043144830,0.036577880
1640787726440569856,-0.537569520,0.345401760,10.681702610,0.056187810,-0.058844690,0.035706160
1640787726442060032,-0.252082620,0.009815890,9.659688950,0.097829100,-0.089207280,0.032711030
1640787726445390080,-0.399765640,-0.067755430,9.731298450,0.088548670,-0.099270050,0.060090420
1640787726447119872,-0.208484560,-0.149703010,9.279552460,-0.050224360,0.025871400,0.051335990
1640787726450429952,0.216375010,-0.050828390,9.610170360,-0.062330070,0.014212730,0.047867000
1640787726451969792,0.076113220,0.193256020,10.200185780,0.037133690,0.006677210,0.027766820
1640787726455389952,0.248126640,0.459089220,9.873720170,0.064274680,-0.090579690,-0.001999740
1640787726457069824,-0.168847740,0.544523840,10.069658280,0.047236680,-0.088173140,0.020357970
1640787726460419840,-0.380020500,0.218729720,9.511512760,0.020325180,-0.048674640,0.010474020
1640787726461969920,-0.690948780,0.061116190,10.316046710,0.055024030,-0.082883250,0.015562770
1640787726465509888,-0.852388500,0.274423210,9.834484100,0.069157770,-0.015589590,0.031627710
1640787726468570112,-0.402579460,0.358304320,9.516247750,-0.000749530,-0.096087170,0.032381710
1640787726470340096,-0.435166150,0.669835390,10.277653690,-0.041513140,-0.007584690,0.069475180
1640787726472019968,0.212870050,0.789914010,9.240117070,-0.068089370,0.009417530,0.039705640
1640787726475419904,0.137886150,0.528109370,10.619461060,0.008338690,-0.090342760,0.036388640
1640787726476889856,0.110528160,0.676230790,9.997649190,0.069166730,-0.028209390,0.029142210
1640787726480640000,0.288015460,0.299676450,9.334619520,0.014770030,-0.114019220,0.020448860
1640787726481929984,-0.272750320,0.026431830,10.229099270,-0.038276610,-0.039978330,0.050136450
1640787726485389824,-0.087719950,-0.122088260,9.107540130,-0.044234100,0.002521280,0.026147070
1640787726486869760,-0.363491210,-0.332348080,10.148965840,0.023233890,-0.102038680,0.021885340
1640787726490540032,-0.537324970,0.125723900,9.862092970,0.034645200,-0.019538400,0.038409230
1640787726491919872,-0.276395530,0.151585620,9.506752970,-0.022715330,-0.077179080,0.012224910
1640787726495339776,-0.547781230,0.153126180,10.480329510,-0.004956130,-0.048714880,0.022153560
1640787726497149952,-0.172181460,0.588146090,9.433563230,0.027352580,-0.027625270,0.018012530
1640787726501649920,-0.199931350,0.585036220,10.266656880,0.004778800,-0.076299890,0.014390050
1640787726502849792,-0.134192170,0.844159070,9.847190860,-0.038315350,-0.016386800,0.046883520
1640787726505570048,0.013178980,0.724744500,9.625818250,-0.052472950,-0.104659800,0.037859380
1640787726506889728,-0.278137980,0.320963830,10.260644910,-0.022070110,-0.056621430,0.040876870
1640787726510360064,-0.000549630,0.313622240,9.261880870,0.031936170,-0.045146050,0.033548480
1640787726511940096,-0.337981550,0.135353490,10.422240260,0.019276140,-0.098410270,0.016093250
1640787726515489792,-0.119065290,0.277752250,9.606925960,-0.065112100,-0.000929830,0.029224160
1640787726516960000,0.116307450,0.375880360,9.426293370,-0.114902870,-0.069917750,0.029869380
1640787726520470016,-0.269036350,0.284661860,10.444683070,-0.089183460,-0.019410250,0.017979740
1640787726522009856,0.045507210,0.518597660,9.291599270,-0.016283990,-0.041989990,0.014710430
1640787726525349888,-0.529465380,0.286092640,10.373266220,0.009568040,-0.132820030,0.021369760
1640787726526919936,-0.466812670,-0.126197800,9.732748990,-0.017610190,-0.051645940,0.037793820
1640787726530769920,-0.234153330,-0.296625290,9.413228990,0.019803650,-0.073339050,0.023810570
1640787726535909888,-0.414586340,-0.289895060,10.124103550,-0.000576670,0.001524390,0.029467050
1640787726536489984,0.205859870,0.242226240,9.432498930,-0.065369900,0.001427530,0.041233010
1640787726537289984,0.120028670,0.415578010,10.291375160,-0.098478790,-0.037817660,0.029920040
1640787726540499968,0.197100880,0.433102910,9.839038850,-0.056013460,-0.054596360,0.015009940
1640787726541929984,-0.029532590,0.525088610,9.933667180,0.057913360,-0.112585730,-0.003796820
1640787726545359872,-0.446244980,0.286434710,9.799366000,0.053688880,-0.043398150,-0.015503170
1640787726547190016,-0.497141900,0.261858550,9.865140910,0.008338690,-0.076338650,0.005137920
1640787726551429888,-0.855883420,0.243153350,10.325618740,-0.047463170,-0.046196580,0.024823840
1640787726552160000,-0.317893650,0.137818740,9.170629500,-0.097608570,-0.059202320,0.026896600
1640787726555389952,-0.172884230,0.472205550,10.034635540,-0.037334870,-0.042633720,0.042383380
1640787726556879872,0.028475080,0.589821340,9.801131250,-0.037012990,0.064106280,0.019627810
1640787726560349952,0.350537870,0.361603290,9.907977100,-0.018438700,-0.103445370,0.036925080
1640787726561959936,0.066170970,0.078725080,10.458007810,0.017246600,-0.073799480,0.028313700
1640787726565549824,0.532598970,-0.271383910,8.919061660,0.026144090,-0.030612950,0.002108510
1640787726566999808,-0.046463770,-0.225624440,10.166044240,0.027266150,-0.031389300,0.012336670
1640787726570390016,-0.318213850,0.010883820,9.807848930,-0.066271430,0.031961500,0.012184680
1640787726571929856,-0.177370100,-0.097888850,9.546099660,-0.074009600,-0.119003650,0.030732160
1640787726575399936,-0.655107080,0.047327070,10.142828940,0.048340860,-0.040838120,0.027319790
1640787726576869888,-0.407897030,0.334697630,9.168704030,0.074304650,-0.009545680,-0.010535120
1640787726580539904,-0.641698660,0.502213240,10.409166340,0.038959090,-0.061264630,0.015977030
1640787726581959936,-0.443952200,0.755918920,9.922122000,-0.046035650,0.008931760,0.020013750
1640787726585870080,-0.041112530,0.642099560,9.899277690,-0.069366400,-0.079391900,0.025303660
1640787726586889984,-0.113817390,0.737460260,10.116030690,-0.017812850,-0.015674530,0.039108100
1640787726590390016,0.349710320,0.660017670,9.123324390,0.004251300,-0.047168140,0.011421740
1640787726591960064,0.083137850,0.429619430,10.301309590,-0.005501510,-0.027483710,0.030340260
1640787726595350016,0.167779370,0.259483870,9.576402660,-0.045795730,0.023478270,0.055104490
1640787726597110016,0.094934140,-0.240625490,10.094269750,-0.029945370,-0.111272940,0.037775930
1640787726600580096,-0.078631410,-0.037623320,9.919750210,0.003567340,0.001844760,0.030688940
1640787726602329856,0.188633260,0.266999070,8.817356110,-0.059106950,0.002047420,0.017628070
1640787726605540096,-0.417479870,0.129701850,10.595528600,-0.106801090,0.001139940,0.028516360
1640787726607009792,-0.274989810,0.253802330,9.664667130,-0.045034290,0.031569600,0.021888320
1640787726610400000,-0.485971060,0.010376910,10.047233580,0.074049840,-0.144410150,0.004422660
1640787726611939840,-0.680656140,0.089808310,9.823513030,0.084345050,-0.021106000,0.023838880
1640787726615619840,-0.234744300,0.268131820,8.978089330,-0.024205440,0.011971590,0.022363660
1640787726616979712,-0.398465720,0.104589670,10.573029520,-0.086466980,0.004845860,0.045976050
1640787726621049856,0.284371440,0.495433150,9.587784770,-0.051978230,0.046432020,0.059252980
1640787726621909760,0.413689670,0.703952250,9.925424580,-0.019335750,-0.050261630,0.028328600
1640787726625389824,0.260273190,0.710095580,9.994466780,-0.029608610,0.004288550,0.042191150
1640787726626899968,0.213639390,0.697304010,9.603957180,-0.032988190,-0.034800160,0.032688670
1640787726630820096,-0.421711620,0.138585540,10.274650570,-0.025235120,-0.038062040,0.025671730
1640787726637549824,-0.401519150,0.062852930,9.501414300,-0.001224880,-0.057336690,0.028757750
1640787726638029824,-0.614512210,0.211921830,9.910104750,-0.020210450,-0.026710330,0.021670760
1640787726638379776,-0.335928080,0.315881490,9.440485950,-0.129862140,0.058446820,0.037933880
1640787726640440064,-0.051004710,0.458710580,9.975536350,-0.139677540,0.023853780,0.060226030
1640787726641939968,-0.079629420,0.248026130,10.431200030,-0.062754760,0.048258910,0.043503940
1640787726645359872,0.449612920,0.243587630,9.370057110,0.044287740,-0.056791320,0.052215170
1640787726647239936,-0.024937850,0.170804560,10.016386990,0.036580860,-0.041733680,0.053086870
1640787726650560000,0.118136360,-0.173660680,9.184694290,-0.087778290,0.025618080,0.045777860
1640787726654259968,0.080792020,-0.237536500,9.705051420,-0.070309650,-0.014236570,0.053374480
1640787726655379968,-0.281705080,-0.091626260,10.143640520,-0.026902560,0.063522170,0.026516620
1640787726656899840,0.072040990,0.349253920,9.451474190,-0.036151710,-0.000648200,0.019791720
1640787726660359936,-0.427052650,0.614035250,10.449072840,-0.050124530,-0.013652440,0.037352740
1640787726661969920,-0.273683490,0.469719620,9.520193100,-0.075042260,0.021164120,0.030611460
1640787726665519872,-0.338818850,0.433424920,9.927749630,-0.004963580,-0.035919250,0.044323510
1640787726667209984,-0.593109790,0.497405830,9.955417630,0.015036760,0.027520960,0.036473580
1640787726672259840,-0.100379710,0.526698650,9.444337840,-0.059254470,-0.023008890,0.049440570
1640787726672809728,-0.206463380,0.504241590,10.150692940,-0.114206980,0.038252770,0.080384320
1640787726675369984,0.228482600,0.235310120,9.461705210,-0.129532830,0.052566830,0.056752560
1640787726676920064,0.217221840,0.051327820,10.436393740,-0.016738470,-0.011081990,0.058777630
1640787726680960000,0.082984130,0.212997730,9.802606580,0.023831430,0.045822560,0.054118040
1640787726682390016,0.185750100,-0.004999370,9.449974060,-0.054210420,-0.056970130,0.062943990
1640787726685639936,-0.131755770,-0.074666810,9.978452680,-0.101520120,0.043433910,0.070461620
1640787726687310080,0.156825350,-0.009006030,8.929697040,-0.090363620,0.075544420,0.038026270
1640787726690409984,-0.368044970,0.070817220,10.543504710,-0.015923380,0.006550550,0.042612850
1640787726691920128,-0.469330700,0.452615890,9.798548700,-0.027784710,0.059339410,0.043423470
1640787726695389952,-0.368867460,0.179421450,9.639766690,-0.061969460,-0.090558830,0.041799250
1640787726697009920,-0.698346200,0.099821700,10.231009480,-0.007756050,0.026832520,0.073720520
1640787726701019904,-0.170304670,0.153435100,8.924478530,0.006820260,0.077672300,0.036686660
1640787726702070016,-0.303465720,0.151150300,10.487663270,-0.011074540,-0.001056490,0.051279370
1640787726705390080,0.002530190,0.591527880,9.785943980,-0.079907480,0.067463520,0.070014600
1640787726706949888,0.406200710,0.514899430,9.500858310,-0.112815220,-0.034675010,0.050801040
1640787726710319872,0.012815600,0.448413370,10.360287670,-0.072565700,0.028377780,0.071173920
1640787726712049920,0.207494230,0.388207470,9.339401250,0.005151330,0.037090480,0.043264040
1640787726715790080,-0.379930380,0.053756940,10.564435960,0.035847730,-0.025561460,0.044366720
1640787726716919808,-0.473828760,0.128430800,9.794873240,-0.026784840,0.007703900,0.081281370
1640787726720349952,-0.301631510,0.002252870,9.440825460,-0.090593100,-0.035999720,0.060743100
1640787726722019840,-0.417585400,0.095630900,9.871273040,-0.100496420,0.063966210,0.064595050
1640787726725369856,-0.017570570,0.545671340,9.280806540,-0.075779860,0.070980190,0.063024460
1640787726726969856,-0.128417850,0.399721150,10.466732030,-0.058768690,0.013338030,0.057245800
1640787726730549760,0.108838290,0.249187890,9.809586520,-0.011192260,0.027267640,0.069089220
1640787726735259904,0.067277130,0.113276800,9.754945760,0.041595110,-0.064204660,0.053571170
1640787726736349696,-0.161914200,-0.178792280,9.788529400,-0.020302830,0.040501360,0.058929630
1640787726738050048,0.121632380,-0.108187880,9.006290440,-0.064919900,0.053007900,0.071764000
1640787726740419840,-0.279703560,-0.203904210,10.539536480,-0.057803100,0.036945950,0.060388460
1640787726741959936,0.016062300,-0.007860130,9.675296780,-0.022482870,0.052236020,0.067421790
1640787726745879808,-0.149693270,0.221283270,9.842658040,0.025407970,-0.051066280,0.052016970
1640787726746929920,-0.453060210,0.232029200,10.138275150,-0.008086860,0.050725050,0.039146840
1640787726750449920,-0.220672650,0.334578810,9.487464900,-0.004284080,0.022588670,0.043924150
1640787726751989760,-0.670975090,0.302018490,10.538437840,0.019922850,-0.025038420,0.050537290
1640787726755379968,-0.111744140,0.452201310,9.324136730,-0.011658670,0.035858160,0.051021580
1640787726756899840,0.043562780,0.671004530,9.646442410,-0.031670930,0.031989810,0.053454950
1640787726760859904,-0.078599160,0.655650260,10.171530720,-0.097532570,0.093388560,0.060483820
1640787726763689984,0.349571940,0.452386680,9.627859120,-0.075705350,0.015434630,0.077652930
1640787726765839872,0.002047190,0.008901230,10.259972570,0.044947870,-0.024452810,0.066657380
1640787726767079936,0.080166090,-0.095839380,9.349702840,0.065457820,0.005891920,0.055693100
1640787726771289856,-0.123007080,-0.122363050,9.473215100,-0.015999380,0.028115510,0.047756730
1640787726771950080,-0.361781240,-0.241219210,9.808630940,-0.118662420,0.091870130,0.048355760
1640787726775369984,-0.221776350,-0.225115080,10.038367270,-0.072337690,0.019316380,0.037956240
1640787726777029888,-0.424073220,-0.029869280,10.134635930,0.062961890,0.011129680,0.028847160
1640787726780409856,-0.227853150,0.235669310,9.421623230,0.062075260,-0.001028180,0.025582320
1640787726782409984,-0.392392750,0.305925820,10.023834230,0.022761530,0.022339820,0.049498680
1640787726785420032,-0.312316060,0.261688410,9.682938580,-0.012815000,0.060582150,0.046482680
1640787726787500032,-0.100741650,0.288509220,9.979356770,-0.004373490,-0.019183750,0.050063430
1640787726790629888,-0.136565860,0.522172630,9.973165510,0.030587610,0.050377850,0.053851310
1640787726791999744,0.221831800,0.722627640,9.262199400,-0.029140710,0.015845900,0.032177570
1640787726795409920,-0.111894190,0.745218690,10.344926830,-0.072707240,0.022332370,0.051662330
1640787726797119744,-0.084633250,0.480781230,9.696647640,-0.058537730,0.067453090,0.050663950
1640787726802670080,-0.095800090,0.036204070,10.144665720,0.023506580,-0.046071410,0.025108460
1640787726805189888,-0.433045720,0.152376640,10.041690830,0.075045240,0.011700390,0.035701700
1640787726806319872,0.035423190,0.095539870,8.813287730,-0.044228140,0.037203730,0.038476280
1640787726806919936,-0.261064020,-0.044945330,10.273420330,-0.128984470,0.068750980,0.056982040
1640787726810439936,-0.062502150,0.013892810,9.679861070,-0.076465320,0.085572920,0.049601500
1640787726811960064,0.076624920,-0.062438930,9.939984320,0.043463710,-0.049440570,0.022552910
1640787726815399936,-0.292631390,0.157880890,10.003462790,0.075800700,0.027772790,0.032421950
1640787726816920064,-0.074361730,0.095203370,9.230880740,0.001992290,0.007440150,0.024493040
1640787726820619776,-0.416553590,-0.083503920,10.444186210,-0.039850180,0.022396450,0.028264520
1640787726822039808,-0.199515610,0.139648600,9.311019900,-0.013464690,0.068390370,0.032776600
1640787726825369856,-0.041391690,0.326160880,9.875983240,0.016446410,-0.017865000,0.033822660
1640787726827069952,-0.281198230,0.534563960,10.156579970,-0.006508830,0.086423740,0.039806960
1640787726830339840,0.047032270,0.611453060,9.323966980,-0.024622680,-0.013279920,0.045879190
1640787726831990016,-0.359802960,0.312240930,10.707400320,-0.013336540,-0.000122190,0.034607950
1640787726835419904,-0.127829760,0.229845270,9.330532070,0.028048460,0.053878140,0.016357010
1640787726837159936,-0.264551100,0.309581520,10.259154320,0.043746830,-0.054988270,0.008253750
1640787726840449792,-0.344406250,0.454190520,9.941783910,-0.062358390,0.098207590,0.024782120
1640787726842929920,0.215422080,0.483676610,8.820734980,-0.135256350,-0.016775730,0.023475290
1640787726845399808,-0.127415930,0.262998130,10.647706990,-0.062866520,0.040531160,0.028637060
1640787726846959872,0.181749870,0.313191500,9.102153780,0.020547210,0.100454700,0.008195640
1640787726850400000,-0.118451710,0.110079740,10.238474850,0.058281430,-0.097371650,0.020717090
1640787726852019968,-0.344726090,-0.080153500,10.074194910,-0.025595730,0.054518890,0.032076240
1640787726855439872,0.209420640,-0.207287540,8.556405070,-0.073276450,0.022001560,0.012554230
1640787726857440000,-0.404139010,-0.229542330,10.733924870,-0.016185640,0.051303210,0.023978950
1640787726860549888,-0.094020910,0.108190850,9.363560680,-0.014121830,0.116349750,-0.003179910
1640787726861999872,-0.070220720,0.138002310,9.882587430,0.012506550,-0.088471170,0.003494320
1640787726865399808,-0.419638960,0.147328090,10.295566560,0.021281840,0.047312680,0.009387730
1640787726866929920,-0.008957430,0.159376930,8.848520280,0.023733080,0.035445400,-0.018842520
1640787726870759936,-0.597500150,0.175441560,10.749859810,0.050693760,-0.019566720,-0.001439450
1640787726872029952,-0.317259550,0.587041500,9.584856030,-0.018946820,0.065469750,-0.004547830
1640787726876489984,-0.063544330,0.582021830,9.526679040,-0.071139630,-0.037343800,0.011511150
1640787726877559808,-0.328862940,0.542436600,10.391226770,-0.061377890,0.055173050,0.023788220
1640787726880319744,0.166464730,0.362151620,9.326945300,0.003133710,0.044816740,-0.010050830
1640787726881969920,-0.212155980,0.112729230,10.541572570,0.077642500,-0.033557420,-0.005234780
1640787726885399808,-0.139478820,0.125813230,9.693032260,0.015708810,0.037300590,0.018745660
1640787726887089920,0.028152830,-0.292279120,9.420490260,-0.044316060,-0.040593740,0.017450750
1640787726890789888,-0.116300810,-0.308100280,9.912148480,-0.022986530,0.050897900,0.018836560
1640787726892000000,0.181234880,0.019845570,9.165472980,0.005155800,0.069390240,-0.009341540
1640787726895429888,-0.120628300,0.111988790,10.334718700,0.012983380,0.007253890,-0.013342500
1640787726896979712,-0.104615610,0.268883940,9.834213260,0.005644560,0.027756390,-0.000874700
1640787726900659968,-0.239332480,0.050695210,9.888580320,0.050975380,-0.064355130,-0.011712310
1640787726901989888,-0.502316000,-0.012201560,9.844795230,0.090768960,0.023901460,-0.008958580
1640787726906609920,-0.303475800,0.244870360,9.151289940,0.047174100,0.026696920,-0.012885030
1640787726907579904,-0.452910100,0.150629510,10.217573170,-0.008381900,0.027181210,-0.003373620
1640787726910810112,-0.051312900,0.267151830,9.613555910,-0.010827180,0.057894000,0.013953450
1640787726911959808,-0.049605400,0.320543080,10.093632700,0.047516830,-0.046610830,0.001971420
1640787726915399936,-0.083700880,0.219320510,10.015339850,0.068862740,0.010862950,-0.011411310
1640787726916950016,0.111798110,0.314537050,9.419075970,0.057697300,0.007002060,-0.013107060
1640787726920460032,-0.468272630,-0.001042040,10.552088740,0.031469770,-0.024150310,-0.005625190
1640787726922030080,-0.067985040,-0.004485000,9.404965400,0.045032810,-0.010392070,-0.003485380
1640787726925459968,-0.156213660,0.167128340,9.556505200,0.056621430,-0.037488340,-0.022450090
1640787726927650048,-0.268946980,0.392593770,9.798967360,-0.003671650,0.057779250,-0.014227630
1640787726930439936,-0.038052900,0.643567740,9.614589690,-0.020894410,0.009544190,0.001004340
1640787726932000000,-0.411526950,0.320927830,10.469050410,0.009088220,-0.043123960,-0.000882150
1640787726936399872,-0.118432020,0.209947630,9.500619890,0.091969960,-0.050593910,-0.002318620
1640787726937749760,-0.252188380,0.216625660,9.586318970,0.111691650,-0.035798550,-0.012563170
1640787726940509952,-0.242782010,-0.051693090,9.507384300,0.004410740,0.046224890,-0.012291970
1640787726943159808,0.018056190,-0.141659300,9.687452320,-0.022268300,0.008024280,0.001177190
1640787726945339904,-0.187390860,-0.262782660,10.177685740,0.034600500,-0.005334620,-0.029490890
1640787726947000064,0.130308370,-0.079006160,9.399755480,0.086078060,-0.069276990,-0.029464070
1640787726950469888,-0.247561510,0.091362570,9.952901840,0.102992340,-0.037632880,-0.027398770
1640787726952160000,-0.296211060,0.024969260,9.590137480,0.032298270,0.005839770,-0.046442450
1640787726955610112,-0.359356310,0.145981120,10.072120670,0.053775310,-0.077848140,-0.030501190
1640787726956969984,-0.532914160,0.296305240,10.016000750,0.087672480,-0.007779900,-0.047154730
1640787726960379904,-0.081657050,0.579117480,9.177845000,0.060305000,-0.042541330,-0.039334600
1640787726961989888,-0.394106750,0.861211120,10.337974550,0.029841070,-0.029887260,-0.013111530
1640787726965420032,-0.145722970,0.709032060,9.511966710,-0.035318730,-0.012487170,-0.020423530
1640787726966949888,0.006727130,0.391713590,9.839699750,0.036737330,-0.112223630,-0.003229080
1640787726970979840,-0.294833300,0.263375850,10.201882360,0.115655360,-0.015100840,-0.022234020
1640787726972479744,0.137320700,0.215096400,9.277792930,0.054577000,-0.047390160,-0.031402710
1640787726975579904,-0.204300430,0.182312060,10.219514850,-0.024627150,-0.071078550,0.005257130
1640787726976919808,0.025129660,-0.071879220,9.333252910,-0.070141260,0.008593500,-0.023387370
1640787726980320000,0.159601840,-0.189045350,9.582112310,0.035308310,-0.059145690,-0.038219990
1640787726981969920,-0.393886800,0.074808020,10.204592700,0.125990820,-0.033827130,-0.033551460
1640787726985389824,-0.147630600,0.042306320,9.265914920,0.052563850,-0.091700260,-0.039468710
1640787726987160064,-0.452337800,-0.028058590,9.971603390,0.011518600,-0.089937440,-0.013801450
1640787726991049984,-0.345712330,0.030169870,9.499673840,0.018097460,-0.006373230,-0.023740530
1640787726992049920,-0.246755450,0.144850700,9.955845830,0.058315690,-0.050863620,-0.034663080
1640787726995360000,-0.367473810,0.490349710,10.064701080,0.073638560,-0.030688940,-0.011824070
1640787726996909824,0.057684240,0.505340640,9.358469010,0.013417010,-0.101552910,-0.017969310
1640787727000809984,-0.119409050,0.353082330,10.070308690,0.016050040,-0.052718830,-0.008022790
1640787727002529792,-0.072150270,0.276647420,9.362509730,0.058454270,-0.042597950,-0.026664130
1640787727005410048,-0.305368040,0.165303950,10.295231820,0.091525930,-0.145167160,-0.045150530
1640787727006949888,-0.328613760,0.360508830,9.624724390,0.039078300,-0.048203770,-0.031994290
1640787727010469888,-0.039025870,0.402546670,9.259565350,-0.051870950,-0.103411080,-0.024099650
1640787727013169920,-0.345600930,0.244819330,10.596956250,-0.043328110,-0.032532220,-0.017598270
1640787727015429888,0.033035660,0.342651640,9.222750660,0.039792060,-0.042006370,-0.035046040
1640787727017019904,-0.306557270,0.279414060,10.421165470,0.072763860,-0.186242180,-0.024242700
1640787727020480000,-0.301597090,0.089689370,9.533161160,0.025965280,-0.047327580,0.004404780
1640787727022039808,0.145778460,-0.195788220,8.891550060,0.002022090,-0.122728940,-0.010570880
1640787727025509888,-0.292104390,-0.336482760,10.516972540,0.041110810,-0.043778130,-0.006389620
1640787727027789824,0.248894230,0.010882490,8.858242990,0.041106340,0.006295740,-0.019645690
1640787727030370048,0.017764920,0.029606880,10.354891780,0.014062230,-0.152127460,-0.020600860
1640787727032209920,-0.223560020,0.095723320,10.079773900,0.013124940,-0.052317980,-0.008311870
1640787727035439872,0.051501560,0.033420170,9.016737940,0.082853440,-0.154933350,-0.030238930
1640787727037139968,-0.693300130,-0.109962690,10.501192090,0.121085340,-0.096929060,-0.034317370
1640787727040619776,-0.296412170,0.179680330,8.961336140,0.082589680,-0.024035570,-0.040733810
1640787727042080000,-0.409165530,0.236528980,10.254040720,0.037752100,-0.130553540,-0.031225390
1640787727045359872,-0.345457400,0.482805580,10.064644810,-0.018103420,-0.030793250,-0.015442070
1640787727047020032,0.256640490,0.634793280,9.147340770,0.014233590,-0.130380700,-0.019152460
1640787727050370048,-0.138833120,0.507458330,10.520061490,0.048355750,-0.064881130,-0.017024570
1640787727052239872,0.202412620,0.498301270,9.184813500,0.059041390,-0.044719870,0.004412230
1640787727055859968,-0.115946730,-0.081420040,10.388634680,0.083887580,-0.175954420,0.009265540
1640787727057260032,-0.072506270,-0.363810600,9.607691760,0.070659820,-0.047719470,-0.001105670
1640787727060590080,0.176164210,-0.314067870,8.990148540,0.058072810,-0.120224060,-0.016044080
1640787727061990144,-0.251822110,-0.250992030,10.352375030,0.012566150,-0.009955470,-0.009796020
1640787727065609984,0.158629610,0.036961690,9.154437070,-0.014682110,-0.022655720,-0.022837520
1640787727067040000,-0.294076380,-0.063389630,10.637801170,0.092437880,-0.173838480,-0.019747020
1640787727070589952,-0.298637270,0.104747430,9.573620800,0.150522590,-0.061410670,-0.037534540
1640787727073099776,-0.183523430,0.205590400,8.909391400,0.118088720,-0.131422300,-0.037752090
1640787727075429888,-0.647681650,0.144868940,10.436060910,0.054800510,-0.035974380,-0.006973740
1640787727076999936,-0.056324870,0.269613560,9.313613890,0.018912550,-0.012126570,-0.009883940
1640787727080489984,-0.137503860,0.204597950,10.340671540,0.083877150,-0.138705980,0.000981990
1640787727082080000,0.032552890,0.453539940,9.795053480,0.090628850,-0.036478040,-0.002089140
1640787727085369856,0.242298020,0.464538160,9.324091910,0.060148540,-0.090123710,-0.013309720
1640787727086999808,-0.277301910,0.210893620,10.395644190,0.062809880,-0.087679930,0.001814960
1640787727090479872,0.000831950,0.155960320,9.359082220,0.069749360,-0.085110970,-0.008064510
1640787727092649984,-0.106371510,-0.002365050,9.721879010,0.103768710,-0.104419910,-0.020425020
1640787727095330048,-0.053554860,0.186890530,9.644002910,0.077229740,-0.010694560,-0.016343600
1640787727097100032,0.031726710,0.369869800,9.808842660,-0.001309810,-0.031296910,-0.018699470
1640787727100379904,-0.129127250,0.152753380,10.210694310,0.000387430,-0.060690930,0.001950560
1640787727101999872,0.005681730,0.121953110,9.629635810,0.094164900,-0.118245180,-0.006964800
1640787727105600000,-0.236302170,-0.039131950,9.648359300,0.163054450,-0.095601360,-0.011062620
1640787727107019776,-0.096771110,0.015208930,9.127499580,0.092689690,-0.021819770,-0.005249680
1640787727110370048,-0.226470370,0.040185760,10.023834230,0.005184110,-0.033944850,-0.007823110
1640787727112320000,-0.088201750,-0.124084830,10.032550810,0.018754600,-0.018619000,0.002765660
1640787727115459840,0.146223950,0.147521630,9.686331750,0.105248400,-0.089530650,-0.006984170
1640787727116969728,-0.234266240,0.242510040,10.106719020,0.120663670,-0.075896080,-0.010754170
1640787727120969984,0.017599540,0.331499840,9.323230740,0.072470290,-0.046995270,-0.007647280
1640787727122779904,-0.304268960,0.231757220,10.065152170,0.057870160,-0.069361930,-0.007000570
1640787727125649920,-0.263582830,0.110060440,9.862306590,0.069449840,-0.033374130,-0.019891560
1640787727126960128,0.001601660,0.508858500,9.685151100,0.098292550,-0.075693430,-0.022420290
1640787727130529792,-0.250150980,0.693360810,10.105278970,0.031690300,-0.045828510,-0.015875700
1640787727131970048,0.186037940,0.760785280,9.396401410,-0.043715540,-0.045795740,0.001567600
1640787727135369984,0.053399630,0.540957690,10.086867330,-0.009047990,-0.023916360,0.003466010
1640787727137189888,0.138817710,0.169731170,9.825942990,0.077067320,-0.015144050,-0.009407100
1640787727140369920,0.131164390,0.191053870,10.019948960,0.135429200,-0.082518160,0.011804700
1640787727141999872,-0.064635710,-0.023351570,9.725797650,0.016653530,-0.027221440,0.011858340
1640787727145519872,0.337140380,-0.314336870,9.116413120,-0.069299340,-0.019516050,0.014086070
1640787727146979840,-0.053909640,-0.234741960,10.179987910,0.014008580,0.036171080,0.000952180
1640787727150349824,0.068373910,-0.109639970,9.507381440,0.069352990,0.025884810,-0.031515960
1640787727152039936,-0.112950490,0.139545050,10.037597660,0.100541130,-0.090892620,-0.010599200
1640787727155559936,-0.415081920,0.206780720,9.886927600,0.042925780,-0.004889070,-0.017009680
1640787727157039872,-0.103432360,0.018417180,9.190328600,0.026591120,-0.035549700,-0.014027950
1640787727160349952,-0.517138060,0.225396360,10.297575950,0.089775030,0.005158780,-0.011590130
1640787727163470080,-0.108839820,0.476824160,9.476240160,0.046762820,0.054773690,-0.022950760
1640787727165459968,0.033689160,0.618954780,10.083005910,0.021189450,-0.047001250,0.016681850
1640787727168320000,-0.053579320,0.629112300,10.027565000,-0.010636450,0.020273030,0.011925400
1640787727170400000,0.397721410,0.312968610,9.366316800,0.007390980,-0.010207300,0.003714860
1640787727172309760,-0.119932440,0.209049460,10.369832040,0.103722540,-0.003156070,0.010912120
1640787727175959808,-0.096797050,0.128498380,9.670534130,0.077074770,-0.009955470,-0.004296010
1640787727176999680,-0.137330620,0.088569350,9.832472800,0.001634660,-0.057050600,0.012600420
1640787727180429824,-0.259542230,0.166209220,9.582026480,-0.050073870,0.038142510,0.004832450
1640787727181989888,-0.004608610,0.288716260,9.593904500,-0.050303340,0.011797250,-0.014218690
1640787727185400064,-0.237961110,0.516311940,10.175869940,0.010423360,0.039842730,0.012949110
1640787727187119872,0.082679550,0.377266260,9.457053180,0.018885730,0.004619360,0.004103780
1640787727190469888,-0.061958690,0.164460000,10.292765620,0.049674510,-0.034306940,0.013817850
1640787727192069888,-0.011658700,0.136659960,9.317244530,0.043921170,0.042784210,0.020889940
1640787727195379968,0.088779670,-0.048753500,9.492105480,-0.026375060,-0.012813510,0.012716650
1640787727196960000,-0.197673350,0.096531170,10.069891930,-0.043061380,0.075678530,0.013542180
1640787727200489984,0.230057490,0.206504720,9.094653130,-0.028172140,0.022432210,-0.002129380
1640787727202159872,-0.096937710,0.276727620,10.413220410,0.016719100,-0.010094050,0.003986060
1640787727205509888,-0.152632580,0.525618490,9.595169070,0.017859040,0.075151030,0.004307930
1640787727207020032,-0.145502360,0.255779680,9.943197250,-0.003586710,-0.050911320,-0.005330150
1640787727210479872,-0.544774230,0.326638070,10.235205650,-0.001282990,0.033153600,0.010000170
1640787727212179968,-0.007516620,0.434381690,8.829769130,-0.018857420,0.033827130,0.001092260
1640787727215360000,-0.230198820,0.489431140,10.297188760,-0.049652160,0.037215650,0.003787880
1640787727216979968,-0.014245380,0.859208050,9.534292220,-0.092989200,0.101307020,0.011478370
1640787727220519936,0.210703420,0.706210430,9.901236530,-0.109981000,-0.020094210,0.009168690
1640787727222050048,-0.194160580,0.431740130,10.345713620,-0.065219400,0.062489520,0.024375320
1640787727225839872,0.094091240,0.250917110,9.244587900,0.006178020,-0.021345910,0.001172720
1640787727227010048,-0.239725830,0.059638790,10.177395820,-0.010995570,0.004622340,0.016582010
1640787727230350080,0.088816000,-0.015318710,8.776502610,-0.122234230,0.127400460,0.028899320
1640787727232090112,0.201030540,-0.057062410,9.900392530,-0.154437120,0.047764180,0.013954940
1640787727235999744,-0.035040720,0.004010980,10.308969500,-0.093482430,0.146599130,0.010038910
1640787727241009920,0.180195670,0.252537670,9.262398720,-0.027135020,-0.017529730,-0.002697110
1640787727241509888,-0.524198890,0.210441370,10.638072010,-0.038848810,-0.021693110,0.002489980
1640787727242159872,-0.194107610,0.146507700,8.543701170,-0.090055170,0.100061300,-0.004628300
1640787727245449984,-0.388503670,-0.012981050,9.916888240,-0.043748320,0.012044610,0.000672040
1640787727246979840,-0.537378970,0.288290650,10.308971410,-0.048418340,0.175546090,0.006720420
1640787727250409728,0.189864720,0.659534870,9.087832450,-0.115194920,0.018641350,0.003872810
1640787727252389888,-0.179857420,0.784205680,10.687253950,-0.167703630,0.006596740,0.034858290
1640787727255479808,0.343027350,0.744019630,8.876928330,-0.174504530,0.138364730,0.024293360
1640787727257519872,0.195604470,0.306995810,10.028455730,-0.049749030,0.015501680,0.016953050
1640787727260369920,-0.263946320,0.204764010,10.509947780,0.009320680,0.105734160,0.014638900
1640787727262060032,0.235501070,0.076685060,8.845937730,-0.076437000,0.025352840,0.018027430
1640787727265369856,-0.274017100,-0.145351870,10.165759090,-0.179390610,0.059196360,0.033988060
1640787727267200000,-0.009351630,-0.059582840,9.094866750,-0.211133060,0.160037000,0.018930440
1640787727270999808,-0.016302900,-0.065024550,9.905448910,-0.085039440,0.037591160,-0.000229480
1640787727272179968,-0.298671280,0.303532870,10.105764390,-0.032655900,0.121146440,-0.009682770
1640787727275489792,0.031766070,0.390675750,9.222974780,-0.090344260,0.031918290,-0.000400840
1640787727276999936,-0.397576720,0.136055340,10.345687870,-0.114738940,0.054712600,0.019143520
1640787727280409856,-0.068479370,0.239256770,9.024808880,-0.112482910,0.124006000,0.014500320
1640787727282009856,-0.154174510,0.203346970,9.947250370,-0.079540900,0.046645100,0.028237700
1640787727285339904,-0.110310460,0.414678130,9.778919220,-0.114478170,0.162059080,0.043940550
1640787727287139840,0.237060100,0.326650410,9.442426680,-0.151060520,0.047697130,0.029000640
1640787727292089856,-0.190921170,0.091708240,10.605619430,-0.099925700,0.075878190,0.032547120
1640787727292659968,0.052942720,0.226839290,9.187529560,-0.078088050,0.104500380,-0.010374190
1640787727295389952,-0.306108560,0.236221730,10.167035100,-0.076480190,0.002904240,-0.011147560
1640787727296989952,-0.322572920,0.536731900,9.640632630,-0.147292030,0.137147280,0.016845760
1640787727300480000,0.038562490,0.581251860,9.173324580,-0.213110450,0.082613530,0.010491910
1640787727302160128,-0.294175030,0.468070570,10.470466610,-0.172740250,0.106233380,0.031182170
1640787727305499904,0.095467840,0.534491480,9.295718190,-0.100976240,0.130027550,0.012511020
1640787727308280064,-0.193533990,0.271206830,10.092721940,-0.087383390,0.015409290,0.022904570
1640787727310560000,-0.236311260,0.040833030,9.690432550,-0.130707000,0.094805640,0.049699850
1640787727312019712,0.115546500,-0.297065680,9.122892380,-0.156728920,0.081768640,0.013150280
1640787727315359744,-0.103716570,-0.440339650,9.968851090,-0.118017200,0.146043300,0.016880040
1640787727316989952,0.156654030,0.032311300,9.394437790,-0.114488600,0.160850600,-0.000846390
1640787727320489984,-0.136820630,0.109781390,10.285922050,-0.159221890,0.068151950,-0.014343860
1640787727322180096,-0.145382790,0.134759960,9.718231200,-0.140234830,0.071573260,0.009672340
1640787727326939904,-0.223387640,0.165552910,9.457688330,-0.055919600,0.045244410,-0.010769070
1640787727327509760,-0.549534860,0.064026650,9.882806780,-0.036156180,0.139081480,-0.005373360
1640787727330370048,-0.364189650,0.380742580,9.539787290,-0.067549950,0.116288680,0.015108290
1640787727332009984,-0.520892320,0.405469390,10.397189140,-0.149263440,0.080060970,0.011065600
1640787727335359744,-0.044673080,0.510038320,9.356253620,-0.196027760,0.110790140,0.027309360
1640787727337349888,0.065572040,0.580272200,9.567988400,-0.120146570,0.069171200,0.011281670
1640787727340529920,-0.062979030,0.466075870,10.056494710,-0.086815660,0.155343120,-0.009666380
1640787727343020032,0.176586990,0.487226520,9.507308960,-0.079427660,0.091519960,0.016282500
1640787727345419776,-0.247161420,0.056353820,10.424367900,-0.108966230,0.026650730,0.029341880
1640787727346969856,0.153728650,-0.146749810,9.162335400,-0.141641500,0.118522350,0.018610060
1640787727350359808,0.005917380,0.010163830,9.499554630,-0.112369680,0.112271330,0.021913650
1640787727352079872,-0.413689850,0.061599310,10.214354520,-0.158067060,0.142833560,0.010693070
1640787727355670016,-0.027469480,0.155764980,9.289506910,-0.159151850,0.073505950,0.011871760
1640787727357029888,-0.430209280,-0.031581230,10.103924750,-0.078974660,0.048889220,-0.004237890
1640787727360389888,-0.325878560,0.003846470,9.569254880,-0.029550500,0.112700460,-0.007815660
1640787727362020096,-0.421952070,0.170352350,9.773795130,-0.052100420,0.074152630,-0.011536480
1640787727365399808,-0.531368670,0.278036890,10.064771650,-0.163730950,0.110836330,0.000168380
1640787727367099904,-0.085710540,0.383393200,9.591784480,-0.187447700,0.078934440,0.022952260
1640787727370959872,-0.179130730,0.386404720,10.059485440,-0.104495880,0.082287190,0.024819380
1640787727373169920,0.068406190,0.424300310,9.585661890,-0.068630290,0.077621640,0.009723010
1640787727375449856,-0.121489810,0.399379700,10.056506160,-0.051952910,0.059439250,0.018526620
1640787727377240064,-0.235012040,0.245699940,9.843073840,-0.125044600,0.081978740,0.018928950
1640787727380369920,-0.067756430,0.074347790,9.706587790,-0.159943120,0.023920830,0.023213030
1640787727382020096,-0.248100890,0.211922360,9.908569340,-0.110358020,0.103361920,0.012731550
1640787727385910016,0.005207270,0.471785600,9.410293580,-0.142015500,0.098851310,-0.011111790
1640787727387089920,-0.293061610,0.561709880,10.218221660,-0.165782910,0.047832730,0.022889680
1640787727390459904,-0.210801680,0.312578170,9.596245770,-0.168505340,0.082701460,0.001610820
1640787727392979968,-0.099476610,-0.030163350,9.709176060,-0.086306040,0.014595690,-0.002503400
1640787727395389952,-0.419885490,-0.045408730,9.967120170,-0.018349290,0.070741780,0.019285090
1640787727396969984,0.000533630,-0.172353130,9.095853810,-0.122159740,0.091807540,0.016988820
1640787727400409856,-0.099743590,-0.148995950,10.118976590,-0.188441590,0.088141870,0.034216050
1640787727402349824,0.001712930,0.009236950,9.728425030,-0.163528320,0.119534140,0.027365980
1640787727405499904,0.126367090,0.021638020,9.801883700,-0.093945860,0.006376210,0.009652970
1640787727407419904,-0.327806030,0.206152100,9.967486380,-0.045894090,0.053165860,0.017832220
1640787727411279872,-0.153524830,0.218988330,9.299924850,-0.073614720,0.036704540,-0.011038780
1640787727411980032,-0.549497250,0.105097930,10.311308860,-0.093935450,0.054635110,-0.001005830
1640787727415340032,-0.358629350,0.363239290,9.463012700,-0.107039530,0.094057640,0.001917780
1640787727417229824,-0.192792890,0.561197820,10.004298210,-0.133250670,0.030925870,0.006286800
1640787727420399872,-0.236780970,0.828254040,9.825349810,-0.169481350,0.108663750,0.024533280
1640787727422360064,0.132582900,0.739219490,9.230644230,-0.167812420,0.020822880,0.033262380
1640787727425509888,-0.240455810,0.253385750,10.540724750,-0.106418150,0.060948740,0.015579160
1640787727427089920,-0.002510870,0.083527300,9.195687290,-0.038231910,0.051292780,0.016447900
1640787727430400000,-0.176619200,-0.111839130,10.104105950,-0.071652230,-0.027035180,0.029227140
1640787727432099840,-0.125416340,-0.259267660,9.553728100,-0.192554310,0.165164500,0.032764680
1640787727435360000,0.207394810,-0.235028390,9.225958820,-0.198677170,0.040401510,0.016187130
1640787727436979968,-0.300607030,-0.179664640,10.750360490,-0.105024890,0.063647340,0.006669760
1640787727440519936,0.088710710,0.143756200,8.705812450,-0.055883830,0.074557970,-0.009317700
1640787727442019840,-0.368448050,0.042739480,10.236531260,-0.053511550,-0.064228470,-0.004862250
1640787727445349888,-0.512612580,-0.061122440,9.797259330,-0.074052820,0.119772550,-0.001585480
1640787727447019776,-0.124415710,-0.004951570,8.891772270,-0.060488290,0.001750890,-0.021970270
1640787727450490112,-0.681116460,0.112244930,10.761137010,-0.074599680,0.067596140,0.015015900
1640787727452049920,-0.048224310,0.433303770,9.069990160,-0.138966710,0.113946210,-0.001223390
1640787727455819776,-0.106473890,0.351035450,10.221016880,-0.112122320,-0.054943570,0.014224650
1640787727457059840,-0.245223890,0.310663730,10.042831420,-0.077465180,0.092366350,0.010123850
1640787727460379904,0.180945530,0.149332330,9.022138600,-0.027018780,0.013875960,-0.013838710
1640787727462019840,-0.526061120,0.048103670,10.881735800,-0.009492040,0.008630750,-0.000998380
1640787727465549824,-0.184246260,0.223994870,9.206613540,-0.101718290,0.054967410,-0.001420080
1640787727467029760,-0.121069770,0.098453180,9.571544650,-0.151504590,-0.049547860,-0.001308320
1640787727470419968,-0.237604140,0.231033270,9.826314930,-0.135245920,0.111304220,-0.006449220
1640787727472260096,0.139696060,0.278616700,9.333809850,-0.066471110,0.064165890,-0.022970140
1640787727475389952,-0.436427920,0.124598460,10.884371760,-0.012150410,-0.004680450,0.003398960
1640787727477249792,-0.252106730,-0.047836010,9.441870690,-0.039173660,-0.017532710,-0.003919010
1640787727480620032,-0.233934580,-0.416109980,9.457516670,-0.017574430,-0.071999420,-0.009679790
1640787727482939904,-0.341503110,-0.278142960,9.403862000,-0.045028330,0.121332710,-0.007341800
1640787727485349888,-0.118989080,-0.064741360,9.430089950,-0.083816040,0.064270180,-0.005687770
1640787727487000064,-0.261595040,-0.012468780,10.586078640,-0.065262620,0.004363060,-0.001271070
1640787727490439936,0.109052910,0.273545410,9.319943430,-0.023226450,0.005552170,-0.002200900
1640787727492019968,-0.200202970,0.158334660,9.997548100,0.028772650,-0.050245230,-0.017862020
1640787727495339776,-0.360434440,0.132760940,9.841841700,0.016351050,0.046461820,-0.019253790
1640787727497059840,-0.286202910,0.139529660,9.505349160,-0.004626810,-0.046843290,-0.027945640
1640787727501039872,-0.540576580,0.039181170,10.145092010,-0.017204880,-0.007194280,-0.018873810
1640787727502019840,-0.012896750,0.410287590,9.073895450,-0.047840190,0.047270950,-0.016304850
1640787727505699840,-0.234631170,0.499235180,10.149368290,-0.057949130,-0.022280220,-0.025846060
1640787727507040000,-0.061914170,0.641202390,9.775173190,-0.058783590,0.031383340,-0.002981720
1640787727510929920,-0.010313350,0.545096100,9.675595280,-0.035981830,-0.040583310,-0.008694830
1640787727512100096,-0.356821720,0.098927710,10.320305820,0.002805890,-0.033673640,-0.012204050
1640787727515360000,-0.053237840,0.162906740,9.377469060,0.033628940,-0.023223460,-0.002498920
1640787727516999936,-0.241755980,0.019935430,9.735006330,-0.045913460,-0.005915760,-0.009047990
1640787727520339968,-0.061222200,-0.104032730,9.565115930,-0.120113810,0.033955280,0.003601610
1640787727522310144,0.085729490,-0.037320640,9.727931020,-0.059054790,0.000056620,-0.016410650
1640787727527239936,-0.113947200,-0.122364340,9.833154680,0.021910670,-0.008730590,-0.035455820
1640787727527649792,-0.086939690,0.151028590,9.630115510,0.043149300,-0.053347650,-0.024378300
1640787727530520064,-0.423729840,0.044770090,9.992559430,-0.026240940,-0.026428700,-0.044105940
1640787727531989760,-0.184107540,-0.056558700,9.360642430,-0.045518570,-0.014744700,-0.042217970
1640787727535359744,-0.418034760,0.157432990,10.022141460,0.021904710,0.002056360,-0.029690560
1640787727537039872,-0.350237460,0.280261100,9.706875800,0.002668800,0.028638540,-0.046749410
1640787727540489984,-0.081721520,0.506273210,9.693954470,-0.027786200,-0.080741940,-0.013580920
1640787727542080000,-0.303374230,0.372378170,10.104616170,-0.035557150,-0.005666910,-0.004875660
1640787727545509888,0.089606580,0.018388270,9.289996150,-0.014394520,-0.009424990,-0.030033290
1640787727546999808,-0.193194480,0.109248330,10.427099230,0.079347200,-0.055006150,-0.026960670
1640787727550339840,-0.137682690,0.113737520,9.762756350,0.027509030,0.033242990,-0.046163790
1640787727552029952,0.104189310,0.234244230,9.452429770,-0.066825750,-0.068026770,-0.036850570
1640787727555800064,-0.339007940,0.266103510,10.086362840,-0.090020890,-0.019234420,-0.030922890
1640787727557149952,0.102821160,0.024936600,8.939782140,-0.031098730,0.003443660,-0.052732230
1640787727560979968,-0.320277360,0.094017490,10.212705610,0.102725630,-0.035010280,-0.040958830
1640787727562039808,-0.544028520,0.151197270,9.997519490,0.055435300,-0.000076000,-0.034034250
1640787727565369856,-0.168629690,-0.176947520,9.520732880,-0.023725630,-0.109300030,-0.015772880
1640787727567089920,-0.433335630,-0.146499290,9.913918500,-0.013013180,-0.006619100,-0.013141330
1640787727570349824,-0.020251720,-0.049557180,9.142361640,-0.000277160,0.037372120,-0.030377510
1640787727572300032,-0.160079460,0.102680940,10.249753000,0.038307910,-0.028656420,-0.025026500
1640787727575359744,-0.023042800,0.274732320,9.600888250,0.030727680,-0.034420200,-0.030820070
1640787727577560064,0.092401810,0.065028810,9.675174710,0.036916130,-0.096921610,-0.031799070
1640787727580339968,-0.332852780,0.051026310,9.936365130,0.064866240,0.016218420,-0.039736930
1640787727582020096,-0.214368670,0.120473680,9.584516530,0.046511000,-0.058637560,-0.075913970
1640787727585299968,-0.480755810,0.309348640,10.455383300,0.032924120,-0.061623750,-0.036114450
1640787727587040000,-0.165151570,0.518294930,9.123641010,-0.023099780,0.000284610,-0.031024220
1640787727590550016,-0.156145220,0.418728320,9.945115090,-0.024676320,-0.078108910,-0.032053890
1640787727593489920,-0.310518980,0.481256600,10.058857920,0.037001080,0.032052400,-0.035749380
1640787727595340032,-0.072490670,0.370978710,9.383721350,0.061306360,-0.093768540,-0.044903160
1640787727597059840,-0.467175720,0.051633010,10.536975860,0.044508290,-0.124053680,-0.015875700
1640787727600399872,0.155789020,-0.088052450,8.623931880,0.017024580,0.001627210,-0.025555500
1640787727601999872,0.200758460,-0.314708320,9.712746620,0.030018390,-0.028552110,-0.040598220
1640787727605739776,-0.049273580,-0.073717650,10.423189160,0.017783050,0.079719730,-0.025306640
1640787727607030016,0.300603780,0.020029050,9.481659890,0.004373490,-0.074750190,-0.039173660
1640787727612630016,-0.327978580,-0.293536010,10.550778390,0.049650670,-0.151617810,-0.035391740
1640787727613159936,-0.112995960,-0.077615540,8.673873900,0.122550140,-0.037829580,-0.054146360
1640787727615320064,-0.343095870,-0.076628670,9.414310460,0.117279600,-0.051906700,-0.064180790
1640787727616989952,-0.644770500,0.089570950,10.354895590,0.048212710,0.055956850,-0.040292750
1640787727620359936,-0.138479290,0.395952520,9.720320700,0.031432510,-0.059284270,-0.040221220
1640787727622279936,-0.370624510,0.289135400,10.488372800,0.039131940,-0.094024840,-0.033843520
1640787727625409792,-0.024454520,0.592027190,9.134380340,0.059004130,-0.030389430,-0.037162010
1640787727627079936,-0.172239970,0.502435270,9.906296730,0.079551350,-0.076821450,-0.053565210
1640787727630709760,-0.246317310,0.237762000,10.067680360,0.065085300,-0.000154970,-0.038643180
1640787727632049920,0.122727890,0.197254570,9.501015660,0.083078450,-0.085859000,-0.034338240
1640787727635350016,-0.038205330,-0.064241860,10.241802220,0.063483420,-0.024680800,-0.043553110
1640787727637049856,0.314826520,0.141041130,9.188988690,0.014522670,0.010307140,-0.036352880
1640787727640519936,-0.139138270,0.248282060,10.264041900,0.004084410,-0.068666040,-0.030139090
1640787727643119872,-0.143939500,0.018931270,9.821106910,0.002466140,-0.022388990,-0.033378600
1640787727646339840,-0.084414650,-0.152156410,9.450710300,0.128446530,-0.107069310,-0.049015880
1640787727647049984,-0.518841740,-0.203458520,10.084390640,0.183930980,-0.042410190,-0.062662370
1640787727650339840,-0.105208940,0.024724110,8.943399430,0.066390630,0.018039350,-0.045917930
1640787727652069888,-0.379545660,-0.041525310,10.195825580,0.002641980,-0.016945600,-0.019392370
1640787727655849984,-0.151210370,0.019737310,10.044365880,0.008809570,-0.000317390,-0.027467310
1640787727657489920,0.060103260,0.110705280,9.609868050,0.133353470,-0.097270330,-0.030805170
1640787727660529920,-0.161521200,0.114088690,9.713994030,0.172530110,-0.044016540,-0.044710940
1640787727663369984,0.128713550,0.130301710,9.419888500,0.110657520,0.017629560,-0.051641470
1640787727665349888,-0.251304270,0.049713190,10.308563230,0.094355650,-0.015915930,-0.032976270
1640787727667039744,-0.136827920,0.050783700,9.842104910,0.076392280,-0.065383320,-0.039204950
