# timestamp,accel_x,accel_y,accel_z,gyro_x,gyro_y,gyro_z
1640836330.366000,-0.068624910,0.460219890,9.929060940,-0.123629000,-0.077165660,0.032484540
1640836330.367080,-0.098532880,0.294153030,10.129579540,-0.067834560,0.001351540,0.021550060
1640836330.370210,0.017365740,0.375258120,10.133502010,-0.016902390,-0.031767790,0.041057170
1640836330.370869,-0.172380760,0.078894880,10.543705940,-0.048471990,-0.081869940,0.037443640
1640836330.374750,-0.091801790,-0.052257200,9.736457820,-0.102309880,-0.098203140,0.038571660
1640836330.375409,0.080834040,-0.000706680,9.438666340,-0.079505150,-0.048422810,0.024089220
1640836330.379799,-0.128088280,-0.061309530,10.131445880,-0.075013940,0.031715630,-0.004947190
1640836330.381240,-0.115361810,0.272274350,10.202136990,-0.034134090,-0.030665100,0.002469120
1640836330.384879,-0.199696420,0.229855720,10.240060810,-0.020338600,-0.110742450,0.008882580
1640836330.386309,-0.216382090,0.192905720,9.732086180,-0.048388530,-0.057002910,0.029973690
1640836330.390650,-0.290874570,0.336756620,9.692339900,-0.042267150,-0.030577190,0.042685880
1640836330.391850,-0.410270690,0.054326460,10.391111370,-0.048220160,-0.034995380,0.021052360
1640836330.394810,-0.295490770,0.224968910,10.155303960,-0.017274920,-0.044438240,0.016869610
1640836330.395340,-0.197352290,0.278545770,9.849457740,0.003916030,-0.075843930,0.012511010
1640836330.399920,-0.172044140,0.255234240,10.241405490,-0.051307680,-0.043866040,0.021938980
1640836330.400669,-0.163006130,0.547407450,9.996633530,-0.065757330,-0.024393200,0.021013620
1640836330.405560,-0.206706420,0.361491770,10.227923390,-0.068409730,-0.108781460,0.031264130
1640836330.406380,-0.208450680,0.359353210,10.230684280,-0.018513200,-0.058446820,0.033052270
1640836330.409930,-0.143870410,0.499636860,9.587523460,-0.007212160,-0.050620740,0.019024310
1640836330.411830,-0.227968690,0.551852290,10.467206950,-0.077188020,-0.085903710,0.034734610
1640836330.414919,-0.141327520,0.458037020,10.054906850,-0.103530290,-0.007145110,0.041760500
1640836330.415580,-0.130289820,0.197196750,9.927111630,-0.064310420,-0.106546290,0.016389790
1640836330.419880,-0.303773110,0.355113980,10.478061680,-0.002649430,-0.082708900,0.045961150
1640836330.420430,-0.128416750,0.341978400,9.400047300,-0.045543910,-0.031930210,0.037281220
1640836330.424739,-0.206187950,0.167801310,10.157634740,-0.109954180,-0.123526160,0.044061240
1640836330.425740,-0.097015010,0.212345140,9.910268780,-0.078490380,-0.002765660,0.045676530
1640836330.429740,0.143990710,-0.014710800,9.549994470,-0.045557320,-0.040116900,0.009642540
1640836330.430179,-0.150127250,0.164008440,10.800608630,0.004146990,-0.058136880,0.035797060
1640836330.437280,-0.149040590,0.108521550,9.880855560,-0.022983560,-0.071014460,0.018200280
1640836330.438700,-0.168480470,-0.097095580,9.726920130,-0.055290760,-0.164860500,0.022886700
1640836330.439750,-0.233635920,0.187835260,9.623291020,-0.041732190,-0.009168690,0.030313440
1640836330.440150,-0.048213080,0.022434570,9.623443600,-0.038956110,0.024992230,0.006861980
1640836330.445140,-0.367154540,0.092868220,11.017600060,0.032345950,-0.069655490,0.020906330
1640836330.446130,-0.201260540,0.352961810,9.898522380,0.031727560,-0.122736390,0.016956030
1640836330.449800,-0.075810660,0.182834180,9.499869350,-0.034676490,-0.126871480,0.020258130
1640836330.450440,-0.227969230,0.277451810,9.962594990,-0.032337010,0.028078260,0.029517710
1640836330.454810,-0.193256650,0.212098480,10.390644070,-0.014880300,-0.031398240,0.000819560
1640836330.455619,-0.295867620,0.360666280,10.662223820,0.046405200,-0.116932390,0.017997620
1640836330.459960,-0.034889300,0.570031700,9.490985870,0.013098120,-0.096420940,0.019720200
1640836330.460889,-0.192883580,0.568657340,9.960568430,-0.068372490,-0.059138240,0.018590690
1640836330.469169,-0.247089520,0.516889510,10.109899520,-0.055420410,0.002011660,0.045104320
1640836330.470980,-0.180329900,0.232801210,10.308371540,-0.008656080,-0.120590650,0.012980400
1640836330.471289,-0.339106890,0.422922790,10.408607480,0.041595110,-0.091730060,0.021661820
1640836330.471809,0.015281200,0.592070700,9.303898810,-0.034312900,-0.053018330,0.019577150
1640836330.474779,-0.215677080,0.408020260,10.517003060,-0.132906440,-0.062851620,0.029917060
1640836330.475309,0.002104820,0.329892690,9.813917160,-0.064171850,0.013986230,0.041103360
1640836330.479810,0.131048660,0.141239700,9.980285640,0.010620060,-0.130653400,0.006709990
1640836330.480460,-0.199756470,0.450020880,10.230902670,0.019477310,-0.051218270,0.040470060
1640836330.484870,0.096176830,0.498030070,9.166587830,-0.096806880,-0.048217180,0.030623380
1640836330.485440,-0.241696580,-0.001819210,10.755888940,-0.136718170,-0.069388750,0.025248530
1640836330.489730,-0.147892460,0.202456250,9.656462670,-0.024308270,0.006808340,0.015713280
1640836330.490290,0.015165730,0.263487610,9.785761830,0.025297710,-0.115834200,-0.009496510
1640836330.494880,-0.300811350,0.437090160,10.379217150,-0.041601070,0.007607040,0.029139220
1640836330.495590,0.003674130,0.420692060,9.422092440,-0.111481550,-0.041894610,0.016124550
1640836330.500510,-0.318439190,-0.050249810,10.792362210,-0.066700590,-0.106985870,0.025397540
1640836330.501639,-0.161413280,0.275574360,9.561836240,-0.007314980,0.010828670,0.015348200
1640836330.504809,-0.011216170,0.391686140,9.836480140,-0.036823750,-0.078730290,-0.009606780
1640836330.505390,-0.398868560,0.416592510,10.918219570,-0.085739810,-0.002086160,0.019517540
1640836330.509930,0.147038090,0.476913990,9.202609060,-0.107583430,-0.046931210,0.013737380
1640836330.511139,-0.189666050,0.199035900,10.510668750,-0.047597290,-0.109963130,0.006465620
1640836330.514999,-0.147540330,0.505586980,9.830358510,-0.020527850,0.045204160,0.001055000
1640836330.516640,-0.131895970,0.597429570,9.917159080,-0.089405480,-0.085307660,-0.001244250
1640836330.519770,-0.466432510,0.401908730,10.907359120,-0.126399100,-0.061287000,0.042675440
1640836330.520200,0.163476750,0.391217230,9.093439100,-0.101937350,-0.010178980,0.012287500
1640836330.524760,-0.006524480,0.333950310,10.125158310,-0.059683610,-0.051108000,0.009466710
1640836330.525370,-0.064724090,0.489641730,10.241670610,-0.073230260,0.066635000,0.030818580
1640836330.529919,0.062286730,0.192966910,9.926307680,-0.112205740,-0.075137620,0.014153120
1640836330.531420,-0.275068550,0.034968550,10.315209390,-0.079692910,-0.120349240,0.030514600
1640836330.534920,0.171167900,0.230979380,8.953406330,-0.094237920,0.013957920,0.016692280
1640836330.535780,-0.050027760,-0.005650810,10.058725360,-0.111865980,0.042018290,-0.004473330
1640836330.539739,-0.177003490,0.050108560,10.659446720,-0.067409870,0.028541690,0.016245240
1640836330.540220,0.016699570,0.099415950,9.835509300,-0.027340650,-0.092801450,-0.002701580
1640836330.544900,-0.069661960,0.032767330,9.541247370,-0.052602600,-0.034035750,0.032499430
1640836330.545640,-0.119115320,0.206903530,9.728949550,-0.090569240,0.036613650,0.024835770
1640836330.550740,-0.385263560,-0.024210420,10.435400960,-0.071281190,0.009480120,0.000977520
1640836330.551390,-0.150637190,0.109855690,9.896222110,-0.013107060,-0.045816590,0.002111490
1640836330.554800,-0.102272320,0.388625530,9.781001090,-0.019194190,-0.011272730,-0.016504530
1640836330.555760,-0.220203030,0.440109340,9.978408810,-0.080528880,0.040668260,0.001427530
1640836330.559780,-0.169559810,0.510092380,10.155663490,-0.094166400,-0.051477560,0.020091240
1640836330.562029,-0.282650350,0.261667460,10.088367460,-0.045754020,-0.019167370,0.009427960
1640836330.564900,-0.082753000,0.346296190,9.571488380,-0.016254190,0.000275670,0.003162030
1640836330.566100,-0.245814530,0.514980020,10.330354690,-0.031776730,-0.011321900,0.009746850
1640836330.569690,-0.313490360,0.509375450,10.238588330,-0.124846400,0.004540380,0.016511980
1640836330.570269,-0.005197310,0.391256120,9.727660180,-0.119397050,-0.046467780,0.014841560
1640836330.574720,-0.200638830,0.158427520,10.140766140,-0.043448810,-0.015932320,-0.005622210
1640836330.575189,-0.019325370,0.451758860,9.641321180,-0.028783080,0.021785500,-0.006122890
1640836330.579939,-0.136559830,0.477841650,10.209835050,-0.088256600,-0.020886960,0.008042160
1640836330.580829,-0.292700710,0.213302880,10.391139980,-0.148230810,-0.039063400,0.018952790
1640836330.584699,0.140369400,0.217757340,9.264648440,-0.083166370,-0.029128790,0.020557640
1640836330.585170,0.030742200,0.069691600,9.832571030,-0.047712020,0.019189720,-0.005969410
1640836330.589710,-0.026105650,0.243292330,10.130553250,-0.063669680,0.064933310,0.020550190
1640836330.590129,0.009072410,0.077904780,10.043400760,-0.068055090,-0.039523840,0.018276280
1640836330.595389,-0.084458200,-0.153805940,9.977527620,-0.087176260,-0.053073470,0.013138350
1640836330.596870,-0.073505160,0.146563870,9.416006090,-0.054988270,0.026115780,0.016523890
1640836330.599929,-0.207952810,0.026528660,9.924112320,-0.051659350,0.021508340,-0.013756750
1640836330.601590,-0.282831700,0.187919210,10.247241970,-0.056055190,0.011861320,-0.003889200
1640836330.604889,-0.110574610,0.398758050,9.507575990,-0.027517980,-0.019766390,0.004978480
1640836330.605880,-0.078992990,0.174862130,9.904495240,-0.056530530,-0.012592970,0.025279820
1640836330.609769,-0.141764400,0.285970930,10.052975650,-0.039368860,0.054097180,0.033137210
1640836330.610900,-0.128511580,0.077557380,9.985340120,-0.012707710,-0.012467800,0.003562870
1640836330.614850,-0.222637430,0.181806120,10.350237850,-0.025182960,-0.041086970,0.003525610
1640836330.615550,-0.095049200,0.374813440,9.380464550,-0.040633980,0.017826260,0.003349780
1640836330.619720,-0.141900410,0.328936010,9.979155540,-0.073875480,-0.006015600,-0.008079410
1640836330.620190,-0.332306240,0.593116580,10.488615990,-0.054159760,0.034186240,0.026728210
1640836330.624770,-0.211004170,0.512156780,9.605981830,-0.037823620,-0.046131020,0.011689960
1640836330.625650,-0.344363870,0.492387440,10.319583890,-0.031495090,-0.078357760,0.015349690
1640836330.629830,-0.166655500,0.705544530,9.511496540,-0.064887090,0.072170800,0.022841990
1640836330.630519,-0.181913820,0.474387140,10.179323200,-0.120295580,-0.028772660,0.020419060
1640836330.634830,-0.175865200,0.395619120,10.615809440,-0.079888110,0.000023840,0.034980480
1640836330.635830,0.244345800,0.253395410,9.162455560,-0.044269860,-0.007610020,0.001715120
1640836330.639700,0.014561430,0.330916050,10.272958760,-0.054162750,-0.018133220,0.020639600
1640836330.640200,-0.108077560,0.467869490,10.033874510,-0.107657910,0.070400520,0.034911930
1640836330.645079,-0.076527410,0.076861340,9.805163380,-0.138768570,-0.091409680,0.027349590
1640836330.646610,-0.134552820,0.178171980,9.956372260,-0.055782500,-0.016236310,0.039725000
1640836330.649710,0.100258120,0.224645930,9.204833030,-0.060397390,0.094686460,0.011470910
1640836330.650169,-0.133146640,0.108577800,10.532444950,-0.068455930,0.020314750,0.031352050
1640836330.654770,-0.161860170,0.164671120,10.338769910,-0.061510500,0.022286170,0.028979780
1640836330.655370,-0.120936710,-0.058710900,9.700269700,-0.070142750,-0.078490380,0.006411970
1640836330.659829,-0.257285210,0.092863350,9.628708840,-0.049677490,-0.011743610,0.032499440
1640836330.661559,-0.076583940,0.035054080,9.292887690,-0.059764090,0.097152600,0.001330670
1640836330.664940,-0.233814790,0.005704270,10.483700750,-0.037223100,0.040397050,0.007091460
1640836330.666560,-0.091581750,0.297549690,10.096049310,-0.012700260,-0.011523070,0.034737590
1640836330.669740,0.013871230,0.158567650,9.772896770,-0.048702960,-0.048960750,0.022669140
1640836330.670159,-0.212380110,0.188478810,9.917621610,-0.037889180,0.036358830,0.034962590
1640836330.674739,-0.153689070,0.152055770,9.802849770,-0.018084050,0.014549500,0.016772750
1640836330.675410,-0.435314890,0.139297110,10.482149120,0.006139280,-0.016665460,0.017432870
1640836330.680780,-0.066593950,0.385024220,9.373389240,-0.001636150,0.021900230,0.027786200
1640836330.681229,-0.235899670,0.355482610,10.332660680,-0.053040690,-0.018842520,0.019705290
1640836330.684710,-0.339635370,0.368256660,10.314957620,-0.048765540,0.062158700,0.029502810
1640836330.685299,-0.035862920,0.272570340,9.636683460,-0.011260810,-0.066183510,0.014807280
1640836330.689780,-0.410293040,0.294691350,10.548080440,0.023211540,-0.023478270,0.019221010
1640836330.690480,0.044649890,0.717142110,9.096251490,-0.038503100,0.060556820,0.033378600
1640836330.694880,-0.093825550,0.367842050,10.509376530,-0.102402280,-0.045536460,0.051432850
1640836330.695609,-0.154164270,0.317508880,10.335000990,-0.053083900,0.056801740,0.050593920
1640836330.699920,0.202247500,0.274445800,9.444541930,0.016976890,-0.043909250,0.022305550
1640836330.700580,-0.434177370,0.218003710,10.782403950,0.014118850,-0.029642880,0.044432290
1640836330.704820,-0.089326010,0.518057230,9.178566930,-0.077369790,0.023065510,0.038498630
1640836330.705619,-0.096551660,-0.026169220,10.011446000,-0.108835100,-0.051847100,0.037820640
1640836330.710130,-0.166551800,0.002925370,10.018767360,-0.015316910,0.081574940,0.031103200
1640836330.711110,0.194539460,0.257196010,9.342654230,0.032718480,0.008815530,-0.001415610
1640836330.714720,-0.302110850,0.050119080,10.873474120,-0.004334750,-0.032959880,0.042201590
1640836330.715250,-0.112661950,0.138089510,9.442654610,-0.056661670,-0.005811450,0.042004880
1640836330.719730,-0.115392680,-0.179694370,9.723634720,-0.032450270,-0.076460850,0.033457590
1640836330.720219,-0.235538140,-0.106633510,9.982448580,0.021584330,0.091162320,0.045709320
1640836330.724759,-0.043420670,0.069227540,9.610998150,0.042963030,0.037260350,0.014656780
1640836330.725499,-0.409455780,-0.013595340,10.837477680,0.037543470,-0.056298080,0.031526380
1640836330.730960,-0.073798250,0.168053310,9.275119780,0.010326500,-0.019103290,0.048141180
1640836330.733000,-0.077982080,0.078645740,9.382339480,0.011865790,-0.025387110,0.026488310
1640836330.734710,-0.290328860,0.133301650,10.431257250,0.038719180,0.084665400,0.023905930
1640836330.735280,-0.112642970,0.368728220,9.951189990,0.052741170,0.004310910,0.004127620
1640836330.739800,-0.360577730,0.346132010,10.340126990,0.045166910,-0.093097990,0.016067920
1640836330.740360,-0.090923120,0.473859730,9.486746790,0.025190410,-0.002306700,0.032490490
1640836330.744840,-0.182809400,0.432964890,9.701904300,0.008803610,0.000040230,0.021137300
1640836330.745530,-0.348027110,0.376721080,10.462902070,0.019767880,0.021502370,0.044956810
1640836330.749770,-0.137407590,0.346554370,10.022404670,0.037378070,-0.033228100,0.035488610
1640836330.750350,-0.168064430,0.269420240,9.974886890,0.046052050,-0.062485050,0.035877530
1640836330.754760,0.034552430,0.490208630,9.744444850,0.008562210,0.008609890,0.044395020
1640836330.755360,-0.007970800,0.403837920,9.897884370,-0.044405450,0.026133660,0.030739600
1640836330.760200,-0.000085490,0.175827230,10.086949350,-0.002858040,-0.018376110,0.039470200
1640836330.761220,0.086013210,0.242920940,9.913747790,0.075110790,-0.015378000,0.026379530
1640836330.766640,-0.164864350,0.345368530,9.818787570,0.040873890,-0.002279880,0.027385360
1640836330.767300,-0.170176490,0.554583190,9.857155800,-0.045894090,-0.033834580,0.061151390
1640836330.769810,-0.105394920,0.245320080,9.754090310,-0.062556570,0.017735360,0.040929020
1640836330.770949,-0.086561880,0.076414790,9.728396420,0.017805400,0.036326050,0.017206370
1640836330.774720,-0.132578890,0.326531530,10.166033740,0.090762970,0.002399090,0.016012790
1640836330.775260,-0.212823550,0.151351600,9.944030760,0.024205440,-0.000233950,0.018227100
1640836330.779850,-0.023585290,0.138301630,9.640443800,-0.043588880,-0.049135100,0.040650380
1640836330.780779,-0.137670400,-0.126239780,9.975023270,-0.012294950,0.035253170,0.033390530
1640836330.784740,-0.010821210,-0.157115190,9.636747360,0.047838680,0.042110670,0.019486250
1640836330.785670,0.003167950,0.089424800,10.016920090,0.097829100,-0.013014680,0.022004550
1640836330.789710,-0.097721780,0.001556970,9.982206340,0.048306590,0.017197430,0.023578110
1640836330.790249,-0.077719800,0.057406550,9.664138790,0.007930400,-0.023187690,0.032879420
1640836330.794819,-0.339675190,0.038548560,9.988892560,0.053906450,-0.020688770,0.017718970
1640836330.795790,-0.293476940,0.167794390,9.790888790,0.064295540,0.024440880,0.001572070
1640836330.799780,-0.286917720,0.542790410,9.920274730,0.079067050,0.016386810,-0.007115310
1640836330.800530,-0.431772800,0.507533670,10.304534910,0.041219590,-0.015126170,0.010231140
1640836330.804860,-0.166020570,0.569631040,9.721745490,0.030083950,-0.006386640,0.022317470
1640836330.805440,-0.157731520,0.480724390,9.826099400,0.050508980,-0.017224250,0.015167890
1640836330.809860,-0.280169550,0.388895060,10.313339230,0.044626000,-0.003832580,0.023169820
1640836330.810619,-0.056004600,0.392914710,9.748693470,0.067619990,-0.016978380,0.027756390
1640836330.814770,-0.059345210,0.198867750,9.988196370,0.035563110,-0.048194820,0.019471350
1640836330.815340,-0.025402000,0.462785870,10.111607550,0.001236800,0.045011940,0.031694770
1640836330.819749,0.025294570,0.384405110,9.931157110,-0.004170840,0.005176660,0.014185910
1640836330.820279,-0.292608230,0.320193230,10.523961070,0.006923080,-0.069899860,-0.000427660
1640836330.824760,-0.194238710,0.668921050,9.417937280,0.043997170,-0.024133920,0.006499890
1640836330.825369,-0.288809330,0.535695250,9.662177090,-0.014698510,-0.041978060,-0.005693730
1640836330.830309,-0.395245110,0.784514370,10.292715070,-0.060677530,0.024843220,0.039872530
1640836330.830910,-0.031807110,0.496306930,9.676364900,-0.036683670,0.005897880,0.026826560
1640836330.835070,-0.051254970,0.138251720,10.349401470,0.009092690,-0.046993800,0.014692540
1640836330.835810,0.046766870,0.458484800,9.670336720,0.036913160,0.012813510,0.037226080
1640836330.839710,-0.017249310,0.041270490,9.662448880,-0.041970610,-0.034476820,0.018277760
1640836330.840190,-0.157932160,-0.052802640,10.257222180,-0.078539560,-0.031626230,0.031313300
1640836330.844820,0.106960100,-0.102582430,9.148036000,-0.014935430,0.010402500,0.003722310
1640836330.845520,0.076638870,-0.199324500,9.957215310,0.029350820,0.001190600,-0.010053810
1640836330.849779,-0.132091520,0.241677970,10.295582770,0.035777690,0.080099700,0.006091600
1640836330.852820,-0.221923040,0.141652630,9.858943940,-0.014841560,-0.079236950,-0.002805890
1640836330.854709,-0.343871120,0.060280270,10.065768240,-0.006438790,-0.095501550,0.031352040
1640836330.855190,-0.233097880,0.180375840,8.827851300,0.040225680,0.063999000,0.021585820
1640836330.860060,-0.302711700,0.018226560,10.080762860,0.053159890,0.008893010,0.001102690
1640836330.861110,-0.436400950,0.308061030,10.697484970,0.061538830,0.037667160,0.016124550
1640836330.868270,-0.054229280,0.244697020,9.413414000,0.004614890,-0.093780470,0.005526840
1640836330.868970,-0.175506980,0.084791070,10.196283340,0.020040570,-0.069895390,0.025357310
1640836330.869710,-0.047386240,0.170020060,9.353160860,0.047023590,0.091685360,0.008317830
1640836330.870170,-0.207384850,0.111723500,10.271842960,0.055237110,-0.065933160,-0.010138750
1640836330.874689,-0.341375020,0.361045930,10.448889730,0.063143670,-0.036701560,0.025966760
1640836330.875270,0.135725200,0.356125030,8.906427380,0.009034570,-0.036461650,-0.001996760
1640836330.879860,-0.161526220,0.476920780,10.388485910,0.009651480,-0.010216240,0.014415380
1640836330.880620,-0.110341750,0.716339290,10.105665210,0.017890330,0.075624880,0.020881000
1640836330.884719,-0.148787890,0.395929220,10.124499320,0.030469900,-0.113786770,0.008055570
1640836330.885340,-0.356748730,0.672298850,10.098193170,0.059142710,-0.076493630,0.030192730
1640836330.889710,-0.049025920,0.626603130,8.930267330,-0.016242270,0.004889070,0.019507110
1640836330.890220,-0.336219730,0.393617510,10.315057750,-0.052641340,-0.013147300,0.041167430
1640836330.895059,-0.052851300,0.421423790,9.959487920,-0.008034710,0.028234720,0.033763050
1640836330.895779,0.185566950,0.100452490,9.781785010,0.023017820,-0.060154500,0.003962220
1640836330.900280,0.023111730,0.299115840,10.062085150,0.034502150,-0.000402330,0.030386450
1640836330.900869,0.076059320,0.260960160,9.647359850,-0.042317810,-0.008523460,0.028689210
1640836330.904860,-0.137145730,-0.134056780,10.129910470,-0.042106200,-0.057572120,0.032979240
1640836330.905930,-0.013174440,0.024277290,9.377728460,0.028467180,-0.007003550,0.014823680
1640836330.910070,-0.019946890,0.128497850,9.648743630,0.024785100,0.010107460,0.006914140
1640836330.911450,-0.259345830,0.206748770,10.178789140,0.013792520,0.057865680,0.035069880
1640836330.917270,-0.238542910,0.267856330,10.054733280,-0.015543400,-0.074806820,0.023700300
1640836330.917899,-0.402811260,0.126345800,9.958745960,0.009007750,-0.082997960,0.033566360
1640836330.919710,-0.077252920,0.129000500,8.912211420,0.041961670,0.025491420,0.025971230
1640836330.920210,-0.295225770,0.207898390,10.284987450,0.043106090,0.015088920,0.004947190
1640836330.924700,-0.301258410,0.407115880,10.335819240,0.021627550,0.035926700,0.023312870
1640836330.925269,0.118956070,0.317124520,9.630603790,-0.015272200,-0.113826990,0.013013190
1640836330.929880,-0.261985090,0.218780620,10.238864900,0.012552740,-0.024263560,0.021728870
1640836330.934700,0.099239090,0.343642860,9.106066700,0.056451560,0.037060680,0.021566450
1640836330.935390,-0.331478710,0.268575250,10.595153810,0.036966800,-0.065112120,0.015561280
1640836330.935900,-0.317774360,0.534800170,9.931607250,0.002905730,0.000211600,0.040999060
1640836330.939710,0.061669260,0.403522190,9.402235030,-0.023514030,-0.071311000,0.018678610
1640836330.940209,-0.471355110,0.398923100,10.637929920,-0.006115440,-0.002041460,0.027626750
1640836330.944820,-0.123496050,0.592904330,9.298835750,0.020253660,0.004926320,0.016160310
1640836330.945609,-0.353249280,0.349606870,10.376435280,0.005714600,-0.112861400,0.009633600
1640836330.949920,-0.299065170,0.578639980,9.686068530,-0.017562510,0.013160710,0.048032400
1640836330.950650,0.059746700,0.447447660,9.421928410,-0.061300410,-0.048857940,0.019980970
1640836330.954880,-0.189718320,0.156900670,10.665389060,-0.043421980,-0.004743040,0.035263600
1640836330.956040,0.250546900,0.224211630,9.219546320,0.018201770,0.000467900,0.027744470
1640836330.960039,0.194453360,0.052699550,9.983952520,0.027351090,-0.076556210,0.012537840
1640836330.960830,-0.015563270,0.159686420,9.827464100,-0.032830250,0.056740650,0.041668120
1640836330.967000,0.022882530,-0.009517940,9.592379570,-0.054334110,-0.063914060,0.025911630
1640836330.967630,-0.503364740,-0.290586260,10.592918400,0.017127390,-0.078533600,0.012385850
1640836330.969720,-0.097167800,0.133283940,8.730914120,0.046578050,0.006753210,-0.005759300
1640836330.970199,-0.293398140,0.167814430,9.968132020,0.012011830,-0.014667210,-0.005109610
1640836330.974720,-0.426354650,0.243049890,10.493549350,-0.020203000,0.070683660,0.016392770
1640836330.975360,-0.072209310,0.365556060,9.561756130,-0.002388660,-0.103668870,0.022995470
1640836330.979840,-0.264108000,0.077762810,10.178498270,0.047776110,-0.092996660,0.031219430
1640836330.981700,0.052093300,0.245925710,9.094830510,0.059483960,0.066629060,0.019176310
1640836330.984759,-0.162839550,0.232364700,10.150586130,0.035265090,-0.045754030,0.002695620
1640836330.985360,-0.208810760,0.225041930,10.509371760,-0.004111230,-0.017996130,0.021587310
1640836330.989730,0.202903200,0.369174600,9.213173870,-0.009012220,-0.039228800,-0.000536440
1640836330.990180,-0.196001260,0.258395340,10.360107420,0.024053450,-0.051186980,0.000244380
1640836330.994809,-0.203255310,0.535019040,9.922734260,0.031462310,0.028395650,0.016045570
1640836330.997390,-0.301676600,0.422163310,9.777750020,0.013747810,-0.084573040,0.006927550
1640836331.000059,-0.439840380,0.389676930,10.205232620,-0.000654160,-0.069117550,0.025631490
1640836331.001449,-0.044831280,0.640539410,9.258216860,-0.015912950,0.012174250,0.025430320
1640836331.004870,-0.145721090,0.400441740,10.177509310,-0.029337410,-0.011651220,0.019779800
1640836331.006359,-0.068673340,0.488531680,10.421628000,-0.010946390,0.012728570,0.030070550
1640836331.010160,0.064445280,0.293784530,9.736787800,0.018364190,-0.064033250,0.005021690
1640836331.012210,-0.053476830,0.268884270,9.802794460,-0.009272990,-0.086098900,0.018382070
1640836331.016320,0.033858640,0.491960610,9.356579780,-0.059710440,0.023151940,0.026108320
1640836331.017000,0.049627930,0.014690740,9.696976660,-0.067107390,0.013750790,0.017359860
1640836331.019709,0.011354580,0.054194140,10.220514300,0.010097020,-0.005109610,0.003466010
1640836331.020180,-0.002487460,0.233919830,9.759208680,0.045987960,-0.004057590,-0.009556120
1640836331.024730,-0.150489750,0.135002320,9.940958980,-0.027859210,-0.056673590,0.012470780
1640836331.025540,-0.350790050,0.229694250,10.024409290,-0.060682000,-0.032487520,0.016558170
1640836331.029899,-0.277267070,0.029204210,9.350913050,-0.031395260,-0.029687590,-0.010420380
1640836331.030520,-0.122412380,0.114153840,9.612843510,0.028213860,0.002843140,0.001527370
1640836331.034799,-0.158751860,0.287008820,9.972086910,0.038620830,0.072282550,-0.006766620
1640836331.035320,-0.021477330,0.141472210,10.130195620,-0.010094050,-0.026069570,-0.001099710
1640836331.039729,-0.121421720,0.159259920,10.203244210,-0.003823640,-0.078010560,0.014464560
1640836331.040200,-0.087066450,0.048281910,9.124140740,0.006522240,-0.025609140,-0.016359980
1640836331.045150,-0.058790700,0.137753550,9.541491510,0.020650030,0.006854540,-0.017535690
1640836331.046150,-0.314018610,0.318708180,10.154186250,0.032624610,0.068315860,-0.019675490
1640836331.049780,-0.228399600,0.328818320,10.063213350,0.005964940,-0.060470400,-0.016866630
1640836331.050590,-0.272776130,0.449793550,10.101435660,0.011819600,-0.069814920,-0.010828670
1640836331.054800,-0.305803120,0.479201700,9.557411190,-0.016660990,-0.001922250,-0.019663570
1640836331.055440,-0.318179670,0.532761340,10.087895390,-0.014698500,-0.019964570,-0.009690220
1640836331.059739,-0.304019210,0.468633710,10.073674200,0.008440020,-0.006516280,-0.007587670
1640836331.060940,0.011444100,0.432450470,9.547628400,-0.002214310,-0.061163300,-0.005128980
1640836331.066820,0.130475980,0.547268690,9.862840650,-0.011475390,0.004617870,0.001482670
1640836331.067560,0.114081760,0.346752410,9.884675980,-0.073045490,0.035342580,-0.005008280
1640836331.069720,-0.065219340,0.173831570,10.313291550,-0.042991350,-0.072321300,0.002345440
1640836331.070220,-0.062442730,0.129416230,9.743814470,0.026859340,-0.046373910,-0.012485680
1640836331.074810,-0.095585050,0.296697140,9.324428560,-0.023466350,-0.014238060,-0.017611680
1640836331.075630,-0.232035010,0.538520810,9.897836690,-0.085692120,0.020787120,0.005674360
1640836331.079820,-0.080081940,0.198922770,9.865501400,-0.104634470,0.032554570,-0.009688740
1640836331.080420,-0.087066140,0.192797750,9.950609210,-0.004489720,-0.022065640,-0.004558270
1640836331.084780,-0.148436010,0.382209000,9.803474430,0.044937420,-0.021034480,-0.012004380
1640836331.085490,-0.154950540,0.293239470,9.677720070,-0.064261270,-0.031290950,-0.011326370
1640836331.089730,-0.033047190,0.155445930,9.534493450,-0.101657220,0.007140640,0.002382700
1640836331.090979,0.091255180,-0.093892310,9.683950420,-0.058448320,0.062736870,-0.023008880
1640836331.094900,0.025815490,0.027489820,10.160376550,0.016863650,0.033722820,-0.014695530
1640836331.095650,-0.053258560,0.054753470,9.890077590,0.036735830,-0.023378430,-0.012408200
1640836331.099870,-0.254209370,-0.047878940,9.816682820,-0.033955270,-0.071057670,-0.008839370
1640836331.100479,-0.306235940,-0.033180870,9.236422540,-0.039435920,0.006937980,-0.000387430
1640836331.104800,-0.226742450,-0.016069060,9.389633180,-0.009219350,0.032058360,-0.027722120
1640836331.105460,-0.407216940,0.301343560,10.613613130,0.020465260,0.069229300,-0.035473700
1640836331.109930,-0.165369230,0.582330470,9.940864560,0.011989480,-0.004599990,-0.030849880
1640836331.111559,-0.281451140,0.482410460,10.238376620,-0.037719320,-0.110237320,-0.024984780
1640836331.114840,-0.196690860,0.573789300,9.426080700,-0.012788180,0.037345290,-0.019104780
1640836331.115409,-0.118821860,0.482662110,9.460392950,-0.020730500,-0.005279480,-0.029379130
1640836331.119710,-0.459502070,0.515747430,10.774982450,-0.017134850,0.008596480,-0.013001260
1640836331.120240,0.150134000,0.531982660,9.187359810,-0.023120640,-0.001236800,-0.015495720
1640836331.124800,0.046848440,0.141206380,10.277854920,-0.048415370,-0.051617620,-0.010943410
1640836331.125490,-0.029905850,0.414217680,10.008253100,-0.032073260,0.087714200,-0.012458860
1640836331.129789,0.089250590,0.071950270,9.681652070,-0.050176680,-0.049889080,-0.027102230
1640836331.130420,-0.372739320,0.009630980,10.587601660,-0.018720330,-0.042496630,-0.000371040
1640836331.134790,0.007906950,0.449437380,8.742566110,-0.028093160,0.005464260,-0.028607250
1640836331.135399,-0.081004340,0.345703120,9.835266110,-0.091953580,-0.013832750,-0.009185080
1640836331.139770,-0.105715210,0.545353950,9.955952640,-0.088839230,0.128613410,0.004333260
1640836331.140220,0.161127510,0.270055120,9.747486110,-0.025434790,-0.017678730,-0.040261440
1640836331.144860,-0.211533810,0.320918500,10.590591430,0.028778610,-0.047387180,-0.007286670
1640836331.145599,0.044678310,0.589753390,8.751230240,-0.050085780,0.024145840,-0.002406540
1640836331.149760,-0.148576960,0.027000540,9.950417520,-0.139783340,-0.003845990,-0.010819730
1640836331.150310,-0.277452080,-0.110914790,10.094239230,-0.060050190,0.100667780,-0.010143220
1640836331.155200,0.041836640,-0.217887360,9.277756690,0.027932230,-0.011685490,-0.049722200
1640836331.155990,-0.263107780,-0.034006810,10.366529460,0.033868840,-0.003793840,-0.024083260
1640836331.159880,-0.038971640,0.225609240,9.197069170,-0.076131530,0.069513920,-0.023205580
1640836331.161199,-0.253603550,-0.121369330,10.169517520,-0.107838220,-0.043192510,-0.022757050
1640836331.164840,-0.334528650,0.037884860,10.067019460,0.005522370,0.052365660,-0.030651680
1640836331.165750,-0.021563810,0.352626770,9.260098460,0.048530100,0.000000000,-0.059641900
1640836331.170300,-0.441359460,0.654033780,10.603700640,-0.004689400,0.007694960,-0.035028160
1640836331.171510,-0.057202680,0.864110710,9.494864460,-0.109709800,0.047281380,-0.015768410
1640836331.174739,-0.127612720,0.318268690,9.977735520,-0.078724330,-0.049325820,-0.017099080
1640836331.175470,-0.186279090,0.379859920,10.038065910,0.034600510,0.057917840,-0.022570790
1640836331.179900,-0.008049920,0.514721870,9.554949760,0.011250380,0.008052590,-0.029096010
1640836331.181300,-0.450068470,0.298224300,10.558109280,-0.073987250,-0.023737550,0.007282200
1640836331.184720,0.014025110,0.168536040,9.426922800,-0.114932660,0.015409290,-0.014725330
1640836331.185230,-0.031311780,-0.163108810,9.800085070,-0.052951290,0.000648200,-0.035505000
1640836331.189760,-0.080809010,0.123018770,9.940658570,0.023026770,0.088055430,-0.026448080
1640836331.190209,-0.070643940,0.334079710,10.022157670,-0.029155620,0.000607970,-0.039432950
1640836331.194830,-0.308772410,0.184894370,10.113443370,-0.081607690,-0.044935940,-0.013135370
1640836331.195540,0.092533590,0.363886650,9.019713400,-0.079818060,-0.014419850,-0.026091930
1640836331.202329,-0.070387200,0.236222240,9.752557750,-0.050330160,0.074304650,-0.020822880
1640836331.203909,-0.016776330,0.218068780,9.905783650,0.005532800,0.117927800,-0.017902260
1640836331.204720,-0.150831740,0.290667920,10.406106950,-0.004570190,-0.054667900,-0.032575440
1640836331.205269,-0.279254500,0.166586800,9.725329400,-0.047440830,-0.026962160,-0.015825040
1640836331.210120,0.006876900,0.042340680,8.819581990,-0.071763990,-0.002731380,-0.019480290
1640836331.210960,-0.425049660,-0.212755870,10.366676330,-0.023439530,0.063315040,-0.031436980
1640836331.214740,-0.090961730,-0.063129540,9.504803660,0.048901140,0.093510750,-0.035305320
1640836331.215260,-0.141859440,0.110864020,10.186496730,0.030665100,-0.066840630,-0.035418570
1640836331.219760,-0.272266660,0.199918330,9.968182560,-0.034870210,0.048713390,-0.013022130
1640836331.220240,0.070645540,0.209987540,9.069577220,-0.043612720,-0.007160010,-0.032638010
1640836331.224710,-0.519221310,0.159899380,10.661218640,0.021894280,-0.009676810,-0.046987820
1640836331.225250,-0.150871930,0.652386010,9.220993040,0.044189390,0.049236410,-0.042730570
1640836331.229820,-0.185931280,0.681506750,9.970624920,-0.004179780,-0.050516440,-0.046695770
1640836331.231510,-0.467376770,0.795482750,10.463312150,-0.067454580,0.061544780,-0.026080010
1640836331.235090,-0.007402770,0.675148670,9.381021500,-0.064241890,-0.024798510,-0.026643280
1640836331.236189,-0.374222160,0.233266880,10.465480800,0.011298060,-0.052393970,-0.031189620
1640836331.239750,-0.082776230,0.606439050,9.332241060,0.011385980,0.051699580,-0.028237700
1640836331.240229,-0.101843300,0.449370590,9.968227390,-0.067406910,-0.031392280,-0.030295560
1640836331.244809,-0.260049760,0.203135150,10.430067060,-0.117602940,0.011664630,-0.000947710
1640836331.246590,0.229170260,0.222950030,9.303404810,-0.057715170,-0.012131030,-0.031420590
1640836331.249960,-0.090409730,0.129882480,10.239336010,0.001011790,-0.011914970,-0.044158100
1640836331.251410,-0.080591850,0.566941080,9.700552940,-0.035643580,0.054216390,-0.031429530
1640836331.254809,-0.206970300,0.474889930,9.954813960,-0.111083690,-0.064353650,-0.032830240
1640836331.255540,-0.154521390,0.346336450,9.871892930,-0.115753720,-0.017648940,-0.016915800
1640836331.260200,0.185143810,0.509002390,9.135582920,-0.065737950,0.056022410,-0.029757620
1640836331.260840,-0.028660140,0.313308950,10.344255450,-0.036911670,0.075507160,-0.028659410
1640836331.264750,0.096174690,0.302067790,10.321421620,-0.059409440,0.044859950,-0.018593670
1640836331.265830,-0.030188500,-0.024457570,9.836788180,-0.066636500,-0.069302330,-0.028198960
1640836331.269770,0.105013180,-0.254625140,9.211822510,-0.055924070,0.007581710,-0.024227800
1640836331.270280,0.104287620,-0.130649570,9.301488880,-0.051060330,0.110143420,-0.041577220
1640836331.274720,-0.221687690,-0.144743370,10.257196430,-0.048841550,0.087198620,-0.051701080
1640836331.275339,-0.061841920,0.074767310,10.146949770,-0.023932750,-0.000280140,-0.049020350
1640836331.279780,-0.258290500,0.103916910,9.732015610,-0.012953580,-0.025223200,-0.043900310
1640836331.280550,-0.156111020,0.304124980,9.376342770,-0.023466350,0.041484840,-0.030800700
1640836331.284799,-0.295565010,0.425009250,10.023286820,-0.036315620,0.096684700,-0.045454500
1640836331.285480,-0.331171450,0.393303990,10.121048930,-0.039617720,0.037449600,-0.038599970
1640836331.289719,-0.003018000,0.484345500,9.818565370,0.009407100,-0.016829370,-0.032708040
1640836331.290249,0.019933630,0.314921740,9.653335570,-0.002303720,0.071188810,-0.048869850
1640836331.294880,0.023289730,0.477032600,9.831033710,-0.041131680,0.059583790,-0.039659440
1640836331.295920,-0.146332030,0.402253720,10.382683750,-0.054848190,0.034093850,-0.035305320
1640836331.302790,-0.111864710,0.193848610,9.744249340,-0.063768040,0.008399780,-0.042252250
1640836331.303510,-0.060323170,0.451699080,9.595457080,-0.014047330,0.009566550,-0.037175420
1640836331.304740,-0.221005920,0.478307720,9.988286970,-0.053484730,0.096830720,-0.034748020
1640836331.305339,-0.087684100,0.523643310,9.916776660,-0.098674000,0.065927210,-0.021518770
1640836331.310220,-0.143386510,0.439251870,10.194388390,-0.061163310,0.013436380,-0.020666420
1640836331.311360,-0.197968210,0.395056280,9.930752750,-0.054733460,0.038748980,-0.031045080
1640836331.315780,-0.134636120,0.608169560,9.619962690,-0.057956580,0.030380490,-0.021967290
1640836331.316630,-0.201071100,0.445463780,9.942107200,-0.113299500,0.039009750,-0.013154750
1640836331.319680,0.104439610,0.306351130,9.636296270,-0.115677740,0.101637860,-0.016626720
1640836331.320230,0.171319690,0.238734250,9.718103410,-0.049786280,0.075976550,-0.026267770
1640836331.324790,-0.006995600,0.087933100,10.329585080,-0.051987170,0.060504680,-0.014224650
1640836331.325450,-0.008210460,0.049007070,9.737820630,-0.058010220,0.039714570,-0.013384220
1640836331.329929,-0.199197370,-0.197445440,9.721138950,-0.086057210,-0.029747190,-0.023509570
1640836331.332739,-0.148747740,-0.027296810,9.486986160,-0.071193290,0.111073280,-0.021959840
1640836331.335620,-0.114143850,0.013765740,9.548331260,-0.046324730,0.147548330,-0.041724740
1640836331.336290,-0.339385810,0.069978290,10.794144630,-0.032450270,0.034526000,-0.039923200
1640836331.339730,-0.245145380,0.287472310,9.823179240,-0.001171230,0.031755860,-0.022645300
1640836331.340230,-0.152426930,0.140100940,9.141433720,-0.034713750,-0.014011560,-0.029151150
1640836331.344800,-0.324776410,0.331547320,9.984092710,-0.038214020,0.105512150,-0.011506680
1640836331.345420,-0.167998490,0.285602330,9.690269470,-0.042615830,0.135295090,-0.038141010
1640836331.349939,-0.189394430,0.199190830,10.580414770,-0.013509390,-0.010901690,-0.029808280
1640836331.350760,-0.090613210,0.483249130,9.954253200,0.017587840,0.048787900,-0.018157060
1640836331.354720,0.043406780,0.288356690,9.333646770,-0.051718950,0.034728650,-0.037913030
1640836331.355370,-0.269097860,0.361405190,10.448644640,-0.067441170,0.067272780,-0.015202170
1640836331.359769,-0.264484350,0.263913930,9.890155790,-0.041140620,0.079110260,-0.026477880
1640836331.361570,-0.201511710,0.170072200,9.951064110,0.004556770,-0.045360620,-0.019364060
1640836331.365000,-0.214284790,0.576567830,9.794564250,-0.008100270,0.064300000,-0.007712840
1640836331.366089,-0.063509740,0.558224200,9.687926290,-0.109520560,0.088316190,-0.018344820
1640836331.369760,-0.253570650,0.418939530,10.646911620,-0.084352490,0.051778560,0.000736120
1640836331.370299,-0.199772020,0.371277750,9.985094070,-0.010569400,-0.001887980,-0.019830470
1640836331.374670,-0.134590830,0.510424200,9.551279070,-0.007432700,-0.022503730,-0.022156530
1640836331.375249,-0.183433460,0.624041740,9.526716230,-0.078283240,0.074763580,-0.004917380
1640836331.379870,-0.088232670,0.276278910,9.876981740,-0.150625410,0.079827020,-0.002481040
1640836331.380630,0.072481770,0.066619010,10.110108380,-0.045156480,0.080722570,-0.009717050
1640836331.384719,0.147285730,0.036289460,9.892035480,0.010631980,0.037418310,-0.020150840
1640836331.385280,-0.202391010,0.197020960,10.224642750,-0.025545060,0.019527970,0.002080200
1640836331.389680,-0.077735220,0.098969930,9.315453530,-0.111535210,0.030213590,0.005798040
1640836331.390230,-0.185593560,-0.224623370,9.778200150,-0.107145320,0.026768450,-0.014373660
1640836331.394800,-0.218479500,0.015839510,9.649254800,0.012275580,0.137531770,-0.024771690
1640836331.395589,-0.030294560,0.110352770,9.865052220,0.029389560,0.049254300,-0.038671490
1640836331.399840,-0.432539640,0.305508880,10.672414780,-0.025497380,0.040528190,-0.005409120
1640836331.400849,-0.175179870,0.356738600,9.164484980,-0.079074520,0.005675850,-0.003254410
1640836331.404729,-0.302047640,-0.059532230,9.975929260,-0.041553380,-0.001822410,-0.007763510
1640836331.405530,-0.243243710,0.214767590,9.515936850,0.044335420,0.154012430,-0.009122490
1640836331.409710,-0.090721380,0.197322290,9.968791960,0.045810640,0.037202240,-0.035996740
1640836331.410529,-0.408654180,0.281752410,10.698758130,-0.001089270,0.031836330,0.000573690
1640836331.414870,0.034998790,0.307051570,8.968136790,-0.051425400,-0.003734230,-0.009475650
1640836331.415640,-0.286467460,0.042546770,10.274778370,-0.018933420,-0.004158910,-0.010333960
1640836331.419690,-0.339263230,0.312742860,9.872412680,0.045576680,0.118075320,-0.015330310
1640836331.420260,-0.307555760,0.390561850,10.000962260,0.031894440,-0.047501920,-0.033919510
1640836331.424690,-0.375630050,0.508591650,10.354609490,-0.002919140,0.020992760,-0.005131960
1640836331.425570,0.037616470,0.587388990,9.091744420,-0.059734290,0.055179010,-0.018596650
1640836331.429790,-0.261949150,0.466861670,10.556383130,-0.038643180,0.003935400,0.013503430
1640836331.430390,-0.097454290,0.424247620,9.884348870,0.022058190,0.064459450,0.011919440
1640836331.434739,-0.125881400,0.330807660,9.774006840,0.023874640,-0.065390750,-0.010563430
1640836331.435390,-0.300869820,0.503495160,9.967772480,-0.013685230,0.017324090,0.037169460
1640836331.439689,0.087882140,0.292770920,9.228844640,-0.098930290,0.051397080,0.033459060
1640836331.440220,-0.225221080,-0.023846580,10.464093210,-0.044474010,0.033169980,0.025485460
1640836331.444759,0.102565890,0.184240760,9.683322910,0.058291860,0.035898390,0.006496910
1640836331.445600,0.002533440,0.106450630,9.901197430,0.041045250,-0.028127440,0.005196030
1640836331.449720,-0.255190430,0.317977820,9.798204420,-0.029052800,0.037685040,0.030146540
1640836331.450250,-0.060414230,0.054527680,9.552462580,-0.070211290,-0.019888580,0.021062790
1640836331.454680,-0.329873560,-0.084492810,9.934092520,0.022426250,0.040818750,0.014591220
1640836331.455299,0.051338490,0.374036910,9.191480640,0.068545340,0.054948040,0.012800100
1640836331.460260,-0.304441840,0.243990290,10.712158200,0.021734840,0.030572720,0.024454300
1640836331.461400,-0.253446760,0.257832080,9.768703460,-0.002828240,0.026361650,0.034169850
1640836331.464980,-0.152967260,0.075732610,9.707835200,0.015190240,-0.112085050,0.030504170
1640836331.466359,-0.333813100,-0.010491740,9.653828620,0.058591360,0.095427020,0.032499430
1640836331.469679,-0.038618890,0.236356210,9.273785590,0.052927430,0.043165690,0.007359680
1640836331.470300,-0.494158860,0.231708840,11.100881580,0.026947260,-0.026112790,0.013610720
1640836331.474810,-0.003836050,0.345686700,9.247461320,0.010456140,0.023558740,0.033076110
1640836331.475740,-0.130135480,0.170203000,9.908927920,0.044691570,-0.081358870,0.010597710
1640836331.479869,-0.435201640,0.395735620,10.365631100,0.078855460,0.075139110,0.036098070
1640836331.481119,-0.083871040,0.485190750,9.359804150,0.039100650,-0.010696050,0.028441840
1640836331.484670,-0.479436160,0.358415130,10.685373310,0.017869470,-0.058680780,0.039695200
1640836331.485260,0.024770380,0.606587290,9.218786240,0.006961820,0.052326910,0.043666360
1640836331.489760,-0.091894010,0.376683620,9.895387650,0.018015510,-0.033646820,0.032269960
1640836331.491269,-0.285917460,0.469258760,10.451776500,0.030075020,0.032475590,0.047659880
1640836331.495010,-0.008486270,0.308685120,9.487383840,0.025796900,-0.034014880,0.030028830
1640836331.495859,-0.369438710,0.143896520,10.165185930,0.034965570,-0.060243920,0.043474140
1640836331.500069,-0.085765820,0.473449620,9.504919050,-0.004878640,0.034573670,0.058999670
1640836331.500710,-0.182774740,0.157866760,9.948142050,-0.027510520,-0.006386640,0.057847800
1640836331.504760,-0.126111790,0.079762710,9.898844720,0.037576260,0.005516410,0.055804850
1640836331.505460,-0.009014560,0.298215240,9.583615300,0.073903800,-0.029852990,0.036950410
1640836331.510079,-0.228787590,0.198517110,9.860530850,0.021740790,0.007532540,0.059756640
1640836331.511099,-0.132482410,0.269610080,9.750123020,-0.022022430,-0.032471120,0.056116280
1640836331.514690,-0.320385960,0.071733620,10.041971210,0.007291140,-0.033527610,0.031185160
1640836331.515300,-0.002270230,0.157488760,9.168757440,0.058817870,0.015750530,0.040885810
1640836331.519709,-0.209433470,0.213615800,10.149347310,0.074504320,-0.004749000,0.041215120
1640836331.520280,-0.354235770,0.164432450,10.126076700,0.037056210,0.005643070,0.059248510
1640836331.524720,-0.073125450,0.128745990,9.415999410,0.032402580,-0.107887400,0.064969070
1640836331.525410,-0.394858330,-0.178067420,9.987166400,0.048500300,-0.016680360,0.054809450
1640836331.529800,-0.113668990,-0.072887500,9.243937490,0.095309320,0.054988280,0.041677060
1640836331.530419,-0.441462640,0.180818590,10.556331630,0.102776300,-0.073017190,0.033795830
1640836331.534720,-0.402611400,0.388183210,10.048778530,0.035278500,-0.046676400,0.057056540
1640836331.535490,0.008185750,0.374987750,9.003302570,0.024805970,-0.084172200,0.053980960
1640836331.539719,-0.482163250,0.273944910,10.399002080,0.082077080,-0.011236970,0.056059660
1640836331.540269,-0.311467320,0.653802340,9.817430500,0.100247560,0.000329320,0.061430040
1640836331.544800,-0.390213430,0.538367450,10.124578480,0.062681730,-0.149942950,0.072303410
1640836331.545570,-0.291237710,0.521886110,9.872887610,0.015074010,-0.049161910,0.086104860
1640836331.549739,0.093747610,0.609986540,9.228276250,0.018392500,-0.010174510,0.062003720
1640836331.554430,-0.180125790,0.262416300,10.544267650,0.040745730,-0.039963420,0.065241740
1640836331.555359,-0.040423810,0.367000520,9.977416990,0.084920220,-0.038777280,0.063410410
1640836331.555899,-0.127194180,0.274814430,9.712462430,0.060796750,-0.148005780,0.047190490
1640836331.560160,-0.253867300,0.306254480,9.753532410,-0.009679790,-0.073434420,0.098989900
1640836331.560840,-0.136418510,0.208581280,9.440173150,-0.014938420,-0.015330320,0.092209880
1640836331.564700,-0.153987080,-0.099258640,10.188717840,0.046837320,-0.035767260,0.061877070
1640836331.566730,-0.018667530,0.262003000,10.010528560,0.102214520,-0.039367380,0.080607840
1640836331.569759,0.018035840,0.219753680,9.619570730,0.058759760,-0.056074560,0.072552260
1640836331.570999,-0.131852050,0.135254930,10.038585660,-0.007547440,-0.068879140,0.086021450
1640836331.574700,-0.300084410,0.172667500,9.806370740,0.023482740,-0.083857780,0.072939680
1640836331.575480,-0.068139930,-0.003510690,9.143479350,0.071820620,-0.069129470,0.054217880
1640836331.579779,-0.047917520,0.219233080,9.714700700,0.090545420,0.029458110,0.063461070
1640836331.581300,-0.263555470,0.169519510,10.277798650,0.075896090,0.019498170,0.067734720
1640836331.584679,-0.113541430,0.116974950,10.171027180,0.055563460,-0.147388890,0.084881480
1640836331.585340,-0.208137850,-0.004444240,9.502680780,0.079660130,-0.093203800,0.101164000
1640836331.589710,-0.167861480,-0.209471790,9.187966350,0.103330610,-0.011514130,0.088860090
1640836331.590279,-0.320031140,-0.045905490,10.200716970,0.148063910,-0.010553000,0.073321160
1640836331.594760,-0.372711300,0.211462940,9.963027000,0.100292270,-0.054785610,0.073423990
1640836331.595430,-0.133028810,0.423126670,9.715663910,0.058995190,-0.120100400,0.079302500
1640836331.599740,-0.228972870,0.404751720,9.848529820,0.074633940,-0.027607380,0.080814960
1640836331.600360,-0.207303020,0.464453640,9.914170270,0.107237690,-0.054562090,0.074271840
1640836331.606660,-0.282429370,0.553576530,10.280311580,0.149144280,-0.064814090,0.089637960
1640836331.607319,-0.167085470,0.474831040,9.675446510,0.097653290,-0.085115430,0.087058560
1640836331.610100,-0.093657810,0.542156580,9.689316750,0.051355360,-0.088693210,0.102925300
1640836331.611369,-0.171576470,0.454437580,9.950313570,0.034914910,-0.020852680,0.100913650
1640836331.614699,-0.211902590,0.216398220,10.053089140,0.055110450,-0.086161500,0.092132390
1640836331.615300,-0.177824510,0.297849240,9.867560390,0.142401470,-0.088267030,0.085999070
1640836331.619730,-0.130439250,0.305107380,9.609248160,0.087337200,-0.064121190,0.082221630
1640836331.620270,-0.290917610,0.428065390,10.017763140,0.009122490,-0.060185780,0.107224290
1640836331.624699,-0.168546570,0.277964200,9.793545720,0.017333030,-0.086113800,0.118887430
1640836331.625290,0.002626470,0.051108510,9.680564880,0.074540090,-0.074535610,0.095407650
1640836331.629770,0.033661490,0.365424510,9.541734700,0.138737260,-0.011917950,0.083658100
1640836331.630440,-0.029386110,0.257525650,10.011971470,0.068937230,-0.059781960,0.090888140
1640836331.634889,-0.163725270,0.143008290,10.169917110,0.025592740,-0.096316640,0.110469760
1640836331.636170,0.007401640,0.060209920,9.273123740,0.056773430,-0.099310280,0.101222100
1640836331.639690,-0.066736190,-0.111695480,9.783658030,0.094036750,-0.039742890,0.096431380
1640836331.640260,-0.146488490,-0.061910390,9.740856170,0.149001170,0.036062300,0.088138860
1640836331.644820,-0.177948520,-0.078194490,10.144262310,0.132022810,-0.112015020,0.071913010
1640836331.645530,-0.304297300,0.003977360,9.963586810,0.089706490,-0.084528330,0.112481430
1640836331.649789,-0.038157020,-0.045359690,8.834858890,0.085607160,-0.053249300,0.103372320
1640836331.651369,-0.345470310,-0.075234320,10.401709560,0.122818360,-0.050914290,0.075387950
1640836331.654729,-0.248192010,0.299250540,9.756175990,0.180272770,0.016023220,0.079093880
1640836331.656620,-0.069637920,0.315492000,9.812779430,0.153198840,-0.147204120,0.074748700
1640836331.659999,-0.193721790,0.504159750,10.187718390,0.115990650,-0.027449430,0.102362040
1640836331.661199,0.212872730,0.584333420,8.956982610,0.079731640,-0.012861190,0.097231570
1640836331.668110,-0.298553590,0.220724820,10.959074970,0.127074140,-0.076195600,0.106461370
1640836331.668969,-0.162294540,0.457132850,9.613906860,0.186672810,-0.026161970,0.094324360
1640836331.669700,0.030027010,0.349973620,9.298973080,0.137133910,-0.158958140,0.087000440
1640836331.670320,-0.325629090,0.423761870,10.315037730,0.077588860,0.035828360,0.115653890
1640836331.674680,0.139305560,0.524330020,9.236211780,0.039221350,0.014728310,0.084878510
1640836331.675330,-0.220219880,0.111985510,10.969655040,0.111137330,-0.128862280,0.093545030
1640836331.679780,-0.062035570,0.474427640,9.513080600,0.175851610,0.001189110,0.080262120
1640836331.680620,0.043704280,0.548193810,9.257592200,0.106917330,-0.109258300,0.083336230
1640836331.684729,-0.374882670,0.531741860,10.392348290,0.028488040,-0.013746320,0.135493250
1640836331.685340,0.287957160,0.398406710,8.872476580,0.014409420,0.016526880,0.099918270
1640836331.689669,0.002321020,0.085950850,10.506739620,0.124630330,-0.060085960,0.102171320
1640836331.690230,0.000896740,0.451161470,9.815563200,0.173527020,0.046710670,0.110198560
1640836331.694779,0.077835460,0.265216470,9.537137990,0.075453540,-0.100664810,0.089715440
1640836331.695600,-0.356390830,0.043660580,10.316955570,0.025290250,-0.058327620,0.117450950
1640836331.699920,0.123676720,-0.013586580,8.592903140,0.065504020,0.031343100,0.087197130
1640836331.700749,-0.107258790,-0.200047480,10.111515050,0.143687440,0.005424020,0.071339320
1640836331.704700,-0.230235700,0.208627020,10.258201600,0.160291810,0.075854360,0.094982990
1640836331.705269,-0.065216650,0.153138940,9.707658770,0.104384150,-0.097475950,0.087404250
1640836331.709699,-0.395962030,0.055382050,10.060398100,0.073458250,-0.082209700,0.117713210
1640836331.710379,-0.080578480,0.247477770,8.721407890,0.090622900,0.028215350,0.100457680
1640836331.715500,-0.295360300,0.087339160,10.013979910,0.150080050,0.011609500,0.070410980
1640836331.716529,-0.373887330,0.613139690,10.368705750,0.152517860,0.023064020,0.079643730
1640836331.719750,0.003091510,0.726553560,9.452191350,0.082619500,-0.092732920,0.088794540
1640836331.720420,-0.158372040,0.284497920,10.040480610,0.064420710,-0.026571750,0.098158420
1640836331.724670,-0.056525380,0.439906720,9.605085370,0.112442660,0.050884480,0.090306990
1640836331.725350,-0.256209020,0.239529790,10.284956930,0.155286510,-0.064775350,0.088621680
1640836331.730019,-0.102785690,0.329463090,9.748710630,0.114218910,-0.027501590,0.108768070
1640836331.730970,0.163103400,0.463991880,9.132691380,0.047443810,-0.005923210,0.084993250
1640836331.734730,-0.157528880,0.298241590,10.348908420,0.039537250,0.019660590,0.091145930
1640836331.735350,-0.059302080,0.424975810,9.986020090,0.084975360,-0.006958840,0.087824470
1640836331.739670,-0.249828490,0.415548500,9.939366340,0.122775140,-0.090940300,0.072620820
1640836331.740260,-0.269680710,0.718899250,9.721198080,0.075085450,-0.017046930,0.098210570
1640836331.744779,-0.147857640,0.904827120,9.414317130,-0.017151240,0.018560890,0.105102360
1640836331.745509,-0.115589940,0.545384350,10.186198230,-0.025789440,0.009535250,0.113438070
1640836331.749810,0.183225560,0.392648160,9.816108700,0.070029500,0.044611100,0.102359060
1640836331.750300,0.127841520,0.273959730,9.807640080,0.136120630,-0.043128430,0.077368320
1640836331.754779,0.016455600,0.330858410,9.816643710,0.047481070,-0.012417140,0.098642720
1640836331.755530,0.030167040,0.173401030,9.330566410,-0.056667630,-0.002631550,0.108082590
1640836331.759729,-0.096128460,-0.225425750,9.812745090,-0.028876960,-0.003390010,0.091440980
1640836331.763530,-0.004006820,-0.014872940,9.642739300,0.083479290,0.071875770,0.080269580
1640836331.766369,-0.047487250,0.146689090,9.724278450,0.116153060,0.029167530,0.080835820
1640836331.767340,-0.268829440,0.250950370,10.340875630,0.038704270,-0.009937590,0.102894020
1640836331.770370,-0.135659350,0.277367500,9.430603980,-0.015471880,-0.016282500,0.100770600
1640836331.771880,-0.184065760,0.005219720,9.346302990,0.030753020,-0.019311900,0.092740360
1640836331.774700,-0.123103230,0.165886010,9.753923420,0.099521880,0.101578240,0.076323760
1640836331.775310,-0.090209500,0.312096660,9.782112120,0.112201270,0.059181450,0.047375260
1640836331.783450,-0.171361300,0.385623960,10.315742490,0.036591280,-0.045925380,0.078225140
1640836331.784119,-0.011695370,0.387173000,9.327148440,0.011330840,0.022478400,0.109525020
1640836331.784690,-0.106704980,-0.056301180,9.479769710,0.043541200,0.010798870,0.091810530
1640836331.785320,-0.307596090,0.071183790,10.319540980,0.131416340,0.056776410,0.092019140
1640836331.789670,-0.192600350,0.211997260,9.549220090,0.128333290,0.026394430,0.064948210
1640836331.790269,-0.267551540,0.301486400,10.061957360,0.023975970,-0.056456030,0.087426610
1640836331.794979,-0.146656890,0.546922270,9.582106590,-0.006037950,0.077113520,0.091458860
1640836331.796170,-0.099886270,0.437009660,9.647171020,0.020243230,0.013233720,0.051383670
1640836331.801450,-0.366398010,0.695647780,10.553168300,0.084602830,-0.002999600,0.083538890
1640836331.802039,-0.059917370,0.739011940,9.165011410,0.087629270,0.010743740,0.070536140
1640836331.804809,-0.163326110,0.588776530,9.957689290,0.003170970,-0.026252870,0.088192530
1640836331.805400,-0.199175880,0.802605630,9.994736670,-0.033901630,0.093942890,0.120678570
1640836331.809840,0.006361280,0.244404210,9.668545720,-0.026275210,-0.011447070,0.085976720
1640836331.811260,-0.111451850,0.222110510,10.249422070,0.055520230,-0.016050040,0.091394770
1640836331.814780,0.095945690,0.342507360,9.014019010,0.065356490,0.067241470,0.071434670
1640836331.815400,-0.139235840,0.059249190,9.975600240,-0.037567330,0.000919400,0.077880930
1640836331.819710,-0.325874600,0.218971790,10.180563930,-0.046800070,0.037455550,0.111414480
1640836331.820330,-0.014819060,-0.111352060,9.049470900,0.000740590,-0.033143160,0.064761920
1640836331.824689,-0.224122730,0.182509480,9.926048280,0.042383380,0.024186080,0.080466280
1640836331.825320,-0.102576070,0.504925070,9.456211090,0.028529770,0.136527390,0.076024220
1640836331.829850,-0.184761750,0.171516980,10.333329200,-0.025333460,-0.027906900,0.071758030
1640836331.830629,-0.278152590,0.509252670,10.033275600,-0.000831480,-0.016380840,0.102083380
1640836331.835749,0.041861210,0.253516790,8.588398930,0.000098350,0.007683040,0.073565530
1640836331.836360,-0.300560210,0.081203510,10.075373650,0.020307300,0.040943920,0.070498880
1640836331.839700,-0.258945490,0.395239410,9.598842620,0.045414270,0.099127010,0.067929930
1640836331.842670,-0.084026840,0.016312640,9.832945820,-0.000584130,-0.071579230,0.062251090
1640836331.845160,-0.224718000,0.201597390,10.129852290,-0.004234910,0.033891200,0.089512780
1640836331.846550,0.031732180,0.269178690,9.235945700,0.002981720,0.067196790,0.062757730
1640836331.849759,-0.415937360,0.169547300,10.826867100,0.009936100,-0.020462280,0.075581670
1640836331.850299,-0.364867780,0.676141020,9.555440900,0.024531780,0.012882050,0.074012580
1640836331.854830,-0.068089390,0.524578390,9.104540820,-0.019934770,-0.069394720,0.061322760
1640836331.855690,-0.300091030,0.812135990,10.042617800,-0.039879980,0.084345050,0.086122760
1640836331.859730,-0.044489730,0.924294230,9.511646270,-0.057016320,0.078862890,0.073410580
1640836331.860370,-0.255991880,0.418720780,10.923240660,-0.035373870,-0.059022010,0.081247090
1640836331.866740,-0.152369160,0.637476270,9.597730640,0.014872850,0.016848740,0.076787170
1640836331.867430,0.046250300,0.453373370,9.207139970,-0.054502480,-0.037184350,0.057324760
1640836331.869700,-0.220321540,0.333559360,10.232127190,-0.117601440,0.066781040,0.105156000
1640836331.870309,0.096783470,0.175990950,9.155898090,-0.081497430,0.064380470,0.064796220
1640836331.874950,-0.063175570,-0.057953220,10.270796780,-0.030514600,-0.052523620,0.056630380
1640836331.875700,-0.143485840,0.365872030,9.570440290,-0.016623740,0.066617130,0.081290300
1640836331.879750,-0.064240270,0.247275220,9.459551810,-0.092193490,-0.024895370,0.062367320
1640836331.880329,-0.423538000,0.179864500,10.473923680,-0.107263030,0.011858340,0.081506380
1640836331.884699,-0.001122960,0.351941790,8.778637890,-0.049150000,0.062784560,0.066097080
1640836331.885340,-0.014882560,0.205224170,9.989465710,-0.026582180,0.017610190,0.045301020
1640836331.889920,-0.162947090,0.426267360,10.026995660,-0.031615790,0.129026220,0.070679190
1640836331.890420,-0.021275850,0.213081880,9.428582190,-0.068360570,-0.048583750,0.059917570
1640836331.894830,-0.328135580,-0.087315090,10.019250870,-0.066532190,-0.042000420,0.069303810
1640836331.895660,-0.037863070,0.017825510,8.484807970,-0.029306120,0.100827220,0.059607630
1640836331.901209,-0.184619370,-0.235006680,10.015394210,-0.009414550,0.050276520,0.038486720
1640836331.902079,-0.445910160,-0.045663950,10.407716750,-0.006400050,0.085242090,0.063243520
1640836331.904700,-0.048256770,0.049482590,9.172853470,-0.017048420,-0.059376660,0.067828600
1640836331.906730,-0.421699320,-0.148770870,10.145027160,-0.022217630,-0.019694860,0.067411360
1640836331.909819,-0.320785550,0.198307100,9.154828070,0.001743440,0.086635360,0.057515510
1640836331.910570,-0.357518610,0.325424100,9.920081140,0.009329620,-0.051364310,0.048486890
1640836331.914780,-0.390365570,0.528587880,9.955633160,0.000579660,0.041167440,0.060571730
1640836331.916119,0.060457050,0.730776310,9.174370770,-0.024919210,0.014388560,0.046889480
1640836331.919700,-0.389190290,0.586837290,10.731670380,-0.025615100,-0.007270280,0.068935740
1640836331.920300,-0.207359670,0.544772920,9.625618930,-0.013570490,0.001804530,0.074858970
1640836331.924719,-0.172387990,0.429210660,9.588904380,-0.005306300,-0.088338550,0.054453310
1640836331.925340,-0.368561600,0.316996400,9.836321830,-0.022114820,0.051261480,0.060932330
1640836331.929770,-0.130930360,0.440145970,9.450613980,-0.053393850,0.020326670,0.070874400
1640836331.931239,-0.368091110,0.315942470,10.475497250,-0.068092350,-0.056105860,0.068077450
1640836331.934700,-0.061392660,0.191563140,9.410534860,-0.037410860,0.007112320,0.063245000
1640836331.935320,-0.091374650,0.479425820,9.630569460,-0.031115120,-0.030067570,0.051800910
1640836331.939720,-0.451797430,0.424947500,10.314238550,-0.063575800,0.027182690,0.075991460
1640836331.940280,-0.165991200,0.421544550,9.566548350,-0.089931490,-0.068256260,0.075702390
1640836331.944779,-0.124958730,0.362476140,9.726669310,-0.063233080,-0.047464670,0.064101820
1640836331.945520,0.075537130,0.337421300,9.298787120,-0.057728590,0.074510280,0.060868270
1640836331.949710,0.128822070,0.407707100,9.847159390,-0.061288480,0.013281400,0.073616210
1640836331.950300,-0.180208130,0.087715460,10.278655050,-0.057990850,0.001500550,0.069078810
1640836331.954800,0.019902210,-0.057484910,9.366232870,-0.050856170,-0.086492310,0.073236230
1640836331.955440,-0.277875040,-0.106162660,9.427312850,-0.027182700,-0.032903250,0.062933560
1640836331.959890,-0.202467340,-0.106468040,9.196726800,-0.062166150,0.064308930,0.052332870
1640836331.960960,-0.251780150,0.040016910,10.172746660,-0.054830310,0.022371110,0.044287740
1640836331.964710,-0.338769230,0.057937330,9.983396530,-0.015506150,-0.003555420,0.043627620
1640836331.966620,-0.125599830,0.125280800,9.345028880,-0.003089010,-0.085501380,0.051625080
1640836331.969709,-0.355850490,0.232964350,9.632313730,0.006541610,0.008174780,0.063699480
1640836331.970530,-0.132605140,0.115630510,9.319883350,-0.030790270,0.029170520,0.052984060
1640836331.974720,-0.124860530,0.112170140,10.109661100,-0.009843710,-0.022993980,0.071775910
1640836331.975340,-0.060521340,0.171663870,9.582085610,0.026930870,0.031143430,0.046896930
1640836331.979859,0.015671950,0.106701370,9.764398570,0.010454650,-0.045470900,0.046782190
1640836331.980630,-0.376805690,0.330838620,10.218765260,0.000925360,-0.015895060,0.060336290
1640836331.984700,-0.245821940,0.093701260,9.144481660,-0.011011960,-0.058536230,0.035785140
1640836331.985370,-0.429469170,0.124984960,9.882123950,0.013841690,-0.050309300,0.047823790
1640836331.989740,-0.423665200,0.444990220,9.541046140,0.039343540,0.066487500,0.036756690
1640836331.990330,-0.406867770,0.395006750,10.258177760,-0.019183760,-0.084008280,0.038962070
1640836331.994769,-0.341606080,0.634984140,10.084179880,-0.027863680,-0.063720350,0.073179600
1640836331.995590,0.128419090,0.373611900,8.873044970,-0.010845070,-0.013278430,0.036552550
1640836331.999830,-0.064126570,0.421358380,10.353072170,0.008487700,0.006091600,0.049787770
1640836332.000609,-0.071662700,0.679006930,9.933822630,0.006394090,0.012063980,0.060610480
1640836332.005299,0.073887850,0.249922020,9.639007570,-0.057376930,-0.154493780,0.035436460
1640836332.006640,-0.005573790,0.336095840,9.479115490,-0.047950450,-0.025516750,0.066730390
1640836332.010160,0.173085230,0.219911250,8.918498040,-0.019182260,0.068233910,0.044672190
1640836332.011000,-0.233789500,0.004942960,10.845179560,-0.015446540,-0.013087690,0.046414140
1640836332.014770,-0.330154360,0.199871670,9.994928360,0.012324750,-0.034901500,0.059427320
1640836332.015650,-0.134008090,-0.036406690,9.168790820,-0.020197030,-0.129394220,0.028879940
1640836332.020089,-0.345084460,0.190958130,9.499610900,-0.041159990,0.014370680,0.058455770
1640836332.020850,-0.013047860,0.260377290,8.711428640,-0.035606320,0.093519690,0.033257910
1640836332.024819,-0.218005850,-0.029817420,9.981287000,0.002591310,-0.043897330,0.006735330
1640836332.028470,-0.357989550,0.166980890,8.892570500,0.071258840,-0.051626570,0.039650500
1640836332.029749,-0.534010290,-0.240205480,8.021509170,0.041447590,-0.146152080,0.007809700
1640836332.030340,-1.523176070,-0.470830920,9.137241360,0.023262200,-0.124080490,0.025825200
1640836332.035090,-1.615955350,-0.570324300,7.956786630,0.054681300,-0.151009840,0.022071600
1640836332.037449,-1.615240220,-0.956712310,8.733334540,0.108797860,-0.236818220,0.014440720
1640836332.039810,-1.354813460,-0.688767490,8.672586440,0.180459020,-0.058679290,0.029158590
1640836332.040470,-0.518490970,-0.511816260,8.651544570,0.161358730,-0.163573040,0.018121300
1640836332.046059,-0.333007900,-0.200645790,9.424658780,0.149013120,-0.211304460,0.043898820
1640836332.046790,0.870227160,0.309378120,6.944002150,0.135611030,-0.197817430,0.013570490
1640836332.049880,0.725888670,0.512618360,8.135397910,0.144174670,-0.216598820,-0.010289250
1640836332.050890,0.697827460,1.060357090,7.716929910,0.173044170,-0.102402250,-0.000956650
1640836332.054999,0.402233480,1.072245000,8.125742910,0.131322440,-0.301730660,-0.019608440
1640836332.055869,-0.362532970,0.879880490,8.470345500,0.120535500,-0.207014380,0.001619760
1640836332.059720,-0.292910280,0.621406200,7.478663920,0.094023350,-0.220121430,-0.010229650
1640836332.060959,-1.223601940,0.028829290,9.138860700,0.130344940,-0.186936570,0.009998680
1640836332.064849,-0.687720480,-0.061579020,7.661255360,0.138996510,-0.182910280,0.003868340
1640836332.065620,-0.565451200,-0.372683320,8.248968120,0.122430930,-0.259950760,0.002233680
1640836332.069939,0.174998300,-0.341634450,7.429402350,0.115822260,-0.076439980,-0.004510580
1640836332.070690,0.629643980,-0.049625740,7.929269790,0.107000780,-0.160536180,-0.039161740
1640836332.074760,0.660263420,0.239012600,8.603779790,0.113540900,-0.133103130,-0.025051830
1640836332.076079,1.205021380,0.796189900,7.267656330,0.108560930,-0.196598470,-0.048707430
1640836332.080200,0.627481160,0.990139070,8.148321150,0.081002720,-0.148056450,-0.034073000
1640836332.081100,0.666944800,1.337340120,7.108317380,0.045475370,-0.063551970,-0.017327070
1640836332.085039,0.006394830,0.777050140,8.263462070,0.057232380,-0.161695500,-0.010921060
1640836332.085950,-0.219949620,0.578234550,7.700043680,0.097922980,-0.063382100,-0.017064810
1640836332.089860,-0.366621080,0.101789560,7.667337890,0.101493310,-0.144450370,-0.031960010
1640836332.090580,-0.781557680,-0.312292750,8.252544400,0.046241280,-0.055110450,-0.027701260
1640836332.094770,-0.192734320,-0.716381430,7.279213430,0.061930730,-0.097675640,-0.060962150
1640836332.098440,-0.318538580,-0.896863340,8.267233850,0.107674310,-0.063431260,-0.082689520
1640836332.100060,0.474211250,-0.394121710,7.086242200,0.145372760,-0.014373660,-0.076794630
1640836332.101369,0.255472900,-0.259593250,8.294454570,0.101692980,-0.087489200,-0.072062020
1640836332.104780,0.456858340,0.162593980,7.669633870,0.109604020,-0.038038190,-0.047844660
1640836332.106150,0.376089810,0.263548700,7.653482440,0.131411870,-0.146818160,-0.071801250
1640836332.110220,0.177756560,0.526132460,7.628479480,0.151444970,0.001010300,-0.077982250
1640836332.111630,0.094784230,0.824588420,7.785914900,0.142794860,-0.020255150,-0.092655420
1640836332.114960,-0.490906570,0.752322200,8.619852070,0.089482960,-0.040321060,-0.086422260
1640836332.116550,-0.390784260,0.566011430,7.647721290,0.099381820,-0.112286230,-0.084026180
1640836332.119799,-0.725057900,0.050006600,7.658889290,0.129832370,-0.082899640,-0.089834650
1640836332.120910,-0.589224100,-0.051030750,7.676115040,0.176867860,-0.014872850,-0.076787170
1640836332.124830,-0.589176710,-0.171665390,8.228410720,0.136241330,-0.038573150,-0.088451810
1640836332.126400,-0.139179350,-0.259519640,8.241663930,0.091293460,-0.082375090,-0.080819430
1640836332.129760,0.085778810,-0.255116580,8.133311270,0.122447330,-0.051532690,-0.106969500
1640836332.130790,0.296770010,0.064745690,8.014685630,0.149486970,-0.062158710,-0.120811180
1640836332.134709,0.103314590,0.606971440,8.392289160,0.148496050,-0.062225760,-0.120984030
1640836332.135330,0.192862150,0.773819920,7.737971780,0.083366040,-0.094468900,-0.122463710
1640836332.139690,-0.063673900,1.050852300,8.110994340,0.075778370,-0.091007350,-0.111976270
1640836332.140319,-0.015060750,1.076893930,7.729895590,0.081571940,0.005285440,-0.103327650
1640836332.144709,-0.294582370,1.018448110,8.695159910,0.064978010,-0.075587630,-0.094613440
1640836332.145530,-0.316492740,0.590633630,8.211195950,0.084184100,-0.038754930,-0.105716270
1640836332.149720,-0.237315980,0.314768490,8.021813390,0.052037840,-0.120081010,-0.136885060
1640836332.150329,-0.450123610,0.048568270,8.324707030,0.052148110,-0.015497210,-0.114783640
1640836332.154680,-0.037894710,-0.340231450,7.853078840,0.027294460,-0.077210370,-0.140081350
1640836332.156440,-0.209361240,-0.402104620,8.681104660,0.064334280,-0.055933000,-0.150059160
1640836332.160110,0.394786630,-0.195419180,7.522437570,0.078934420,-0.010070200,-0.139234930
1640836332.160730,0.061601070,-0.183860320,8.878726960,0.077833220,-0.061309330,-0.137183060
1640836332.165220,0.148058310,0.253420050,8.289319040,0.073733930,-0.017988680,-0.136627260
1640836332.166649,0.043275960,0.447918120,8.242881770,0.049349670,-0.149245550,-0.146493330
1640836332.169839,-0.095615820,0.483469010,8.161168100,0.075279180,-0.007820130,-0.150366140
1640836332.171370,-0.007739030,0.687548220,7.917191980,0.071091950,0.002315640,-0.196830970
1640836332.174710,-0.538034680,0.505226670,9.404982570,0.080765790,-0.037704410,-0.184291620
1640836332.176810,-0.344237770,0.529280010,8.236298560,0.065049540,-0.085024550,-0.181454450
1640836332.179750,-0.352839860,0.092747370,8.286807060,0.044015050,-0.116874290,-0.178848210
1640836332.180300,-0.320082370,-0.096066330,8.463275910,0.066143280,0.033038860,-0.156953930
1640836332.184710,-0.146275150,-0.271091310,8.584927560,0.099219380,-0.029471520,-0.192576650
1640836332.185360,-0.229257550,-0.239093930,9.341685300,0.103466240,-0.097376110,-0.172881780
1640836332.189689,0.259779130,0.115129000,7.908950810,0.069235260,-0.044311580,-0.172555460
1640836332.190389,0.157381240,0.175900090,8.834672930,0.036841630,-0.059185930,-0.191928450
1640836332.194900,-0.112256320,0.726435720,8.968470570,0.048036870,0.010399520,-0.191695990
1640836332.196489,-0.002881320,0.825813290,8.637603760,0.054056940,-0.121809550,-0.204287480
1640836332.199820,-0.458258240,0.925003290,9.142125130,0.064328310,-0.094465920,-0.201751320
1640836332.201280,-0.079133250,1.233189340,7.857657910,0.025311110,-0.015665590,-0.197213890
1640836332.204800,-0.362597610,0.832324500,9.374586110,-0.035241250,-0.035966930,-0.180958230
1640836332.205619,-0.076280500,0.489008490,8.897910120,-0.002473590,0.020027160,-0.180388960
1640836332.210140,0.232045750,0.031712110,8.659542080,0.051262980,-0.092107080,-0.208619270
1640836332.211059,-0.069193180,-0.248924880,8.978143690,0.078865890,-0.014328960,-0.194221740
1640836332.214730,0.162051480,-0.203536330,8.282403950,0.000458960,-0.030949720,-0.201585900
1640836332.215380,-0.221685830,-0.526375590,9.209625240,-0.035092230,-0.092408050,-0.210045260
1640836332.219689,-0.008154540,-0.345620420,8.444578170,0.021830200,-0.015454000,-0.228589790
1640836332.220360,-0.026538880,0.114162360,8.727821350,0.079253320,-0.014656780,-0.255438720
1640836332.224710,-0.321390750,0.471459900,9.611887930,0.061352550,0.004646180,-0.226300930
1640836332.226410,-0.246075170,0.958890200,9.073025700,-0.010605160,-0.076742480,-0.227725520
1640836332.229760,-0.301992680,0.685285750,8.738994600,-0.018908080,-0.115188960,-0.226679440
1640836332.230330,-0.214504610,0.592891040,8.530365940,0.029473000,0.018237530,-0.231960420
1640836332.234789,-0.142391550,0.478524210,8.852050780,0.085936490,0.033058230,-0.252580640
1640836332.235590,-0.433341680,0.300320300,9.925896640,0.034737590,-0.073806940,-0.253894930
1640836332.239740,0.024976780,0.325355980,8.665431020,-0.036239630,-0.080767290,-0.235265540
1640836332.240460,-0.049133080,-0.242654770,8.906902310,-0.026139620,-0.051176550,-0.242495550
1640836332.245350,-0.275264650,-0.207037230,9.583293910,0.039941070,0.031434000,-0.248281690
1640836332.247000,-0.201555830,0.152819570,9.237971310,0.089849520,-0.084519390,-0.250402030
1640836332.249689,-0.380761500,0.276366860,9.345170970,-0.007611510,-0.122749810,-0.252701340
1640836332.250340,0.076822210,0.539976660,8.365846630,-0.048661230,-0.025242570,-0.242385270
1640836332.254740,-0.104254030,0.606112960,9.297454830,-0.025653840,0.006297230,-0.276638600
1640836332.255720,-0.098396720,0.779512290,9.701161380,0.019200150,-0.004769860,-0.258953900
1640836332.259760,0.025344190,0.816916290,9.388188360,0.041449070,-0.108139200,-0.256316390
1640836332.261459,-0.063290300,0.519740880,8.939826970,-0.016012790,-0.064732140,-0.257116620
1640836332.264760,0.150223170,0.401501450,8.825638770,-0.058943040,-0.021253530,-0.221806780
1640836332.265659,-0.099043910,-0.060855440,9.344361310,-0.033183400,0.056087980,-0.237287630
1640836332.269750,0.046497940,-0.412486910,9.324651720,0.019440060,-0.060991940,-0.268718630
1640836332.270380,-0.177840860,-0.193316190,9.382040020,0.062407550,-0.082066660,-0.261969800
1640836332.275009,-0.037337890,-0.242152850,8.355669020,-0.004020330,-0.010332470,-0.280970360
1640836332.276909,-0.365961340,-0.099344910,9.814245220,-0.051717460,-0.046999750,-0.275921790
1640836332.283870,-0.368185100,0.196010960,9.344797130,0.000423190,0.026915970,-0.288246570
1640836332.284580,-0.011121290,0.171079610,9.055843350,0.042887040,-0.094583620,-0.294889450
1640836332.284999,-0.304625000,0.577066540,9.646975520,0.088356440,0.029022990,-0.257235800
1640836332.285800,0.122184250,0.613345740,8.658852580,0.020828840,-0.005170700,-0.267013940
1640836332.289880,-0.199812990,0.317522380,10.124554630,-0.025691100,-0.083450980,-0.243248080
1640836332.291370,0.135996910,0.225950780,8.794462200,0.030951200,0.050318240,-0.263163450
1640836332.295100,0.150662210,-0.138462770,9.415717120,0.067605090,-0.054301330,-0.299109550
1640836332.295740,-0.326318530,0.100440900,10.113213540,0.098282120,0.036792460,-0.290547310
1640836332.299770,0.016172070,0.307539760,8.895640370,-0.000131130,-0.055642430,-0.320830940
1640836332.300340,-0.440466080,0.196547640,9.935445790,-0.049656640,-0.082100930,-0.290833440
1640836332.304860,-0.275018010,0.335027640,8.878716470,0.033065670,0.041382010,-0.293864250
1640836332.305580,-0.280541870,0.411986710,9.449684140,0.082148610,-0.029791900,-0.320069520
1640836332.310190,-0.495434050,0.674468160,10.210417750,0.071957710,-0.010298190,-0.280104580
1640836332.311600,0.146298210,0.745569650,9.038702010,-0.025025010,-0.033766030,-0.272507970
1640836332.314780,0.218808810,0.417979390,9.488192560,-0.048668690,-0.011496250,-0.283275570
1640836332.315570,0.327434990,0.334777000,9.620055200,0.018163030,0.080503520,-0.290095810
1640836332.319779,0.328559910,0.223495190,9.494128230,0.063148150,0.010415910,-0.303216310
1640836332.320320,0.092690700,-0.105377060,9.820691110,0.061456870,-0.075888640,-0.299306210
1640836332.324940,0.072763150,-0.018703290,8.969846730,0.001367930,0.015063590,-0.292974710
1640836332.327210,0.075208700,-0.002311390,8.788469310,-0.030754510,0.046749420,-0.301618840
1640836332.330360,-0.348119440,-0.176255490,10.265996930,0.012771780,0.077331050,-0.300514670
1640836332.331669,-0.286619100,0.067602830,9.588274000,0.104619580,0.036719440,-0.323848520
1640836332.334740,-0.388654560,0.127512890,9.510801320,0.113387420,-0.085522260,-0.331683460
1640836332.335790,-0.465108360,0.373524490,9.190793040,0.031933190,0.024685260,-0.313441460
1640836332.339789,-0.164392740,0.448637630,8.900939940,-0.016966460,0.063967700,-0.317171250
1640836332.340350,-0.324649960,0.134669800,10.307259560,0.037769980,0.040705510,-0.341685120
1640836332.344699,0.115445090,0.474311890,9.516565320,0.123406950,0.010588770,-0.324055550
1640836332.345360,0.378194480,0.366837860,9.308724400,0.122772140,0.009331110,-0.320266160
1640836332.349720,0.134601440,0.180681320,9.878550530,0.029684610,0.075209150,-0.304280220
1640836332.350450,0.159754410,0.112675750,9.710790630,0.026632850,0.011870270,-0.303752720
1640836332.354859,-0.109627060,-0.188556640,9.581301690,0.080288940,-0.011293590,-0.330227580
1640836332.355880,-0.203386320,-0.013097370,9.344914440,0.123973190,0.015218560,-0.343668490
1640836332.360040,-0.493783000,0.474864990,9.798131940,0.092746320,0.061038140,-0.358143480
1640836332.360659,-0.635329900,0.600450220,9.842394830,0.001657010,-0.001510980,-0.352925060
1640836332.364960,-0.501940670,0.634158970,9.932666780,0.009523330,-0.027793650,-0.325049460
1640836332.365919,-0.338221760,0.700562660,9.410179140,0.089375690,0.067578280,-0.352595840
1640836332.369820,-0.280491560,0.764216180,9.980875020,0.096714500,-0.010114910,-0.337472590
1640836332.371140,-0.118944820,0.914543870,10.036522870,0.035184630,0.022768980,-0.304579790
1640836332.374709,0.454159080,0.356259910,8.942870140,-0.028696660,0.012327730,-0.331261780
1640836332.375409,0.408110590,0.021286910,9.978835110,0.022107360,0.041946770,-0.325691730
1640836332.379750,0.454339120,0.125227570,9.542280200,0.098131600,0.127017510,-0.350114700
1640836332.380329,-0.011046960,-0.068752410,10.292867660,0.048887740,-0.065594910,-0.358957080
1640836332.384699,-0.283805670,0.036945060,9.904967310,0.003254410,-0.025132300,-0.328694310
1640836332.385360,-0.127533720,-0.076108250,8.585348130,0.008289520,0.037322940,-0.369258220
1640836332.389750,-0.621747730,0.044209510,10.175610540,0.049191720,0.079542420,-0.352698560
1640836332.390410,-0.508421120,0.398014990,9.816094400,0.106878600,0.092598820,-0.358285070
1640836332.394950,-0.473099770,0.466835080,9.766038890,0.065939130,-0.082761060,-0.373131040
1640836332.396540,-0.298026620,0.560337420,9.545093540,0.014102460,-0.012351570,-0.323526560
1640836332.400470,0.054063070,0.262157950,9.072554590,0.038312380,0.100067270,-0.345605610
1640836332.404810,-0.140004740,0.062472870,10.489082340,0.093153140,0.045093910,-0.369685950
1640836332.405439,0.120251110,0.182486150,10.126933100,0.137570500,0.001777710,-0.351791080
1640836332.405969,0.316255750,0.137461040,9.305570600,0.069431970,-0.003395970,-0.355347990
1640836332.409780,0.224382940,0.004013030,9.666984560,0.018863380,0.053580120,-0.347422060
1640836332.410359,-0.113850500,0.048244980,10.222427370,0.067026910,0.058107090,-0.341978760
1640836332.414710,-0.225071850,0.141037390,9.699865340,0.115673270,0.007711350,-0.365333290
1640836332.415360,-0.345221550,0.260559650,9.876515390,0.120049730,-0.030884150,-0.363355960
1640836332.419770,-0.536153440,0.692965870,9.758434300,0.069873060,0.079932810,-0.345933470
1640836332.420420,-0.288902010,0.740035360,9.542730330,0.008247790,0.056959700,-0.353506210
1640836332.424739,-0.479976740,0.706458390,10.747662540,0.022436680,0.017738350,-0.343500170
1640836332.425390,-0.159759520,0.687474610,9.468035700,0.092911730,0.049887610,-0.358048140
1640836332.429750,0.130193620,0.412323830,9.512184140,0.122138870,-0.037750590,-0.369976490
1640836332.430320,-0.149606700,0.526960310,10.099720950,0.056180360,0.086472940,-0.333102050
1640836332.435320,0.404373380,0.197198580,9.179859160,-0.018826130,0.060826540,-0.340822370
1640836332.436280,0.182071250,-0.460103900,10.507271770,0.036744780,0.009295350,-0.359462260
1640836332.439900,0.230192110,-0.131626310,9.531281470,0.141291340,0.101639330,-0.360001650
1640836332.440410,0.183466460,-0.154142920,9.576033590,0.129644570,0.020334120,-0.355646040
1640836332.445410,-0.542909030,-0.064156770,10.549005510,0.055193900,0.034871700,-0.342501730
1640836332.447340,-0.341629270,0.153891730,9.132452010,0.031489140,0.011862810,-0.348222320
1640836332.449720,-0.501856330,-0.007605630,9.586164470,0.096455230,0.018367170,-0.369927290
1640836332.450389,-0.613905790,0.395978390,9.883434300,0.154668110,0.133433950,-0.381818410
1640836332.454720,-0.323357580,0.778860330,10.048009870,0.136065480,0.039534270,-0.379689040
1640836332.455400,-0.419060410,0.627543150,10.394142150,0.068283100,-0.020687290,-0.360776540
1640836332.459730,0.009479560,0.484816820,9.477989200,0.059704490,0.021721420,-0.341020550
1640836332.461290,0.009635340,0.294522700,9.748142240,0.124275710,0.065667950,-0.357724730
1640836332.464740,-0.108564070,0.193855200,10.228363990,0.160326080,0.048252950,-0.360596270
1640836332.465760,0.065587660,0.295117020,10.071661950,0.113841890,-0.009308760,-0.345385100
1640836332.469760,0.140466910,0.092039340,9.465228080,0.066208860,0.040583320,-0.351564680
1640836332.470360,-0.022516980,0.022760690,10.081057550,0.078046330,0.032253570,-0.366067890
1640836332.474799,-0.160719900,0.443683650,10.218101500,0.110107680,0.081285860,-0.360851050
1640836332.476130,-0.303709660,0.463323530,9.980129240,0.114107120,-0.000329320,-0.383919450
1640836332.479810,-0.509305780,0.632324870,10.351261140,0.081634540,-0.029024490,-0.359968900
1640836332.480480,-0.228448120,0.892696920,9.051674840,0.082136690,0.065344570,-0.337222250
1640836332.485080,-0.275176580,0.608460610,10.013922690,0.050288450,0.031992790,-0.351347060
1640836332.485790,-0.139342980,0.625612800,10.228297230,0.067536530,0.097969170,-0.334168970
1640836332.489719,0.199837800,0.330987930,9.476802830,0.125834350,0.014033920,-0.361891150
1640836332.490340,0.002204930,0.100252110,10.435587880,0.090967130,0.009003280,-0.352965380
1640836332.494720,0.184416010,0.210757480,9.547721860,0.054194040,0.076518960,-0.337104500
1640836332.495390,-0.007113830,-0.307749690,9.960087780,0.051060330,0.006790460,-0.377787680
1640836332.499940,-0.074991640,-0.136520910,9.903608320,0.091032690,0.043773650,-0.369374540
1640836332.500569,0.082411630,0.024014500,9.303419110,0.147965570,0.084124510,-0.359714030
1640836332.504700,-0.339806020,-0.097162020,10.449012760,0.118595370,0.059698530,-0.378590850
1640836332.505380,-0.308320610,0.329998790,10.123520850,0.091093800,0.009758770,-0.341939930
1640836332.510020,-0.248968560,0.248976630,9.541172980,0.100961350,0.019094350,-0.342206690
1640836332.510419,-0.257981120,0.220104470,9.788083080,0.119408970,0.093840060,-0.379160080
1640836332.514850,-0.308872610,0.706861730,10.360299110,0.160272430,0.061018760,-0.362120600
1640836332.515640,-0.199928600,0.854405400,9.950071330,0.107993200,0.027927760,-0.374180170
1640836332.519739,0.178335800,0.636861500,9.634039880,0.037159030,0.009740890,-0.366634160
1640836332.520399,0.001902460,0.542780940,10.166068080,0.105302050,0.112320500,-0.347372980
1640836332.524799,0.093937440,0.350758790,9.873559950,0.143675510,0.091168280,-0.364571810
1640836332.525410,-0.192786080,0.203148980,10.675287250,0.124444070,-0.032946470,-0.338979100
1640836332.529870,-0.175326990,0.261360470,9.578594210,0.074769560,0.057645130,-0.333070730
1640836332.530599,0.098433700,-0.071416030,9.268197060,0.042280550,0.048486900,-0.361853930
1640836332.534770,-0.311823550,0.224121700,10.792996410,0.080463290,0.115880380,-0.360298160
1640836332.535380,-0.079335980,0.397192930,9.800445560,0.099833320,0.102192180,-0.381065910
1640836332.539719,-0.178448200,0.262267140,10.348898890,0.110898920,-0.055980680,-0.389555130
1640836332.540340,-0.307756480,0.742680190,9.813467030,0.091673460,0.075899090,-0.352200930
1640836332.544730,0.153153050,0.530890170,8.902690890,0.042158370,0.077807910,-0.358025730
1640836332.545509,-0.204159930,0.249423650,10.711720470,0.049047170,0.086256870,-0.352714990
1640836332.549719,0.021361650,0.336354940,9.826376910,0.125081840,0.113150500,-0.361460450
1640836332.550419,0.192694930,-0.011389640,9.777311330,0.135864330,0.001023710,-0.370790060
1640836332.554760,-0.270092400,0.036545970,10.465813640,0.092233720,0.083523990,-0.358812540
1640836332.555869,-0.138068560,0.013437250,9.499629970,0.053536890,0.071278220,-0.380830500
1640836332.559860,-0.382524160,-0.260572080,10.152930260,0.087349120,-0.008897480,-0.403048100
1640836332.561630,-0.362848010,0.010314670,9.705615040,0.153809790,0.108172000,-0.399789240
1640836332.565070,-0.143446620,0.190832870,9.687074660,0.159080330,0.100798930,-0.401139320
1640836332.566020,-0.512490930,0.397766200,10.804096220,0.110262640,0.036405030,-0.389279430
1640836332.569749,-0.229509040,0.560633180,9.971748350,0.067268310,0.013247130,-0.361189250
1640836332.570410,-0.084754040,0.396053340,9.663681980,0.095644620,0.039118540,-0.367111030
1640836332.575019,-0.313806380,0.450862200,10.292651180,0.168263910,0.084854670,-0.391201670
1640836332.576229,-0.160310820,0.743420660,10.285873410,0.138546540,0.039966400,-0.380158420
1640836332.579759,0.011826830,0.775439140,9.760671620,0.065003350,0.029227140,-0.375899730
1640836332.580400,0.028606530,0.400564220,10.136317250,0.037132200,0.024624170,-0.380985470
1640836332.584720,0.009987910,0.401121230,10.134981160,0.093887770,0.104656830,-0.389987320
1640836332.585399,-0.106779340,0.454535100,10.029536250,0.129807000,0.030434140,-0.397788080
1640836332.589710,-0.412036390,0.251697240,10.732150080,0.087998810,-0.019216540,-0.377894970
1640836332.590360,-0.143481670,0.372496900,9.383425710,0.044465080,0.055350370,-0.374154810
1640836332.594950,-0.162460250,0.190340100,9.816956520,0.048467520,0.029891730,-0.379639860
1640836332.595919,-0.177335170,0.273559270,10.506559370,0.069232290,0.134384630,-0.373292030
1640836332.599939,0.120367590,0.470422800,9.883558270,0.103083250,0.065913800,-0.383362170
1640836332.600580,-0.011652160,0.166318520,10.480489730,0.095425570,-0.020018230,-0.374156300
1640836332.604760,0.090520500,0.312665640,9.563720700,0.075091420,0.076596450,-0.374197960
1640836332.606619,0.052200190,0.325649560,9.552750590,0.061258680,0.049711770,-0.382186530
1640836332.609730,-0.154530820,0.017573100,10.352258680,0.050915780,0.090792780,-0.385625660
1640836332.610420,0.028087530,0.201156410,9.777143480,0.102558750,0.090575230,-0.396704670
1640836332.614760,-0.239300650,0.161195220,10.228816030,0.134886790,0.032749760,-0.395712290
1640836332.615480,-0.327408940,0.079187800,10.009861950,0.094465930,0.048799820,-0.372853930
1640836332.619690,-0.373417940,0.244931920,9.882135390,0.082209710,0.039930650,-0.377269090
1640836332.620360,-0.439476970,0.064584310,10.054916380,0.084176660,0.074326990,-0.394472510
1640836332.625079,-0.206098840,0.228101020,9.960926060,0.121581570,0.048869850,-0.394195320
1640836332.626459,-0.145860360,0.595396640,10.237960820,0.145308670,0.084936630,-0.395928350
1640836332.629779,-0.051420040,0.683468400,10.151367190,0.073851630,0.053606930,-0.400315170
1640836332.630380,-0.022869550,0.661014320,10.421911240,0.047858070,0.000174340,-0.357815710
1640836332.634729,0.063384540,0.493327770,9.752673150,0.098864730,0.087015340,-0.377407670
1640836332.637679,0.038290690,0.307485520,10.082956310,0.134620070,0.051191450,-0.377342130
1640836332.639770,-0.294286760,0.651306030,10.690865520,0.107546170,0.072979930,-0.351660010
1640836332.641970,-0.097362620,0.551494660,9.623772620,0.011713800,0.021865960,-0.365263250
1640836332.645550,-0.177332760,0.102468480,10.148891450,0.019653140,0.007592140,-0.353927880
1640836332.647580,-0.278660390,0.402906690,9.936579700,0.110429530,0.146012020,-0.385321710
1640836332.649740,-0.315557990,0.383969600,10.256247520,0.105951740,0.022415820,-0.388762350
1640836332.650370,-0.453177330,0.504274490,10.696773530,0.041270260,-0.014463070,-0.352169600
1640836332.654700,-0.028185440,0.642492180,9.189792630,0.004298990,0.054973380,-0.374212920
1640836332.655380,0.031212790,0.299356970,10.007653240,0.007818640,0.059372190,-0.367669820
1640836332.660050,0.044032200,0.536635340,10.438026430,0.081488500,0.138589740,-0.346660640
1640836332.660519,0.269029590,0.356986020,10.011041640,0.104637460,0.024285920,-0.371141820
1640836332.664719,0.002906370,0.083370630,10.485786440,0.052270300,-0.021259490,-0.342898100
1640836332.665390,0.047790780,0.289105680,9.411750790,0.027802590,0.062499940,-0.349369650
1640836332.669760,0.000956630,-0.063947220,9.525353430,0.012554230,0.071738670,-0.375999510
1640836332.670359,-0.323815290,-0.024015270,10.613762860,0.060290100,0.101338330,-0.380681480
1640836332.675449,-0.233547180,0.238724310,9.976444240,0.124880680,0.060868260,-0.392034680
1640836332.677350,-0.300840970,0.195598690,9.966848370,0.086325410,-0.006751720,-0.379298630
1640836332.681229,-0.461256920,0.383004100,10.135462760,0.033305590,0.057530410,-0.358179300
1640836332.682000,-0.323037740,0.337039440,9.845898630,0.034569220,0.076164330,-0.369659130
1640836332.686679,-0.291508380,0.133354980,10.127095220,0.087261220,0.020092730,-0.371731910
1640836332.687300,-0.168161030,0.349759460,10.124371530,0.145025550,0.059282780,-0.369927320
1640836332.689770,-0.009008500,0.542995630,9.895447730,0.083786260,0.082609070,-0.371767610
1640836332.690460,-0.127282740,0.439200640,10.463606830,0.010524690,0.002038480,-0.366784660
1640836332.694680,-0.223754300,0.379579190,10.447061540,0.038723650,0.016105180,-0.372038720
1640836332.695370,-0.041775480,0.390313210,9.459790230,0.092317160,0.022584200,-0.380715700
1640836332.699679,-0.230761660,0.562765060,10.281510350,0.106081370,0.019416210,-0.384891030
1640836332.700349,-0.299202980,0.944086610,10.370835300,0.019004940,0.086793300,-0.362172750
1640836332.704749,-0.042533290,0.723853410,9.720371250,-0.042766340,0.006738310,-0.350293550
1640836332.705410,-0.256718640,0.402650590,10.667761800,0.020241740,-0.008919840,-0.362274110
1640836332.710029,-0.214338300,0.692122940,9.888310430,0.073605780,0.081460190,-0.372950730
1640836332.710719,-0.218474450,0.625978110,10.030554770,0.028561060,-0.038453940,-0.364694030
1640836332.714720,-0.278824090,0.443591360,10.504757880,-0.048747670,0.024865570,-0.350707770
1640836332.715420,0.205464570,0.372955050,9.246746060,-0.045892600,0.094869760,-0.362850820
1640836332.719820,0.112106850,0.170638070,10.466062550,0.014734270,0.021839140,-0.373919310
1640836332.720379,-0.074573930,0.322746630,10.488187790,0.033181910,0.080430510,-0.359530780
1640836332.725350,0.119382190,0.261929150,9.569056510,-0.010403990,-0.035630170,-0.363960860
1640836332.725999,-0.257712450,-0.038613960,10.333041190,-0.026685000,-0.021527710,-0.357584690
1640836332.729669,-0.143476810,0.188380660,9.395482060,-0.013129410,0.109092890,-0.372973050
1640836332.730360,-0.220038040,0.189582740,10.139528270,0.004932280,0.053319340,-0.383502270
1640836332.734740,-0.625384450,0.277709280,10.946595190,0.014130770,0.039584940,-0.389295820
1640836332.735420,-0.285086070,0.436072320,9.678647990,0.017018620,-0.057429080,-0.369851290
1640836332.739830,-0.332662400,0.289437320,9.767728810,0.013838710,-0.013397640,-0.373891030
1640836332.740360,-0.277158560,0.320144620,10.036856650,-0.002156200,0.105163460,-0.385402080
1640836332.744760,-0.152876730,0.425058870,10.599018100,-0.002694130,0.035879020,-0.375477970
1640836332.745430,-0.092838730,0.347866090,10.531583790,0.012746460,-0.011469430,-0.386817840
1640836332.749670,0.045044850,0.367236610,9.925475120,0.017763680,-0.043189540,-0.380227030
1640836332.750350,-0.084213690,0.544913470,9.993502620,-0.001853700,0.023032730,-0.368231530
1640836332.755100,-0.127781360,0.461972560,9.951569560,-0.032268460,0.033959750,-0.378458200
1640836332.756440,-0.362294320,0.331890430,10.744771000,-0.017607210,-0.025767090,-0.366136460
1640836332.760020,-0.308865040,0.502261280,10.107285500,0.026081510,0.002609190,-0.379383650
1640836332.760640,-0.324544640,0.500095840,10.136704440,-0.001427530,-0.056612490,-0.387232040
1640836332.766389,-0.414903190,0.718828980,10.419638630,-0.071832550,0.025153170,-0.348658920
1640836332.767949,-0.024183750,0.593095060,9.604117390,-0.084033620,0.033286210,-0.370299880
1640836332.769729,-0.191855300,0.222108140,10.601439480,-0.016246740,-0.049009920,-0.374156270
1640836332.770619,-0.055422670,0.640358630,9.907114030,0.028359900,0.015759470,-0.368393960
1640836332.774760,-0.065240540,0.518091860,9.771507260,-0.044015050,-0.052522130,-0.371442740
1640836332.775440,-0.225362350,0.129822790,10.580433850,-0.123408440,-0.037430230,-0.355780150
1640836332.779729,0.136110800,0.236410770,9.506159780,-0.055281830,0.063729290,-0.375218750
1640836332.780409,-0.029469960,-0.135700550,10.472752570,0.023436550,-0.010730330,-0.379179450
1640836332.784690,-0.255561380,0.161815760,10.717325210,0.011566280,0.002114470,-0.362212990
1640836332.785630,-0.097085250,0.353726480,9.563243870,-0.048153100,-0.075177860,-0.375096530
1640836332.789749,-0.353975920,-0.229551810,10.055212020,-0.073406120,-0.066013650,-0.368227150
1640836332.790360,-0.346897130,0.120645190,9.724026680,-0.001627210,0.047805900,-0.388750400
1640836332.794730,-0.252451420,0.377122910,10.207177160,0.040361290,0.003737210,-0.407086310
1640836332.795519,-0.394613770,0.532836080,10.977146150,-0.038790700,-0.035208460,-0.394620000
1640836332.799770,-0.000821290,0.878289820,9.974663730,-0.075595090,-0.056168440,-0.376319920
1640836332.800890,0.013798260,0.486274990,9.972015380,-0.048704450,-0.025361780,-0.367817310
1640836332.806110,-0.164625030,0.401818690,10.308753970,0.013712050,0.011025370,-0.366939660
1640836332.806980,-0.125006680,0.688392460,10.192215920,0.012648110,-0.038972500,-0.361102820
1640836332.810060,-0.195283770,0.422324840,10.070407870,-0.086131690,-0.061362990,-0.351096690
1640836332.810480,-0.034411680,0.124584530,9.947478290,-0.103782130,-0.039160260,-0.354330330
1640836332.814710,-0.010841070,0.225298140,10.108103750,-0.027740010,0.037461520,-0.380425240
1640836332.815410,-0.165172550,0.240475310,10.387847900,-0.018228590,-0.016006830,-0.397028060
1640836332.819759,-0.223548990,0.291301820,10.597605710,-0.045104330,-0.083120170,-0.373601940
1640836332.820380,-0.117245790,0.299409810,9.616192820,-0.062723460,-0.033566360,-0.372946350
1640836332.824710,-0.081606200,0.188775390,9.668759350,-0.064788760,-0.045564770,-0.377653540
1640836332.825410,-0.175910190,0.377420960,10.442742350,-0.049072520,0.029885770,-0.371587280
1640836332.829739,0.043702510,0.325427110,9.756531720,-0.029659270,0.026991970,-0.376759530
1640836332.830360,-0.063120910,0.106017400,10.553133010,-0.010494890,-0.090420250,-0.362795530
1640836332.834699,-0.040727430,0.380234990,10.083560940,-0.019189720,0.006510320,-0.353372100
1640836332.835440,0.009642770,0.229466840,9.478723530,-0.063712900,-0.024890900,-0.364214240
1640836332.839840,-0.269442920,-0.007778840,10.764368060,-0.047421460,-0.030541420,-0.370796050
1640836332.840829,-0.131810370,0.273936420,9.825467110,0.008581580,0.037926440,-0.390057300
1640836332.847100,-0.070631220,0.307942540,9.881148340,0.008659060,-0.061438970,-0.391715740
1640836332.847669,-0.315600220,0.550683860,10.685235980,-0.042898950,-0.002518300,-0.372807650
1640836332.849820,-0.153441730,0.745370510,9.713931080,-0.076989850,-0.003497300,-0.372146160
1640836332.850540,-0.244758350,0.433121290,10.524146080,-0.057402260,-0.081919160,-0.358410240
1640836332.854720,-0.271214570,0.570401790,10.418515210,0.007371600,0.028285390,-0.349637870
1640836332.855419,-0.082641210,0.713010130,9.772103310,0.003336370,-0.030535460,-0.357969160
1640836332.859740,-0.195423170,0.701243280,10.568039890,-0.099438440,-0.058500480,-0.342279670
1640836332.860350,-0.017890470,0.524377880,9.838385580,-0.134375710,0.022295120,-0.342291590
1640836332.864660,0.164333180,0.152028840,9.861598970,-0.050631170,-0.019669540,-0.372262360
1640836332.865430,-0.051845200,0.238933700,10.553442960,0.020492080,-0.004068020,-0.381436880
1640836332.869760,-0.067719940,0.516869660,10.141307830,-0.051583360,-0.037987530,-0.359782640
1640836332.870380,-0.184994190,0.295730080,10.201204300,-0.144694760,-0.065156820,-0.341717900
1640836332.874859,-0.210775300,-0.037654770,9.940720560,-0.102487220,-0.020205980,-0.362718160
1640836332.876400,-0.133460330,0.050006140,9.777387620,0.008557740,0.003722310,-0.365599990
1640836332.879840,-0.149234950,0.266011150,10.149235730,0.021372740,0.036844610,-0.364415350
1640836332.880400,-0.277083840,0.236538380,10.576720240,-0.062361370,-0.052025930,-0.358907940
1640836332.884830,-0.223505200,0.197586460,10.182919500,-0.099250690,-0.077980760,-0.335636790
1640836332.886020,-0.023414000,0.057092890,9.354164120,-0.048391530,-0.010825700,-0.359304310
1640836332.889649,-0.220180260,0.022966350,10.443275450,0.023597480,0.009036070,-0.371064250
1640836332.890360,-0.229706940,0.396681960,10.435996060,0.025565930,0.031442940,-0.371617110
1640836332.894760,-0.039496430,0.438082720,10.002817150,-0.042574120,-0.093145680,-0.370657530
1640836332.895409,-0.191604200,0.252783720,10.439689640,-0.076282030,-0.053827460,-0.333859030
1640836332.899890,-0.056392350,0.338297610,9.722085950,-0.009019670,0.032819810,-0.353908540
1640836332.900560,-0.304744810,0.163651050,10.621254920,0.047245620,-0.064784290,-0.369745460
1640836332.904670,-0.415156840,0.399468150,10.632153510,0.018113850,-0.043503940,-0.350789670
1640836332.905640,-0.011197140,0.561469670,9.492333410,-0.038750470,-0.043623150,-0.361692910
1640836332.909760,-0.286824970,0.418457060,10.672183040,-0.073960450,-0.035144390,-0.361165430
1640836332.910380,-0.122011370,0.852418900,10.229013440,-0.057469320,0.032256550,-0.359690280
1640836332.914850,0.016206930,0.665545640,10.186001780,-0.011090940,-0.066474090,-0.368642870
1640836332.916489,-0.164934740,0.526250420,10.567292210,-0.007092950,-0.058239710,-0.351420040
1640836332.919809,0.116495600,0.918797970,9.577994350,-0.045733160,0.005245210,-0.335106280
1640836332.920450,-0.069615390,0.552110730,10.347958560,-0.105476400,-0.038220000,-0.320501690
1640836332.924759,-0.040326210,0.249915390,10.432089810,-0.114853690,-0.016519430,-0.330911610
1640836332.925410,0.258401300,0.221445110,9.680020330,-0.010082130,-0.008915370,-0.362274110
1640836332.929890,0.010281230,0.036369230,10.315385820,0.016216940,-0.000336770,-0.366149870
1640836332.930390,-0.106983720,0.284900250,10.361263280,-0.057685380,0.006929040,-0.357000560
1640836332.934739,-0.088506530,0.281141070,10.086312290,-0.124590120,-0.046634680,-0.356000690
1640836332.935660,-0.099580200,-0.079804050,10.000151630,-0.103434940,-0.009386240,-0.359878030
1640836332.939679,-0.099245710,0.144171340,10.055199620,0.024139880,0.044569380,-0.359517340
1640836332.940420,-0.214333790,0.381783870,10.181904790,0.054352000,0.021889810,-0.361269770
1640836332.944670,-0.221256240,0.318065200,10.195781710,-0.050078330,-0.041495260,-0.337246060
1640836332.946610,-0.187617360,0.256007790,10.226167680,-0.084970880,-0.016711650,-0.311978130
1640836332.950400,-0.145810020,0.032005660,9.827621460,-0.016853220,0.029653310,-0.342173900
1640836332.950770,-0.206021220,-0.038270870,10.345368390,0.059746210,-0.023394830,-0.358596440
1640836332.954650,-0.168690000,0.309789450,10.427117350,0.047117470,0.039464250,-0.369221030
1640836332.955489,-0.043702840,0.367168810,9.849103930,-0.037911550,0.009810930,-0.366978410
1640836332.959920,-0.174916040,0.241838810,10.694924350,-0.040811310,-0.062111030,-0.340825410
1640836332.960640,-0.078832280,0.487771210,9.894212720,0.025829680,0.031943630,-0.358489250
1640836332.968370,-0.131964920,0.500691770,9.964218140,0.045667600,-0.002108520,-0.356783030
1640836332.969010,-0.411327750,0.495481340,11.073347090,0.022651260,-0.018760560,-0.320018830
1640836332.969660,-0.166641520,0.579906280,9.728801730,-0.009164210,0.001581010,-0.322063330
1640836332.970389,-0.027986730,0.477504220,10.021018030,-0.032883890,-0.050583490,-0.324271620
1640836332.974670,-0.182240650,0.604019760,10.587121960,-0.031688810,0.074060270,-0.323569770
1640836332.976790,0.030359210,0.583171310,9.811731340,-0.009606780,0.025728350,-0.342084500
1640836332.979699,-0.081756110,0.238307000,10.670788760,0.022557380,-0.078919540,-0.336709620
1640836332.980419,-0.015174210,0.292532000,9.900390620,0.029800830,0.029009580,-0.329245660
1640836332.984660,0.142646460,0.368421050,9.615330700,-0.028732420,0.007222590,-0.328260690
1640836332.985460,-0.065944540,0.152272580,10.671865460,-0.063754620,0.035230820,-0.310760770
1640836332.989660,0.126917240,0.110378530,9.870017050,-0.002330540,0.061884520,-0.337739320
1640836332.990419,0.128747430,0.222924320,9.951221470,0.067804740,-0.027835370,-0.343044130
1640836332.995100,-0.227555750,0.344772130,10.202805520,0.033277270,0.033912070,-0.328095200
1640836332.996440,-0.215532810,0.419429690,9.776005740,-0.048562890,0.018607080,-0.324112240
1640836333.000239,-0.226037340,0.198464810,10.171696660,-0.040780010,0.008511540,-0.328868630
1640836333.000710,-0.234279870,0.073138150,10.045756340,0.060959170,0.060042750,-0.350308480
1640836333.004700,-0.077401730,0.274692770,10.047074320,0.089639410,0.035327670,-0.339704690
1640836333.005470,-0.133307650,0.237741660,10.303966520,0.050392750,0.053326800,-0.330209760
1640836333.009869,-0.077225850,-0.055858150,10.128494260,0.012452900,-0.010867420,-0.318716470
1640836333.010409,-0.055036010,-0.053113350,9.923294070,0.050802530,0.020843740,-0.321486590
1640836333.014740,0.010311760,-0.019749300,9.546393390,0.098399830,0.062696640,-0.349375610
1640836333.015540,-0.223046450,0.196061330,10.549796100,0.084823380,0.029678650,-0.350304040
1640836333.019699,-0.159206080,0.615489960,10.291169170,0.050488130,0.062215340,-0.344306260
1640836333.020409,-0.099241140,0.403822060,9.974986080,0.043590360,-0.011973080,-0.342828010
1640836333.025020,-0.320565700,0.543371380,10.576255800,0.083264700,0.019350650,-0.325994220
1640836333.026140,-0.202849160,0.811833020,9.687634470,0.102782250,0.076109180,-0.338764520
1640836333.029780,-0.422320510,0.598637520,10.511309620,0.049519540,-0.032737850,-0.330658260
1640836333.030439,-0.202078340,0.675746500,10.220370290,0.025492910,0.034029780,-0.293833050
1640836333.034750,0.218346950,0.446626600,9.438001630,0.063419340,0.054436930,-0.331415240
1640836333.037390,-0.048208280,0.381405320,10.923565860,0.053633760,0.047914680,-0.328651070
1640836333.042420,0.150432080,0.539027810,10.291128160,0.045846400,0.085213780,-0.313811030
1640836333.043210,0.038980310,0.133636770,10.120206830,0.054888430,-0.049471860,-0.344084230
1640836333.045460,-0.143382280,0.180219230,10.151752470,0.055563450,-0.015790760,-0.329165160
1640836333.046059,0.070364150,0.440149750,9.146965980,0.048753620,0.105465930,-0.326694490
1640836333.049729,-0.175237330,0.293617220,10.348926540,0.018069150,0.079348670,-0.337350400
1640836333.050439,-0.264744790,0.337679830,10.801531790,0.044158110,0.074833640,-0.323647260
1640836333.054730,-0.049864760,0.350064040,9.869962690,0.108954330,-0.006136300,-0.337176050
1640836333.055400,-0.292325620,0.323889170,10.021574970,0.089727340,0.003871320,-0.331017400
1640836333.060079,-0.188061910,0.361230580,9.795217510,0.034944710,0.085179520,-0.307869910
1640836333.060600,-0.068430610,0.073709370,9.926484110,0.052568330,0.094257320,-0.336445930
1640836333.064780,-0.139671760,-0.039469110,10.354860310,0.111135850,0.044219200,-0.351277020
1640836333.065879,0.060068770,0.222662230,10.033813480,0.141647460,0.028863550,-0.330980150
1640836333.069660,-0.082052630,0.286811440,10.024811740,0.087893020,0.061677410,-0.340528850
1640836333.070439,-0.198384880,0.164252820,10.280304910,0.040648880,0.037360200,-0.340105590
1640836333.077280,-0.271901730,0.224984690,10.367265700,0.113357600,0.024707620,-0.331556770
1640836333.077960,-0.175254750,0.362207770,9.634646420,0.158415750,0.075368580,-0.339365010
1640836333.080060,-0.275400100,0.617756900,10.301373480,0.119519250,0.045812140,-0.338560400
1640836333.080580,-0.469649490,0.783013820,10.552444460,0.055161120,0.032454730,-0.306151840
1640836333.084720,-0.237627150,0.486105440,9.600392340,0.058883430,0.012764340,-0.333043930
1640836333.085510,-0.298428210,0.404620530,10.324603080,0.134338440,0.001069900,-0.333173600
1640836333.089840,-0.327746780,0.710901320,10.258515360,0.149151700,0.104221720,-0.323925940
1640836333.091040,-0.054947040,0.611879770,10.038169860,0.054633620,0.019232930,-0.333927540
1640836333.094750,-0.094444160,0.344756100,10.726925850,0.031694770,-0.007134680,-0.306035610
1640836333.095430,0.225818900,0.234008460,9.415052410,0.097316510,0.087940690,-0.323645770
1640836333.099710,0.248171810,0.180940210,9.815279960,0.146076100,0.026527050,-0.339180260
1640836333.100440,-0.267440620,0.292741060,10.639535900,0.105983020,0.061117110,-0.305549830
1640836333.104730,-0.115965100,0.224030850,9.541985510,0.055187940,0.000843410,-0.323757530
1640836333.105780,-0.208183750,0.026292500,10.034399990,0.073079760,-0.021629040,-0.325113510
1640836333.109840,-0.352382900,0.281944660,9.961648940,0.115211330,0.128448010,-0.325816900
1640836333.110390,-0.163932820,0.451520890,9.916727070,0.125929730,0.077548650,-0.353936910
1640836333.114790,-0.462629560,0.390483050,10.770401000,0.110615790,-0.008171800,-0.332538780
1640836333.116530,-0.238128410,0.389626000,9.480096820,0.108672690,-0.003379580,-0.317674960
1640836333.119750,-0.080316540,0.268756420,9.385648730,0.114040080,0.018236040,-0.330653820
1640836333.120410,-0.352252660,0.089377510,10.336489680,0.127883270,0.086745640,-0.328500630
1640836333.125270,-0.158828450,0.152707820,10.208921430,0.147144500,0.042296950,-0.345718920
1640836333.126370,-0.015522860,0.221778210,10.109473230,0.140438970,-0.022323440,-0.346347780
1640836333.129660,-0.161660100,0.106988890,10.066485400,0.132893060,0.029715900,-0.330376680
1640836333.130390,-0.101191340,0.322360490,10.004028320,0.127217170,0.032716990,-0.347876640
1640836333.134750,-0.366670820,0.419417380,10.136541370,0.149144230,0.008966030,-0.348414540
1640836333.135419,-0.426078500,0.389243930,10.111585620,0.153443220,-0.042146450,-0.343725120
1640836333.139710,-0.297725080,0.762118100,9.879021640,0.141309220,0.024285920,-0.339686960
1640836333.140760,-0.318270830,0.906955540,9.974412920,0.102190680,0.031740970,-0.342693920
1640836333.144670,-0.298392030,0.849400580,10.678902630,0.060443570,-0.001499060,-0.327529010
1640836333.145409,-0.070725260,0.800318000,9.975898740,0.098006440,0.030496720,-0.340484110
1640836333.149649,-0.120452570,0.413049490,10.002964970,0.153607130,-0.049464410,-0.360192360
1640836333.150400,-0.216554450,0.528201340,10.210187910,0.127264860,0.005240740,-0.336627690
1640836333.155059,0.099986260,0.576470020,9.176518440,0.032125410,0.023379920,-0.331524010
1640836333.156600,0.067286770,-0.072104600,10.238103870,0.010563430,-0.007133190,-0.337044920
1640836333.160300,0.066980010,-0.013885510,10.220141410,0.122597820,0.089548530,-0.345297190
1640836333.160960,-0.019887030,0.142144400,9.893022540,0.195688020,-0.037361680,-0.367201860
1640836333.164770,-0.459013640,0.190665020,10.642901420,0.093916060,-0.068302460,-0.347135960
1640836333.165510,-0.278226230,0.425115730,9.233445170,0.011400880,0.007770960,-0.339438020
1640836333.169839,-0.325731660,0.201664790,9.666961670,0.066435340,0.002330540,-0.370702180
1640836333.170689,-0.454150650,0.524310110,10.446914670,0.144483150,0.061973940,-0.370752840
1640836333.174919,-0.173270630,0.887874780,9.818859100,0.160720940,-0.012002890,-0.375190380
1640836333.175880,-0.264874100,0.743804510,10.442684170,0.066627580,-0.066637990,-0.360566440
1640836333.179730,-0.126590540,0.506115910,9.865159990,0.027236350,-0.005020200,-0.330603150
1640836333.180410,-0.092039960,0.266507210,9.719200130,0.117051600,-0.009727480,-0.354276630
1640836333.184729,-0.279041320,0.175156970,10.456481930,0.143767880,0.005921720,-0.376732620
1640836333.185439,-0.177457230,0.413692270,10.144146920,0.105687980,-0.025023520,-0.357557860
1640836333.189700,-0.258279950,0.321027490,10.082864760,0.061649100,-0.059440740,-0.361365110
1640836333.190570,-0.217522430,0.189893540,9.847896580,0.056105860,-0.037100920,-0.370882510
1640836333.195799,-0.233963470,0.545895400,10.079153060,0.112943350,-0.012043120,-0.361056630
1640836333.196560,-0.391561060,0.700249670,10.359293940,0.112615540,-0.001885000,-0.358979490
1640836333.199810,-0.307990730,0.561745880,10.199562070,0.064572710,-0.085638480,-0.346884220
1640836333.200440,-0.316916790,0.625615420,10.129989620,0.088030100,-0.078375640,-0.339037210
1640836333.204939,-0.115214080,0.647090730,9.449646950,0.071704400,-0.004537400,-0.360406970
1640836333.205600,-0.100828210,0.459651740,10.204007150,0.047476590,-0.038854780,-0.339956580
1640836333.209750,-0.224239420,0.284604790,10.385389330,0.091207050,0.008942190,-0.346317980
1640836333.210410,-0.055662140,0.034828950,9.724031450,0.127026410,-0.111941980,-0.366205010
1640836333.214640,-0.275169040,0.113003920,10.184251790,0.108145190,-0.121516030,-0.336420600
1640836333.215410,-0.137480830,0.171857150,9.262853620,0.044082120,0.031894450,-0.355267580
1640836333.219660,-0.128908770,-0.105448570,10.019757270,0.048550970,-0.039027630,-0.375235110
1640836333.220470,-0.428463370,0.218433310,10.817241670,0.143958660,-0.040152680,-0.356482060
1640836333.224769,-0.047688570,0.433274750,9.263178830,0.158569230,-0.060890620,-0.377924770
1640836333.225520,-0.347609100,0.512763920,10.230324750,0.086030370,-0.118072350,-0.352959330
1640836333.229740,-0.485257240,0.651965740,10.063776020,0.046065450,-0.005456810,-0.342804220
1640836333.230379,-0.164069650,0.395840320,9.424042700,0.084695230,-0.075416270,-0.358746950
1640836333.235200,-0.415943980,0.428399950,10.672648430,0.161644820,-0.081671780,-0.348919630
1640836333.237259,-0.160255890,0.667908910,9.787514690,0.143797710,0.004708770,-0.354816020
1640836333.239760,-0.126572970,0.624237360,10.115308760,0.042656070,-0.122515870,-0.360116450
1640836333.240480,-0.398089350,0.392015460,10.606958390,0.032904740,-0.088959950,-0.335209100
1640836333.244690,-0.122674200,0.322564630,9.355282780,0.114293400,-0.062307720,-0.369586050
1640836333.246610,-0.282274540,0.527902420,10.195186610,0.139342250,-0.120891650,-0.365929340
1640836333.249709,-0.305165590,0.778957900,10.186199190,0.061999270,-0.031575560,-0.331459970
1640836333.250650,0.048306250,0.608005290,9.654053690,-0.008009370,-0.066709520,-0.339843360
1640836333.254660,-0.173147070,0.381686540,10.434332850,0.051854550,-0.094288600,-0.349798830
1640836333.255440,-0.122581400,0.449531260,9.835621830,0.127902660,-0.070944450,-0.364101020
1640836333.259670,-0.137378720,0.681033250,9.713595390,0.079876180,-0.116552430,-0.361700360
1640836333.260409,-0.325323130,0.454391870,10.065418240,-0.006906690,-0.072650600,-0.340250070
1640836333.264670,-0.198935840,0.075997220,9.936825750,0.018195810,-0.077101590,-0.353302150
1640836333.267230,-0.166702580,0.219167590,9.854747770,0.098450500,-0.062285370,-0.366359950
1640836333.269660,-0.171071470,0.171694100,9.976038930,0.119401540,-0.072374940,-0.362201060
1640836333.270450,-0.304857700,0.253476020,10.327089310,0.055804860,-0.110612830,-0.346520600
1640836333.274780,-0.127068980,0.219825040,9.507146840,0.041799250,-0.100599240,-0.356315110
1640836333.275889,-0.094559220,0.009224260,9.810637470,0.074358290,-0.103755310,-0.383180380
1640836333.280460,-0.246476170,0.412962200,10.256048200,0.109404330,-0.021632020,-0.387398900
1640836333.281020,-0.162871230,0.580573020,9.974341390,0.100000200,-0.090010460,-0.398439200
1640836333.284799,-0.447683390,0.521169300,10.554579730,0.041469930,-0.185093300,-0.380884110
1640836333.285539,-0.200241890,0.712392810,9.320430760,0.049044200,-0.089891270,-0.356440310
1640836333.289940,-0.191929490,0.499823540,9.746806140,0.081893810,-0.085775550,-0.387474920
1640836333.291129,-0.545152370,0.540117320,10.884212490,0.084085780,-0.056479880,-0.363585410
1640836333.294669,-0.235453280,0.593236630,9.893755910,0.079529010,-0.127398970,-0.366961990
1640836333.295440,-0.207995590,0.263251390,10.123048780,0.053094330,-0.187844040,-0.376179810
1640836333.299749,-0.002328640,0.486431420,9.676209450,0.040422380,-0.048670180,-0.359186530
1640836333.300449,0.208032100,0.535867810,9.753632550,0.050498550,-0.041130190,-0.379876820
1640836333.304679,-0.143667010,0.295443770,10.929341320,0.049260270,-0.104400520,-0.371216270
1640836333.305470,-0.005016280,0.459313390,9.920292850,0.089891260,-0.153285260,-0.366295870
1640836333.309690,-0.010137490,0.565850850,9.407169340,0.073474650,-0.144629150,-0.385896890
1640836333.310459,-0.242183490,0.620425460,9.853449820,-0.016033660,-0.053715720,-0.359696210
1640836333.319620,-0.064375660,0.523845610,9.952882770,0.005696710,-0.037422790,-0.371719960
1640836333.320230,-0.129788160,0.188733790,10.303838730,0.088788580,-0.078658760,-0.391137660
1640836333.320619,-0.204254220,0.235650290,10.153551100,0.124897060,-0.133514420,-0.374512370
1640836333.320979,-0.224793200,0.305818650,9.779914860,0.064286600,-0.113029800,-0.356985630
1640836333.324820,-0.302907940,-0.066510280,9.673127170,-0.009351970,-0.077170140,-0.373713670
1640836333.325460,-0.263593380,-0.149156790,10.163930890,0.046734510,-0.087802120,-0.383487370
1640836333.329720,-0.134878750,0.066148290,9.923967360,0.152708630,-0.043226780,-0.401437370
1640836333.330619,-0.067949960,0.243346300,9.906048770,0.136367990,-0.102376950,-0.409165020
1640836333.334770,-0.167031360,0.543087420,10.570111270,0.066086650,-0.105954710,-0.369124110
1640836333.335579,-0.149133410,0.522973420,9.643428800,0.034387420,-0.072273620,-0.377570180
1640836333.339630,-0.245471420,0.348806860,10.024312970,0.091654060,-0.153972220,-0.388367470
1640836333.340449,-0.394278710,0.615799010,10.261384010,0.154210600,-0.062082710,-0.385203990
1640836333.344669,-0.201161980,0.835283940,9.490983960,0.108577310,-0.070446740,-0.399672990
1640836333.345460,-0.209300590,0.722633420,10.657377240,0.014334920,-0.129407660,-0.377035230
1640836333.349670,-0.058615960,0.573815290,10.106464390,0.030753020,-0.038895010,-0.370034660
1640836333.350469,0.110060920,0.384631840,9.690799710,0.102981950,-0.109797740,-0.392632250
1640836333.354709,-0.262735460,0.399254500,10.801727290,0.122873490,-0.104826690,-0.369390880
1640836333.356959,-0.065458790,0.407058980,9.444601060,0.063411890,-0.074341900,-0.361774950
1640836333.359939,0.037639270,0.052018720,9.716726300,0.031319260,-0.135670600,-0.374272440
1640836333.360630,-0.086238000,0.121193820,10.246242520,0.058105600,-0.008350610,-0.380377560
1640836333.364699,0.190389720,0.285599470,9.621828080,0.096233180,-0.020274520,-0.391784340
1640836333.365569,-0.162724420,0.252972540,10.810702320,0.102370980,-0.114333640,-0.398443670
1640836333.369670,-0.280880000,0.417011290,10.030197140,0.084955990,-0.107403110,-0.376369060
1640836333.370450,-0.096914810,0.416104140,9.049886700,0.072233380,-0.129078330,-0.376363130
1640836333.374790,-0.252599750,0.367778360,9.808053970,0.066091110,0.003086030,-0.386512310
1640836333.375500,-0.213809940,0.281368790,10.125776290,0.096689170,0.024949020,-0.377683340
1640836333.379680,-0.192746030,0.202992310,10.467399600,0.150455530,-0.113154960,-0.381867590
1640836333.380410,-0.104523350,0.148888360,9.744068150,0.134159590,-0.106079860,-0.382858540
1640836333.384640,-0.092125940,0.128695940,9.563938140,0.091756880,-0.062508890,-0.372003020
1640836333.385439,-0.255008730,0.051590680,10.040226940,0.088313230,-0.003528590,-0.387251380
1640836333.389639,-0.269469140,-0.051651380,10.028881070,0.147074480,-0.094532970,-0.399170850
1640836333.390620,-0.196394530,0.301632880,9.983438490,0.177651640,-0.101120770,-0.389808450
1640836333.395599,-0.127544970,0.553018270,9.494059560,0.141666830,-0.014977160,-0.394071700
1640836333.397480,-0.339315890,0.602424800,10.515176770,0.067912040,-0.098447510,-0.388138030
1640836333.400440,-0.378510420,0.815042500,10.285630230,0.095382330,-0.063166030,-0.377902390
1640836333.400950,-0.228981840,0.691308620,9.489296910,0.146497800,-0.127457100,-0.401260020
1640836333.404680,-0.374063310,0.785922530,10.245031360,0.143103300,-0.083553800,-0.375315550
1640836333.405500,-0.201384440,1.026149510,9.688252450,0.089064240,0.007225570,-0.375235110
1640836333.409710,-0.195027010,0.482627900,10.327302930,0.035619740,-0.134685650,-0.373275580
1640836333.410930,-0.177395540,0.205422030,10.331959720,0.083939730,-0.086225570,-0.369654630
1640836333.414680,0.044519230,0.265526180,9.287477490,0.159500540,-0.062510380,-0.410734120
1640836333.415459,-0.378386560,0.073335280,10.564126970,0.117763900,-0.114616770,-0.383992550
1640836333.419680,-0.228599010,0.291878160,9.902657510,0.055125360,-0.073935110,-0.373502140
1640836333.420430,-0.003311220,0.127187580,9.405941960,0.057873130,-0.121815520,-0.397823750
1640836333.424719,-0.178190080,0.173651550,10.197920800,0.104981680,-0.051856050,-0.375325980
1640836333.425500,-0.057914740,0.564004660,9.754720690,0.155857220,-0.010012090,-0.387856300
1640836333.429649,-0.347629250,0.491611150,10.350269320,0.124733150,-0.160735860,-0.380884110
1640836333.430400,-0.329485480,0.504392620,9.928793910,0.082454090,-0.155971940,-0.369492200
1640836333.434820,-0.102722460,0.501344800,9.033373830,0.086756060,-0.062684710,-0.392931730
1640836333.436410,-0.322071520,0.260032740,10.126192090,0.096513330,-0.042487680,-0.396695760
1640836333.439829,-0.273167430,0.214427430,10.423070910,0.155688820,-0.063435740,-0.406324860
1640836333.440580,-0.074682660,0.244022940,9.769332890,0.163790580,-0.148178640,-0.402279230
1640836333.444810,0.012620910,0.103127440,9.515999790,0.105510650,-0.122445830,-0.381068830
1640836333.445469,-0.108158800,0.016966300,9.966962810,0.104630000,-0.040046870,-0.371439750
1640836333.449630,-0.144792020,0.019803360,10.049457550,0.146791340,-0.056657200,-0.381474200
1640836333.450389,-0.251881510,0.212411870,10.360248570,0.176040870,-0.147797210,-0.396277070
1640836333.454720,-0.278705750,0.634902420,10.065638540,0.147320350,-0.110568110,-0.383593170
1640836333.455449,-0.112068530,0.855370160,9.316243170,0.079850860,-0.055940460,-0.397789480
1640836333.459699,-0.286545430,0.881375490,10.434786800,0.074194370,-0.084574530,-0.393944980
1640836333.460660,-0.294855270,1.001472350,10.202004430,0.117415180,-0.054132930,-0.381775140
1640836333.464759,-0.095382740,0.796342550,9.542039870,0.145457680,-0.151406240,-0.394654270
1640836333.466410,-0.323622850,0.757508810,10.302029610,0.112347330,-0.120763500,-0.371165570
1640836333.469740,-0.103328330,0.731546880,9.474988940,0.028394160,-0.028699640,-0.360839100
1640836333.470440,0.045584000,0.133921890,9.947163580,0.035580990,-0.097911070,-0.371110470
1640836333.475870,-0.081733460,-0.026844780,10.448146820,0.123779470,-0.050620730,-0.383088020
1640836333.476830,0.103769910,0.272623120,9.322115900,0.157685550,-0.083497170,-0.394269850
1640836333.480219,-0.223192230,0.293877450,10.199925420,0.070276860,-0.149999570,-0.383669140
1640836333.480840,-0.196031760,0.303306580,9.629069330,-0.001066920,-0.069583950,-0.366965030
1640836333.484650,0.100774150,0.234350800,9.217396740,0.075735140,-0.069880490,-0.398994980
1640836333.486570,-0.167579920,0.401946900,10.395238880,0.153475980,-0.020670890,-0.407524350
1640836333.489770,-0.027482370,0.744425240,9.865338330,0.125978930,-0.040040920,-0.383396540
1640836333.491020,-0.189932470,0.576874670,10.070776940,0.071965140,-0.152994660,-0.379256870
1640836333.494670,-0.288519560,0.269298730,9.598658560,0.041736670,-0.093999520,-0.372232590
1640836333.495479,-0.094337810,0.166578960,9.197052960,0.118330140,-0.061205040,-0.380271670
1640836333.499780,-0.271177230,0.161627670,10.050366400,0.161810220,0.003464520,-0.408838690
1640836333.500450,-0.282361450,0.352869240,10.314664840,0.106462840,-0.053848330,-0.395645200
1640836333.504680,-0.218761580,0.407171610,10.269955640,0.062009690,-0.142890230,-0.378966330
1640836333.505509,-0.100833860,0.127931550,9.445371630,0.089675200,-0.073705610,-0.396649540
1640836333.509810,-0.239097250,0.263361250,9.938865660,0.155998750,-0.080676360,-0.393618670
1640836333.510439,-0.377683040,0.645951030,10.193033220,0.165019910,-0.023756920,-0.397115950
1640836333.514819,-0.219371500,0.698866370,9.779589650,0.070734310,-0.126297790,-0.397832630
1640836333.515600,-0.152570920,0.747069540,10.080838200,0.050351030,-0.106823470,-0.363543660
1640836333.519680,0.019423020,0.840516510,9.413342480,0.085318100,0.006295740,-0.407539340
1640836333.520419,-0.037508420,0.876743730,10.209048270,0.093320010,-0.086933370,-0.397886370
1640836333.525100,-0.109443570,0.982232930,10.282187460,0.087967510,-0.046838820,-0.370785590
1640836333.526170,0.077025180,0.597744640,9.323163990,0.039868060,-0.081673260,-0.405973230
1640836333.529640,-0.208762850,0.427412420,10.193230630,0.036081680,-0.111855580,-0.367426960
1640836333.530439,-0.123340580,0.371611270,9.387528420,0.060081490,-0.006020070,-0.378017190
1640836333.534690,0.057226400,-0.049434990,9.561466220,0.062002250,-0.053246330,-0.401777090
1640836333.535460,-0.234351710,0.102434430,10.616587640,0.076948110,-0.022304060,-0.376003980
1640836333.539670,0.007976590,0.233077330,9.323827740,0.084029150,-0.046353040,-0.400872620
1640836333.540550,-0.204098110,0.180915830,10.040445330,0.042542820,-0.133049500,-0.400120020
1640836333.544649,-0.310846360,0.480361010,9.798865320,0.045719750,-0.024177140,-0.381191130
1640836333.545470,0.058844410,0.448925470,9.071644780,0.074321040,-0.019666550,-0.422367450
1640836333.549650,-0.182965280,0.576478180,10.369291310,0.097532580,-0.038048620,-0.405991110
1640836333.550459,-0.091762670,0.782882210,9.756897930,0.090122250,0.010508300,-0.391002060
1640836333.554910,0.011526050,0.556602780,9.739167210,0.040081140,-0.102347160,-0.387263360
