# timestamp,accel_x,accel_y,accel_z,gyro_x,gyro_y,gyro_z
1640781270.191740,-0.253550980,0.111936720,9.289725300,-0.018656250,0.073042520,-0.004194680
1640781270.195350,-0.063424290,0.125984210,10.149985310,-0.020964450,0.081183030,-0.004084410
1640781270.196780,0.122889830,0.424063530,10.189148900,0.020928680,0.080822420,-0.011828540
1640781270.200320,0.287411210,0.328772130,9.535158160,0.011806190,-0.043646990,-0.021511320
1640781270.201960,0.156544660,0.408551840,9.498240470,0.016281010,-0.015059110,0.034102800
1640781270.205340,0.006733710,0.166562910,9.101876260,-0.002430380,0.048884750,0.033652780
1640781270.206760,-0.375880210,-0.084663820,10.174412730,0.009439890,-0.017809870,0.034758450
1640781270.210350,-0.366217640,0.055130350,10.095196720,0.029768050,0.047852090,0.021472570
1640781270.211710,-0.440929920,0.022924450,10.117730140,0.013014680,0.003229080,-0.006198880
1640781270.215510,-0.675569300,0.436058910,10.625070570,0.006051360,-0.007463990,0.005576010
1640781270.216800,-0.296613900,0.714796250,9.287491800,-0.030601030,-0.017654900,0.008898970
1640781270.220480,-0.169122520,0.572237550,9.527991290,-0.018407410,-0.044608110,0.015328820
1640781270.221750,0.283200140,0.756870810,9.508503910,0.014114380,0.089201320,0.012135500
1640781270.225760,0.575728830,0.569934960,9.679858210,-0.003153090,0.057569150,-0.008343160
1640781270.227660,0.327138840,0.425496970,10.616721150,-0.012400750,-0.000265240,0.009028610
1640781270.230400,0.350425150,0.332534580,9.647975920,-0.042350590,-0.001503530,0.010737780
1640781270.231760,-0.228050310,-0.002629740,9.656370160,-0.037489820,-0.083832450,0.027516480
1640781270.235560,-0.589935600,-0.003467580,9.359200480,-0.008171800,-0.004918870,0.053809590
1640781270.236790,-0.485891010,-0.179429900,8.925637250,-0.010904670,0.033447150,0.036750740
1640781270.241110,-0.662032310,-0.226867170,10.289555550,0.007167460,0.049632790,0.014677640
1640781270.242560,-0.185594830,0.168427210,10.110141750,-0.005392730,0.067438190,-0.009498000
1640781270.245520,0.029279970,0.199507710,10.254508970,-0.017321110,-0.027835370,-0.028148290
1640781270.246720,0.192455650,0.393942480,9.905526160,-0.017403070,0.006861990,-0.010828670
1640781270.250330,0.520933990,0.460660460,9.062973980,0.001105670,0.036850570,-0.003620980
1640781270.251710,0.098832630,0.237540440,9.757534030,0.041158500,0.016491120,0.018650290
1640781270.255420,0.006158760,0.493416760,9.471194270,0.005702670,-0.002974270,0.026357180
1640781270.256800,-0.303470190,0.406585540,9.722033500,-0.047907230,-0.041779880,0.016325710
1640781270.260460,-0.638468440,0.196714940,10.230727200,-0.059540580,-0.012488670,0.014111400
1640781270.261780,-0.412793730,0.466831030,9.704463010,-0.020243230,0.001236800,0.003741680
1640781270.268180,-0.442809050,0.243184210,10.093271260,0.018136200,0.001418590,0.009456280
1640781270.268980,-0.034620020,0.282786310,9.805664060,-0.000406800,0.044526160,0.024041540
1640781270.270370,0.203437660,0.386425970,9.652895930,-0.028254100,0.008840860,0.024488570
1640781270.271780,0.211982150,0.102229220,9.917174340,-0.046202550,-0.014647840,0.017996130
1640781270.275430,0.370537550,0.306178480,9.490127560,-0.037968160,-0.004905460,0.010542570
1640781270.276750,0.174934740,0.240929840,9.665149690,0.007136170,-0.003384050,-0.005333130
1640781270.280520,0.102417500,0.226250750,9.686349870,-0.019052620,0.025409470,0.000351670
1640781270.281700,0.016765670,0.491531670,9.508852010,-0.035767260,0.029955800,0.001384320
1640781270.285330,-0.336924820,0.094169860,9.878927230,-0.057394800,0.002621110,0.006349390
1640781270.286780,-0.448083700,0.079148370,9.690967560,-0.011672080,-0.027708710,0.012418630
1640781270.290480,-0.516478600,0.241402780,9.464262010,0.013394650,-0.041826070,0.002254550
1640781270.291810,-0.298998770,-0.003562060,9.726378440,-0.047484030,0.035700210,0.024749340
1640781270.295520,0.006247550,0.072857620,10.092341420,-0.023254750,0.104090580,0.025534630
1640781270.298370,0.061903740,0.000050960,10.497985840,0.014446680,0.031630700,0.002378230
1640781270.300270,0.208306490,0.185922040,10.027644160,0.001399220,-0.062941020,0.003951790
1640781270.301700,0.248036620,0.524411080,8.842384340,-0.013807410,-0.048884750,-0.007562340
1640781270.305480,0.032302230,0.466793540,9.197552680,-0.066998610,0.000882150,-0.031518940
1640781270.306840,-0.059163210,0.765472530,9.703935620,-0.052298620,0.061377890,-0.006611650
1640781270.311110,-0.141691550,0.738342170,10.069748880,-0.033514210,0.015544890,-0.020140410
1640781270.311740,-0.268658700,0.623024230,10.626749990,-0.048150130,-0.001238290,0.015427170
1640781270.315300,-0.435347020,0.664067860,9.934009550,-0.038492670,-0.008484720,0.062894810
1640781270.316710,-0.542354880,0.178480000,9.801934240,-0.073616190,-0.079973050,0.055404010
1640781270.320400,-0.354485780,-0.030270650,9.359561920,-0.067551430,-0.004361570,0.078099970
1640781270.321770,0.129184540,-0.294856820,8.918671610,-0.020410120,0.058871520,0.025951870
1640781270.325370,0.310590390,-0.398345800,10.233497620,-0.023558740,0.068594520,-0.028981270
1640781270.326710,0.517142470,0.028144800,9.970180510,-0.031340110,0.056579710,-0.022889670
1640781270.330460,0.469172570,-0.038322580,9.788707730,-0.072947150,-0.072690840,-0.040926040
1640781270.331760,0.075567600,0.165957240,9.776978490,-0.050780180,-0.026501720,-0.007700920
1640781270.335380,-0.129330830,0.398333850,8.790514950,-0.000846390,0.007486340,0.026869770
1640781270.337160,-0.563368380,0.215249960,9.938809390,0.005970900,-0.008729100,0.034090880
1640781270.340600,-0.648507600,0.304613260,9.985397340,0.004851820,0.072418150,0.045290590
1640781270.341770,-0.387414430,0.212739450,9.894808770,-0.020304320,-0.015790760,0.012454390
1640781270.345350,-0.486758620,0.091170850,10.496325490,-0.019910930,-0.007572770,0.002889340
1640781270.346730,0.061254030,0.195530460,9.094764710,0.005067890,0.031340130,-0.008881090
1640781270.350380,0.142811580,0.121390700,9.780762670,0.002628570,-0.018519160,-0.003249940
1640781270.351780,0.187201750,0.004284590,9.855617520,0.016924740,0.065746900,0.014288720
1640781270.355750,0.409839120,0.175055830,9.422607420,0.007478890,-0.024399160,-0.011280180
1640781270.357210,-0.093239780,0.257326250,10.404470440,-0.011536480,-0.028762220,0.013349950
1640781270.360450,-0.119866210,0.364755240,9.560661320,-0.027699770,0.008182230,0.016981370
1640781270.363030,-0.427977650,0.585888330,10.017490390,-0.020678340,-0.054991260,0.009022650
1640781270.365390,-0.612047430,0.584277870,10.001439090,-0.006729360,0.006860500,0.045976040
1640781270.366700,-0.106812500,0.581615980,9.328189850,-0.020478670,0.013060870,0.024335090
1640781270.370330,-0.192661450,0.455149260,10.253329280,-0.021880870,0.036355850,0.005888940
1640781270.371740,0.092094780,0.324514840,9.769001960,-0.016674400,0.033555930,0.003167990
1640781270.375440,0.333238510,0.336230640,9.646645550,-0.048206760,-0.044330970,-0.022828580
1640781270.376840,0.212137730,-0.000613040,9.556871410,-0.040304660,0.021253520,0.003285710
1640781270.380350,0.298221500,-0.097237460,9.353921890,-0.002726910,0.021938980,0.016283990
1640781270.381700,-0.079157350,-0.154170190,10.047409060,0.012284520,0.010418890,0.023087860
1640781270.385530,-0.201204840,-0.245995940,9.552264210,-0.006867950,-0.009389220,0.050309310
1640781270.386730,-0.228398380,-0.118841210,9.766248700,-0.023166830,-0.019513070,-0.003625450
1640781270.390630,-0.419173660,0.030457430,9.851140980,-0.008918350,0.045049200,-0.041240460
1640781270.391770,-0.119880760,0.429483770,9.657125470,-0.004045670,0.002069770,-0.023707750
1640781270.395760,-0.017744700,0.627914850,10.034017560,-0.000528990,0.051496930,-0.020265580
1640781270.397620,0.066518890,0.498789640,9.731901170,0.002034010,0.050243740,0.010065740
1640781270.401620,0.008265610,0.503883240,10.146586420,0.020141900,-0.013163690,0.041264290
1640781270.403090,-0.245251630,0.274730950,9.632081990,0.017397110,-0.021369760,0.028415030
1640781270.405330,-0.162005050,0.164003760,9.303517340,-0.013805920,-0.063532580,0.016687810
1640781270.407080,-0.266154170,0.223339380,9.878985400,-0.023068490,0.049033760,-0.011563300
1640781270.410570,-0.271218840,0.158197250,9.958347320,-0.036604710,0.053438540,-0.026556850
1640781270.411710,0.021860560,0.355606410,10.434979440,-0.013519820,-0.007548930,-0.002984700
1640781270.415360,0.097751310,0.382559570,9.908657070,0.006906690,0.023700300,-0.003445150
1640781270.416990,0.107097440,0.346341340,9.646208760,-0.027005380,-0.038549300,0.006878380
1640781270.420300,-0.056132520,0.581888500,9.774544720,-0.035542250,0.006741290,0.017040970
1640781270.421820,-0.154003560,0.282351260,9.407060620,-0.051638490,0.004887580,0.006526710
1640781270.425420,-0.096317900,0.312516690,9.967875480,-0.018453600,-0.011269750,0.018447640
1640781270.427030,-0.085787160,0.402674670,9.725258830,-0.007808210,0.072759390,0.012388830
1640781270.430400,0.035149770,0.006448950,9.759945870,-0.036077200,0.006087120,0.024367870
1640781270.431980,0.003122740,0.042416430,9.931810380,-0.009521840,0.027742980,0.026796760
1640781270.435470,0.042662070,-0.169693170,9.271031380,-0.003060700,0.007697940,-0.006198880
1640781270.437190,-0.009814510,-0.121191890,9.950939180,-0.009264050,-0.022970140,0.009317700
1640781270.440770,0.065374190,0.114223340,9.602446560,-0.013457240,0.087288040,0.010952350
1640781270.442100,0.087783100,-0.277931900,9.983589170,-0.000487270,0.037449600,0.005337600
1640781270.446190,-0.194485550,-0.019695540,10.533855440,0.064314900,0.035807490,0.005880000
1640781270.446810,-0.108181150,0.190539480,8.996355060,0.051400070,-0.023981930,-0.016017260
1640781270.450300,-0.408284370,0.079876890,9.586195950,0.002881880,-0.068680940,0.003094970
1640781270.451720,-0.360183780,0.466562060,9.113961220,-0.005838270,0.081378230,-0.003714860
1640781270.455320,-0.227243740,0.387858660,9.763476370,0.006555020,0.005085770,-0.020539760
1640781270.457010,-0.219852520,0.475537450,10.868838310,0.037986040,0.044085090,0.019258260
1640781270.460360,0.200096340,0.531572820,9.762152670,0.047877430,0.060032310,0.010766090
1640781270.462290,-0.058589470,0.264099240,10.719709400,0.032886860,-0.057721140,0.025267900
1640781270.465540,-0.044469360,0.396677200,9.579984660,-0.006268920,0.010924040,0.031088290
1640781270.466760,0.055485420,0.170447770,8.777975080,-0.016199050,-0.057853760,-0.001327690
1640781270.470260,-0.262526570,0.138351990,10.050387380,0.014083090,0.026504700,-0.015968090
1640781270.471750,0.053955790,0.492242990,9.162621500,0.015322870,0.080843270,-0.034077470
1640781270.475450,-0.037067020,0.472522800,10.325334550,-0.026448070,-0.037811700,-0.017984210
1640781270.476780,-0.124359210,0.464983850,10.299171450,-0.045371060,0.068077450,0.025941430
1640781270.480440,0.031710070,0.314655300,9.291979790,-0.008493660,-0.047215810,0.038258720
1640781270.481760,-0.423402430,0.036466210,10.318725590,0.040908160,-0.047370790,0.056032840
1640781270.485260,-0.009458970,0.009352320,8.861492160,0.030094390,0.063270330,0.055579840
1640781270.486760,0.137441650,-0.141753380,9.671201710,-0.002032520,0.008150940,0.017754740
1640781270.491150,0.107251350,-0.137504500,10.413707730,-0.020863120,0.123649840,-0.015215580
1640781270.491940,0.453175130,0.138937590,9.393050190,-0.008937720,0.019283590,-0.031916800
1640781270.495360,-0.063425320,0.138694970,10.236579900,0.031013790,-0.069676320,-0.037242470
1640781270.497320,-0.075799470,0.328358080,8.946378710,0.025457150,0.011263790,-0.005629660
1640781270.500470,-0.311052470,0.365441020,9.272580150,0.015075510,-0.016577540,0.016811490
1640781270.501750,-0.657681170,0.198167310,10.391210560,-0.001163780,0.073194500,0.029134760
1640781270.505300,-0.282592830,0.229009120,9.958593370,0.026245410,0.032377240,0.031509990
1640781270.507010,-0.457860800,0.201322420,10.728147510,0.065563630,-0.031588970,0.006656350
1640781270.512000,-0.197746320,0.360827740,9.830265050,0.007607040,0.011691450,0.005801020
1640781270.512530,0.109582420,0.478406850,9.320047380,-0.013566020,-0.027672950,0.013464690
1640781270.515370,0.048496750,0.318951850,9.728678700,-0.014491380,0.029204790,-0.018121300
1640781270.516750,0.455605510,0.501331270,9.221037860,0.004461410,0.038652130,-0.021843610
1640781270.520250,0.264290870,0.489237340,9.993402480,0.013199450,0.013959410,-0.018726290
1640781270.521730,0.034904230,0.309720720,10.021749500,-0.018158560,0.016044080,0.010766090
1640781270.525420,-0.105079080,0.196914750,9.858736040,0.002844630,-0.039139390,0.046180190
1640781270.526900,-0.604880330,-0.004904540,9.920227050,0.015486780,-0.031256680,0.057971490
1640781270.532170,-0.441237810,-0.139689090,9.340056420,-0.001688300,-0.013272460,0.041456520
1640781270.532770,-0.307557580,-0.124045050,9.674435620,0.032919650,0.043757260,0.000868740
1640781270.535470,-0.094411000,0.055673370,9.788507460,0.006814300,0.070543590,-0.039136410
1640781270.536770,0.126575860,0.324278270,9.980954170,0.003126260,-0.003935400,-0.033606590
1640781270.540650,0.216917370,0.421009360,9.608267780,-0.000543890,-0.012968480,-0.020200010
1640781270.541850,0.224590350,0.315289050,9.319092750,0.011183320,-0.012953580,0.010429320
1640781270.545380,-0.010417810,0.311054770,9.695379260,0.055372710,0.028893350,0.035932660
1640781270.546800,-0.202367590,0.080723110,9.747157100,0.033465020,0.015643240,0.038635730
1640781270.550310,-0.409297140,0.027027720,10.246039390,0.029619040,-0.031647100,0.030322380
1640781270.551760,-0.391845050,0.212090000,9.804117200,0.016987320,-0.002402070,-0.006411970
1640781270.555650,-0.336465540,0.240662280,9.713290210,-0.022389000,-0.017952920,-0.016720590
1640781270.557180,-0.224180980,0.436099710,9.915694240,0.016061960,0.038108230,0.006358330
1640781270.561140,0.075079080,0.349438790,9.717478750,0.024384260,0.029321010,-0.022631880
1640781270.562680,0.037617970,0.420477720,10.135062220,0.031611320,-0.018161540,-0.005422530
1640781270.565470,0.193985180,0.616638060,9.534957890,0.000965600,-0.001743440,-0.010280310
1640781270.566750,-0.005134630,0.353095200,9.684363370,-0.043931610,-0.026389960,-0.004324320
1640781270.570370,-0.220692720,0.447809880,9.979932790,-0.006796420,-0.006420910,0.026768450
1640781270.571800,-0.109496030,0.258958940,9.480764390,0.003547970,0.004962090,0.021587310
1640781270.575410,-0.171109110,0.053441220,9.847421650,0.026151540,-0.009623170,0.040867930
1640781270.577350,0.102401140,0.057845160,9.730514530,0.015780330,0.067339850,0.036892290
1640781270.580510,0.226090340,-0.159339610,9.927540780,-0.021225220,0.036858020,-0.017137830
1640781270.581770,0.167007670,0.008667300,10.052447320,-0.003592670,-0.005289910,-0.018268820
1640781270.585270,0.362834330,0.103678140,9.237009050,0.007733700,0.014521180,-0.028538700
1640781270.586750,0.007658430,-0.004875520,9.694428440,0.035901370,0.017499930,-0.012996790
1640781270.590520,-0.300263940,0.281086240,9.689508440,0.043599310,0.032997140,0.009980800
1640781270.591780,-0.416647170,0.259692370,9.521108630,0.007748600,-0.027658050,0.006867950
1640781270.596420,-0.722113070,0.076170860,9.912546160,0.015677510,-0.022658710,0.010460620
1640781270.597120,-0.395664300,0.272678760,9.512635230,0.044840570,0.027512010,-0.006024540
1640781270.600330,-0.310425130,0.260878350,10.131825450,0.052796300,0.023451450,-0.009556110
1640781270.601780,0.026271160,0.369157080,10.148918150,0.029726330,0.050970910,0.022892660
1640781270.605460,0.438808740,0.327946450,9.863871570,0.009638070,0.017657880,0.014071170
1640781270.611270,0.209234570,0.048762190,10.115175250,0.043793030,-0.002956390,0.009791550
1640781270.611790,0.170229790,0.244730850,9.473978040,0.062987230,-0.025527180,0.003741680
1640781270.612250,-0.171356230,0.378585130,9.479975700,0.037819150,-0.054353480,-0.018435720
1640781270.615390,-0.400474580,0.441460490,9.603886600,-0.022503740,-0.009197000,0.002557040
1640781270.616780,-0.246659920,0.567211090,9.558964730,-0.039091710,0.040127330,0.009295340
1640781270.620320,-0.429272170,0.218664620,10.341509820,0.033602120,0.025588270,0.011596080
1640781270.621720,-0.173710110,0.252262560,9.981925960,0.080333670,-0.010500850,0.031474240
1640781270.625550,-0.042204190,0.365975950,9.624533650,0.044623020,-0.037035350,0.024835770
1640781270.626860,-0.033275790,0.011277770,9.703023910,-0.042322280,-0.002980230,0.024034080
1640781270.630410,0.223685460,-0.085143280,9.528683660,-0.019472840,0.027550760,0.019651650
1640781270.631800,0.124395040,-0.269076470,9.802095410,0.090345740,0.014393030,-0.019443040
1640781270.635320,0.151553210,0.001013450,9.710611340,0.082828100,0.002600250,-0.026364630
1640781270.636740,0.012617620,0.417605970,9.532358170,0.009414550,-0.005823370,-0.002273920
1640781270.640690,-0.302498520,0.050659960,9.755868910,-0.029566890,-0.035506480,-0.005394220
1640781270.641940,-0.286729310,0.197564150,9.654340740,0.033530590,-0.028106570,-0.000056620
1640781270.646370,-0.381468180,0.449760170,9.688873290,0.099559130,0.019560750,0.004006920
1640781270.646760,-0.299389660,0.301132290,10.249113080,0.049041220,0.031416120,0.022254890
1640781270.650270,-0.290019840,0.493705000,10.258002280,0.017333030,0.017966330,0.019536910
1640781270.651740,-0.256261890,0.354558740,9.947727200,-0.002942980,-0.075471390,0.003385540
1640781270.655660,-0.097475360,0.320506990,9.648345950,0.007089970,-0.044938930,0.011083490
1640781270.657050,-0.149163780,0.571426930,9.218061450,0.044621530,-0.011447070,-0.015816090
1640781270.660400,-0.036431400,0.481641530,9.651350980,-0.002157690,-0.028845670,-0.014571850
1640781270.662360,0.199064640,0.513399420,9.623993870,-0.022752580,0.039811420,0.024154780
1640781270.665450,0.154234590,0.198351350,9.868848800,0.002026560,0.002591310,0.023978950
1640781270.666790,-0.055349200,-0.028003200,10.505358700,0.037814670,-0.053007900,0.051978230
1640781270.670270,-0.152623530,0.129214390,9.468023300,0.047937040,-0.067065660,0.049901010
1640781270.671790,-0.282902060,-0.076923590,9.569854740,-0.021922590,-0.057438020,0.019817050
1640781270.675510,-0.341844800,-0.092009510,9.973289490,-0.010405480,0.044287740,0.020213430
1640781270.676840,-0.136996240,-0.010677670,9.481509210,0.057755420,0.000333790,-0.036527220
1640781270.680320,-0.103804630,0.174015580,10.019137380,0.043711070,-0.036248570,-0.039270520
1640781270.681750,0.015769120,0.414223050,9.380229950,0.015269220,0.018770990,-0.003042820
1640781270.685270,-0.004497780,0.145099010,9.509337430,0.001898410,-0.085318100,0.001738970
1640781270.686740,-0.127468320,0.204909890,9.990014080,0.039808450,-0.032497950,0.025585300
1640781270.690350,0.120796820,0.220519540,9.278779980,0.062188510,0.014199320,0.039121510
1640781270.695980,-0.104562650,-0.030040030,10.645107270,0.052306060,-0.021223720,0.035908810
1640781270.696420,-0.168822440,0.159245000,10.327734950,0.065495060,0.032490490,0.030654670
1640781270.696780,-0.145932000,0.289281700,9.637312890,0.026428700,-0.116884710,-0.006598230
1640781270.700280,-0.427713250,0.418971000,9.876106260,-0.003057720,-0.084775670,-0.025902680
1640781270.701710,-0.151319350,0.649380800,8.746647830,0.011092430,0.014913080,-0.042097270
1640781270.705400,-0.148554680,0.710780140,9.885487560,0.001469250,-0.017084190,-0.047546630
1640781270.707020,-0.050904310,0.790355920,10.257887840,0.012263660,0.042933240,-0.001831350
1640781270.710400,0.411826280,0.619943980,9.603862760,-0.000248850,-0.036484000,0.027002390
1640781270.712820,0.008028930,0.205554630,10.530892370,0.001934170,-0.045815100,0.065739460
1640781270.715250,0.036820200,0.002655380,9.434793470,0.013774630,-0.023080410,0.065946580
1640781270.716780,0.007001070,-0.341997680,9.473032950,0.009915230,-0.087197110,0.033965700
1640781270.720610,-0.136701350,-0.364358040,9.696791650,0.014033920,0.042842340,-0.003713370
1640781270.721800,0.253379760,-0.069295550,9.315130230,-0.005792080,0.062508880,-0.044713930
1640781270.725380,-0.175713000,0.052255250,10.542377470,-0.017996130,0.000999870,-0.060376530
1640781270.726940,-0.196232780,0.342843560,9.646017070,0.025199350,-0.056460500,-0.040559470
1640781270.730350,-0.205653580,0.488249720,9.276702880,0.032806390,-0.109022860,-0.010544060
1640781270.731900,-0.532906650,0.498952120,9.519437790,0.021904710,0.008100270,0.026044250
1640781270.735370,-0.195316900,0.492630990,9.562696460,0.001996760,0.040443250,0.045865770
1640781270.736850,-0.206525280,0.293722900,10.720370290,0.023858250,0.027218470,0.025965280
1640781270.740600,-0.041637290,0.299404080,10.266213420,0.036056340,-0.012189150,0.023412710
1640781270.741760,0.186558320,0.500787260,9.820735930,-0.006864970,-0.081519780,0.007149580
1640781270.745480,0.000265290,0.246055250,9.431449890,-0.035840270,-0.020627680,-0.010561940
1640781270.746770,0.186780170,0.395147030,8.981801990,-0.024971360,-0.025807320,-0.022369620
1640781270.750260,0.158042370,0.560132740,9.687074660,-0.022897120,0.029985600,-0.025776020
1640781270.751800,0.105422270,0.346046090,9.809480670,-0.025445230,0.045549880,0.009165710
1640781270.755280,0.005031620,0.374625710,10.324868200,-0.016663970,-0.030142070,0.035832830
1640781270.757360,-0.366131660,0.165311550,10.127643590,-0.000587110,-0.036504860,0.046606370
1640781270.760380,-0.316823540,0.002753750,9.454398160,-0.018952790,-0.080631670,0.068715210
1640781270.761970,-0.240040110,-0.031984670,9.576758380,-0.020186600,0.011864300,0.029289720
1640781270.765430,-0.055712090,-0.204896670,9.405261040,-0.011228030,0.084774200,-0.028917190
1640781270.766760,0.215872560,0.142856230,10.034484860,0.002695620,0.027237840,-0.032572450
1640781270.770320,0.170785070,0.350810230,9.876178740,-0.001007320,0.009697670,-0.032949440
1640781270.771780,0.140952240,0.212368190,9.467053410,-0.022757060,-0.084264600,0.002971290
1640781270.775450,0.021327260,0.264125700,9.519315720,0.014832620,-0.026200710,0.031697750
1640781270.777100,-0.158323750,-0.028504300,9.408969880,0.033755600,0.048913070,0.023560230
1640781270.780280,-0.237592240,-0.014679730,10.405661580,0.045797230,0.011017920,0.042870630
1640781270.781750,-0.267061380,0.204082490,10.219411850,0.029416390,0.034163890,0.011399390
1640781270.785390,-0.168431250,0.073196530,9.807019230,-0.032098590,-0.052803760,-0.008846820
1640781270.786800,-0.189682470,0.277236100,9.809080120,-0.004509090,-0.001087780,0.000722710
1640781270.790720,-0.107587060,0.144652610,9.141342160,0.067481410,0.025220220,-0.023454430
1640781270.791910,0.025730420,0.227356520,9.803853990,0.063461070,-0.024104120,-0.013343990
1640781270.795500,0.303993610,0.412917610,9.447449680,0.020788610,0.082796810,0.010132790
1640781270.796840,0.326247480,-0.372083040,9.881906510,0.024841730,0.042507050,0.022871790
1640781270.800480,0.079333240,-0.387655080,10.626626010,0.120893120,0.011304020,0.047205380
1640781270.801780,0.072010260,-0.196252850,9.265300750,0.136469270,-0.023256240,0.036859500
1640781270.805330,-0.117858920,-0.366285030,9.681393620,0.063748660,-0.050474700,0.054600840
1640781270.807100,-0.052406700,-0.063406290,9.250768660,0.049398840,0.120033320,0.024218860
1640781270.811320,0.103993190,0.015147850,9.512710570,0.101311530,0.084599850,-0.049132110
1640781270.811780,-0.132148370,0.390590310,10.713298800,0.150510670,0.053969030,-0.038723650
1640781270.815410,0.133409740,0.798142790,9.117005350,0.130084170,0.025169560,-0.030851370
1640781270.817140,-0.212376160,0.539931950,9.807090760,0.084321200,-0.043855610,0.007939340
1640781270.820290,-0.363448020,0.377833490,9.364834790,0.089848050,0.086522100,0.059407950
1640781270.821780,-0.173199010,-0.070757830,9.005653380,0.143936260,0.018708410,0.043046480
1640781270.825380,-0.419446830,-0.235156580,10.583037380,0.180041790,0.054918230,0.017607210
1640781270.827800,0.045411450,-0.056731840,9.429024700,0.135488820,0.092646480,-0.007244950
1640781270.830320,-0.003618380,-0.054491720,10.227417950,0.083889090,-0.031292440,-0.030130150
1640781270.831960,-0.136031080,0.111101430,9.966043470,0.089363760,0.057549780,-0.014428800
1640781270.835370,0.107329860,0.381410390,9.007122040,0.143186750,-0.013203920,-0.024585420
1640781270.836770,-0.366663780,0.639441790,10.159586910,0.147262200,0.010102990,-0.025902690
1640781270.840540,-0.201660220,0.947857080,9.248559950,0.090804690,0.072352590,0.009323650
1640781270.841800,-0.330240010,0.931703090,10.093339920,0.052565340,-0.021556020,0.009384750
1640781270.845300,-0.499056550,0.810635630,10.354606630,0.054493550,0.022277240,0.011649730
1640781270.846740,-0.007586840,0.723256470,9.162040710,0.078110400,-0.010861460,0.040927530
1640781270.850300,-0.075531840,0.334095480,10.117113110,0.095525380,0.025126330,0.017781550
1640781270.851770,0.177692650,0.054400670,9.520903590,0.074768070,0.094987460,0.008758900
1640781270.855330,0.358022150,0.018952760,9.687486650,0.050096210,-0.019986930,-0.007945300
1640781270.860040,0.024808780,-0.194624930,10.031525610,0.028756260,0.042440000,-0.034116210
1640781270.861330,0.004016450,-0.097853490,9.258815770,0.059454150,-0.023764370,-0.013571980
1640781270.861800,-0.366329370,0.156865950,9.697848320,0.093548010,-0.045698880,-0.011517110
1640781270.865920,-0.233652680,0.332209940,9.022354130,0.045710800,0.080138440,0.006115440
1640781270.866850,-0.113869900,0.517235990,9.808007240,0.029630960,0.064265740,0.019258260
1640781270.870320,-0.305289510,0.482904490,10.535677910,0.062544640,0.060912980,-0.019302970
1640781270.871720,0.155431940,0.498516020,9.505430220,0.086167480,-0.037866830,-0.008729100
1640781270.875390,0.201031270,0.448738400,9.553958890,0.080253190,0.014543540,0.009195510
1640781270.878010,0.175253790,0.054694350,9.373013500,0.050927700,0.120647260,0.000341240
1640781270.880390,0.079759580,-0.058825880,10.062376020,0.068713720,0.025424360,0.010411440
1640781270.881860,-0.262750210,-0.057417970,9.908897400,0.085727880,0.008966030,-0.003895160
1640781270.885320,-0.356981960,-0.173288990,9.349394800,0.057393320,-0.052623460,-0.027543310
1640781270.886740,-0.611518200,0.280783650,9.741015430,0.066447240,0.000241400,-0.014843040
1640781270.890440,-0.578107240,0.416532900,9.499799730,0.036661330,0.048388540,-0.014249980
1640781270.891890,-0.302423390,0.492779760,10.232916830,0.044283270,0.017459690,0.013127920
1640781270.895360,0.011622170,0.679313480,10.054900170,0.084637110,0.067657240,0.011289120
1640781270.897200,0.290938380,0.466575710,9.820168500,0.086398420,-0.002340970,0.003677610
1640781270.900310,0.287634040,0.652993020,10.013278010,0.047719480,0.018122790,0.011341270
1640781270.901730,0.200583410,0.448967780,9.221902850,0.004988910,0.006900730,0.000023840
1640781270.905550,0.113242660,0.018079670,9.582431790,0.032490490,-0.051482020,0.006763640
1640781270.907980,0.096824510,0.189650830,9.164362910,0.073866530,0.092136850,-0.004883110
1640781270.910260,-0.025590340,-0.095219160,9.607799530,0.047601760,0.066046420,0.004777310
1640781270.911760,-0.351932910,-0.185176920,10.740561490,0.065374370,0.040513280,0.013297800
1640781270.915360,-0.306474120,0.005160760,9.465512280,0.058923670,-0.034566220,-0.031867630
1640781270.916820,-0.352745860,0.078417410,9.499436380,0.035539270,-0.075748560,-0.022524600
1640781270.920260,-0.183331360,0.275678100,9.188043590,0.047588360,0.135315950,-0.003664200
1640781270.921730,-0.066858940,0.201912890,9.621330260,0.088432430,0.069275510,-0.017918650
1640781270.925500,-0.252605830,0.399191860,10.871527670,0.115491460,0.015412270,0.006292760
1640781270.926900,0.063037960,0.515856980,9.145872120,0.063718860,-0.021135810,-0.000286100
1640781270.930480,-0.136454060,0.271838930,9.602346420,0.024959440,-0.089345880,-0.009068850
1640781270.931970,-0.106556690,0.475070210,9.539963720,0.035347040,0.098794710,-0.019766390
1640781270.935330,0.009771140,0.450908480,9.497548100,0.053158390,0.033946330,-0.028845670
1640781270.936820,-0.195388700,0.320765290,10.925526620,0.069265070,-0.007081030,0.013180080
1640781270.940270,0.238706780,0.329395590,9.355376240,0.060851870,0.058655440,0.003707410
1640781270.942240,-0.047985760,0.126323040,9.915521620,0.042866170,-0.041539970,0.010727350
1640781270.945480,-0.383249850,0.201911030,10.115247730,0.031894450,0.026643280,0.004544850
1640781270.947610,-0.184730560,0.288273270,8.913226130,0.022637850,-0.038276610,-0.030964610
1640781270.950300,-0.453562950,0.282543510,10.011142730,0.032204390,-0.046157840,-0.017280880
1640781270.951760,-0.079848700,0.447955130,9.163018230,0.029385090,0.117966540,-0.016051530
1640781270.955330,0.059403490,0.364885960,9.872481350,0.026199220,0.017245110,-0.008767840
1640781270.956780,-0.110090190,0.265210660,10.708739280,0.040724880,0.026400390,0.022614000
1640781270.960360,0.406183480,0.208862740,9.051531790,0.042738020,-0.025236610,0.005340580
1640781270.961760,0.118973620,-0.015074510,9.903264050,0.044181940,-0.026130680,0.012135510
1640781270.966690,0.114730280,-0.139145310,9.434125900,0.053101780,0.118638580,0.017109510
1640781270.967800,0.062058720,-0.201153890,9.788575170,0.074456650,0.003705920,-0.011104350
1640781270.970250,-0.507674100,-0.060172540,10.362030980,0.063163050,-0.012010340,-0.008413200
1640781270.971760,-0.278435560,0.170081990,8.832335470,0.023502110,-0.023621320,-0.017488000
1640781270.975700,-0.691242520,0.133796570,9.813562390,0.044228140,-0.048397480,-0.043797500
1640781270.976920,-0.644288660,0.462725670,9.706727030,0.059251490,0.041082510,-0.043521820
1640781270.981210,-0.172177240,0.765621540,9.701495170,0.052700940,-0.008836390,-0.020268560
1640781270.982070,-0.195777040,0.552100900,10.641501430,0.040575850,0.034072990,0.000613930
1640781270.985290,0.191022750,0.589259450,9.816746710,0.045257810,0.011637810,0.025178490
1640781270.986790,0.073398440,0.490056660,10.158829690,0.049415220,-0.066772110,0.022906060
1640781270.990280,0.004846170,0.216949480,9.450873370,0.016678870,-0.028865040,0.017949940
1640781270.991900,0.092959600,0.284911220,9.092087750,0.013658410,-0.053833430,-0.002190470
1640781270.995760,-0.143194970,0.237142000,9.831089970,-0.002379720,0.033031410,-0.039462750
1640781270.996920,0.031745580,0.380824710,9.629867550,-0.026372080,0.039470200,-0.022234020
1640781271.000880,-0.118015940,0.547393560,10.417963980,-0.008758900,-0.024205450,-0.006781520
1640781271.001840,-0.311141640,0.347079810,10.031635280,0.000785290,-0.024230780,0.007854400
1640781271.005300,-0.175311040,0.494271790,9.430112840,-0.005732480,-0.083449480,0.036762660
1640781271.006820,-0.254915330,0.309097980,9.764765740,-0.010673700,0.024181610,0.025768580
1640781271.010720,0.061090380,0.036497670,9.385959630,-0.015112760,0.056864330,0.008164350
1640781271.012080,0.299923960,0.255765440,10.062369350,0.011019410,0.013639030,-0.014401980
1640781271.015490,0.332143900,0.069342380,9.701718330,-0.015906990,0.055627520,-0.039033600
1640781271.016760,0.378292890,-0.045686740,9.438833240,-0.013555590,-0.046397750,-0.017063320
1640781271.020260,-0.008953230,-0.073728770,9.653848650,0.028990210,-0.014753640,-0.005091730
1640781271.021750,-0.227991950,-0.284373760,9.322025300,0.018464030,-0.011779370,-0.002036990
1640781271.025460,-0.433760050,-0.094170530,10.106239320,0.035119060,-0.001178680,0.021664800
1640781271.027040,-0.398104070,-0.128485190,10.040363310,0.036208340,0.081056360,-0.010325020
1640781271.030400,-0.339823840,0.013035780,10.287551880,0.047032540,-0.000019370,-0.013336540
1640781271.032700,-0.307057830,0.524357260,10.087913510,0.055952370,-0.002668800,-0.009307270
1640781271.035300,-0.102249390,0.461353630,9.054310800,0.011660160,-0.034181780,-0.022812190
1640781271.036810,-0.094768860,0.626531120,9.430108070,0.036522750,-0.030151010,0.000640750
1640781271.040770,0.109126580,0.799318430,9.207903860,0.025609140,0.052548950,-0.031769280
1640781271.041790,0.183110480,0.555355850,10.065120700,-0.008401270,0.001172720,-0.022365150
1640781271.045440,0.069864240,0.640752550,10.647681240,0.019155440,0.055478520,0.003868340
1640781271.048060,-0.085625860,0.423178320,10.139771460,0.000666080,-0.040158630,-0.008043650
1640781271.050290,-0.357453760,0.364796850,10.108703610,-0.014983120,-0.104202340,0.048364700
1640781271.051750,-0.209668460,0.242032860,8.804349900,-0.021545590,0.005666910,0.033424800
1640781271.055290,-0.130026920,-0.178248820,9.222835540,-0.015485290,0.034457450,-0.005276500
1640781271.056860,-0.100377430,0.114345950,10.062194820,0.022903080,0.091189150,-0.014290210
1640781271.060920,0.155921330,0.199955490,9.693022730,-0.004240870,0.016389790,-0.048977140
1640781271.061780,-0.047893660,0.158995260,10.406812670,-0.026910010,-0.077804930,-0.027467310
1640781271.065450,-0.084545530,0.466843960,9.386386870,-0.033691530,0.005529820,0.001953540
1640781271.066900,-0.236268010,0.211838720,9.331861500,-0.019435590,-0.058296320,0.007146600
1640781271.070290,-0.421541750,0.263976900,10.006722450,0.027798120,0.037173920,0.018675630
1640781271.072270,-0.085168190,0.375982520,9.228418350,0.016924740,0.045561790,-0.003151600
1640781271.075350,-0.176127340,0.210294590,10.421437260,-0.027930740,-0.033661730,-0.004543360
1640781271.077230,0.075950030,0.298396530,9.805290220,-0.039209430,0.057424600,0.003734230
1640781271.081410,0.154821630,0.054458150,9.590746880,-0.009423490,-0.046716630,-0.007238990
1640781271.081770,-0.190123100,-0.046505670,10.387267110,0.039124490,-0.019150970,-0.010164080
1640781271.085290,0.024237760,0.264425160,8.908135410,0.009340050,0.013524290,-0.027491150
1640781271.086880,-0.403525200,0.214645890,10.042847630,-0.024601820,-0.058804450,-0.022210180
1640781271.090340,-0.565688610,0.364101020,10.101119040,-0.039131940,0.023154920,-0.017698110
1640781271.091810,-0.349998950,0.673522060,9.371349330,-0.022132700,-0.082522620,-0.005121530
1640781271.095480,-0.444853400,0.509283010,10.346659660,-0.013132390,-0.025080150,0.024068350
1640781271.096850,0.141625760,0.476008590,9.417593000,-0.007027390,0.073488060,0.020717080
1640781271.101080,0.262559350,0.368345860,10.150768280,-0.003297630,-0.029465560,-0.001968440
1640781271.101750,0.241239550,0.179999430,10.210320470,-0.035667420,0.018094480,-0.016184150
1640781271.105380,0.469695510,0.138429780,8.988300320,-0.049014390,-0.037279730,-0.012406710
1640781271.106810,-0.111148900,-0.198648530,9.896732330,-0.000800190,-0.067850930,-0.007919970
1640781271.110560,-0.181890990,-0.086360380,9.097741130,0.010502340,0.023381410,0.000748040
1640781271.111830,-0.407253300,0.019151600,9.567828180,-0.005957480,-0.036416950,0.011773410
1640781271.115290,-0.728915150,-0.195965740,10.542533870,-0.014093520,0.016631190,-0.010718410
1640781271.116850,-0.356667580,0.223194350,9.704956050,-0.001594420,-0.041377550,-0.024779150
1640781271.120670,-0.352803560,0.377481700,10.090557100,0.006686150,-0.070644910,-0.022754080
1640781271.121790,0.001209970,0.379811110,9.507181170,-0.013862550,0.046418610,-0.018207730
1640781271.125320,0.238471820,0.457606550,9.664100650,0.022177400,-0.006255510,-0.007435680
1640781271.127870,-0.019687310,0.346752050,10.256503110,0.017306210,-0.023932760,-0.013341010
1640781271.131370,0.094663760,0.446734670,9.448390960,-0.021120910,-0.077360870,-0.008706750
1640781271.131880,-0.232442840,0.396678690,9.815209390,-0.022169940,-0.083489710,-0.000900030
1640781271.135330,-0.338224470,0.321383860,9.769347190,-0.041691970,-0.020062930,-0.006343430
1640781271.136920,-0.137663300,0.397502720,9.837115290,-0.018748640,-0.017017130,0.004307930
1640781271.140280,-0.239718200,0.160765390,10.321063040,0.007103380,0.005586450,0.002069770
1640781271.141840,0.029882640,0.107698890,9.876063350,0.000205640,-0.039485100,-0.001885000
1640781271.145420,0.070091710,0.179905440,9.763084410,-0.003720820,-0.056014960,-0.012451410
1640781271.146950,-0.046442580,0.134645750,9.469005580,-0.053597990,-0.019431120,-0.016634170
1640781271.150280,0.010967450,0.146893740,9.676723480,-0.032599270,-0.043837730,0.001759830
1640781271.151810,-0.112226520,0.169200580,9.781931880,0.023604930,-0.012812020,-0.014883280
1640781271.155330,0.015378720,0.291916670,9.550133710,-0.014369190,-0.029703980,-0.007030370
1640781271.156800,-0.068402020,0.272169200,10.003934860,-0.015722220,0.001308320,0.013437870
1640781271.160560,-0.149775040,0.122176940,9.804285050,-0.031170250,-0.041018420,-0.014773010
1640781271.164820,-0.103783750,0.209277630,9.734585760,-0.006704030,-0.087510050,-0.015063580
1640781271.166900,0.006993280,0.214163960,9.438302040,-0.002597270,0.022427740,-0.010442730
1640781271.167230,0.048754270,-0.022440490,9.722126960,0.002665820,0.016553700,-0.011722740
1640781271.170370,-0.117064130,0.153689910,10.458683970,0.039857630,0.010293720,0.000868740
1640781271.171800,-0.175695910,0.242323920,9.757291790,-0.010459130,-0.054605310,-0.013314190
1640781271.175300,-0.428673150,0.243125190,9.833762170,-0.037585200,-0.126983240,-0.001835820
1640781271.177210,-0.397937570,0.483173310,9.298399930,-0.014995040,-0.027479230,-0.014898180
1640781271.180360,-0.280912550,0.536449790,9.381797790,-0.024874500,-0.016495580,-0.032055370
1640781271.181800,-0.162109430,0.738825680,10.315428730,-0.011637810,0.027684870,0.010754170
1640781271.185360,0.264423490,0.581957520,9.997892380,-0.031274560,0.020556150,-0.003689530
1640781271.186840,0.198733900,0.372013780,10.368734360,-0.033463540,-0.088106100,-0.000996890
1640781271.190270,0.204852970,0.487558190,9.699229240,-0.036835670,-0.045605000,0.005334610
1640781271.191890,0.124522160,0.149124250,9.180890080,-0.064672530,-0.042194130,-0.017972290
1640781271.195390,-0.234015520,0.099422340,9.846445080,-0.032827260,-0.029379130,0.008903440
1640781271.196840,-0.029839300,0.103393800,9.237199780,-0.030325350,0.018979610,0.007608530
1640781271.201180,-0.112233750,-0.139544580,9.761513710,-0.038811560,-0.011128190,0.004485250
1640781271.202530,-0.207069190,-0.022349770,10.159940720,-0.012984870,0.008979440,0.019182260
1640781271.205250,0.017714420,-0.033533470,9.625944140,-0.016629700,-0.046236820,-0.022068620
1640781271.206880,-0.170024560,0.110330120,10.091802600,-0.014801320,-0.038574630,-0.014342370
1640781271.210770,0.086597540,0.302497240,9.438246730,-0.021350390,0.033819680,-0.003649290
1640781271.211850,0.064331070,0.136773910,9.802060130,0.004157420,0.000345710,-0.028184060
1640781271.215400,-0.170873280,0.410539750,10.047987940,0.014679130,0.011877720,-0.010016560
1640781271.216960,-0.032478920,0.458273020,9.256381990,-0.022825600,-0.050194570,0.005537270
1640781271.220280,-0.417680350,0.002396000,9.745083810,-0.010897220,-0.077772150,-0.008414690
1640781271.221760,-0.299748090,0.243752690,9.376846310,0.004591050,-0.010561940,-0.009050970
1640781271.225270,-0.209801640,0.313346030,9.803661350,-0.007632370,0.005488100,-0.009909270
1640781271.227070,-0.272488180,0.029388020,10.691997530,-0.017201900,0.023438040,0.014308100
1640781271.230480,0.107349290,0.228046390,10.096570970,-0.000491740,-0.009693210,0.001800060
1640781271.234220,-0.110192020,0.225968410,10.188171390,0.026379530,-0.064799190,-0.011169910
1640781271.235390,-0.188977240,0.443510350,9.611419680,-0.024156270,-0.064180790,0.000803170
1640781271.236940,-0.113661770,0.689939980,9.034152030,-0.051425400,-0.067363680,-0.008751450
1640781271.240280,-0.224660220,0.533243240,9.645315170,-0.057156390,-0.006330010,-0.014922030
1640781271.241830,0.134327650,0.662459140,9.621921540,-0.045539440,0.051930560,0.018040840
1640781271.245410,0.090476190,0.532355370,10.340296750,0.000706320,0.001949070,0.017198920
1640781271.247030,0.045064880,0.234414770,10.371742250,-0.024141370,-0.045728690,0.037606060
1640781271.250510,0.155959650,0.220081080,9.469834330,-0.050957490,-0.082242480,0.032697610
1640781271.251860,-0.134041670,-0.213469360,9.563241960,-0.064674030,-0.026784840,0.021284820
1640781271.255250,-0.067102220,-0.449606690,9.485554700,-0.012043120,0.030174850,0.015027820
1640781271.256820,-0.109788720,-0.138209060,9.712694170,0.049437590,0.004859270,-0.022415820
1640781271.260440,-0.124030650,0.027374310,9.908560750,-0.036242610,-0.003674630,-0.014027950
1640781271.261820,-0.111056200,0.138581220,9.646518710,-0.063320990,-0.030776860,0.005754830
1640781271.265770,-0.259335430,0.135392950,9.723858830,0.004740060,-0.064079460,-0.010676680
1640781271.266940,-0.136557920,0.316513630,9.584296230,0.023496150,-0.021150710,-0.004833940
1640781271.270320,-0.039396980,0.593581740,9.747943880,0.026677550,0.039392710,0.025498870
1640781271.271840,0.003411500,0.328538060,10.411246300,-0.023686890,0.034712250,0.014039870
1640781271.275610,-0.012714820,0.367424190,10.361204150,-0.021991140,-0.022624430,0.022603580
1640781271.276890,-0.110292780,0.386757610,9.631843570,0.009153780,-0.080524380,0.003913050
1640781271.280450,-0.228014630,0.180489290,9.476870540,-0.015082960,-0.070759650,-0.010089580
1640781271.281840,-0.174571110,0.464093950,9.146721840,-0.002083180,0.002416970,0.000526010
1640781271.285320,-0.076139120,0.427833880,9.723931310,-0.055409970,0.033044820,-0.012527410
1640781271.286870,-0.015895200,0.284078990,10.561932560,-0.062870990,0.045105810,0.008746980
1640781271.290290,0.051690950,0.386799400,10.173994060,0.009268520,-0.028449300,0.017893310
1640781271.292180,-0.065883880,0.311146970,10.104502680,-0.011658670,-0.097335880,0.007635360
1640781271.295390,-0.178066190,0.471784000,9.513807300,-0.053918360,-0.017167630,0.045149020
1640781271.297060,-0.105904110,0.212940660,9.242026330,-0.066840640,-0.014704460,0.013820830
1640781271.300400,-0.023452770,0.055504960,9.904047970,-0.028847160,0.030516090,0.001886490
1640781271.301840,0.221923370,0.339911670,9.596893310,-0.003433230,0.074318060,0.004996360
1640781271.305290,0.174781170,0.159577440,10.009590150,-0.046817960,-0.007291140,-0.002901260
1640781271.306910,-0.041462040,-0.024735070,10.028091430,-0.030027330,-0.046618290,0.025035440
1640781271.310380,0.020011630,0.012708180,9.053949360,-0.021815310,-0.049333280,0.009518860
1640781271.311800,-0.284790250,-0.193900200,9.893237110,-0.016413630,0.000356140,0.017213820
1640781271.315490,-0.299468580,-0.125034930,10.039998050,0.026589640,0.082115830,0.013147300
1640781271.316910,-0.184635010,0.057935230,10.141949650,0.020103160,-0.027711700,-0.020575520
1640781271.320270,-0.291162820,0.183310940,10.117618560,-0.007203220,-0.018046790,-0.007855890
1640781271.321770,-0.119647500,0.292110120,9.095779420,-0.016160310,-0.010083610,-0.008064510
1640781271.325450,-0.268204600,0.272076960,9.549863820,0.018936400,-0.066323580,-0.008089840
1640781271.326940,-0.115532380,0.448055390,9.464568140,0.033536550,0.016243760,0.001962480
1640781271.331280,0.169626530,0.604717850,9.724840160,-0.019353630,0.033894190,0.003390010
1640781271.332580,-0.182242290,0.371960970,11.059609410,-0.018988550,0.017631050,0.010265410
1640781271.335330,-0.037686090,0.401615290,10.337650300,0.011008980,-0.047954920,0.008277600
1640781271.336830,-0.150501700,0.531413020,9.762230870,-0.005404650,-0.099030150,0.006812810
1640781271.340290,-0.361889750,0.333097880,9.410860060,-0.021052360,-0.014829630,0.017426900
1640781271.342100,-0.080951690,0.398563680,9.151760100,-0.041866310,0.014965240,-0.011929870
1640781271.345550,-0.108897860,0.357110290,9.804790500,-0.043925640,0.014856460,-0.026200710
1640781271.346860,0.108652260,0.267339410,9.939014430,-0.033651300,0.026677550,-0.008580090
1640781271.350310,0.188883530,0.317735200,10.069983480,-0.025007130,-0.030934820,-0.009438400
1640781271.351860,-0.085250870,0.228669200,10.028996470,-0.025051830,-0.054295350,0.019639730
1640781271.355330,0.016945270,0.269854100,9.534731860,-0.067186360,-0.021231180,0.044377150
1640781271.356880,-0.150576280,-0.002168760,9.799736980,-0.036482510,0.016178190,0.017389660
1640781271.360400,0.009881160,0.046120640,9.701543810,0.003376600,0.014285740,-0.004442040
1640781271.361860,0.251126830,0.357262670,9.624732970,-0.025103990,0.041750070,-0.029130280
1640781271.365460,0.014297160,0.177283390,9.806579590,-0.062219800,0.038817520,-0.022387500
1640781271.366910,-0.084479710,0.100978720,9.865364070,-0.035147370,-0.053852800,-0.004169340
1640781271.370310,-0.233999310,0.035251750,9.417872430,0.026102360,-0.052000590,0.001575050
1640781271.371800,-0.315245420,-0.018349890,9.373365400,0.000578170,-0.006033480,0.016073880
1640781271.375420,-0.273741630,0.163939630,10.241653440,-0.036026540,0.072486700,0.002308190
1640781271.376940,-0.326433270,0.203651980,10.435936930,-0.025472040,0.032567970,-0.010047850
1640781271.380330,-0.056146660,0.433719580,10.177382470,-0.031071900,-0.067089510,-0.012253230
1640781271.382080,0.098256210,0.683246200,9.435097690,-0.010962790,0.013841690,-0.001975890
1640781271.385280,0.037891960,0.527768140,9.345583920,-0.018145150,-0.014056270,0.005048510
1640781271.386810,0.143025470,0.625822900,9.720831870,-0.031109150,-0.003558400,0.008319320
1640781271.390910,0.242942240,0.627584460,9.414855960,-0.054170190,0.052872300,-0.001031160
1640781271.392240,-0.019458250,0.330197130,10.428128240,-0.077313180,0.014917560,0.005000830
1640781271.396560,-0.255188670,0.410718380,10.415353780,-0.035355990,-0.002729890,0.014629960
1640781271.397860,-0.415259690,0.234519620,9.649436000,-0.043876470,-0.088110570,0.013975800
1640781271.400450,-0.360229700,0.121370580,9.577718730,-0.074426840,-0.018981100,0.043582920
1640781271.401820,-0.116725430,0.063240130,9.209515570,-0.047452750,0.096151260,0.004832450
1640781271.405260,0.094784330,-0.008601410,9.963384630,-0.056791310,0.044731800,-0.031284990
1640781271.407190,0.257005040,0.269327250,10.101693150,-0.047275420,0.060845920,0.000728670
1640781271.410350,0.302247050,0.063862290,9.555281640,-0.037240990,-0.030238930,-0.020292400
1640781271.411980,0.009268510,0.069114400,9.901171680,-0.040331490,-0.073610250,0.010479990
1640781271.415320,-0.046942980,0.337021770,9.066319470,-0.039872530,0.037428740,0.025466090
1640781271.416820,-0.114350640,0.020927350,9.787087440,-0.061102210,0.037471940,-0.003130730
1640781271.420310,-0.349438100,0.291900990,10.637239460,-0.015611950,0.063523650,0.003536050
1640781271.421780,-0.015109250,0.440027300,9.607882500,-0.017750260,0.001668930,-0.022672120
1640781271.425580,-0.229472010,0.257059250,10.279467580,-0.060983010,-0.020788610,0.003221630
1640781271.426930,-0.223921240,0.323404070,9.474450110,-0.032919650,0.037162010,0.021561980
1640781271.432110,-0.085543320,0.098171870,9.435571670,-0.030854350,-0.051964820,-0.010676680
1640781271.432690,-0.255184350,0.302298340,10.014554020,-0.045263770,0.041013960,0.003476440
1640781271.435370,-0.115663280,0.464251910,9.584658620,-0.059768560,0.038152940,-0.003585220
1640781271.436880,-0.341285260,0.374673840,10.763113980,-0.064152490,-0.060129170,-0.003845990
1640781271.440690,-0.279157340,0.765028890,9.900223730,-0.080439460,-0.008466840,0.021825730
1640781271.442000,0.043007110,0.626296520,9.482665060,-0.097128750,-0.023905930,0.031593440
1640781271.446320,-0.181842420,0.261719700,10.342060090,-0.048424310,0.034227970,0.030693420
1640781271.446950,0.264845190,0.399292170,9.137809750,-0.038491200,0.013799970,0.003223120
1640781271.450320,0.218877970,0.209716100,9.842125890,-0.094497200,-0.018472970,0.004191700
1640781271.451850,-0.137320340,-0.157142240,9.972288130,-0.098922850,0.034818060,0.029097500
1640781271.455510,-0.118339260,-0.074354250,9.573355670,-0.059190390,-0.092056390,0.021848080
1640781271.457710,-0.449872490,-0.072480450,10.085475920,-0.059799850,-0.041840970,0.035789610
1640781271.460610,-0.201887640,-0.131024030,9.258152010,-0.065867600,0.051197400,0.042492140
1640781271.463410,-0.194070320,0.063473510,10.243844990,-0.045627360,0.014579300,0.001585480
1640781271.465430,-0.198385160,0.166381450,10.154855730,-0.034147500,0.029389560,-0.004635750
1640781271.466860,0.183224590,0.332187770,9.197924610,-0.035592920,-0.056111820,0.010831660
1640781271.470240,-0.104494250,0.275127680,9.803147320,-0.025375190,-0.026389960,0.002285840
1640781271.471860,-0.007674960,0.199265540,9.219254490,-0.039272010,0.007624930,0.021971760
1640781271.475600,-0.076904060,0.297529070,9.977544780,-0.044560430,-0.020655990,0.017568470
1640781271.478290,-0.339644220,0.034843260,10.424370770,-0.028568510,0.036117450,0.004498660
1640781271.480300,-0.095614250,0.254655780,9.920271870,-0.015750530,-0.066998610,0.017037990
1640781271.481800,-0.206577810,0.490296630,10.093062400,-0.040334460,-0.030131640,0.021584330
1640781271.485260,-0.038420390,0.193994760,9.434263230,-0.076484680,0.036844610,0.035759810
1640781271.486820,0.062931940,0.152334350,9.986290930,-0.005139410,-0.024774670,0.038465850
1640781271.490450,-0.060552990,0.278517450,9.945296290,0.028666860,-0.005599860,-0.003989040
1640781271.492590,0.189153550,0.406529010,9.496752740,-0.059016060,-0.042027240,-0.004127620
1640781271.496040,-0.090126730,0.605286360,10.172483440,-0.094032290,0.010438260,0.010928510
1640781271.498940,-0.233387460,0.405498770,9.851504330,-0.081285840,-0.022649770,0.002905730
1640781271.500320,-0.007506330,0.571631010,9.791053770,-0.029067700,-0.060001020,0.042697790
1640781271.501840,0.003003590,0.490339790,9.570266720,-0.011344260,0.062458230,0.066252070
1640781271.505530,0.157735660,-0.025194320,9.889130590,-0.042578570,0.019487740,0.049762430
1640781271.507090,0.261750790,0.103384840,10.057925220,-0.052244960,0.014530120,0.041000540
1640781271.510330,0.271950510,-0.214207080,9.350882530,-0.060705840,0.010034440,-0.000935790
1640781271.512650,0.123651000,-0.353423090,9.912035940,-0.028203430,-0.020220870,0.005887450
1640781271.515260,-0.153716280,0.054362070,9.540369990,0.003676120,0.022296600,-0.004184250
1640781271.516890,-0.291048440,0.006475700,9.511498450,-0.049754970,-0.044669210,-0.008708240
1640781271.520520,-0.381421090,0.226767700,10.062287330,-0.049291550,0.043179090,0.014661250
1640781271.521900,-0.321492280,0.397867890,9.638277050,-0.015172360,0.043737880,-0.003837050
1640781271.525440,-0.214089080,0.442601650,10.405508040,-0.001618270,-0.035086280,0.014442210
1640781271.526940,0.044533480,0.593310480,9.585751530,-0.003533070,0.065717100,0.042983890
1640781271.530440,0.179973810,0.069686980,9.541860580,-0.007928910,-0.009378790,0.036214300
1640781271.531980,-0.044198530,-0.019834290,10.379755020,0.012800100,0.001147390,0.034166880
1640781271.535310,0.090536050,0.129557450,9.047019000,-0.009642540,0.009478630,0.007271770
1640781271.537190,-0.341117920,-0.007148520,10.297325130,-0.047422940,-0.066886830,-0.010478500
1640781271.540710,-0.423573320,0.342666630,10.093476300,-0.026771430,0.041900580,-0.009851160
1640781271.541950,-0.151527420,0.514388560,9.481692310,-0.034759930,-0.037775930,-0.010718400
1640781271.545520,-0.257732600,0.496637490,10.677926060,-0.015124680,0.032466650,0.043417520
1640781271.546860,0.164053470,0.488151250,9.547303200,0.005708630,0.071246930,0.038632740
1640781271.550280,0.199704320,0.349234640,10.018399240,0.000326340,-0.066190970,0.018322470
1640781271.551990,0.094358410,0.302295740,9.848490720,-0.045417250,0.044336920,0.014634430
1640781271.555560,0.202198190,0.144087630,8.950336460,-0.044968720,-0.006055830,-0.008316340
1640781271.561180,-0.359650370,0.035932850,10.504048350,-0.008772310,-0.044161090,0.007809700
1640781271.561790,-0.113644590,0.226734210,9.251856800,-0.018198790,0.057730070,0.027592480
1640781271.562040,-0.138120110,0.144896480,9.811290740,-0.041595110,-0.017359850,0.030399860
1640781271.565470,-0.336104390,-0.056157930,10.641787530,-0.023159380,0.055865940,0.025841600
1640781271.566900,0.213626770,0.009584080,9.085265160,0.020919740,0.007180870,-0.002506370
1640781271.570410,0.008603060,0.019768950,10.015461920,0.029432780,-0.039860610,-0.011374060
1640781271.571870,0.166212040,0.036299500,9.354872700,-0.007523600,0.100247580,0.006192920
1640781271.575400,0.228009550,0.055211120,9.554176330,-0.009506940,-0.003907080,0.000137090
1640781271.580050,-0.338492360,0.060624150,10.563998220,0.015009940,0.013205410,-0.003258880
1640781271.580550,-0.200446280,0.250561800,9.301096920,0.024794050,-0.019733610,0.006778540
1640781271.581830,-0.540757720,0.380109490,10.025745390,0.029061730,-0.055313110,-0.010636450
1640781271.585370,-0.515487790,0.568336900,9.723289490,-0.017811360,0.060401860,0.003491340
1640781271.586940,-0.076646950,0.570065080,9.642009740,-0.027573110,0.027309360,0.017635530
1640781271.590600,-0.185452940,0.328116210,10.642227170,0.027018790,0.048196310,0.002136830
1640781271.591900,0.222402350,0.331840100,9.806132320,0.050055980,-0.000339750,0.003764030
1640781271.595410,0.219225000,0.365955980,9.919285770,0.011222060,-0.036236640,-0.005890430
1640781271.596880,-0.082620860,0.256539370,9.662075040,-0.055369740,0.019022820,-0.012864170
1640781271.600490,-0.067426020,0.250402270,9.548961640,-0.036300730,-0.040969250,-0.002799930
1640781271.601930,-0.279946120,0.379237440,9.780416490,0.007678570,0.001095240,0.008353590
1640781271.605840,-0.115127350,0.361147020,9.471316340,-0.012303890,0.035549700,0.026778880
1640781271.607010,0.002924190,0.296668620,10.224169730,-0.007744130,0.042191150,0.036364790
1640781271.610410,-0.114363690,0.088033820,10.158472060,-0.006778540,0.030612950,0.010557470
1640781271.611800,0.125414000,0.085934970,9.740267750,-0.010517240,-0.051964820,-0.008839370
1640781271.615390,-0.011569430,0.139060830,9.672593120,0.000131130,0.025649370,0.000514090
1640781271.617160,-0.031816730,-0.094927560,9.296665190,-0.003582240,0.014530120,-0.017502910
1640781271.620310,-0.055122770,0.089626030,9.856837270,0.022917990,0.014530120,0.000165400
1640781271.622070,-0.186078160,0.145674050,9.634238240,0.006155670,0.045254820,0.002260510
1640781271.625360,-0.201930280,-0.051332500,9.965876580,0.004988910,-0.041796270,-0.000201170
1640781271.627330,-0.196068870,0.262467210,9.902550700,0.031761830,0.004394350,-0.015024840
1640781271.630340,-0.048472370,0.236829090,9.396724700,0.009784100,0.012217460,-0.011697410
1640781271.632850,-0.099772650,0.132434070,10.395750050,0.034439560,0.036889310,0.013965370
1640781271.635370,-0.037880720,0.236061450,9.924139980,0.059491400,0.051826250,-0.006110970
1640781271.636880,-0.182785750,0.169107420,10.009696010,0.037623940,-0.089569400,-0.005728010
1640781271.640430,-0.316833290,0.364202740,9.720532420,0.020334130,0.001226370,0.001297890
1640781271.641940,-0.381735620,0.390668570,9.183618550,-0.000861290,-0.014756620,-0.021055340
1640781271.645330,-0.505852460,0.447097660,10.290901180,0.025056300,-0.044235590,0.011219080
1640781271.646900,-0.020580530,0.616179700,9.495356560,0.015006960,0.061261660,0.004425640
1640781271.650300,0.161204860,0.382683490,10.028414730,0.004041190,0.006788970,0.020203000
1640781271.651800,0.184557590,0.300594480,10.633674620,0.033256410,0.035460300,0.037978590
1640781271.655600,0.397932890,0.241311480,9.375402450,0.015717740,-0.030007960,-0.009250640
1640781271.657000,-0.014572820,0.175829720,9.919723510,-0.008571150,-0.097866360,-0.001353030
1640781271.660490,-0.061203730,0.160422740,9.116096500,-0.007477400,0.045360620,0.002335010
1640781271.662620,-0.203188230,-0.014200230,9.328280450,0.016175210,-0.019328300,-0.008091330
1640781271.665840,-0.569589730,0.115752650,10.401836400,0.040173530,0.010651350,0.024293360
1640781271.666880,-0.160458220,0.148383590,9.254598620,0.016349550,0.016102200,0.017422430
1640781271.670340,-0.405387850,0.019699170,10.381391530,0.006055830,-0.061589490,0.003543500
1640781271.672130,-0.266523180,0.179210470,9.940268520,0.017473100,0.030928850,-0.002899770
1640781271.675340,0.103094340,0.143121530,9.245154380,0.032988190,-0.056630370,-0.020666420
1640781271.677300,-0.050963100,0.135016350,10.189040180,0.048889230,0.000308450,0.002291800
1640781271.680590,0.314814690,0.358231840,9.288184170,0.026157500,0.058364880,-0.003203750
1640781271.681820,-0.067167030,0.324558410,10.245488170,0.013494490,-0.055119410,-0.004571680
1640781271.685310,-0.436318670,0.316928000,10.231634140,0.004717710,-0.054721540,0.007931890
1640781271.686860,-0.188377960,0.487774670,8.980799670,0.022794310,-0.101566340,-0.010585780
1640781271.692540,-0.500473920,0.490016010,9.904450420,0.014014540,-0.018674130,-0.000853840
1640781271.693210,-0.191674830,0.556656960,9.709410670,-0.026577720,0.091348590,0.009879470
1640781271.695460,-0.028756840,0.344771680,10.391901020,0.004820530,-0.034514080,0.006692110
1640781271.699990,-0.086774610,0.173069510,10.409779550,0.031119590,-0.042349110,0.010117890
1640781271.700900,0.222728580,0.307649760,9.122322080,0.014086070,-0.058937070,0.008922820
1640781271.703160,-0.126175670,0.162819330,9.861532210,-0.011396410,-0.053584580,-0.005888940
1640781271.705590,-0.006294780,0.128964870,9.323707580,-0.026929380,0.006300210,0.010117890
1640781271.710300,0.294463010,0.196871580,9.386859890,0.001724060,-0.008183720,-0.006322560
1640781271.711000,0.036352980,0.038488070,10.154925350,0.012959540,0.065258150,-0.001780690
1640781271.712140,-0.001636330,0.149532970,9.937702180,0.036336480,-0.033931450,0.016592440
1640781271.715260,-0.277804260,0.169565250,10.019896510,0.036266450,-0.122264030,-0.009244680
1640781271.716860,-0.258642380,0.128319040,9.147505760,-0.026695440,-0.030003490,-0.001993780
1640781271.720280,-0.153566330,0.048842880,9.631052970,0.011987990,0.036928060,0.000783800
1640781271.722090,-0.221891700,-0.048813060,10.409678460,0.081083180,0.088824350,-0.026959180
1640781271.725400,-0.092373670,0.299601580,10.128270150,0.072768330,-0.046443940,-0.008210540
1640781271.727060,-0.103259000,0.475225690,9.800934790,0.011491780,-0.075691950,0.009325150
1640781271.730350,-0.181333270,0.222253400,9.125137330,-0.040450690,-0.054770720,-0.003223120
1640781271.732380,-0.185624120,0.425764440,9.455049510,0.027620800,-0.052119800,-0.001423060
1640781271.735320,-0.070389720,0.518606900,9.668287280,0.057084860,0.036084650,-0.023503600
1640781271.736880,0.088013370,0.515082960,10.217465400,0.018244980,0.033019480,-0.010660290
1640781271.740360,0.051359670,0.730117800,10.830824850,-0.002065300,0.009000300,0.008521970
1640781271.741950,-0.012650600,0.539353010,10.121706010,-0.053606940,-0.057402260,-0.000490250
1640781271.745780,-0.190984500,0.448951480,9.636576650,-0.015816090,-0.117588030,0.031009310
1640781271.746880,-0.141824720,0.392756520,8.920307160,0.027467310,-0.011543930,-0.002622600
1640781271.750250,0.007262060,0.241844480,9.061622620,-0.018751620,0.034786760,-0.013925140
1640781271.751880,0.046783560,0.328088400,10.074811940,-0.047959390,0.073747340,0.011686980
1640781271.755760,0.164843470,-0.041864650,10.186264990,-0.039787590,0.019174810,-0.003838540
1640781271.756940,-0.071858510,-0.144357370,10.431157110,0.021184980,-0.111874940,0.005358460
1640781271.760630,-0.134193930,0.202070620,9.452800750,0.018286700,-0.057886540,0.005748870
1640781271.761940,-0.170312910,-0.096530500,9.198122980,-0.037238010,-0.006100540,0.007469950
1640781271.765400,-0.238624830,-0.060874110,9.919923780,0.007642810,0.063039360,0.012236840
1640781271.766850,0.078197690,0.233861480,9.562255860,0.033017990,0.042779740,-0.030919910
1640781271.770260,-0.015356530,0.249750300,10.106907840,0.015142560,-0.039945550,-0.007009510
1640781271.772200,-0.053314600,0.418058400,9.688904760,0.000396370,-0.026236480,-0.001861160
1640781271.777660,-0.148571190,0.139854450,9.447121620,0.012184680,-0.076566640,-0.025543570
1640781271.778680,-0.335567620,0.265285020,9.851500510,0.037992000,-0.032797450,-0.003856420
1640781271.780220,-0.015903000,0.402809680,9.504522320,0.007851420,0.067940350,-0.007323920
1640781271.781820,-0.168625340,0.200565930,10.746479030,0.008107720,0.018912550,-0.016540290
1640781271.785340,-0.185269940,0.473789130,10.547782900,0.014171000,-0.014248490,-0.000867250
1640781271.786880,-0.030052260,0.499838530,9.433707240,-0.005048510,-0.104568900,-0.003285710
1640781271.790430,-0.278137270,0.312285930,9.533277510,0.004424160,-0.077052410,0.001659990
1640781271.791970,0.041448390,0.565654990,8.834974290,-0.013241170,0.034832950,-0.012788180
1640781271.796510,0.114080680,0.457871940,9.812553410,-0.037838520,0.041021410,-0.018754600
1640781271.798350,0.076579500,0.231574970,10.610231400,-0.018620490,0.049658120,0.009240210
1640781271.800290,0.183602930,0.265857520,9.973557470,0.019557780,-0.058326130,0.004190210
1640781271.801830,-0.201648820,0.237101200,10.085350040,0.001962480,-0.122922670,0.019755960
1640781271.805700,-0.110431330,0.180811780,9.110806470,-0.061503050,0.002597270,0.047604740
1640781271.806950,-0.050176900,-0.034797290,9.340142250,-0.028887400,0.033485890,0.007243450
1640781271.810330,-0.076392010,-0.025866450,10.164971350,0.030978020,0.064198680,-0.023488700
1640781271.816160,0.263549390,0.309616680,9.529638290,0.019277630,0.021658840,-0.009092690
1640781271.816600,-0.088127990,0.122409310,9.995218280,-0.002795460,-0.057758390,-0.010943410
1640781271.817710,-0.230513690,0.011506230,9.532199860,-0.020389260,-0.048327440,-0.000579660
1640781271.820250,-0.291425080,0.068869960,9.249345780,0.023293500,-0.052316490,0.000777840
1640781271.822180,-0.375184950,-0.057884660,9.993049620,0.039677330,0.047242630,-0.017428400
1640781271.825370,-0.103901660,0.234367280,10.139290810,0.042228400,0.048950310,-0.006482010
1640781271.827080,-0.125526190,0.446513860,10.384200100,0.024878980,-0.028222800,-0.014528630
1640781271.830650,0.002482620,0.337025670,9.773583410,-0.030609960,-0.028067830,-0.003853440
1640781271.831890,0.032532660,0.405331970,9.304770470,0.023204090,-0.041830540,0.010725850
1640781271.835270,-0.109664890,0.368785200,9.517349240,0.055137270,-0.035907320,-0.026223060
1640781271.836940,0.164614320,0.561026690,9.395419120,-0.009796020,0.021053850,-0.018404430
1640781271.843640,0.076469900,0.629631400,10.071347240,-0.032959880,0.063122820,0.004404780
1640781271.844210,-0.155001120,0.292093780,10.831817630,-0.027869650,-0.001838800,-0.018167500
1640781271.845540,-0.239548550,0.583639440,10.124137880,0.017644460,-0.096118440,0.005170700
1640781271.846900,-0.292768420,0.547696530,9.288411140,-0.007939340,-0.081002710,0.017566980
1640781271.850230,-0.075411110,0.194612790,9.120448110,-0.059270850,0.047518310,0.010873380
1640781271.851840,0.085130480,0.334239600,9.598814010,-0.025749200,0.088523310,0.006566940
1640781271.855730,0.237344440,0.050965780,10.102523800,-0.025932490,0.037968150,-0.015263260
1640781271.857050,0.294712280,-0.045304710,10.000141140,0.000451510,-0.023239850,-0.001917780
1640781271.860800,0.074275140,0.170176980,9.490928650,0.007811190,-0.059282790,0.004312400
1640781271.861980,-0.161763220,-0.053231900,9.498240470,-0.070254510,-0.042164330,0.015455490
1640781271.865340,-0.300015540,0.032139700,9.602286340,-0.030423700,0.048801300,0.021316110
1640781271.866920,-0.304045020,0.086992170,9.997356410,0.014244020,0.036121910,-0.022502240
1640781271.870240,-0.202762800,0.281330080,10.286362650,0.030212110,0.003610550,-0.011681020
1640781271.872520,-0.031130410,0.545078520,9.598487850,-0.018638380,0.019708280,0.002303720
1640781271.875430,-0.097648120,0.235767710,9.807197570,-0.050036610,-0.020948050,0.001955030
1640781271.876980,-0.160815220,0.216105120,9.651106830,0.015869740,-0.035846240,0.017432870
1640781271.880270,0.144148440,0.377687450,8.949817660,0.012281540,-0.014112890,-0.005574520
1640781271.881870,-0.020752000,0.342556830,10.027663230,-0.029368700,0.066331030,0.002598760
1640781271.885320,-0.086368950,0.446074220,10.494295120,-0.029250980,0.053469840,0.016285480
1640781271.886890,-0.132492130,0.517310560,10.348205570,-0.042606890,-0.096441810,0.004237890
1640781271.890800,-0.233606670,0.478769420,9.833583830,-0.033299620,-0.049714750,0.046068430
1640781271.892700,0.071784750,0.322486520,8.990436550,-0.028058890,0.038899480,0.030769410
1640781271.895550,-0.017564630,0.234050480,9.848707200,-0.011824070,0.050310790,-0.000309940
1640781271.897200,0.188720630,0.260154250,9.860545160,-0.033882260,0.065343090,0.002862510
1640781271.901490,0.220108330,0.140411300,9.745630260,-0.056099900,-0.008797650,-0.015418230
1640781271.902040,-0.174039740,0.030402150,10.133457180,-0.028541680,-0.063951310,0.012871620
1640781271.905820,-0.076776890,0.116693640,9.116035460,-0.030094390,-0.013715030,0.031262640
1640781271.908030,-0.302860380,0.042834090,9.568841930,-0.036160650,0.027167800,0.027567150
1640781271.910370,-0.404289360,-0.039370930,10.236029620,-0.014467540,0.059425830,0.022259350
1640781271.912550,0.022794220,0.280846060,9.697981830,-0.011764470,-0.006197390,0.000227990
1640781271.916550,-0.059703680,0.159215720,9.912867550,-0.016601390,-0.002025070,-0.000537930
1640781271.917100,0.064407440,0.178758400,9.665438650,-0.019982460,0.035294900,0.011441110
1640781271.920340,-0.090085280,0.144879070,9.738533970,0.007051230,-0.034616890,-0.003272300
1640781271.922130,-0.212940620,0.077744390,9.676040650,0.008790190,-0.027254230,-0.003682080
1640781271.925720,-0.072088610,0.332978960,9.498977660,-0.021147730,0.032325090,-0.004813080
1640781271.926980,-0.469997700,0.324057760,10.311299320,-0.021015110,0.009013710,-0.011354680
1640781271.930560,-0.291519400,0.559534970,10.174541470,-0.038768350,-0.054028630,0.006791950
1640781271.931980,-0.037106670,0.519117060,9.654267310,-0.027939680,-0.017079710,0.033846500
1640781271.935310,-0.036720890,0.131739600,9.905705450,0.016309320,0.028994680,0.031211970
1640781271.937530,0.168663000,0.210286140,9.987417220,0.025317070,0.011734670,0.012628730
1640781271.941440,0.124759200,0.226386220,9.704394340,-0.011484330,-0.015775860,-0.000949200
1640781271.942740,-0.001171060,0.064767980,9.877479550,-0.073312230,-0.026059150,-0.015658140
1640781271.945310,-0.120685830,0.215515460,9.779318810,-0.034849360,-0.026884680,-0.011014940
1640781271.946980,-0.237518310,0.213541420,9.369542120,0.014132260,-0.055027010,-0.002323090
1640781271.950290,-0.029640440,0.318675970,9.475043300,-0.014936920,0.040590760,0.025966770
1640781271.951930,-0.039786880,0.247280640,9.956272130,0.001981850,0.100949410,0.033092500
1640781271.955340,-0.101107150,0.022161850,10.586627960,-0.003083050,-0.036224730,0.019532440
1640781271.957320,0.145029720,0.099448710,9.811386110,-0.003433230,-0.060302030,0.018966200
1640781271.960490,0.099980950,-0.096968790,9.097972870,0.005832310,0.004208090,-0.001902880
1640781271.961920,-0.139209180,-0.123383520,9.943075180,0.012673440,0.042314820,-0.020204480
1640781271.965850,-0.223994430,0.209870610,9.764358520,0.033767520,0.026443600,-0.019747020
1640781271.967020,-0.336463570,0.201758950,9.732739450,-0.004675980,-0.079664590,-0.016807020
1640781271.970440,-0.351956160,0.387428340,9.817047120,-0.008879600,-0.025787950,0.008456410
1640781271.971920,-0.234733570,0.564198730,9.461184500,0.009989740,0.023096800,0.012256210
1640781271.975360,-0.215779200,0.426373720,10.441727640,-0.003087520,0.004792210,0.034885120
1640781271.977700,0.019988740,0.361101630,10.181014060,0.043825810,0.033625960,0.040629510
1640781271.980220,0.223223870,0.233567220,9.673295970,0.031474230,-0.044399500,-0.004026290
1640781271.981860,0.036344670,0.321760030,9.947834970,-0.021484490,-0.010968740,-0.001055000
1640781271.985350,-0.055737290,0.437368540,9.368051530,-0.041335820,0.013165180,-0.013266500
1640781271.986910,-0.343684430,0.389531730,9.949642180,-0.047568980,-0.099554670,-0.013098120
1640781271.990420,-0.236858610,0.629607680,9.564683910,-0.010240080,-0.010593240,0.027337670
1640781271.991950,0.036609700,0.412953230,9.363399510,-0.021228190,0.065489120,0.036253040
1640781271.995380,-0.166270390,0.125860830,10.818821910,-0.013646480,0.052115320,0.055672230
1640781271.996930,0.046848560,0.156165530,10.072883610,0.015093390,-0.030073520,0.027927750
1640781272.001040,0.269719810,-0.004722050,9.297073360,-0.033107400,-0.103206920,-0.016638640
1640781272.003050,0.048157030,0.030477560,9.392979620,-0.047358870,0.039514900,0.006549060
1640781272.005390,0.129050090,-0.055666510,9.358920100,-0.006462630,0.063802300,-0.019812580
1640781272.007160,-0.242377940,-0.015031930,10.402927400,0.018669660,-0.035427510,-0.023578110
1640781272.010810,-0.212040410,0.357224940,9.623805050,0.005450840,-0.015152990,0.015731150
1640781272.011940,-0.185333980,0.130678220,9.543519020,-0.024731460,-0.043469670,0.002110000
1640781272.015620,-0.512393950,0.160919370,10.182644840,-0.002916160,-0.009492040,0.015081470
1640781272.016920,-0.037232340,0.227695670,9.409214970,0.026510660,0.017438830,0.023815040
1640781272.020310,-0.010382830,-0.133266270,10.228590970,0.049552330,0.016884510,0.009119510
1640781272.021880,-0.067930240,0.130812570,10.189099310,0.055335470,0.022517150,0.007840990
1640781272.025390,0.064365900,0.318897190,9.709085460,-0.015722220,-0.065878040,-0.003491340
1640781272.026960,-0.361891330,0.198002610,9.875170710,-0.029569860,-0.054675340,-0.021035970
1640781272.034680,-0.341842920,0.553925570,9.396037100,0.010645390,-0.055971750,-0.018581750
1640781272.035850,-0.166249360,0.803580520,9.496513370,0.013500450,-0.030055650,-0.005131960
1640781272.036820,-0.035727440,0.657605890,9.897441860,-0.015050180,0.077426440,0.030261280
1640781272.037720,0.220141190,0.580137730,10.473901750,-0.024333590,0.044685610,0.044648350
1640781272.040340,0.086210810,0.229150680,10.617153170,0.010809300,-0.064902010,0.028668350
1640781272.045090,0.082844560,0.168529530,9.506236080,-0.015255810,-0.094491230,0.017756230
1640781272.045660,-0.007912110,0.133111240,9.185581210,-0.049997870,-0.021483000,-0.003567340
1640781272.051260,-0.244259000,-0.100527090,9.469127660,-0.025787960,0.019331280,-0.021740800
1640781272.052080,0.077492860,0.306004460,9.466210370,-0.041545930,0.007280710,0.000412760
1640781272.052600,0.076567580,0.261688290,9.920969960,-0.027203560,0.074687610,0.024516880
1640781272.055340,-0.099530420,0.008002260,10.360515590,-0.003726780,-0.024031100,0.041815640
1640781272.056950,-0.059057630,0.236405520,9.921468730,0.012114640,-0.095745920,0.033710900
1640781272.061390,-0.077910500,-0.055857030,9.123917580,-0.006003680,-0.018632410,0.022012000
1640781272.062910,-0.007106560,-0.122874650,9.628581050,-0.017814340,0.063461050,-0.000122190
1640781272.068060,-0.146949990,0.175655930,10.136520390,0.016504530,0.063440200,-0.032551590
1640781272.069400,-0.099815590,0.207874850,9.826644900,-0.003758070,-0.050604340,-0.021190940
1640781272.070250,-0.118393310,0.384653030,9.714217190,-0.009860100,-0.032670800,0.004862250
1640781272.071920,-0.344195690,0.371511340,9.455533030,0.013934080,-0.030647220,-0.000011920
1640781272.075600,-0.286591290,0.264433620,9.724328990,0.003054740,-0.066481540,0.034335260
1640781272.077400,0.055095960,0.367976130,9.646453860,0.015133620,0.069093700,0.046168270
1640781272.080870,0.112419700,0.010433560,10.352695470,0.018885730,0.064057120,0.011475390
1640781272.082240,0.021389780,0.253329280,10.886788370,0.016792120,-0.034083430,0.009191040
1640781272.085300,-0.010486810,0.499575820,9.594087600,-0.001983340,-0.073583430,-0.021465120
1640781272.086880,-0.200840830,0.399533390,9.282049180,-0.056032830,-0.095543260,-0.038540360
1640781272.092060,-0.231967960,0.864295660,9.093713760,-0.031745430,0.006139280,-0.011992450
1640781272.093800,0.040991680,0.726534660,9.188457490,-0.033384560,0.065307330,0.003118810
1640781272.095340,0.088854830,0.413998160,10.506049160,-0.025153160,0.085078190,0.047577920
1640781272.100870,0.096287970,0.271990300,10.459536550,0.039805480,0.011585650,0.055035960
1640781272.101590,-0.014935960,-0.155697820,10.232749940,-0.003249940,-0.140705670,0.026604530
1640781272.101950,-0.004352890,-0.177857580,9.287927630,-0.057910380,-0.030162930,0.024198000
1640781272.105260,0.073056740,-0.325038020,8.875555040,-0.032819810,0.079470890,-0.027401750
1640781272.106860,-0.063920040,-0.193556430,10.139324190,0.000926850,0.066323580,-0.049950190
1640781272.112080,0.033345250,0.392043500,9.666161540,0.018645820,0.050587960,-0.027368970
1640781272.112570,0.006885420,0.307584020,9.745568280,-0.016388300,-0.040012600,-0.010634960
1640781272.115270,-0.394889530,0.305402730,10.052829740,-0.009755790,-0.040598220,0.049495700
1640781272.117270,-0.215024220,0.387295720,9.076888080,0.009864570,-0.029928980,0.042966010
1640781272.120270,-0.186758410,-0.036084210,9.975603100,0.013457240,0.047445300,0.022643810
1640781272.121860,-0.182600990,0.067411450,10.328905110,0.070507820,0.106666990,-0.009088220
1640781272.125310,0.039305530,0.381224600,10.139144900,0.013646490,-0.029543050,-0.051696610
1640781272.127200,-0.152999190,0.486429360,10.095640180,-0.061422590,-0.044414400,-0.024814910
1640781272.130480,-0.114358430,0.571303550,9.061687470,-0.049814590,-0.018428270,-0.017513330
1640781272.131950,-0.154509470,0.628036380,9.539220810,-0.004671510,-0.038203600,-0.019904970
1640781272.135360,-0.114049700,0.613418940,9.622713090,0.016693770,0.049819050,0.026081500
1640781272.136960,0.240442870,0.490606010,9.795395850,-0.013068320,0.068902980,0.042293970
1640781272.140260,-0.126501710,0.164227680,11.128560070,-0.028836720,0.026209650,0.027094780
1640781272.142190,-0.158711280,0.298802790,10.178812980,-0.046031170,-0.087647130,0.019654630
1640781272.145380,-0.080571370,0.225371120,9.194542880,-0.064475830,-0.091883540,-0.010308620
1640781272.147140,-0.206374140,0.034286830,9.166545870,-0.030672560,0.060701380,-0.031268600
1640781272.150240,0.053407630,0.492714910,9.302178380,-0.028696660,0.081036980,-0.036314130
1640781272.151950,0.083835530,0.362126980,10.122177120,-0.044904640,0.048692520,-0.013184550
1640781272.155280,0.098226080,0.038622130,10.093294140,-0.035558640,0.003235040,0.018103420
1640781272.156930,0.023795010,0.091442990,9.870472910,-0.007033350,-0.072696810,0.030651690
1640781272.160500,-0.216733050,-0.266423020,9.601129530,-0.000622870,-0.036717960,0.023543840
1640781272.162070,-0.107033750,-0.255077900,9.306268690,-0.005175170,0.036050380,0.005307790
1640781272.167860,-0.173228860,0.118773640,10.006670950,-0.006067750,0.074854490,-0.036270920
1640781272.168630,-0.084476940,0.193501340,10.055390360,-0.029788920,0.027753410,-0.034774840
1640781272.170260,0.078981000,0.483447310,9.794628140,-0.026313960,-0.010332470,-0.003123280
1640781272.171900,-0.253867830,0.374460220,9.785872460,0.034879150,-0.005185600,-0.001515450
1640781272.175610,-0.236073930,0.315682530,9.542848590,0.029596690,-0.062125920,0.012889510
1640781272.177040,-0.134525140,0.418958340,9.433889390,-0.010268390,0.013953450,0.020697710
1640781272.180910,-0.086414670,0.076651330,9.919692990,-0.027588010,0.103768710,-0.007236000
1640781272.181940,-0.102089810,0.291213990,10.816245080,-0.010828670,0.032411520,-0.006446240
1640781272.185260,-0.128938080,0.603264870,10.217231750,-0.002838670,-0.060528520,-0.014258920
1640781272.186900,-0.021368020,0.391445580,9.440344810,-0.051586330,-0.057619810,-0.006742780
1640781272.190260,-0.017680990,0.560688610,9.329177860,-0.032484530,0.046958030,0.005802510
1640781272.192340,-0.057204430,0.475220860,9.503483770,-0.004805620,0.044706470,-0.000537930
1640781272.195420,0.146331740,0.325547130,9.933455470,-0.036454200,0.035920740,0.022324920
1640781272.198060,0.097142990,0.280802940,9.918164250,-0.024706120,0.047570460,0.032083690
1640781272.201410,-0.155046910,-0.060179040,10.267068860,-0.034089380,-0.049228970,0.021925570
1640781272.203000,-0.149028720,0.137089450,9.660619740,-0.035260620,-0.045824050,0.042523450
1640781272.205280,-0.057031150,0.068577910,9.008356090,-0.039064880,0.033432250,0.002743300
1640781272.206930,-0.046974250,0.061565980,9.999052050,-0.049236430,0.087355080,-0.023439530
1640781272.210570,0.167110590,0.457272620,9.856987950,-0.011624400,0.097459560,-0.023797160
1640781272.212160,0.212256570,0.309138920,9.885666850,-0.024022160,-0.005292890,-0.016945600
1640781272.216000,0.013619320,0.228708850,9.903007510,-0.020906330,0.009435410,0.032624600
1640781272.216920,-0.151913270,0.085389820,9.093920710,0.003492830,-0.012904410,0.026820600
1640781272.220280,-0.388227550,-0.299558760,9.737098690,-0.004090370,-0.015631320,0.012785200
1640781272.221900,-0.374071060,-0.072582920,9.759942050,0.016938150,0.102466340,0.008107720
1640781272.225860,-0.228594330,0.115312330,10.128295900,-0.002415480,0.032359360,-0.047419970
1640781272.227660,-0.203592750,0.428960560,10.715219500,-0.046040120,0.021150710,-0.028546150
1640781272.230870,0.052980140,0.658336280,9.482654570,-0.027534370,0.037522620,-0.000615420
1640781272.232960,-0.108935560,0.398158550,9.969559670,0.020721560,-0.044870380,0.006093090
1640781272.235290,-0.113739140,0.596268950,9.533359530,0.036005680,0.016359980,0.028635560
1640781272.236990,0.094846930,0.488607410,8.988041880,-0.027109680,0.020119550,0.026924910
1640781272.240390,-0.240043150,0.138813120,10.556827550,-0.060914470,0.047551100,0.016893450
1640781272.242000,-0.208488060,0.325818030,10.137206080,-0.022721290,0.022858390,-0.002239640
1640781272.245420,-0.083610770,0.460924630,9.954328540,-0.039093200,-0.075191270,-0.012886520
1640781272.246930,-0.087890280,0.450004700,9.897101400,-0.058829780,0.058522820,0.012660030
1640781272.250260,0.141455930,0.448811230,9.335210800,-0.047220290,0.076585990,0.001242760
1640781272.251930,-0.029843040,0.354063030,10.199377060,-0.043715540,-0.004677470,-0.005647540
1640781272.255280,0.019674340,0.237701950,9.577888490,-0.036603220,0.028228760,0.022113320
1640781272.257360,-0.000700510,0.042325940,9.394590380,-0.037279730,-0.027926270,0.024183100
1640781272.260700,-0.357294710,-0.108978750,10.041698460,-0.034542380,0.005917250,0.025925050
1640781272.262000,0.002227240,-0.026238470,9.226944920,-0.056600570,0.051419430,0.031262630
1640781272.267060,0.055442200,-0.042847060,10.020642280,-0.054635120,0.067906090,-0.003616510
1640781272.267560,-0.016130430,0.148917690,10.348032000,-0.019954140,0.089097010,-0.024478140
1640781272.270290,0.252969090,0.491022970,9.588826180,-0.035379830,-0.020292410,-0.021560490
1640781272.271920,0.016162310,0.214685680,9.605723380,-0.033198300,0.015148520,-0.004242360
1640781272.275310,-0.076704490,-0.037000040,9.262110710,0.014083090,0.062687700,0.022394960
1640781272.277040,-0.270695120,-0.026739570,9.763881680,0.034302480,0.008514520,0.020858650
1640781272.281050,-0.472685690,-0.202318700,9.868844030,-0.002400580,0.033304090,0.007526580
1640781272.281910,-0.278516050,-0.095245040,9.787432670,-0.036847590,0.023786730,-0.010293720
1640781272.285280,-0.479279730,0.175446030,10.352763180,-0.012935700,0.017859040,-0.044135740
1640781272.286920,-0.128733550,0.369961530,9.709997180,-0.003297630,0.005671380,-0.024545190
1640781272.290360,0.154967230,0.561854540,9.692660330,0.010955330,0.045935810,-0.000280140
1640781272.292230,0.009143600,0.509692910,10.058676720,0.025212770,0.067971650,0.022509690
1640781272.295430,0.119981110,0.380597650,10.063468930,-0.010736290,-0.034859780,0.039762260
1640781272.297060,-0.090664000,0.303943810,9.704096790,-0.011385980,-0.020374360,0.017069280
1640781272.300480,-0.333033000,0.143961300,9.640429500,-0.015436110,-0.020317740,-0.013506410
1640781272.301900,-0.303503450,0.452256950,9.865875240,-0.031152370,-0.001211460,-0.007615980
1640781272.305520,-0.251985820,0.577461900,9.670632360,-0.050024680,0.051049890,-0.000579660
1640781272.306930,-0.018702870,0.377092300,10.202184680,-0.056213150,0.050354020,0.016716130
1640781272.310360,0.132452930,0.451055110,10.131978990,0.009909270,0.032608210,0.029033420
1640781272.312000,0.171346190,0.217932750,9.663692470,0.009417530,-0.036683680,0.015696890
1640781272.316080,0.245995330,0.085667770,9.629557610,-0.042463850,0.021991140,0.027349600
1640781272.316970,0.015252080,-0.079103980,9.493247030,-0.025710460,0.043389200,0.010935960
1640781272.320630,-0.073254120,-0.271115210,9.805646900,-0.015904010,-0.038985910,-0.005801020
1640781272.321970,0.021181240,0.003346910,9.479514120,-0.009188060,0.060203670,-0.005365910
1640781272.325650,-0.236302290,0.006818420,9.794503210,-0.011281670,0.060091920,-0.027447940
1640781272.327350,-0.320182740,0.272367980,10.508712770,-0.012411180,-0.007998940,-0.026285650
1640781272.330330,-0.076745330,0.637136760,9.388234140,-0.008617340,-0.000102820,-0.007984040
1640781272.332140,0.002868440,0.272661000,9.635244370,-0.031936180,0.032632060,0.009784110
1640781272.335410,-0.102291610,0.077824210,10.210004810,0.048358740,0.108104950,0.038872660
1640781272.337090,-0.139523430,-0.021908590,9.734069820,0.091257710,-0.017385180,0.013048950
1640781272.340350,-0.283769010,-0.004998950,9.962195400,0.010834630,-0.075741120,0.008733570
1640781272.342000,-0.278036800,0.170687790,9.277478220,-0.045752530,0.023710730,0.005973880
1640781272.345420,-0.348860350,0.136481170,9.759082790,-0.038422650,-0.021421910,-0.047713510
1640781272.346980,-0.180239290,0.586594220,10.285729410,0.013570490,0.049299010,-0.018100440
1640781272.350370,0.187339830,0.702868520,9.782210350,0.047728420,0.082580750,0.000794230
1640781272.352020,0.027435280,0.574803050,10.844420430,0.011885170,-0.026465960,0.010353330
1640781272.355390,0.066912570,0.705426280,9.950214390,-0.025914610,-0.025869910,0.034125160
1640781272.357420,0.073478770,0.281635700,9.037761690,-0.047756730,-0.063937910,0.011174380
1640781272.360330,-0.340472820,0.083641190,9.927758220,-0.012883540,0.007547440,0.016185640
1640781272.362230,-0.172863500,0.182069870,9.325897220,0.038576120,0.043731920,0.004985930
1640781272.366390,-0.107705640,0.171945010,9.897762300,-0.031974910,-0.017938020,0.007246440
1640781272.367980,-0.173074900,0.130625080,10.326301570,-0.064060090,0.075317930,0.037470460
1640781272.370490,0.166392000,0.000195260,9.738464360,-0.016255680,0.001972910,0.012078880
1640781272.371930,-0.177480950,0.154116510,10.465947150,0.014343860,-0.072686370,-0.006751720
1640781272.375240,0.004909920,0.290476800,9.187362670,0.010883810,0.022369630,0.007791820
1640781272.377290,0.066021930,0.009780040,9.314691540,-0.013934080,-0.004781780,-0.009290870
1640781272.380370,-0.256269100,0.059636770,10.145018580,0.007450580,0.047592820,-0.012241300
1640781272.382030,-0.030606130,0.215443220,9.335206030,0.001905860,0.014103950,-0.007000570
1640781272.385310,-0.423681830,0.041412500,10.262944220,-0.001190600,-0.074173500,-0.016906850
1640781272.386890,-0.384717760,0.247871700,9.572571750,0.020591920,-0.032421950,-0.010593240
1640781272.390240,0.065590940,0.393517460,9.190212250,-0.006450710,-0.009892880,-0.004839900
1640781272.391930,-0.176078260,0.118547100,10.595561980,0.001575050,0.091277070,0.012341140
1640781272.395440,0.041292410,0.124615860,10.430036540,0.049212580,0.017356870,0.012454390
1640781272.397040,-0.011737250,0.178546320,10.208574300,0.050944090,-0.116811700,-0.004649160
1640781272.400410,-0.263325270,0.235644820,9.429721830,0.001129510,-0.051856050,-0.007484850
1640781272.402010,-0.245701800,0.501053570,9.105292320,-0.038959080,-0.042124090,-0.013282890
1640781272.405290,-0.335505070,0.713066460,9.696516040,-0.029577310,-0.018432740,-0.021307170
1640781272.406940,0.053693170,0.834311370,9.730171200,-0.036221740,0.049382450,-0.000700350
1640781272.410740,0.235109270,0.714045350,10.474200250,-0.015299020,0.047530240,0.018696490
1640781272.411970,-0.012301080,0.379386340,10.708658220,0.028353930,-0.041149560,0.021368260
1640781272.415280,0.199886830,0.331073670,9.631799700,-0.025391580,-0.113202650,0.029668220
1640781272.416960,-0.020898010,-0.098030400,9.176585200,-0.064931810,-0.019375980,0.016692280
1640781272.420250,-0.227540030,-0.418757800,9.448618890,-0.026933850,0.020737950,-0.001719590
1640781272.421900,0.003212170,-0.095729300,9.701165200,0.010630490,0.016959010,-0.022831560
1640781272.425240,-0.188742710,0.035029760,9.940930370,-0.011438130,0.023151940,-0.016324220
1640781272.427260,-0.122915970,0.180848690,10.065299030,-0.039333110,-0.037543480,0.008220970
1640781272.430380,-0.156406490,0.307009880,9.853688240,-0.011938810,-0.062239170,0.000882150
1640781272.432310,-0.132981990,0.303206830,9.444705010,-0.001844760,-0.040742770,-0.000569220
1640781272.435600,0.118545350,0.273829760,9.788261410,0.016641620,0.055074690,0.006265940
1640781272.436990,-0.039949430,0.135199790,10.195959090,0.051446270,0.069341080,-0.015334790
1640781272.440270,-0.072953810,0.238053410,10.207583430,0.002431870,-0.082349760,-0.021909170
1640781272.441910,-0.106327320,0.167936760,9.488880160,-0.023496150,-0.048953300,-0.008417670
1640781272.445490,-0.461699160,0.037228200,9.316938400,0.001367930,-0.061222920,-0.033463540
1640781272.447020,-0.310789560,0.350489080,9.730258940,0.004439060,-0.040477510,-0.013841690
1640781272.450520,-0.037919270,0.450895250,9.564730640,0.002893810,0.062453750,0.003965200
1640781272.451990,0.091822100,0.177884530,10.603016850,-0.006368760,0.040243560,0.015589590
1640781272.455280,0.088709500,0.359417170,10.948202130,0.036329030,-0.002712010,0.016820430
1640781272.456940,-0.010546310,0.372424750,9.750008580,0.008945170,-0.136882070,-0.013768680
1640781272.460710,-0.095667650,0.316722750,9.319048880,-0.050912800,-0.101326410,-0.018192830
1640781272.462000,-0.136878850,0.492080540,8.888501170,-0.027489660,0.047174090,-0.036749240
1640781272.465780,-0.048252740,0.459968980,9.575981140,-0.027690830,0.015911460,-0.039149820
1640781272.467050,0.139718930,0.567669630,10.224426270,-0.026856370,0.061035160,-0.005497040
1640781272.470290,0.186495940,0.324897110,10.046296120,-0.004646180,0.012686850,0.009417530
1640781272.471890,-0.040989780,-0.016577780,10.565349580,-0.010775030,-0.101149100,0.025825210
1640781272.475260,-0.054069710,-0.048412550,9.428042410,-0.000701840,-0.041484830,0.021693110
1640781272.477290,-0.062484730,-0.425223530,9.041862490,-0.008526440,-0.007270280,-0.012505050
1640781272.480470,-0.283553030,-0.244146760,10.114957810,0.016590950,0.053834920,-0.020416080
1640781272.483140,-0.101306430,0.090173810,9.510944370,0.016582010,0.042407210,-0.058990720
1640781272.485260,-0.277781430,0.129405930,10.106266980,-0.024472180,-0.068664550,-0.056071590
1640781272.486960,-0.452586650,0.388135340,9.859321590,0.019612910,-0.052431230,-0.019967560
1640781272.490260,-0.084926410,0.460968260,8.874238010,0.034281610,-0.080265110,-0.026124720
1640781272.491920,-0.089107560,0.524494170,10.043787960,0.002357360,0.042295450,0.015501680
1640781272.495420,0.208122420,0.400678990,10.146923070,0.020110610,0.135879230,0.020505490
1640781272.497030,0.103119550,0.052257370,10.892872810,0.041931860,-0.074411910,-0.017611680
1640781272.500360,-0.213793920,0.280327260,10.187353130,0.043347480,-0.116023440,-0.012201070
1640781272.502060,-0.064926740,0.316080030,8.435591700,-0.008977950,-0.090704870,-0.028871010
1640781272.505300,-0.524949130,0.340088160,9.577645300,-0.048449640,-0.032879420,-0.027476250
1640781272.506950,-0.276691910,0.684471790,9.558020590,-0.030663610,0.061565640,-0.015264750
1640781272.510980,0.179946380,0.470342670,10.149991990,-0.005912780,0.024080280,-0.007569790
1640781272.516500,-0.078994180,0.369572400,11.135898590,0.044849510,0.010761620,0.014479460
1640781272.517280,0.123849650,0.517754850,9.896364210,0.015242400,-0.104022030,0.008033220
1640781272.517650,-0.027540890,0.225897950,9.578077320,-0.068129610,-0.126379730,0.007326900
1640781272.520270,-0.098918020,0.071820970,9.029492380,-0.068272650,0.016577540,0.002996620
1640781272.521920,0.196522940,0.035837460,9.264007570,0.001348560,0.029470030,-0.027713180
1640781272.525250,0.033756480,0.059993290,10.181516650,0.030885640,0.048254430,-0.021407010
1640781272.527340,0.133992480,0.197796700,9.885680200,-0.002142790,-0.006200370,0.006015600
1640781272.530350,-0.037401120,-0.018497930,10.216480260,-0.032350420,-0.085230170,0.011540950
1640781272.533440,-0.250626120,-0.091701170,9.678514480,-0.017994640,-0.066345930,0.010855500
1640781272.535670,0.028755210,-0.003448450,9.235262870,0.015886130,-0.002151730,0.007425250
1640781272.536950,-0.217121910,-0.202554290,10.225036620,0.066913650,0.090184800,-0.032404060
1640781272.540260,-0.109829520,0.165932540,10.063776970,0.060014430,0.003348290,-0.031790140
1640781272.541930,-0.026196580,0.459341880,9.866157530,-0.008469820,-0.074639920,-0.015205150
1640781272.545660,-0.235857490,0.181979250,9.411290170,-0.016602870,-0.032171610,-0.004121660
1640781272.547230,-0.248083890,0.414288130,9.513870240,0.027993320,-0.062043960,-0.006623570
1640781272.550330,-0.163980390,0.541539310,9.773400310,0.060398880,-0.004369020,-0.005529820
1640781272.551890,0.106701420,0.359782960,9.882055280,0.018124280,0.055092570,0.012461840
1640781272.555280,0.193746420,0.522359910,10.797553060,-0.006732350,0.039729480,0.000819560
1640781272.557030,-0.044477910,0.400535670,10.601427080,-0.006991630,-0.052252410,-0.008921330
1640781272.560590,-0.023969360,0.433173870,9.564660070,-0.022804740,-0.149637430,0.001691280
1640781272.561970,-0.145123290,0.361235710,8.966305730,0.011630360,-0.036945950,-0.023722650
1640781272.566530,-0.194124130,0.283458470,9.076499940,0.004316870,0.030657650,-0.024528800
1640781272.567880,0.079019640,0.437146480,9.860091210,-0.032530730,0.056400890,0.013874470
1640781272.570260,0.120087210,0.076194060,10.348658560,-0.016105180,0.065948080,0.016841290
1640781272.571890,0.003821260,-0.133202900,10.630404470,0.020249180,-0.078810740,0.023102760
1640781272.575260,-0.039035720,0.122318660,9.849899290,0.036412470,-0.111871960,0.013907250
1640781272.577130,-0.071658510,-0.111861980,8.893495560,-0.013068320,-0.018979610,-0.019189720
1640781272.580460,-0.086309880,0.026147470,9.611186030,-0.021137300,0.051124400,-0.027097770
1640781272.582000,-0.039299410,0.402127470,9.739012720,0.026798250,0.079628830,-0.041989980
1640781272.585270,0.012543600,0.289404660,10.066422460,0.002591310,-0.031976410,-0.020945080
1640781272.586940,-0.181985620,0.407507270,10.191745760,0.033192340,-0.025397540,0.019392370
1640781272.590310,-0.408351360,0.176576730,9.523646350,0.036549570,-0.089946400,0.009691720
1640781272.592060,-0.370052960,-0.027768050,9.640147210,0.008103250,-0.084999200,0.022675100
1640781272.595650,-0.173505680,0.067048960,9.366037370,0.024043020,0.098414720,0.006879870
1640781272.600700,-0.017727710,-0.056994150,10.376748090,0.029008090,0.037257370,-0.039058930
1640781272.601860,-0.009934540,0.510676320,10.882086750,0.008851290,-0.027212510,-0.032432380
1640781272.602440,0.235767160,0.647035540,9.374419210,-0.014971200,-0.075234470,-0.024494530
1640781272.605260,0.017820920,0.381938760,9.763878820,-0.010107460,-0.078804800,-0.011682510
1640781272.606950,0.005751240,0.774029430,9.177539830,0.034448500,0.020889940,0.004038210
1640781272.610350,0.135171710,0.477489350,9.368761060,-0.001803040,0.017228720,0.008745490
1640781272.611980,-0.091782230,0.149913300,10.695796010,-0.011065600,0.053869200,0.050213940
1640781272.615430,-0.126908810,0.120978010,10.026060100,0.022970140,-0.037130720,0.021508330
1640781272.617610,-0.260544420,-0.141481620,10.067791940,-0.008417670,-0.152958930,0.016945600
1640781272.620250,-0.169766520,-0.030012000,9.173191070,-0.011397900,0.023385880,0.009503960
1640781272.621890,0.138824270,0.054526780,9.082898140,-0.002883370,0.057999790,-0.052294140
1640781272.625420,0.020097470,0.282418640,10.611982350,0.001738970,0.059971220,-0.027626750
1640781272.627010,0.309269130,0.376595230,9.522661210,0.031059980,0.026559830,-0.001056490
1640781272.634120,0.092284720,0.073616520,10.006888390,0.050713130,-0.111447280,0.001338120
1640781272.634680,-0.283607100,0.202686010,9.685059550,0.033962730,-0.035691260,0.042882570
1640781272.638270,-0.107465640,0.017735400,8.815868380,0.000408290,-0.028692190,0.022032860
1640781272.639250,-0.371875700,-0.125902270,10.503561970,0.011315940,0.052960220,-0.017638500
1640781272.640420,-0.224562690,0.358947580,10.113609310,0.048030920,0.072847310,-0.035588440
1640781272.642030,-0.056721640,0.525920810,10.204158780,0.014714900,-0.091040130,-0.045166910
1640781272.645770,-0.242844790,0.531060460,10.068170550,-0.003223120,-0.010439750,-0.012032690
1640781272.647080,0.015416700,0.541351620,8.908931730,0.021630530,-0.044472520,0.014597180
1640781272.650950,-0.115923750,0.491288870,9.842877390,0.015392900,-0.041176380,0.001111630
1640781272.651930,0.025424700,0.517698410,9.508888240,-0.008088350,0.079827010,0.031916800
1640781272.655300,0.081044550,0.347626270,10.239345550,0.001281500,-0.019770860,0.014470520
1640781272.657370,-0.264930730,0.270923440,10.815485950,0.009347500,-0.041005020,-0.008964540
1640781272.660360,0.028102680,0.555840190,9.260608670,-0.034825520,-0.071612020,0.020119550
1640781272.662300,0.024101490,0.398133700,9.562986370,-0.060386960,-0.018964710,0.002935530
1640781272.668160,-0.027034480,0.330421270,9.582521440,-0.038613370,0.085498380,-0.028812880
1640781272.669210,0.212960690,0.524681930,9.587672230,-0.016961990,-0.013281400,-0.002405050
1640781272.670360,-0.080324960,0.039787480,10.142853740,-0.000226500,-0.011661650,0.005808470
1640781272.672140,-0.081210780,-0.070308350,9.451809880,0.000298020,-0.044895710,0.030191240
1640781272.675280,-0.200676620,0.021831970,9.699592590,-0.035613780,-0.074909630,0.031736490
1640781272.677000,-0.250203670,-0.293033390,9.647182460,-0.047637530,0.053706770,-0.000821050
1640781272.680380,0.071270500,-0.025483090,9.871328350,-0.009255110,0.033122290,-0.032128390
1640781272.681990,-0.025515470,0.392163070,10.392004970,0.022393470,0.019738080,-0.053243340
1640781272.685270,0.202221510,0.388751950,9.378012660,-0.019302960,-0.020182130,-0.019864740
1640781272.686960,0.002222270,0.436207560,9.565958020,-0.019566720,-0.037337840,0.016529860
1640781272.690350,-0.407873180,0.220752760,9.562814710,0.013221800,-0.018337370,0.018322470
1640781272.691970,-0.293166520,0.182202280,9.619471550,0.002455710,-0.071439150,0.020772220
1640781272.695680,-0.334992560,0.198262140,10.049423220,0.005336110,0.043806440,0.002679230
1640781272.697100,-0.188239200,0.083098640,10.204808240,-0.004374980,0.031103190,-0.033444170
1640781272.702700,0.021514610,0.591182350,10.513832090,-0.030222540,-0.026476390,-0.025001170
1640781272.703300,0.094353470,0.643050790,9.630375860,-0.058808930,-0.022469460,-0.014346840
1640781272.705480,0.233456580,0.304074790,9.337176320,-0.035563110,-0.042958560,-0.005702670
1640781272.706950,0.187696500,0.591685240,9.326996800,0.023047630,0.013874470,-0.001913310
1640781272.710320,0.150146530,0.366604600,9.394908910,-0.021848080,0.012357530,0.013662870
1640781272.712850,0.014325480,0.075858280,10.332356450,-0.052562360,0.009736420,0.050210950
1640781272.715380,-0.217506330,0.024813200,10.126613620,-0.020563600,-0.006881360,0.025267900
1640781272.717370,-0.195406260,-0.124422710,9.919604300,-0.031548740,-0.089474030,0.019298490
1640781272.720500,-0.068916300,0.008001510,9.477101330,-0.002697110,0.040818740,0.005254150
1640781272.722030,0.001216480,0.221232460,9.256936070,-0.011949240,0.059384120,-0.057530410
1640781272.725280,0.111736220,0.498588110,10.086205480,-0.056985030,0.012539330,-0.027342140
1640781272.727020,0.257893060,0.475674690,9.334805490,-0.044707960,0.050279500,-0.009351970
1640781272.730440,0.095814130,0.077844960,9.843616490,0.014388560,-0.041608510,0.004746020
1640781272.732010,-0.224454360,0.215809960,10.111834530,0.054277480,-0.002656880,0.039280940
1640781272.735280,-0.241685900,0.070546780,9.159814830,-0.011424720,-0.036866970,0.006678700
1640781272.737020,-0.377628210,-0.067912120,10.152143480,-0.060229000,0.001454350,0.010725860
1640781272.740320,-0.203193810,0.209720640,9.746120450,-0.014172500,0.097721820,-0.009098650
1640781272.741970,-0.114951260,0.310945300,10.076786040,-0.005073850,-0.028787550,-0.032913690
1640781272.745780,-0.084804070,0.547009890,10.255938530,0.007133190,0.006739800,0.009727480
1640781272.749710,0.167666940,0.482976910,8.972358700,0.000506640,-0.013640520,-0.002413990
1640781272.751020,-0.052588530,0.401552680,10.016830440,-0.042268640,-0.046074400,-0.002755230
1640781272.751970,0.053592370,0.439661980,9.469493870,-0.025267900,0.079952170,0.026340780
1640781272.755300,0.081083990,0.080391170,9.725089070,-0.006942450,-0.026564300,0.008325280
1640781272.757010,-0.289083960,0.303073200,10.719391820,-0.007285180,-0.013279910,0.008271640
1640781272.760310,0.100597060,0.349414590,8.997385030,-0.047758210,-0.008434060,0.017428400
1640781272.762050,0.009397510,-0.089597950,9.765359880,-0.038585070,-0.023593010,-0.000157950
1640781272.765380,0.019665220,0.257847520,9.770512580,-0.000615420,0.114150350,-0.017850100
1640781272.767050,0.297353420,0.258964390,9.335412030,-0.014515220,-0.002871450,-0.014871360
1640781272.771240,-0.093835880,-0.074844130,10.476092340,-0.013497470,-0.002591310,0.013878940
1640781272.772040,-0.029881890,-0.092899740,9.157118800,0.022643800,0.026354200,0.003261860
1640781272.775270,-0.405945870,-0.124439760,9.853552820,0.016874070,-0.112073120,-0.007428230
1640781272.776970,-0.542062220,0.001145660,9.755293850,-0.003746150,0.036646420,-0.010834630
1640781272.780440,0.024272840,0.300019530,9.110561370,-0.024755300,0.045111780,-0.050103670
1640781272.782020,-0.238247040,0.556725860,10.927797320,-0.018525130,0.051607200,-0.020019720
1640781272.785310,0.189315560,0.606239080,9.869880680,0.000417230,0.054192550,0.008741020
1640781272.787270,0.240837160,0.431709800,9.888667110,0.042773790,-0.083187220,0.015158950
1640781272.790270,-0.183165670,0.371829510,9.877690320,0.031258170,-0.017280880,0.014799840
1640781272.791950,0.118069140,0.355968030,8.630347250,-0.045044730,-0.013659900,0.008478760
1640781272.795800,-0.280981450,0.096486320,10.173128130,-0.054253630,0.029280780,0.001817940
1640781272.797460,-0.234652400,0.154482870,10.134014130,-0.001104180,0.066082180,-0.003923480
1640781272.801300,-0.024345370,0.496483500,10.171847340,0.003550950,-0.051686170,-0.004741550
1640781272.802270,-0.097663800,0.347062050,10.107528690,-0.031067430,0.014975670,0.001515450
1640781272.805310,0.291676430,0.325218020,9.208656310,-0.034022330,0.035987800,0.008656080
1640781272.807010,0.157561330,0.322104190,9.906852720,-0.012563170,0.017794970,-0.004839900
1640781272.810330,0.132903200,0.046561960,9.470818520,-0.002852080,0.048296150,0.015558300
1640781272.812300,0.125743630,-0.030516420,9.593414310,0.025312600,-0.027199090,0.012509520
1640781272.815430,-0.303942860,-0.184339760,9.912874220,0.016687810,0.007413330,0.004215540
1640781272.817050,-0.262914750,-0.152104930,9.459285740,-0.027890510,-0.003935400,0.006200370
1640781272.820420,-0.325121130,-0.007347180,10.168825150,-0.012390320,0.023061040,-0.027933720
1640781272.821970,-0.287280920,0.230535940,9.872097020,0.019577140,0.058177110,-0.029547510
1640781272.825290,0.082238600,0.600973490,9.878659250,0.006712970,-0.009879470,0.005604330
1640781272.827000,0.021501680,0.310531200,9.900389670,0.022323430,0.065368410,0.021722920
1640781272.830810,-0.023726770,0.124821830,9.644682880,0.053234400,-0.011584160,0.027789180
1640781272.835220,-0.175983280,0.274847450,9.937399860,0.054949530,-0.056917970,0.023183220
1640781272.836430,-0.315318350,0.109871970,9.352790830,-0.007027390,0.001949070,0.000186260
1640781272.836970,-0.233221140,0.266704950,9.902718540,-0.027728080,-0.004169340,-0.011913480
1640781272.840410,-0.279747460,0.561149480,10.318146710,0.002665820,0.047895320,-0.010867420
1640781272.841930,0.004756300,0.520621060,9.873156550,-0.003688040,-0.014828150,0.007186830
1640781272.845680,0.205697520,0.558632910,10.127779960,0.030465430,0.007794800,0.027436020
1640781272.847030,0.117977150,0.367672290,9.577831270,0.023022300,0.038279590,0.026331840
1640781272.850340,0.091654390,0.312281340,9.683850290,-0.028967860,-0.057324770,0.032173100
1640781272.852000,-0.053641980,0.074046500,9.580487250,-0.008626280,0.016541780,0.027005380
1640781272.855790,-0.220848160,-0.233383190,9.495170590,0.021775070,-0.011527540,0.000835960
1640781272.857010,-0.254850300,0.104505450,10.083757400,0.022432210,-0.016386810,0.020849700
1640781272.860380,-0.108097350,0.058876700,9.499721530,-0.007671120,0.054201480,0.009682770
1640781272.862160,-0.050298290,-0.016512380,10.086751940,-0.003878770,-0.006234650,0.004328790
1640781272.867550,0.048359620,0.518049120,10.054361340,0.020475690,0.018474460,0.006015600
1640781272.868160,0.288115770,0.293405440,9.161093710,0.004437570,-0.017176570,0.006538630
1640781272.870520,0.125966700,0.072740580,9.928587910,0.046616790,0.020179150,0.024273990
1640781272.873700,-0.029394870,0.181844770,9.600218770,0.077621630,0.064878150,-0.005264580
1640781272.875280,-0.233001630,0.095515850,9.969229700,0.016656520,-0.080622750,-0.007617470
1640781272.877040,-0.438371660,0.326797040,9.945614810,-0.014874340,-0.011761490,0.002685190
1640781272.880410,-0.277253390,0.323958370,9.219284060,-0.013256070,0.005237760,-0.030498210
1640781272.882040,-0.427689220,0.486268280,10.502778050,0.011791290,-0.012090800,0.001935660
1640781272.885380,0.010919330,0.673030020,9.655848500,0.038717690,0.082369160,0.023223460
1640781272.887030,0.215896340,0.267663960,9.973441120,0.030383470,-0.019478800,0.017039480
1640781272.890280,0.068225120,0.426174880,10.514517780,0.010420380,0.007236000,0.023436540
1640781272.892000,0.247538660,0.258891220,9.148616790,-0.030635300,-0.030608480,-0.012516970
1640781272.895420,-0.174772610,-0.072700990,10.003404620,0.002102550,-0.077602270,-0.013896820
1640781272.897680,-0.221137240,0.400220690,9.319743160,0.034500660,0.029399990,-0.010438260
1640781272.900330,0.022426200,0.332140150,9.159511570,-0.023466350,-0.023378430,-0.002311170
1640781272.902060,-0.181638120,0.258719120,10.462053300,-0.041130180,0.069190560,0.044132770
1640781272.906930,0.105424960,0.290233700,9.710237500,0.014808770,0.051771100,0.026498730
1640781272.907540,-0.056318750,0.121766080,10.452802660,0.028194490,-0.119414930,0.014509260
1640781272.910380,0.007892920,0.258745400,9.413315770,0.006425380,0.020420550,0.026157490
1640781272.912330,0.208364610,-0.106276130,8.906343460,0.000430640,0.017754740,-0.002443790
1640781272.915410,-0.372145090,-0.114075060,10.606891630,0.017718970,0.023297970,-0.022096930
1640781272.917010,-0.191464420,0.308495670,9.313796040,0.012886530,-0.005733970,-0.029374660
1640781272.920440,-0.217748760,0.177094430,9.804767610,0.000137090,-0.107595320,-0.022281710
1640781272.922020,-0.404766200,0.420798450,9.856406210,0.005313750,0.032585860,-0.010064240
1640781272.925300,0.086394090,0.660808090,9.236924170,-0.011312960,-0.011022390,-0.000646710
1640781272.927310,-0.065506960,0.315085440,10.751961710,0.008796160,0.032946470,0.032813850
1640781272.930460,0.159827710,0.428051260,9.888998990,0.039224330,0.041860350,0.023788220
1640781272.932010,0.096846660,0.593610110,10.047433850,-0.008966030,-0.112323480,-0.000727180
1640781272.935370,-0.269031020,0.442891150,9.809938430,-0.076308850,-0.029844050,0.006909670
1640781272.937110,-0.099540760,0.482899190,8.811606410,-0.061537330,-0.040416420,-0.012519960
1640781272.940270,-0.245187880,0.591706750,9.976283070,-0.029724840,-0.011669100,-0.026296080
1640781272.942000,0.049723770,0.507006880,9.439010620,-0.039918720,0.081089150,0.015480820
1640781272.945460,0.279680580,0.345447900,10.066923140,-0.037355710,0.009000300,0.031809510
1640781272.947070,-0.022925510,0.031551580,10.732861520,-0.028637060,0.011953710,0.041112310
1640781272.950280,0.115235310,-0.054352800,9.540361400,-0.045263760,-0.097741190,0.036869940
1640781272.952030,-0.091990210,-0.215737660,9.644020080,-0.036044420,-0.058011710,0.000590090
1640781272.955300,-0.177767080,-0.409169260,9.148427960,-0.005857650,0.073063370,-0.023238360
1640781272.956990,-0.127097800,0.195694480,9.646719930,-0.013709070,0.003632900,-0.045916440
1640781272.961070,-0.356972870,0.313046280,10.168483730,-0.052864850,0.030133130,-0.027294460
1640781272.962130,-0.187419120,0.200744850,9.511642460,-0.044974680,-0.062017150,0.010395050
1640781272.965520,-0.233598550,0.429311900,9.914376260,0.018145150,-0.075413290,0.011527540
1640781272.966960,-0.113454100,0.208820270,9.509940150,0.010734800,0.036109980,0.029665230
1640781272.970380,0.105998620,0.082103320,10.161749840,0.006683170,0.020129980,0.041125720
1640781272.972870,-0.074782430,0.114245140,10.687249180,0.028593840,0.026632850,-0.000564750
1640781272.975400,0.082884620,0.113787940,9.729343410,-0.021788480,-0.085335970,-0.010573860
1640781272.977100,-0.099267000,0.299727110,9.702740670,-0.022010500,-0.077503900,-0.013120470
1640781272.980400,-0.373291700,0.334902380,9.334140780,-0.007641320,-0.018452100,-0.036965300
1640781272.981950,-0.185833870,0.548236070,9.368913650,-0.016181170,-0.065711150,-0.008556240
1640781272.985390,-0.049649010,0.656677540,9.692374230,-0.022929910,0.040695070,0.020734970
1640781272.987000,0.183408080,0.149357690,10.006748200,-0.017166140,0.048266340,0.037455560
1640781272.990280,0.102187820,0.279896020,10.929780960,0.029039380,-0.037686530,0.055499370
1640781272.992530,-0.005076850,0.154501870,9.962862970,0.004076960,-0.092449790,0.029681620
1640781272.995420,0.149731580,-0.255302250,9.201945300,-0.030916930,-0.089125340,0.020556150
1640781272.997060,-0.042412120,-0.076277910,9.402796750,0.015428660,0.051184000,-0.008985400
1640781273.000330,0.076679130,-0.039697640,9.271253590,0.006257000,0.037585200,-0.046698750
1640781273.004060,0.004991560,0.136232170,10.173477170,-0.002354380,0.001707670,-0.004702810
1640781273.005610,-0.133225290,0.226965640,9.803114890,0.023700300,-0.018577280,0.001278520
1640781273.007050,-0.208435860,-0.002368410,9.918623920,0.028762220,-0.127464520,0.011256340
1640781273.010580,-0.181200030,0.323737590,9.707296370,0.024029620,-0.004798170,0.030544410
1640781273.012250,-0.045532910,0.076088290,9.512074470,0.021430850,0.057435040,-0.000277160
1640781273.015290,-0.124484630,0.141721040,10.859156610,0.043053930,0.006316600,-0.004838410
1640781273.017000,-0.025232290,0.639727590,9.771731380,0.032614170,-0.020901860,-0.018437210
1640781273.020360,-0.013956090,0.413377670,9.432014470,-0.023159380,-0.119343410,-0.014841560
1640781273.022040,-0.166430090,0.609914600,9.611793520,-0.014470520,-0.009155270,0.014670200
1640781273.025430,-0.036759920,0.622164370,9.170322420,-0.002627070,-0.000312920,-0.001895430
1640781273.027270,-0.014253530,0.428083180,10.445109370,-0.014072650,-0.017786030,0.015217070
1640781273.030320,0.144781750,0.485060870,10.065075870,0.004597010,0.074449170,0.027731060
1640781273.032180,0.046914850,0.168743280,10.294805530,-0.004978480,-0.082147130,0.004197660
1640781273.035360,-0.237635610,0.273101840,10.400960920,-0.037150080,-0.076358020,0.019516050
1640781273.037090,-0.005998200,0.158131330,8.552109720,-0.042925770,-0.043034550,0.004565720
1640781273.040310,-0.087974490,-0.107461340,9.640130040,-0.012701750,-0.026839970,-0.017915660
1640781273.042010,0.111709580,0.344371940,9.522017480,-0.003905590,0.129778650,-0.013339520
1640781273.045340,0.277042570,0.207246840,9.822332380,-0.028391180,-0.003688040,-0.001905860
1640781273.047110,-0.160161990,-0.010627020,10.885417940,-0.017829240,-0.047172610,0.022003060
1640781273.050300,0.064102440,0.212125150,8.918971060,-0.000211600,-0.079891110,0.019571190
1640781273.052100,-0.176380560,-0.005579750,9.580801010,-0.011096900,-0.078462060,0.019699340
1640781273.055460,-0.246578320,-0.067540240,9.845980640,0.003877280,0.129018740,0.005970900
1640781273.057150,0.027183840,0.227228850,9.735487940,0.022386010,0.010810790,-0.022736190
1640781273.060310,-0.171539010,0.244683190,10.819207190,-0.004075470,-0.031779710,-0.006653370
1640781273.062000,0.060804040,0.323108670,9.231885910,-0.014257430,0.017200410,0.006091590
1640781273.065370,-0.193001480,0.297895820,9.750593190,0.016745920,-0.113691400,0.014084580
1640781273.067020,-0.314617660,0.241717980,9.626686100,0.026425720,-0.012697280,0.006382170
1640781273.070400,0.161364440,0.431961570,8.813179020,-0.006552040,0.027668480,0.009584430
1640781273.072680,-0.175580830,0.306357740,10.963086130,-0.007274750,0.059348350,0.010298190
1640781273.075520,-0.155810360,0.365750850,10.597591400,-0.002563000,0.008574130,0.003071130
1640781273.077050,-0.027382010,0.660330180,9.861193660,-0.021530690,-0.161136700,0.005728010
1640781273.080720,-0.147698150,0.333452490,9.553712840,-0.029964740,-0.012438000,0.018021460
1640781273.081960,0.207867710,0.279995560,8.800001140,-0.006352370,0.052753100,0.001052020
1640781273.085390,0.095060110,0.354932900,10.087203980,0.008286530,0.031036140,0.005044040
1640781273.087040,0.228607980,-0.053473760,9.813430790,-0.004239380,0.047194960,0.030781330
1640781273.090620,0.231457960,-0.165607270,9.881432530,0.001092260,-0.069542240,0.029128790
1640781273.091950,-0.290966720,-0.333230580,10.144072530,0.018522140,-0.053294010,0.027625260
1640781273.095990,-0.178447340,-0.375278560,9.148530960,0.013832750,-0.035396220,0.008367000
1640781273.097000,-0.321072610,0.014073020,9.892589570,0.023567670,0.012515480,-0.020259620
1640781273.100360,-0.236282470,0.295854570,9.820455550,0.011967120,0.077126910,-0.031717110
1640781273.102030,0.141309130,0.610603270,9.939856530,-0.012582540,-0.015760960,-0.011588630
1640781273.108820,-0.043882290,0.595580040,10.099594120,0.027690830,0.012117620,0.024452810
1640781273.109320,0.010181670,0.290425180,9.494293210,0.064386430,-0.071525570,0.035975880
1640781273.110300,-0.002702020,0.408471700,9.584009170,0.058491530,-0.053377450,0.041560830
1640781273.112310,0.029978510,0.236098050,9.312692640,-0.017687680,0.066366790,0.018049780
1640781273.115310,0.055111170,-0.078713640,10.411277770,-0.026053190,0.054414580,0.008018320
1640781273.116980,-0.217890130,0.242785740,10.709116940,0.055326530,-0.001810490,-0.020015240
1640781273.120520,-0.062479240,0.411561940,9.642875670,0.025473540,-0.105378040,-0.014393030
1640781273.124130,0.038545090,0.477562490,9.349639890,-0.016044080,-0.000007450,0.023776290
1640781273.125270,-0.038993260,0.383087310,9.203139310,-0.010244550,0.077278910,-0.004234910
1640781273.127020,0.135030850,0.234643370,9.866227150,0.016704200,-0.000134110,0.008770820
1640781273.130740,0.162909360,0.236770270,9.822853090,0.055161120,0.055569410,0.026264790
1640781273.131950,0.023399680,0.036538710,9.873111720,0.027339160,-0.022640830,0.003781910
1640781273.136120,-0.184391410,0.155668850,10.244093890,-0.005291400,-0.043995680,0.033962730
1640781273.137010,-0.163820390,0.017651910,9.086788180,-0.013513860,-0.000889600,0.014601650
1640781273.140260,-0.128703220,-0.181724800,9.709842680,0.025662780,0.015483800,-0.016275050
1640781273.142340,-0.056148890,0.303142640,10.003918650,0.074623530,0.099147880,-0.009474160
1640781273.145660,0.241471800,0.308224260,9.521355630,0.023792680,0.014187400,-0.023993850
1640781273.146960,0.170445550,0.208939280,10.325109480,-0.010193880,0.014728310,0.009150800
1640781273.150310,-0.037405020,0.056143870,9.555247310,0.049173830,0.014963750,0.019323830
1640781273.152030,-0.264419470,-0.151162820,9.629613880,0.084546220,-0.125275550,-0.012458860
1640781273.155920,-0.366563950,0.257881310,9.520862580,0.054952510,0.041098900,-0.000929830
1640781273.157940,-0.330962930,0.288857040,9.520785330,-0.000371040,0.067691500,-0.016930700
1640781273.160330,-0.486999840,0.491349550,11.209149360,-0.016246740,-0.019109250,-0.013872980
1640781273.162290,-0.080620720,0.851903320,9.902337070,0.008471310,0.015650690,0.014247000
1640781273.165400,0.169412170,0.407649730,9.593069080,0.043603780,-0.063326950,0.016631190
1640781273.167010,0.143322750,0.419863220,9.975530620,0.072273610,0.033329430,0.017176570
1640781273.174060,0.478486360,0.470384030,8.812014580,0.014513730,0.032357870,0.006462630
1640781273.174640,0.190216960,-0.029666790,10.162474630,-0.038175280,-0.028666860,0.006781520
1640781273.175270,0.026989630,0.043060710,9.889868740,0.002530220,0.054737930,0.009267030
1640781273.177050,-0.115853440,0.088740600,9.569643970,0.029917070,-0.098641220,0.002479550
1640781273.180360,-0.417793720,0.147168770,10.141764640,0.009509920,-0.012615320,0.019215050
1640781273.182000,-0.177374650,0.307849850,9.076491360,-0.002494450,0.091609350,0.001758340
1640781273.185490,-0.263777970,0.335491660,10.394248010,-0.005786120,-0.032216310,-0.014567380
1640781273.187040,-0.048983940,0.457733300,9.979251860,0.007604060,0.044879320,0.003676120
1640781273.190320,0.314254050,0.253535120,9.120418550,0.022289160,-0.011286140,0.008566680
1640781273.191970,-0.250587110,0.067278810,10.500874520,0.043946500,-0.034332280,0.009058420
1640781273.195970,-0.073224240,0.180500860,9.128759380,0.014114380,-0.020912290,-0.000786780
1640781273.198670,-0.091722840,0.080203200,9.498355870,-0.035028160,-0.065004830,-0.015132130
1640781273.200400,-0.425830010,0.094032060,10.300679210,-0.001184640,0.071290140,-0.010767580
1640781273.202060,-0.014273530,0.448102500,9.754411700,0.017888850,-0.015743080,-0.011232500
1640781273.205370,-0.113615330,0.455539850,10.536294940,0.010424850,-0.041219600,0.017544630
1640781273.207980,0.060937530,0.255889180,9.713109970,0.014933950,0.034500670,0.029608610
1640781273.210220,0.149748070,0.276978700,9.763031010,0.022928420,-0.057996810,0.009186570
1640781273.212070,-0.209607690,0.180823180,9.956807140,0.011192260,-0.031660500,-0.007334350
1640781273.215300,0.014256210,0.336319570,9.148381230,-0.020608310,-0.023756930,-0.023823980
1640781273.217020,-0.262777240,0.500733020,10.077960970,-0.029808280,-0.036169590,-0.026616450
1640781273.220470,-0.215333040,0.461694330,9.752508160,-0.034126640,-0.009539720,0.000455980
1640781273.222760,0.183828670,0.382966370,9.530162810,-0.010474030,-0.008274620,0.026495760
1640781273.225310,-0.046503440,0.071308440,10.280943870,0.038070980,0.041186810,0.020933150
1640781273.227050,0.159495960,0.030989280,9.899035450,0.028073790,-0.046126540,0.036345430
1640781273.230650,0.237391750,-0.178679900,9.715326310,-0.002364810,-0.045129660,0.028958920
1640781273.235520,0.018405340,-0.634751020,9.551700590,0.023566190,0.027407710,-0.006407500
1640781273.236220,-0.031058690,-0.269797590,9.767828940,0.056159500,-0.027590990,-0.045646730
1640781273.243960,-0.339773330,0.085989740,9.749160770,0.041759020,-0.030146540,-0.049579150
1640781273.244570,-0.320188130,0.283721450,9.420307160,-0.008782740,-0.045916440,-0.042636700
1640781273.244860,-0.330362890,0.754549560,9.967301370,-0.001046060,-0.018098950,-0.023251770
1640781273.245340,-0.231109930,0.731912140,9.936065670,0.033354760,0.004924830,0.015357140
1640781273.247040,0.177301750,0.533014060,10.185014720,0.057902930,-0.000932810,0.032748280
1640781273.250280,0.145577940,0.439426990,10.300700190,0.084617720,0.035651030,0.032377250
1640781273.252080,0.096411170,0.124472480,9.988869670,0.018423790,-0.072056040,0.004225970
1640781273.255620,0.150641750,0.144413340,9.596593860,-0.028310710,-0.070042890,-0.023701790
1640781273.257060,-0.092914850,0.119352320,9.191460610,-0.009347500,-0.016082820,-0.050413620
1640781273.260390,-0.079599430,0.320535540,9.706883430,0.003907080,-0.036183000,-0.058639050
1640781273.262180,0.082930720,0.655436400,9.707178120,0.001846250,0.048615040,-0.013084710
1640781273.265400,0.124131470,0.360835610,10.006181720,-0.008684400,0.029617550,0.007291140
1640781273.268250,0.101660790,0.283357290,10.625597950,0.019577150,-0.006702540,0.041928890
1640781273.270330,-0.021850880,0.151417690,9.688035010,0.033354760,-0.063031900,0.014266370
1640781273.273200,-0.057151100,-0.102484240,9.430699350,-0.007312000,-0.083300490,-0.003279750
1640781273.275290,-0.047389020,-0.056032510,9.340082170,0.009091200,0.074009620,-0.015953190
1640781273.276990,-0.115784670,-0.061203140,9.590112690,0.022366640,0.030857320,-0.065085300
1640781273.280240,-0.087928640,0.290519390,10.184073450,-0.003120300,-0.014121830,-0.043484570
1640781273.282380,0.012713950,0.439890090,9.394270900,0.010198360,0.013871490,-0.023286050
1640781273.285360,-0.148466360,0.261177960,9.977717400,0.011575220,-0.071284170,-0.016824900
1640781273.287060,-0.077078910,0.406497060,9.885722160,0.018422310,-0.006914140,0.015468900
1640781273.292060,0.196316000,0.025238190,9.337944030,0.041461000,0.053305930,0.013576450
1640781273.292550,0.014022090,-0.125077980,10.755980490,0.054819890,0.032858550,-0.014267860
1640781273.295490,0.005942640,0.367842560,10.069463730,0.039939580,0.007361170,-0.025317070
1640781273.297300,-0.098899130,0.317434190,9.522797580,-0.050674380,-0.112101440,-0.047014650
1640781273.301080,-0.385223690,0.614022080,9.619734760,-0.050833820,-0.021928550,-0.043778110
1640781273.302020,-0.209785120,0.888213520,9.036399840,-0.002048910,0.017507370,-0.042282050
1640781273.305910,-0.190462310,0.799716830,10.170602800,-0.015026330,-0.012579560,-0.008751450
1640781273.307010,0.127290620,0.732922550,10.079821590,-0.011862810,0.089582790,0.034333760
1640781273.310350,0.313000800,0.113496470,10.255880360,-0.012622780,-0.011081990,0.024028120
1640781273.312230,0.063532900,-0.091366320,10.605166440,-0.012823940,-0.063632430,0.025917590
1640781273.315310,0.218434870,-0.186327710,9.002336500,-0.016383820,-0.024117530,-0.002874430
1640781273.317020,0.085895550,-0.411769000,9.377585410,-0.043974820,-0.019127130,-0.044345860
1640781273.320400,-0.004668470,-0.012141650,9.549358370,-0.027205050,0.096239150,-0.045639280
1640781273.323970,0.194682970,0.134782840,9.462446210,-0.023493170,0.056646770,-0.049413740
1640781273.325320,-0.303253950,0.176503900,10.685588840,0.008118150,-0.015389920,-0.007407370
1640781273.327500,-0.333697320,0.427785840,9.678906440,0.033320490,-0.064527990,0.016286970
1640781273.332210,-0.240057960,0.262815830,9.408809660,-0.018627940,-0.092791030,0.006932020
1640781273.333070,-0.273992060,0.059128390,9.775268550,-0.007960200,0.095570090,0.023908910
1640781273.335390,0.058880480,-0.057279200,9.950843810,0.056694450,0.097034880,-0.020563600
1640781273.337040,-0.086553780,0.050720440,10.765274050,0.057186190,-0.038021800,-0.047460200
1640781273.340370,0.038730850,0.421987210,9.482031820,-0.003686550,-0.047005710,-0.022512670
1640781273.342060,0.078695730,0.395898340,9.149709700,-0.057889530,-0.068114700,-0.026746100
1640781273.345390,-0.243921710,0.407721670,9.670138360,-0.027054550,0.006423890,-0.018812720
1640781273.347110,0.123997150,0.658201340,9.453039170,0.008083880,0.039535760,0.003710390
1640781273.350280,0.023000670,0.334385750,10.513034820,0.027148430,0.042957070,0.009207430
1640781273.352160,-0.220501960,0.328677860,10.654965400,0.024344030,-0.010320540,0.012962520
1640781273.355870,-0.120906200,0.522534070,9.868164060,-0.060547880,-0.116959210,0.005525350
1640781273.357010,-0.353674260,0.121643650,9.485591890,-0.086501240,-0.046110160,-0.002917650
1640781273.360420,-0.180340590,0.156648700,9.069113730,-0.017580390,0.018279260,-0.024299330
1640781273.362420,0.076327340,0.441368520,9.557270050,0.012937190,0.039367380,-0.046412640
1640781273.365360,0.218397420,0.291511000,9.882827760,-0.019940730,0.064140560,-0.000962620
1640781273.367060,0.324712430,0.172663540,10.173675540,-0.051677230,-0.009933110,0.031946600
1640781273.370410,0.019689300,-0.184688510,10.140406610,-0.007858870,-0.075688960,0.020712610
1640781273.372030,-0.102613660,-0.263049360,9.359264370,0.014244020,-0.081552570,0.016781690
1640781273.375400,-0.137585730,-0.096407190,9.472895620,0.013571980,0.024668870,-0.023718170
1640781273.377370,-0.354693170,-0.043809630,10.079503060,-0.001685320,0.067321960,-0.053298480
1640781273.380350,-0.087802200,0.487302240,10.102326390,-0.045487290,-0.022332380,-0.041015460
1640781273.382010,-0.033796480,0.557573620,9.884604450,-0.041061640,0.007206200,-0.030896070
1640781273.385420,-0.224719110,0.382593600,9.813684460,0.018589200,-0.042277580,-0.010177490
1640781273.387800,-0.129227890,0.763542770,9.538099290,0.038035210,-0.084930670,0.001202520
1640781273.390310,0.047375700,0.501278700,9.084548000,-0.033113360,0.018113850,0.011134150
1640781273.392120,0.155858870,0.153825740,9.997126580,-0.065802030,0.079326320,0.006219740
