timestamp,accel_x,accel_y,accel_z,gyro_x,gyro_y,gyro_z
1640783355904019712,-0.200265180,0.190219700,9.904048920,-0.032337020,0.021131340,0.010712450
1640783355904870144,0.069771390,0.176456120,9.425780300,-0.067254890,0.084616250,-0.010466580
1640783355909999872,0.078372790,0.315433590,10.330204960,-0.060187280,-0.004574660,-0.022980570
1640783355913189888,0.068029450,0.493329500,10.061495780,-0.051485000,0.039571530,-0.007526580
1640783355914219776,0.160664070,0.343742820,9.282198910,-0.062866500,-0.050675870,0.011527540
1640783355914870016,-0.289423610,0.166453410,9.985273360,-0.012551250,-0.007539990,0.031405690
1640783355919049984,-0.364114250,0.077603000,9.238882060,-0.009427960,0.007624920,0.040324030
1640783355919780096,-0.394270840,-0.086887480,9.823167800,-0.026732680,-0.060530010,0.029230120
1640783355924320000,-0.345892370,-0.033006910,10.068612100,-0.039769710,0.080291930,0.002153220
1640783355927119872,-0.004291340,0.010202920,9.782738690,-0.045625860,0.026784830,-0.014244020
1640783355929029888,-0.015912390,0.053022870,10.579560280,0.013956430,-0.011695920,-0.025038420
1640783355931340032,0.325200710,0.257153450,9.346832280,0.017142300,0.029231610,-0.007194280
1640783355934059776,0.169985850,0.154747610,9.626199720,0.018651790,-0.050528350,0.013644990
1640783355934860032,-0.146457840,0.130838890,9.847854610,0.017149740,0.019294020,0.020967420
1640783355940739840,-0.148859870,0.314510790,9.202422140,-0.010462110,-0.029878320,0.008572640
1640783355943509760,-0.501866340,0.276584180,10.375732420,-0.009125470,-0.037553910,-0.005513430
1640783355944609792,-0.402328640,0.494998750,9.950345990,-0.002196430,0.062018630,-0.022721290
1640783355945299968,-0.394919040,0.687291800,10.165781970,-0.000172850,-0.061099230,-0.017113990
1640783355948969728,-0.311144170,0.564960060,10.285060880,-0.006800890,-0.010289250,0.022308530
1640783355949799936,0.185959740,0.536646490,9.112427710,-0.021561980,0.012989340,0.028924640
1640783355954129920,0.053791670,0.267963710,10.152957920,-0.004103780,-0.030374530,0.030191250
1640783355955309824,0.205101400,0.148066800,9.698587420,0.000171360,0.035537780,0.013998150
1640783355960079872,0.325626490,0.231707170,9.504405980,-0.022414330,-0.047346950,-0.017347930
1640783355960839936,0.001515540,0.155328270,10.508629800,-0.039987270,0.007905070,-0.013636050
1640783355964279808,0.073865520,0.334216180,9.572704320,-0.040431320,0.017967820,-0.016237790
1640783355966240000,-0.204144240,0.465347230,10.015101430,-0.022575260,-0.078786920,0.001661480
1640783355970700032,-0.180115030,0.455797610,9.588052750,-0.047925120,0.037695470,0.038184220
1640783355971549952,0.013792510,0.439794540,9.266307830,-0.039251150,0.025339430,0.029695040
1640783355977449984,-0.365776180,0.302599460,10.657051090,-0.028720500,0.014096500,0.007449090
1640783355982849792,0.039980240,0.425858800,9.490799900,-0.039359930,0.004045670,0.003778930
1640783355983219968,0.042068220,0.188443970,9.910035130,-0.043420490,-0.028023120,-0.007618960
1640783355983559936,0.006089850,0.015247920,9.962704660,-0.046153370,0.079742080,-0.011752550
1640783355984230144,0.260503950,0.137506140,9.270020480,-0.007902080,0.017486510,0.005246700
1640783355984759808,0.020160300,-0.061211570,9.969405170,-0.015901030,0.005581970,0.012573600
1640783355989069824,0.166758360,0.012298920,9.201692580,-0.032784050,0.051495430,0.029270350
1640783355989869824,-0.094855190,-0.096911420,9.860942840,0.001509490,-0.019988420,0.018009550
1640783355996909824,-0.378499270,-0.180261670,10.226002690,0.010478500,0.020292400,-0.005237760
1640783355998609920,-0.170112730,0.127510560,9.547970770,0.035899880,-0.008140510,-0.014647840
1640783355999029760,-0.336290810,0.137090860,10.334139820,0.016215440,0.035874550,-0.030201680
1640783355999800064,-0.141829010,0.443925110,9.716181760,-0.012823940,0.079344200,-0.024756790
1640783356004209920,-0.163037870,0.681431590,9.758804320,0.003696980,-0.024297830,-0.012838840
1640783356004979968,-0.210839050,0.501413110,9.744529720,-0.018407410,0.000450020,0.004352630
1640783356009329920,-0.029760090,0.543119850,9.121643070,0.032198430,-0.007388000,0.016781690
1640783356013459968,-0.345874670,0.283633440,10.189511300,0.047744810,-0.013160710,0.005134940
1640783356016199936,-0.061304480,0.258164230,9.794857030,-0.012519960,0.037258860,0.008147960
1640783356016979968,-0.009390260,0.226512730,10.203321460,-0.014129280,0.012008850,-0.000323360
1640783356019140096,-0.160636450,0.098404010,10.650030140,-0.021599240,0.037087500,-0.015810130
1640783356023490048,0.000683130,0.526709740,9.622362140,0.002783540,-0.049693890,-0.008828940
1640783356024529920,-0.220691130,0.624238370,9.729602810,-0.005622210,-0.075192750,-0.002601740
1640783356025039872,0.044480080,0.567219020,9.094989780,-0.063534090,0.041036310,0.004448000
1640783356029559808,0.061265050,0.607572670,9.827436450,-0.019717220,0.050197540,-0.002039970
1640783356031999744,-0.149034340,0.489796190,10.687376980,-0.021477040,0.035388760,-0.025203830
1640783356033949952,0.345999750,0.655147910,9.536277770,-0.050848730,-0.034992400,-0.006677210
1640783356035620096,-0.039738920,0.429618180,10.174758910,-0.062592340,-0.002305210,0.005964930
1640783356040069888,-0.289958360,0.156987350,9.755050660,-0.081573430,0.029429800,0.007161500
1640783356040869888,-0.327169000,0.142294600,9.354784970,-0.004178290,-0.095883010,0.032439830
1640783356044499968,-0.319572600,-0.130540240,9.499016760,-0.008457900,0.015679000,0.034956630
1640783356046319872,0.188937290,0.026818820,9.223982810,-0.064456470,0.112114850,0.014762580
1640783356049229824,0.095370000,0.137416900,10.884870530,-0.053212050,0.087308890,-0.016583500
1640783356051699968,0.315157950,0.147936690,10.397118570,-0.056366630,0.026179860,-0.033739210
1640783356053979904,0.581960860,0.380893740,9.272174840,-0.003415350,-0.069041540,-0.035478170
1640783356054819840,0.126564440,0.257272750,9.537373540,0.002491470,0.054875020,-0.023117660
1640783356059269888,-0.063768510,0.268268850,9.026172640,-0.036160650,0.057940180,-0.002004210
1640783356060499968,-0.452191290,0.239444820,9.849427220,-0.010573860,-0.030478840,0.009779630
1640783356063979776,-0.472181200,0.125927640,9.729141240,-0.053045160,0.065076350,0.013215840
1640783356064809984,-0.363849850,0.157775770,9.834829330,-0.024624170,0.033557420,-0.006845590
1640783356069079808,-0.556877080,-0.025356840,10.779633520,0.026388470,0.051040950,-0.027790670
1640783356069860096,-0.119965460,0.085739250,9.681580540,0.024984770,0.006228680,-0.015866750
1640783356073999872,0.123952280,0.033104400,9.570228580,0.033515690,-0.008371470,0.010313090
1640783356076329984,0.174203960,-0.027576370,9.636841770,-0.014321510,0.106254230,-0.004611910
1640783356079079936,0.209204810,0.215849190,9.557846070,-0.000646710,0.016009810,-0.000852350
1640783356080009984,-0.020215320,0.242492210,10.068078040,0.040154160,-0.023177270,-0.014211240
1640783356084309760,-0.073139940,0.526477280,9.519409180,0.004133580,0.005701180,-0.041131680
1640783356086870016,-0.364485030,0.801445190,9.976224900,0.004458430,-0.021845100,-0.029277800
1640783356089089792,-0.522803720,0.776408490,10.141399380,-0.030118230,0.042599440,-0.014458600
1640783356089880064,-0.313016620,0.848034020,9.769689560,-0.038328770,-0.001044570,0.011923910
1640783356094240000,-0.250398760,0.521708670,10.132587430,0.005480650,0.016717610,0.037050250
1640783356096009984,-0.104139350,0.306545110,9.797941210,-0.013573470,0.046771760,0.011879200
1640783356099360000,-0.036806490,0.275690110,9.829701420,-0.021299720,-0.046171240,-0.003992020
1640783356101440000,-0.086673370,0.038890880,9.838974950,-0.050342080,-0.010134280,-0.012174250
1640783356104029952,0.140562040,0.148820330,9.393326760,-0.067079070,0.007176400,-0.037109860
1640783356104899840,0.073334370,0.260171650,10.062170030,-0.022113330,0.017151240,-0.028821830
1640783356111599872,0.231934990,0.436700460,9.703509330,-0.036603210,0.052237520,-0.011795760
1640783356115320064,0.231913480,0.545423510,9.822411540,-0.044387580,0.010274350,0.012879070
1640783356118279936,-0.069287010,0.325793830,10.136898990,-0.045840440,0.025710460,0.035671890
1640783356120000000,-0.259883050,0.315979240,9.622849460,-0.036586820,-0.049108270,0.020013750
1640783356120729856,-0.407341030,0.186509710,9.616114620,-0.014238060,-0.065651540,0.009122490
1640783356121179904,-0.271833540,0.129136170,9.323744770,-0.042159860,0.066304210,-0.014691060
1640783356124669952,-0.125241950,0.253766720,9.993190770,-0.059016050,0.092034040,-0.031496590
1640783356127109888,-0.012181830,0.180876900,10.457137110,-0.048744680,0.068451460,-0.020247700
1640783356128939776,0.290671320,0.183966770,9.588111880,-0.029587750,-0.008082390,-0.012224920
1640783356130279936,0.138366150,-0.019462140,9.558855060,0.008471310,-0.022201240,0.002922120
1640783356134150144,-0.083175120,-0.199017000,9.320676800,0.020915270,0.018604100,0.020806490
1640783356134820096,-0.380104040,-0.248821320,9.635684010,0.018015510,-0.041086980,-0.000637770
1640783356140329728,-0.375893030,-0.205113460,9.879903790,0.003449620,0.009477140,-0.010316070
1640783356142779904,-0.250105050,0.158778250,9.975264550,-0.007471440,0.073528290,-0.030305980
1640783356144069888,-0.346015750,0.493371670,10.697946550,-0.000546870,0.017146760,-0.038060540
1640783356145030144,-0.115531520,0.773241160,9.924881940,0.004698340,-0.008036200,-0.004392860
1640783356149039872,-0.050557100,0.878215970,9.341737750,0.012245770,-0.050868100,0.009813900
1640783356150679808,-0.041182840,0.574554860,9.363153460,0.005340580,0.008936230,0.019758940
1640783356154189824,0.036486100,0.424217490,9.369381900,0.022895640,0.032733380,0.005558130
1640783356154949888,-0.143125370,0.281855700,10.294719700,0.000828500,-0.007779900,-0.017321110
1640783356159489792,-0.018402970,0.166567060,10.179500580,-0.055630510,0.009365380,-0.021663310
1640783356160499712,-0.168559730,0.153521370,10.147962570,-0.028568510,-0.025609140,-0.025264920
1640783356164130048,-0.379905050,0.153104830,10.173961640,-0.003837050,-0.038731100,-0.011886660
1640783356166159872,-0.162107620,0.391725960,9.116194730,0.009734930,-0.031714150,0.021877880
1640783356169049856,-0.216154290,0.307249250,9.644946100,-0.011493270,-0.012351570,0.026030840
1640783356171449856,0.102628000,0.314127450,9.594861980,-0.044842060,0.065354990,0.016164780
1640783356174089984,0.198004310,0.481483160,10.033002850,-0.013236700,0.009399650,-0.014019010
1640783356176489728,0.083553830,0.494845480,10.597151760,-0.031292430,-0.017605720,-0.039710110
1640783356179329792,0.247854400,0.611346780,9.522576330,-0.036856530,-0.021141770,-0.020933150
1640783356180729856,-0.110571550,0.395514430,9.799636840,-0.020149350,-0.041672590,-0.018763540
1640783356184579840,-0.099695500,0.303911860,9.198021890,-0.041669600,0.029884280,0.016942620
1640783356185339904,-0.025916770,0.237631710,9.066378590,-0.020407140,0.013282900,0.054106120
1640783356189440000,-0.203755040,-0.160280540,10.304852490,-0.032047930,0.063656280,0.034107270
1640783356189910016,0.042581010,-0.094726240,9.907825470,-0.014674660,0.042380390,0.024555620
1640783356194149888,-0.088153160,-0.208514140,10.348934170,0.031845270,-0.057165320,-0.002491470
1640783356194809856,0.002091700,-0.291508170,9.825121880,0.007040800,0.030703850,-0.028280920
1640783356199280128,0.013240960,0.089637310,9.237389560,0.033423300,0.014337900,-0.026299060
1640783356200870144,-0.303675710,0.188223780,9.993748660,0.003686550,0.014792380,-0.029416380
1640783356204079872,-0.049543170,0.522429410,8.998927120,-0.017690660,0.023202600,-0.006335980
1640783356205869824,-0.235238760,0.560050010,9.617815970,0.026412310,-0.019554790,0.002560020
1640783356211330048,-0.296066460,0.432255390,10.209237100,0.023697310,0.048489860,-0.000375510
1640783356212809984,-0.180378560,0.496546780,9.858766560,0.055240110,-0.011587140,0.017242140
1640783356213969920,-0.216312240,0.021042930,10.408695220,0.043730440,-0.028124450,0.005540250
1640783356214850048,0.156837980,-0.093419750,9.544643400,0.023525950,0.068120640,0.006262960
1640783356219089920,-0.017154440,-0.006072410,9.789731030,0.071911520,0.011704860,-0.008195640
1640783356219899904,-0.235271870,0.087603390,9.975057600,0.002932550,-0.020463760,-0.018814210
1640783356224019968,-0.058119480,0.453889310,8.903903960,-0.003953280,-0.058923660,-0.009894370
1640783356225980160,-0.387884710,0.382444020,9.877446170,0.025258960,-0.033998500,-0.031851240
1640783356230019840,-0.278661940,0.712657690,9.869536400,0.030964620,0.044167050,-0.026376550
1640783356230520064,-0.219041350,0.944771830,10.109931950,0.042577080,-0.021331010,-0.001244250
1640783356234409728,-0.203315540,0.734830740,10.657615660,-0.028207900,0.004957620,0.014519690
1640783356234959872,0.119506320,0.772940990,9.663084030,-0.037635870,0.007341800,0.029565390
1640783356239419904,-0.115082670,0.553189990,9.936849590,-0.008584560,-0.077778110,0.013646490
1640783356239949824,0.088154460,0.351481080,9.306211470,-0.030408800,-0.006049870,0.015249850
1640783356244209920,0.232844230,0.230848250,9.122509000,0.001946090,0.013266500,-0.004754960
1640783356246639872,0.015333840,0.077465240,10.474862100,-0.032471120,0.039049980,-0.025816260
1640783356249049856,0.307068820,0.367697950,9.796516420,-0.070731340,0.037446620,-0.016386810
1640783356250010112,0.082289760,0.251585330,10.116534230,-0.056886680,-0.037509200,-0.011596080
1640783356254089728,-0.114208180,0.121869850,10.029071810,-0.048680600,0.010959800,0.002910200
1640783356261250048,-0.244702700,0.195125940,9.221988680,0.027638670,-0.013203920,0.007708370
1640783356262099968,-0.605223720,0.070060340,9.743581770,0.021135810,-0.056435180,0.022812190
1640783356262519808,-0.125143390,0.276646470,9.064122200,-0.057485700,0.045260790,0.021433830
1640783356263919872,-0.001528600,0.282333730,9.893724440,-0.064402830,0.092457220,-0.006613140
1640783356264940032,0.027899950,0.314016580,10.781039240,-0.057074440,0.055196890,-0.027042630
1640783356269059840,0.406881480,0.411940280,9.772440910,0.025779010,-0.006552040,-0.020146370
1640783356269850112,0.282210920,0.150903270,9.684309960,0.049871210,-0.026609010,-0.015167890
1640783356274299904,0.041357490,0.091814050,9.387973790,0.002507860,0.040237600,0.001963970
1640783356278060032,-0.189612480,-0.119239320,9.226462360,-0.011762980,-0.000156460,0.006021560
1640783356279619840,-0.509022470,-0.279207530,9.795171740,-0.022664670,-0.022643810,-0.009991230
1640783356281379840,-0.391319300,-0.050384090,9.629258160,0.030493740,0.032196940,-0.025650860
1640783356284910080,-0.493961220,0.148093300,10.323628430,0.049000980,0.031910840,-0.044648350
1640783356285920000,-0.502142250,0.490745250,10.579999920,0.008042160,-0.005567070,-0.020389260
1640783356290099968,-0.070314210,0.466927050,9.623869900,0.015139580,-0.017990170,0.008244810
1640783356291290112,0.000296360,0.321680160,9.815679550,0.031813980,0.008653100,0.009980800
1640783356294139904,-0.043919790,0.453790460,9.703222270,0.052140650,0.022265310,0.011040270
1640783356296160000,0.093677470,0.434044750,9.457074170,0.027520950,-0.030402840,-0.011678040
1640783356299259904,-0.081587940,0.444900990,9.982440950,-0.030842430,-0.032122440,-0.025053330
1640783356301120000,-0.087724330,0.527700960,9.873856540,-0.019636750,0.000441070,-0.031045080
1640783356304059904,-0.229107310,0.502701280,10.214776040,-0.001043080,-0.018696490,-0.023390350
1640783356304950016,-0.278003010,0.584703860,10.117557530,0.002707540,-0.027944150,0.013239680
1640783356310479872,0.007745610,0.406824320,9.587113380,-0.003758070,0.009065860,0.029025970
1640783356312659968,-0.118624810,0.298522110,10.085397720,-0.031462320,0.019726160,0.035946070
1640783356314009856,-0.143042820,0.263696610,9.943089490,-0.019444530,-0.022892660,0.017370290
1640783356314849792,-0.050538640,0.189975400,9.636958120,-0.024749340,-0.056019430,-0.017637010
1640783356319109888,-0.127110810,0.367957410,9.809393880,-0.033241510,-0.020121030,-0.041678540
1640783356319909888,-0.013642250,0.452863190,9.784062390,-0.038255750,0.021627550,-0.031742450
1640783356324139776,0.104349940,0.553717080,9.762963290,-0.059755150,0.012694300,-0.000011920
1640783356325019904,0.167921220,0.412551490,9.883659360,-0.038143990,0.018429760,0.045628850
1640783356329419776,0.213384630,0.187948690,9.843764310,-0.023587050,0.041767960,0.056362150
1640783356330919936,-0.120799120,0.063728370,10.158675190,-0.004859270,-0.034013390,0.050185620
1640783356334339840,-0.232712050,-0.245238050,9.780175210,0.000095370,-0.062410540,0.025472050
1640783356336560128,-0.070567790,-0.247808720,9.305131910,-0.008139020,0.003728270,-0.021564970
1640783356343600128,-0.223682360,-0.013518800,9.931437490,-0.000722710,0.066012140,-0.054219380
1640783356344480000,-0.146227820,0.288856180,10.078510280,-0.029748680,0.049813100,-0.052633880
1640783356345579776,-0.109257780,0.539535760,9.846096040,-0.030416250,-0.037804250,-0.006775560
1640783356346060032,-0.154528510,0.327041630,9.640565870,0.000078980,-0.036843120,0.017800930
1640783356349910016,-0.214086470,0.135824750,9.493744850,0.063440210,0.003425780,0.033362210
1640783356350909952,-0.448679420,-0.003522550,9.855694770,0.092594330,-0.033412870,0.027869640
1640783356354469888,-0.300359670,-0.099297320,10.066864970,0.034050640,-0.017203400,0.015068060
1640783356355599872,-0.119586540,0.011725030,9.919937130,-0.004526970,0.015932320,-0.000612440
1640783356362729984,-0.068814340,0.061585530,10.236580850,-0.000625850,-0.007160010,-0.033772000
1640783356363559936,0.139498840,0.402471780,9.869747160,0.037911540,0.002968310,-0.027808550
1640783356364359936,0.047879450,0.573039530,9.578983310,0.084625190,-0.047491490,-0.004045670
1640783356365049856,-0.103193430,0.466509070,9.753741260,0.039845710,-0.044742230,0.004978480
1640783356369659904,-0.193772510,0.575505500,9.471198080,0.028058880,-0.013940040,0.004099310
1640783356371589888,-0.405552240,0.481237110,10.066178320,0.008349120,-0.060129170,-0.006209310
1640783356381039872,-0.316897780,0.476220820,10.142504690,-0.003421310,-0.001214440,0.001053510
1640783356381709824,-0.386587110,0.617458220,10.159927370,0.014494360,-0.022847950,-0.015157460
1640783356382560000,-0.274047760,0.459990470,10.298582080,-0.012362010,-0.060600050,0.008529430
1640783356383309824,0.214827510,0.243865490,9.294205670,0.012938680,-0.008207560,0.039939590
1640783356385749760,0.375863970,-0.162239400,9.547733310,0.050236290,-0.003960730,0.034441050
1640783356388079872,0.663425450,-0.278881010,9.742986680,0.058209900,0.065174700,0.037126250
1640783356389299968,0.786703350,-0.467676940,9.668019290,0.065054010,0.026711820,0.008982420
1640783356390070016,0.685136850,-0.815501450,10.192017560,0.061477720,-0.000610950,-0.009584430
1640783356394490112,0.435438420,-0.677378710,9.899134640,0.135205700,0.059477990,0.009107590
1640783356396080128,-0.170798090,-0.473202290,9.798930170,0.174874040,-0.028494000,0.001385810
1640783356399289856,-0.461541380,0.082166670,9.574158670,0.112031420,-0.027206550,0.027871130
1640783356401169920,-0.453746230,0.542933110,8.800992010,0.061228880,0.091032680,0.052945320
1640783356404099840,-0.496844590,0.504480000,10.020401000,0.078329450,0.096429880,0.026445090
1640783356405249792,-0.301226080,0.866757150,10.437667850,0.185462850,0.108617550,0.014260410
1640783356412750080,0.147870660,0.851728140,9.803833960,0.211359590,0.010743740,0.013366340
1640783356413410048,0.373540970,0.432166960,10.058562280,0.132825970,0.051365790,0.030416250
1640783356414009856,0.500260770,0.111524870,9.280198100,0.110597910,0.143262760,0.031909350
1640783356414860032,0.298246680,-0.405297160,9.695294380,0.134620070,0.014849010,0.024133920
1640783356419169792,0.088035640,-0.463036720,9.401629450,0.183992100,0.055769080,0.005921720
1640783356420339712,-0.060900570,-0.235114200,8.895020480,0.164085600,0.047054880,-0.031512970
1640783356424239872,-0.601535320,-0.107250880,10.369421010,0.129722070,0.038118650,-0.019477310
1640783356424909824,-0.701086220,0.260512110,9.931283000,0.161755060,0.069260580,-0.020812450
1640783356429159936,-0.594601930,0.593543590,10.090841290,0.176574290,-0.024940080,-0.008973480
1640783356431020032,-0.418938220,0.899497150,10.216428760,0.162895020,0.109313440,0.043150790
1640783356434710016,-0.022416670,0.933828770,9.502025600,0.157105940,0.112101450,0.038088860
1640783356438400000,0.042212100,0.876795590,10.199231150,0.131034870,0.012436510,0.036011640
1640783356439759872,0.324900060,0.758138540,9.163967130,0.129334600,0.057092310,0.033514190
1640783356440549888,0.417139200,0.362039890,9.300665860,0.122587390,0.013241170,0.000014900
1640783356445669888,0.051122730,0.277540120,10.155736920,0.125448420,0.080585460,-0.006602700
1640783356448719872,0.043279700,0.334281210,9.574174880,0.106756410,0.059755150,-0.020833310
1640783356450259968,-0.250222950,0.328465310,10.331533430,0.044223670,0.002160670,0.006653370
1640783356450820096,-0.424987440,0.374231870,9.862154960,0.059738760,0.092591350,0.031438470
1640783356454170112,-0.496043590,0.398829850,9.729997630,0.093038380,-0.006519260,0.018504260
1640783356455109888,-0.639057700,0.503163520,9.955506320,0.100418930,-0.007051230,0.035505000
1640783356459190016,-0.115263220,0.518007760,8.849822040,0.083118680,0.066365300,0.015604500
1640783356460150016,0.099411500,0.494888900,9.956665040,0.034320350,0.097049780,-0.005909800
1640783356464239872,0.377354980,0.525427880,10.162159920,0.041687490,0.144475700,0.015731160
1640783356464929792,0.715046230,0.317180040,9.766747470,0.069017720,0.038169330,0.009146330
1640783356469549824,0.517404440,0.113497390,9.960868840,0.079375510,0.029306120,0.031857190
1640783356471159808,0.293783340,-0.085518190,9.016757970,0.108446190,0.074583290,0.062337520
1640783356479399936,-0.252042200,-0.365499730,9.693432810,0.089843590,0.016067930,0.047712040
1640783356480109824,-0.553164900,-0.301004470,9.633409500,0.088919680,0.065831830,0.036904210
1640783356481029888,-0.371616480,-0.128391590,9.430842400,0.090867270,0.077584370,0.000207130
1640783356481880064,-0.534182010,0.174807670,10.442391400,0.090049210,0.123466550,-0.042727580
1640783356484299776,-0.300336720,0.613635480,9.838565830,0.110085310,0.088782620,-0.026375050
1640783356486160128,-0.111633840,0.718424920,9.769744870,0.108934950,-0.001460310,0.006537140
1640783356489039872,-0.096313360,0.552242280,9.360445020,0.113755460,0.064465410,0.032003220
1640783356491000064,0.160942090,0.361831160,8.991951940,0.139485300,0.052180900,0.042384870
1640783356495259904,-0.053492360,0.109593480,10.013391490,0.122870530,0.087371470,0.031432510
1640783356495739904,0.140049680,0.030838930,9.785017010,0.099794570,0.085693610,0.011092420
1640783356499609856,0.117546070,-0.001843540,10.302610400,0.089329470,0.046758360,-0.013966860
1640783356501829888,-0.077673590,0.099612710,10.086030010,0.108866390,0.072115640,-0.009474160
1640783356504150016,-0.034281700,0.282962290,9.388772010,0.120913990,0.014685090,0.002661350
1640783356504869888,-0.337637220,0.362721710,9.699913980,0.114098200,0.063852970,0.024090710
1640783356509309952,-0.379660820,0.437131610,9.429632190,0.106231880,0.067357720,0.021241610
1640783356511440128,-0.430874350,0.551032190,9.942209240,0.084996210,0.025479500,0.002303720
1640783356514439936,-0.441671580,0.691388310,9.863092420,0.073648980,0.066845120,-0.016112630
1640783356515960064,-0.262421010,0.775139210,9.935180660,0.061856200,0.020419060,-0.018019970
1640783356519189760,-0.197107060,0.907428740,10.162692070,0.062111030,0.057682400,-0.005792080
1640783356520099840,0.159917400,0.776553750,9.394979480,0.041650240,0.052565340,0.030177840
1640783356524009984,0.384462540,0.521295910,9.726813320,0.036478040,0.076448920,0.054924190
1640783356526899712,0.477555960,0.245904970,9.657342910,0.048254430,0.131648790,0.056941810
1640783356528979968,0.394745830,-0.017472810,9.873142240,0.044387580,0.042860210,0.019688900
1640783356530030080,0.149104300,0.099769060,9.930261610,0.025975710,0.054804980,-0.004437570
1640783356534659840,-0.044484600,0.032806070,9.478831290,-0.001662970,0.054316230,-0.024092200
1640783356536099840,-0.438132460,0.062673150,10.049736020,0.019827490,0.052335860,-0.031429530
1640783356539140096,-0.639008220,0.405668080,9.478033070,0.061368950,0.073052930,-0.008058550
1640783356540939776,-0.548535110,0.465956810,9.253267290,0.020861620,0.027526920,0.020028650
1640783356544539904,-0.517051460,0.587642070,9.653873440,-0.009185070,0.115649390,0.042349090
1640783356546710016,-0.353366290,0.373544480,9.697251320,0.000755490,0.075128670,0.029033430
1640783356549029888,-0.182536480,0.129902970,10.277693750,0.066252040,-0.004963580,0.019648670
1640783356549909760,0.131913410,0.116253700,9.598325730,0.089754160,0.057573630,0.003635880
1640783356554019840,0.331722650,-0.133787540,9.697286610,0.037589670,0.055344410,-0.016397240
1640783356554849792,0.244527220,0.099007320,9.988486290,0.014062230,0.113099820,-0.007392470
1640783356559990016,0.159394850,0.183301700,9.443556790,-0.017598270,0.037683550,-0.009354950
1640783356560600064,0.009559340,0.133279040,9.552828790,0.020605320,-0.008022780,0.011579690
1640783356564409856,-0.315678180,0.290968270,9.327137950,0.095643100,0.070582340,0.009159740
1640783356566659840,-0.738690320,0.282117640,9.896711350,0.079257790,-0.015728180,-0.008118150
1640783356570439936,-0.833431240,0.515045340,10.012174610,0.037650760,-0.000482800,0.020456310
1640783356571419904,-0.658456620,0.453597960,9.790802000,-0.018361210,0.034101310,0.001870100
1640783356574119936,-0.423448440,0.484319360,10.310352330,0.008015340,0.052201750,0.009304280
1640783356578400000,-0.221314850,0.778165520,9.974081040,0.057224940,0.044667730,0.001226370
1640783356582799872,0.139594090,0.683787940,9.512015340,0.005379320,-0.053521990,-0.001849230
1640783356583239936,0.406888780,0.581518410,9.286046980,-0.006544590,0.032818310,0.034601980
1640783356583940096,0.384305330,0.313477720,9.553253170,-0.018197300,0.046584010,-0.004628300
1640783356585199872,0.301516560,0.287964250,10.044592860,-0.020502510,0.004523990,0.017745790
1640783356589059840,0.217380610,0.317993130,9.760406490,0.001655520,0.019316380,0.026161970
1640783356590119936,-0.089444760,0.078965820,10.053953170,-0.034862760,0.018873810,0.007495290
1640783356594459904,-0.417994980,0.238007430,9.958088870,-0.015991930,0.008229910,0.044584280
1640783356595739904,-0.686750170,0.143931170,9.545972820,0.004556780,-0.040934980,0.025662780
1640783356598959872,-0.520481530,0.166055750,9.237001420,-0.029791890,-0.011980530,0.018109380
1640783356600260096,-0.267269970,0.449496980,9.231156350,-0.015084450,0.078845030,0.004296010
1640783356603969792,-0.013794710,0.396589850,10.111745830,-0.049774360,0.090162480,-0.029863420
1640783356604859904,0.319063070,0.620760560,10.218507770,-0.038655110,0.045500700,0.007341800
1640783356612979968,0.375861850,0.322030690,9.922989850,0.001366440,-0.014781950,0.012077390
1640783356613689856,0.250545290,-0.006477520,9.575176240,-0.003479420,-0.028277930,0.016903870
1640783356614449920,-0.078917800,0.083857870,8.993595120,0.018537050,-0.017134850,0.032892830
1640783356614949888,-0.343349010,-0.312701110,9.296283720,-0.033812230,0.006212300,0.009031600
1640783356619899904,-0.391331790,-0.044648680,9.650203700,-0.042858720,0.052773950,-0.002017620
1640783356621120000,-0.476953300,0.172401460,10.186919210,-0.003552440,0.029230120,-0.008271630
1640783356625009920,-0.345975760,0.210705030,10.369284630,-0.013273950,-0.000832970,-0.019486250
1640783356625599744,-0.145862710,0.669913290,9.693091390,0.034105780,-0.006905200,0.018596650
1640783356629439744,-0.134727700,0.413249790,9.785812380,0.005246700,0.003036860,0.022543960
1640783356631459840,-0.121142960,0.548711060,9.438776020,-0.017808380,0.003965200,0.018599630
1640783356634299904,-0.142739730,0.638306440,9.274486540,-0.015543400,-0.057052080,0.008654600
1640783356636240128,-0.054771290,0.413617310,9.626481060,-0.060740110,0.001236800,-0.012099740
1640783356638979840,-0.059969380,0.692633630,9.770999910,-0.032751260,0.028687720,-0.005586450
1640783356642390016,-0.207049350,0.481591050,10.447640420,-0.040334470,-0.023536380,0.003677610
1640783356644130048,0.057170560,0.384342190,9.775230410,-0.059814750,-0.010485950,0.034888090
1640783356647709952,0.122004490,0.279909610,9.420270920,-0.031463800,-0.008828940,0.051678730
1640783356649029888,0.004981750,-0.119710180,9.962325100,-0.047369310,0.050511960,0.042779750
1640783356649900032,-0.089444070,0.027667610,9.557130810,-0.021728880,-0.009348990,0.025460120
1640783356654019840,-0.249969630,-0.122816570,9.800149920,-0.024989240,-0.082185860,-0.004582110
1640783356656080128,-0.121188950,0.049250000,9.332707410,-0.060002520,0.012665990,-0.026524070
1640783356659539968,-0.203245880,0.448837220,9.599262240,-0.032876420,0.013674790,-0.026254360
1640783356663529984,-0.248014510,0.563911440,10.125791550,-0.080700230,0.011892620,-0.005988780
1640783356664169984,-0.007757760,0.663050950,9.378683090,-0.054046520,-0.007978080,0.029027470
1640783356664859904,-0.051903900,0.350693170,9.740657810,-0.004976990,-0.022763020,0.040604170
1640783356669119744,-0.055450420,0.235620480,9.702681540,-0.013130910,0.017268960,0.042876600
1640783356670230016,-0.118985630,0.111352920,9.498906140,-0.013425950,-0.044979160,0.028190020
1640783356676039936,-0.089487230,-0.223143030,9.884271620,-0.060780360,-0.009173150,-0.005404650
1640783356676630016,-0.002860340,-0.105112580,9.570346830,-0.025893750,0.059035420,-0.024779140
1640783356679350016,-0.236191030,0.059204440,10.018235210,0.006033480,-0.032269950,-0.035214420
1640783356680009728,-0.283140420,0.210445120,9.646362300,-0.030347700,-0.044722860,-0.011597570
1640783356684000000,-0.271990720,0.288195040,9.028471950,-0.006560980,-0.056387480,0.008296970
1640783356684859904,-0.465957640,0.203388560,9.790775300,-0.001038610,-0.022757050,0.021485990
1640783356689260032,-0.387895170,0.401049200,9.747751240,-0.001019240,0.000041720,0.018809740
1640783356690309888,-0.341656570,0.396664170,10.097760200,0.005817410,-0.055423380,0.010846560
1640783356694059776,-0.214634660,0.550931160,10.147932050,-0.044703480,-0.023928290,0.001902880
1640783356694899968,-0.012714420,0.767600720,9.614786150,-0.050087280,-0.049830980,0.002855060
1640783356698959872,0.010600460,0.625672100,9.829118730,-0.055934490,-0.051604220,0.010345870
1640783356700209920,0.150961260,0.556870940,9.397233960,-0.035612290,-0.031800570,0.003239510
1640783356704009984,0.185658690,0.435672790,9.498577120,-0.016433000,-0.041389480,-0.002935530
1640783356704959744,0.062732620,0.393674280,9.773848530,-0.084495550,-0.011354690,0.001446900
1640783356710399744,0.084803250,0.261983160,9.541780470,-0.105433170,-0.037702920,0.015723710
1640783356711059712,-0.162609790,-0.020734010,10.081880570,-0.071005520,-0.035871570,0.009763240
1640783356713920000,-0.415346210,0.115372990,9.841953280,-0.034554310,-0.051333010,0.011554360
1640783356714880000,-0.372960150,0.095534290,9.416217800,-0.025205310,-0.098432610,0.022585690
1640783356719099904,-0.294779300,0.150815640,9.506713870,-0.077593330,-0.008320810,0.016643110
1640783356719960064,-0.086489800,0.247030540,9.605195050,-0.077961390,0.026904050,-0.001843270
1640783356724199936,0.076507980,0.364999650,10.040169720,-0.066450240,-0.008028750,-0.018920000
1640783356724900096,0.221023140,0.573848310,9.752769470,-0.054523350,-0.032569470,-0.019496680
1640783356728960000,0.310943040,0.447601590,9.383715630,-0.054343040,-0.053609910,-0.007513170
1640783356729879808,-0.002639770,0.276633890,9.571461680,-0.050203510,-0.023940210,0.008688870
1640783356734230016,-0.217540100,0.157237500,9.530128480,-0.049044200,-0.054794550,0.012166800
1640783356735209984,-0.299597470,0.023879600,9.563582420,-0.058771680,-0.049789260,0.016507510
1640783356739929856,-0.434552040,0.025863540,9.826393130,-0.062270460,0.008408720,-0.006425380
1640783356740739840,-0.444367350,-0.011468700,10.162581440,-0.048364690,-0.024034080,-0.021308660
1640783356744029952,-0.276026820,0.150481580,9.866597180,-0.030064580,-0.055313110,-0.008279090
1640783356744959744,-0.080779820,0.153420490,9.561641690,-0.026999410,-0.043001770,-0.000929830
1640783356749329920,0.059646520,0.207113390,9.617029190,-0.035908820,-0.015120210,0.011886660
1640783356750389760,0.018965030,0.383281440,9.729309080,-0.028172140,-0.032587350,0.011324880
1640783356754569984,-0.096408150,0.388451490,9.792594910,-0.051988660,-0.079345710,-0.003063680
1640783356756320000,-0.078360890,0.617180230,9.525338170,-0.066722940,-0.070688140,0.006994610
1640783356758939904,-0.295733060,0.639777960,9.921106340,-0.063022970,-0.052389510,-0.006586310
1640783356759919872,-0.312213450,0.636732760,9.898880000,-0.076401240,-0.045947730,0.009374320
1640783356763949824,-0.108259380,0.594159840,9.564451220,-0.048588220,-0.054706630,0.030577190
1640783356764879872,0.018633400,0.185348230,9.891989710,-0.070974240,-0.004000960,0.032858550
1640783356769079808,0.207255320,0.190577050,9.613612170,-0.066018100,0.001575050,0.037688020
1640783356769989888,0.023957800,0.063655940,9.983694080,-0.064755970,-0.073805450,0.014568870
1640783356773939968,0.095930320,-0.123768690,9.558723450,-0.097981100,-0.054769220,0.002801420
1640783356774899968,0.039680560,-0.021449780,9.224419590,-0.042648620,-0.050172210,-0.020273030
1640783356778990080,-0.256804110,-0.011446620,9.923234940,-0.041320920,-0.006072220,-0.031942130
1640783356779899904,-0.096990170,0.377274900,9.330780030,-0.063894700,0.001619760,0.006872420
1640783356783969792,-0.316059260,0.386879090,9.949785230,-0.079345710,-0.060816110,0.020045040
1640783356786239744,-0.148783650,0.293405180,9.692108150,-0.088006260,-0.016318260,0.031644110
1640783356789799936,-0.221658360,0.322267170,9.598996160,-0.000466410,-0.056758520,0.025023530
1640783356790639872,-0.349600670,0.007766550,10.149744030,-0.000332300,-0.058427460,0.002890830
1640783356793920000,0.050136880,-0.030763300,9.222987170,-0.020766260,-0.006076690,-0.005117060
1640783356794859776,-0.102763880,-0.045282940,10.032760620,-0.028541690,-0.012974440,-0.025758150
1640783356799209728,0.004700420,0.094384830,9.942044260,-0.083191690,0.008949640,-0.027000900
1640783356800469760,0.068750000,0.342923730,9.343976970,-0.033694510,-0.095653530,-0.003784900
1640783356804059904,-0.183636980,0.095434100,9.821443560,-0.007380540,-0.069922200,-0.005289910
1640783356804930048,-0.049213050,0.310516510,9.118318560,0.018502770,-0.022171440,0.012485680
1640783356809969920,-0.407275560,0.293655100,10.092220310,0.021582840,-0.077775120,0.010457640
1640783356810540032,-0.314856170,0.335651730,9.956615450,-0.064760450,-0.012548270,0.003467500
1640783356813949696,-0.122139860,0.619155820,9.638558390,-0.059953340,-0.043018160,0.009323660
1640783356814849792,-0.404600950,0.538179580,10.625878330,-0.070716440,-0.038202110,-0.013409560
1640783356820359936,0.018775610,0.778368650,9.314749720,-0.043864550,-0.066456210,0.004251300
1640783356821159936,0.047526750,0.499488590,9.488198280,0.008152430,-0.095738470,0.007931890
1640783356824019968,0.199533540,0.317952930,9.505237580,-0.056239970,0.055442760,0.001600380
1640783356824849920,0.452018290,0.405132410,9.468187330,-0.066378710,-0.010320540,0.018186870
1640783356828919808,0.126942380,0.014296580,10.563543320,-0.086307550,-0.038203600,0.019453470
1640783356829880064,0.284227910,0.049075470,9.328290940,-0.072608900,-0.042499610,0.011888150
1640783356834309888,-0.127555390,-0.008945880,9.663256650,0.005136430,-0.066809360,0.005795060
1640783356835670016,-0.543784380,0.046767100,9.810220720,-0.038442020,-0.001479690,0.001735990
1640783356840260096,-0.345359330,0.415951190,9.094782830,-0.065556170,-0.068052140,0.021334000
1640783356840760064,-0.428997040,0.273398370,10.022459980,-0.098575660,0.009526310,0.011220570
1640783356843969792,-0.023069970,0.428585530,9.606914520,-0.079217560,0.065521900,-0.008232890
1640783356844849920,0.105891910,0.390271040,10.161493300,0.016967950,-0.036323070,-0.006705520
1640783356848979968,0.165661140,0.152472270,9.924795150,0.003615020,-0.006946920,0.006429850
1640783356850259968,0.337131320,0.071230380,8.989109040,-0.021226700,-0.038914390,0.017654900
1640783356856299776,-0.037439060,-0.177130740,9.626121520,-0.042544310,-0.023169820,0.010536610
1640783356856859904,-0.080399820,-0.103805190,9.206559180,-0.063405940,-0.001148880,0.006644430
1640783356858949888,-0.279467730,-0.134914730,9.763974190,0.004839900,-0.032781060,-0.014957790
1640783356859939840,-0.493968460,0.042623340,10.270385740,0.017489490,0.009386240,-0.040216740
1640783356863919872,-0.361415510,0.440112230,9.853835110,0.006653370,-0.036558510,-0.019274650
1640783356865749760,-0.424253460,0.411979290,10.025639530,-0.021129850,-0.041516130,0.002922120
1640783356869299968,-0.162356420,0.402583450,9.444138530,-0.034247340,0.004099310,0.013916190
1640783356869900032,-0.169571620,0.324544580,9.642036440,0.043533750,-0.030332800,0.006845590
1640783356873959936,-0.176500500,0.358029190,9.653316500,0.028404590,-0.040382150,-0.009177630
1640783356874949888,0.067503550,0.554729040,9.343194010,-0.027671450,-0.058323150,-0.018644330
1640783356878979840,-0.057146570,0.489075570,10.080178260,-0.063477460,-0.013361870,-0.015071040
1640783356879889920,0.075482170,0.517862080,9.923456190,-0.068093840,-0.004951660,-0.008286540
1640783356884739840,0.111662020,0.428320380,10.002541540,0.000581150,-0.042903430,0.004348160
1640783356885679872,0.126048280,0.281054650,9.702089310,0.008946660,0.008949640,0.023856760
1640783356889089792,0.038748160,0.255750810,9.567050930,-0.014671680,-0.047124930,0.016440450
1640783356889959936,-0.209777620,0.176828700,9.715758320,-0.058080260,-0.050954520,0.006946920
1640783356893920000,-0.175444600,0.151215490,9.250959400,-0.095549230,-0.043740870,-0.006885830
1640783356894850048,-0.250896130,0.104658130,9.976592060,-0.026626880,-0.011046230,-0.036659840
1640783356898989824,-0.189944860,0.344727100,9.903073310,0.004939730,0.028692190,-0.036557010
1640783356899950080,-0.018372030,0.555470290,9.717451100,-0.036175550,-0.039237730,-0.013893840
1640783356904049920,-0.021348060,0.440232370,9.761795040,-0.078503770,0.007064640,0.017914170
1640783356905910016,0.107269700,0.188215940,9.268036840,-0.058160720,-0.022685530,0.033879280
1640783356909050112,-0.071586150,-0.158602970,9.888623240,0.019192690,-0.046619770,0.007814170
1640783356909989888,0.045371170,-0.192274450,9.343936920,0.038707250,0.013263520,-0.000013410
1640783356914289920,-0.005862170,-0.244738500,9.893671990,0.006681680,-0.014954810,-0.013960900
1640783356914969856,-0.094167050,-0.205101450,10.226182940,-0.034752490,0.056968630,-0.031897430
1640783356919059968,-0.032321560,0.317126300,9.518699650,-0.033968680,-0.023898480,-0.030560790
1640783356921939968,-0.339943770,0.339015510,9.926044460,-0.012299420,-0.071895130,-0.016996270
1640783356923899904,-0.193710950,0.422116040,8.911321640,0.031656030,-0.002591310,0.000061090
1640783356924859904,-0.427212480,0.487295450,9.555654530,0.075943770,-0.056731700,0.001306830
1640783356928949760,-0.487090740,0.366972390,10.057822230,0.014482440,0.011442600,0.012993810
1640783356929929984,-0.058842320,0.498768120,9.541673660,-0.046209990,-0.023244320,0.013712050
1640783356934299904,-0.161482530,0.286869110,10.716191290,-0.041443110,-0.005753340,-0.001114610
1640783356935429888,0.158170190,0.371223840,9.798510550,-0.011886660,0.021752720,-0.013133880
1640783356939209984,0.134041880,0.490231990,9.810081480,0.034630300,-0.096338990,-0.014154620
1640783356939950080,0.061661060,0.272540210,9.550261500,-0.003282730,-0.015768410,0.007420780
1640783356943960064,0.361536200,0.388439090,8.588157650,-0.033433740,0.002092120,-0.004608930
1640783356944869888,-0.099552280,0.268644570,10.178746220,-0.048591200,0.005577500,-0.011409820
1640783356949009920,0.117509000,0.293064090,9.465032580,-0.050774220,0.036358840,0.008764860
1640783356949900032,-0.036608550,0.228642810,10.019323350,0.016154350,-0.066402560,0.000555810
1640783356953979904,-0.413570170,0.133362550,10.351243970,-0.000271200,0.014458600,0.004032250
1640783356956310016,-0.193405150,0.346591470,9.035332680,-0.027382380,-0.053067520,0.026737160
1640783356958919936,-0.461749370,0.084909510,10.043012620,-0.026290120,-0.041137640,0.000996890
1640783356959899904,0.030121870,0.249269810,8.950438500,-0.039334600,0.088645520,-0.015340750
1640783356963939840,0.198046860,0.434108080,9.643652920,-0.003778930,0.009320680,-0.030453500
1640783356964879872,0.179514240,0.257851330,10.319903370,-0.029492380,0.068555780,-0.025545060
1640783356969049856,0.542508840,0.229703810,9.160351750,-0.000762940,-0.017757710,-0.003682080
1640783356969959936,-0.081796190,-0.140777160,10.311466220,0.033168490,-0.056180350,0.001694260
1640783356973939968,-0.159101010,-0.087493620,9.135781290,0.001108650,0.019912420,0.011372560
1640783356974870016,-0.387823730,-0.022727280,9.308538440,0.013859570,-0.063541530,0.011555850
1640783356979300096,-0.638656140,-0.072442640,10.220392230,-0.022177400,0.067681080,-0.014162060
1640783356980079872,-0.308366630,0.365851340,9.578522680,-0.001220410,0.036859520,-0.034224990
1640783356983939840,-0.529126940,0.453247400,10.669368740,0.050495560,-0.056485840,-0.034509600
1640783356985209856,-0.069447690,0.638887170,9.380240440,0.004051630,0.023195150,-0.015415250
1640783356989509888,0.094419060,0.721707110,9.332371710,0.020325180,-0.042226910,0.005292890
1640783356990010112,-0.116889570,0.448635220,10.140260700,-0.011464950,0.033584240,0.005437430
1640783356993939968,0.375065390,0.631686570,9.053377150,-0.018191340,-0.000889600,-0.003172460
1640783356995239936,0.002876590,0.376572430,10.294429780,0.001706180,-0.031059980,-0.003157560
1640783356998970112,0.054872020,0.284882340,9.830783840,-0.030268730,0.052466990,-0.005546210
1640783356999919872,-0.076704140,0.398668830,9.747923850,0.002783540,-0.053170330,0.004722180
1640783357004070144,-0.408204820,0.213346930,10.129645350,-0.033496330,-0.014004110,0.023287540
1640783357004900096,0.145776170,0.286992910,8.803593640,-0.052957240,0.023250280,0.016871100
1640783357009019904,-0.162624270,0.197143240,10.115996360,-0.009559090,0.033579770,-0.004222990
1640783357010909952,-0.078005820,0.214474780,9.942720410,-0.029391050,0.065636640,-0.016452370
1640783357013949952,0.066629750,0.253219010,9.688318250,0.004826490,-0.049337750,-0.017629570
1640783357014860032,-0.302275210,0.100239320,10.053528790,-0.005230310,-0.007626420,-0.012454390
1640783357019389952,-0.014942640,0.325569330,8.938282970,-0.043883920,-0.004582110,-0.001001360
1640783357020179968,-0.242537870,0.234975800,9.731375690,-0.026749080,0.007995960,0.015522540
1640783357023919872,-0.134239660,0.081293930,9.655152320,-0.021502380,0.070685150,0.016713140
1640783357024839936,0.024457560,0.139321770,9.862559320,0.032441320,-0.013768680,-0.011314450
1640783357028930048,-0.227973610,0.147918910,10.262629510,0.028118490,-0.002232190,-0.003750620
1640783357029879808,0.085590790,0.151652840,9.248492240,-0.035227830,-0.023549800,0.006254020
1640783357033959936,-0.045297370,-0.045112690,9.844175340,0.000074510,0.028239190,0.002098080
1640783357035449856,-0.224044170,0.018258100,9.875771520,0.027325750,0.056080530,-0.010547040
1640783357039419904,-0.228185620,0.259995400,9.780228610,0.050100690,-0.058116020,-0.005473200
1640783357040279808,-0.416785480,0.449645610,9.718753810,0.007784370,-0.020837780,-0.015577670
1640783357044260096,-0.249999090,0.644518970,9.337785720,-0.062537200,-0.013935570,-0.016503040
1640783357045069824,-0.374148130,0.586393770,10.106821060,-0.014823680,0.009600820,-0.003848970
1640783357048979968,-0.140715630,0.575173910,9.797469140,0.010558960,0.017103550,-0.003637370
1640783357049969920,0.142512430,0.427669470,9.943797110,0.030232970,-0.019043680,0.017796460
1640783357053979904,0.172301130,0.261648030,9.989272120,0.008483230,0.050272050,0.017865000
1640783357054970112,0.224910970,0.233960600,9.656932830,-0.054453320,-0.018854440,0.014558440
1640783357059259904,0.062016390,0.023987920,9.937410350,-0.036484010,-0.024820860,0.016547740
1640783357060029952,0.071763390,-0.009753940,9.238304140,-0.003100930,0.007788840,-0.019127130
1640783357063969792,-0.077595760,0.164265530,9.712362290,0.021110480,-0.012595950,-0.025002660
1640783357064909824,-0.145910010,0.260958490,9.594318390,0.007334350,0.079205640,0.000905990
1640783357069009920,-0.148412630,0.349177660,9.668546680,-0.046278540,-0.003103910,-0.000631810
1640783357069909760,-0.312463190,0.262458830,10.245195390,-0.028030580,-0.003507730,0.020892920
1640783357074089984,-0.155467050,0.171411440,9.333196640,0.010605160,0.011661650,0.008466840
1640783357075609856,-0.303192140,0.105988710,10.106578830,0.046458840,-0.036361810,-0.007708370
1640783357078980096,-0.086897360,0.104035770,9.585264210,0.041159990,0.073812900,-0.004710260
1640783357079949824,0.138152960,0.149247200,9.461712840,-0.002709030,0.013205410,-0.021973250
1640783357084379904,0.003438020,0.200808170,10.229752540,-0.030530990,0.055034460,-0.012581050
1640783357085819904,0.305199770,0.198153530,9.057982440,-0.003103910,0.030530990,0.012212990
1640783357089429760,-0.046014910,-0.052615710,9.987883570,0.076794630,-0.057479750,-0.008186700
1640783357090019840,-0.220435070,0.064297410,9.520123480,0.090220580,0.043724480,-0.010187920
1640783357093939968,-0.317343980,0.205853040,9.434443470,0.028304760,-0.047899790,-0.012002880
1640783357094899968,-0.675088470,0.123044460,10.572724340,-0.022876260,0.022348760,-0.018088520
1640783357098939904,-0.297660770,0.446231660,9.441966060,0.000815090,0.046765800,-0.015954670
1640783357099910144,-0.413442640,0.654872830,10.428063390,0.057350100,-0.055153680,-0.019674000
1640783357104059904,-0.138086590,0.794273790,9.662740710,0.031064450,0.048539040,0.001916290
1640783357104960000,0.280924740,0.790430070,9.058359150,0.014221670,-0.032915180,0.015977030
1640783357108950016,0.030884250,0.407812000,10.299980160,-0.003565850,0.026765470,0.006704030
1640783357109949952,0.464143870,0.386074240,8.974203110,-0.005696710,0.048778950,0.000232460
1640783357113910016,0.146769150,0.145106300,10.093673710,0.013504920,-0.061506030,-0.010117890
1640783357114899968,-0.023999050,-0.008710870,9.870727540,-0.013610720,0.068937240,-0.009435420
1640783357119040000,-0.126966010,0.109288260,9.310611720,-0.001694260,-0.043919680,0.002700090
1640783357119940096,-0.724836710,-0.069655530,10.445487980,0.002053380,-0.033104420,0.015601510
1640783357124140032,-0.292168290,0.129533050,8.761605260,-0.005969410,0.038407740,0.008000430
1640783357124909824,-0.423238610,0.226518600,9.921847340,0.025856500,-0.017891830,-0.011730190
1640783357128969984,-0.260969910,0.339753900,9.978681560,0.002560020,0.089108950,-0.031796100
1640783357129939968,0.361525740,0.620991290,9.050597190,-0.002010170,-0.014297660,-0.024268030
1640783357134279936,0.033864780,0.369686100,10.500756260,0.010192390,0.008822980,-0.010146200
1640783357135279872,0.368337690,0.306744720,9.077596660,0.009821350,0.046837330,0.001074370
1640783357140489728,-0.020511600,0.267138810,9.927299500,0.046949090,-0.083844370,-0.003470480
1640783357141870080,-0.410458620,0.110548700,9.808456420,-0.007885700,0.013107060,0.008344650
1640783357144509952,-0.072515610,0.168783770,8.875279430,-0.027011340,-0.025907160,-0.007641320
1640783357145210112,-0.666015030,0.013615120,10.784457210,-0.001639130,0.019149480,-0.026315450
1640783357148969984,-0.285372590,0.242422180,9.522266390,0.012308360,0.037638840,-0.012263660
1640783357150060032,-0.192459430,0.216934650,9.944626810,0.057198110,-0.082148600,0.000171360
1640783357154149888,-0.304103790,0.203136380,10.004989620,0.018675620,0.044718380,-0.005789100
1640783357156819712,0.162608360,0.485645800,8.893365860,-0.014168020,-0.026862320,-0.010021030
1640783357158929920,-0.253240700,0.325185950,10.351162910,-0.008167330,-0.037159030,-0.022472440
1640783357159899904,0.021383710,0.528074320,9.265154840,-0.003850460,0.016459820,-0.015550850
1640783357163919872,0.016961090,0.656400680,9.758029940,0.027774280,-0.079157950,-0.012288990
1640783357164909824,-0.242265490,0.557476520,10.212259290,-0.031623240,0.037084520,0.014688080
1640783357169019904,0.235704630,0.523085650,9.126197810,-0.056032830,-0.012305380,0.043572490
1640783357169929984,-0.057057800,0.075103290,10.314752580,0.006350880,-0.018326930,0.031808020
1640783357174059776,0.130211650,0.045916040,9.321952820,0.010064240,0.042988360,-0.001496080
1640783357176299776,0.160523830,0.208909320,9.431106570,0.006073710,-0.065456340,-0.017069280
1640783357178959872,-0.233739900,0.003330120,9.998563770,-0.050818920,0.034819550,-0.012041630
1640783357179909888,-0.051978470,0.065414610,9.226460460,-0.034324820,-0.012141470,-0.019074980
1640783357184269824,-0.489181040,0.078035960,10.281687740,0.043772160,-0.046086310,-0.021921100
1640783357185009920,-0.375276060,0.302620140,9.354001050,0.007708370,0.006388130,-0.006414950
1640783357190289920,-0.300721170,0.409093590,9.539606090,-0.008018320,-0.047212840,-0.003185870
1640783357190869760,-0.441628130,0.277048770,9.989015580,-0.021992620,0.026111300,-0.004267690
1640783357193929984,0.093516690,0.358468890,9.322968480,-0.002810360,-0.024256110,-0.002346930
1640783357194899968,0.042269610,0.152523650,10.152703290,0.047527250,-0.001192090,0.009219350
1640783357198929920,0.225974750,0.075805070,9.694149020,0.031477210,0.035348540,0.000064070
1640783357200179712,0.131490220,0.240870390,9.987972260,0.015866760,-0.051599750,0.002312660
1640783357204039936,-0.222058880,0.193225940,9.816292760,-0.023990870,-0.039124490,0.007580220
1640783357206859776,-0.141657320,0.189065110,9.130926130,-0.026974080,-0.083282590,-0.013972820
1640783357208979968,-0.452409210,0.349624780,9.803700450,0.039288410,-0.003848970,-0.017112500
1640783357209939968,-0.388116450,0.465338290,9.597251890,0.021488960,0.006386640,-0.022664670
1640783357213939968,-0.213983330,0.638832630,10.145424840,-0.014376640,-0.033615530,-0.005571550
1640783357214929920,-0.125736030,0.576457380,10.091834070,-0.043509910,0.033575310,0.012859700
1640783357219079936,0.076835550,0.410339000,9.853366850,-0.041194260,-0.045564770,0.009034570
1640783357220019712,0.026266500,0.463119150,9.888566970,0.016558170,-0.045727190,0.016120070
1640783357224019968,0.187443870,0.245798080,8.998582840,0.001516940,-0.026497250,0.008304420
1640783357224869888,0.109583860,0.069855780,9.747610090,0.002485510,-0.006830690,0.006669760
1640783357228969728,0.016533550,0.082800850,9.635011670,-0.013189020,0.037673110,0.003291670
1640783357229939968,0.104994930,-0.027577130,9.653870580,-0.046189130,-0.060540440,-0.008015330
1640783357234380032,-0.035094260,0.061366870,9.858393670,-0.009754300,0.023898480,-0.000888110
1640783357235549952,-0.131665780,0.098121460,9.515671730,0.000739100,-0.011982020,-0.016292930
1640783357238970112,-0.462035480,0.137307420,10.270595550,0.026929380,-0.074769540,-0.013618170
1640783357240470016,-0.332862380,0.267100160,9.258853910,0.025054810,-0.004641710,-0.009487570
1640783357244140032,-0.287601710,0.182592620,9.603064540,0.004668530,-0.034505130,-0.007016960
1640783357244900096,-0.316545460,0.255213530,10.119580270,0.015890600,0.063598160,-0.005425510
1640783357248969984,-0.059835990,0.394794340,9.382292750,0.007805230,-0.027090310,-0.008569660
1640783357249939968,-0.072351070,0.339959860,10.068629260,0.011584160,-0.081238140,-0.004009900
1640783357254079744,0.126794820,0.324358520,9.177652360,0.009681280,0.035642090,-0.001172720
1640783357254949888,-0.049437430,0.219613130,9.822643280,0.019007920,-0.090594590,-0.015950200
1640783357258919936,-0.250701670,0.200625600,10.149871830,0.034557280,-0.009401140,0.002603230
1640783357259919872,-0.051792250,0.339768290,9.256538390,0.002765660,-0.035591420,-0.003367660
1640783357263919872,-0.368708790,0.372883260,10.616869930,-0.018173460,-0.041222570,0.002326070
1640783357264930048,-0.213618860,0.503137710,9.565999980,-0.018857420,0.027424100,0.012946130
1640783357269019904,-0.135237630,0.564436670,9.716569900,0.002425910,-0.111018120,-0.002349910
1640783357272329728,-0.112667680,0.499319020,9.932506560,0.011168420,0.016281010,0.006337470
1640783357274080000,0.217755320,0.536322470,8.904441830,-0.007505720,0.007161500,-0.022074580
1640783357275769856,-0.066617060,0.465067210,10.406629560,-0.051374740,-0.060597070,-0.015290080
1640783357278949888,0.185871410,0.258805070,9.378170970,-0.061659510,0.040572890,0.015059110
1640783357279929856,0.096411060,0.057646930,9.728109360,-0.013047460,-0.082583730,0.005333130
1640783357284260096,-0.333569260,0.039520660,10.455317500,0.017483530,-0.010015070,0.027124590
1640783357285159936,-0.018003580,0.062970650,8.876135830,-0.007119780,-0.034037240,0.029622020
1640783357288999936,-0.254036550,-0.079840420,10.214688300,-0.034233930,-0.052505740,0.006280840
1640783357289929984,-0.024078450,0.039461630,9.513700490,-0.025172530,0.111196940,0.001163780
1640783357293939712,0.159480380,0.200658080,9.599891660,0.012464820,-0.038109720,-0.024756790
1640783357294899968,-0.149685470,0.259899290,10.483076100,0.015562770,-0.000604990,-0.024905800
1640783357299119872,0.190176070,0.370579390,8.753394130,0.002065300,-0.010862950,-0.004062060
1640783357300039936,-0.394773220,0.244539260,10.224598880,0.003407900,-0.086160000,-0.004461410
1640783357304000000,-0.498571340,0.265640830,9.532997130,-0.010581310,0.032167130,0.002123420
1640783357304930048,-0.309446390,0.360019620,9.333031650,0.010341400,-0.079895550,-0.001651050
1640783357308979968,-0.557546790,0.325396840,10.659321780,0.001303850,0.018489360,-0.001271070
1640783357309939968,0.006293770,0.512554940,9.329368590,-0.024153300,0.038826470,0.013241170
1640783357314230016,-0.084393580,0.238694950,10.488356590,-0.003047290,-0.082503270,0.021617110
1640783357314990080,0.084614980,0.060700990,9.753276820,0.027228890,0.028425450,0.012740490
1640783357318980096,0.305800560,0.249727740,9.045551300,0.037807230,-0.073425460,-0.007241960
1640783357319949824,-0.293613050,0.236709580,10.306447980,-0.030137600,-0.032402580,-0.011679530
1640783357323989760,0.020267000,0.390402700,9.016459470,-0.066208850,-0.003418330,-0.010295210
1640783357324909824,-0.261916040,0.461551130,10.216273310,-0.023676460,-0.078533600,-0.019268690
1640783357328950016,-0.423202660,0.571115430,10.169743540,0.000239910,0.028677280,0.007086990
1640783357330240000,-0.019944430,0.648747980,9.331252100,-0.007019940,-0.046132500,0.037942830
1640783357334279936,-0.320695910,0.256371440,10.489356990,-0.022232530,-0.011026860,0.043128430
1640783357334970112,0.128780980,0.136187000,9.165959360,-0.036509340,0.013907260,0.023171310
1640783357338979840,0.155680130,0.019013510,9.723556520,-0.014789400,-0.060765450,-0.003892180
1640783357339939840,0.036060800,-0.120102300,9.838065150,-0.018188360,0.034837420,-0.014945870
1640783357343989760,0.313464880,0.092038040,9.283651350,-0.009639560,-0.023254750,-0.022502250
1640783357344940032,-0.190297680,0.131357430,10.316844940,-0.014747680,-0.020052490,-0.025801360
1640783357348969984,-0.040153790,0.251773660,9.225554470,-0.039631140,-0.005824860,-0.002154710
1640783357350179840,-0.197676750,0.201960410,9.746467590,0.001536310,-0.050707160,0.000660120
1640783357353989888,-0.385455520,0.154355940,9.801475520,0.018087030,0.031480190,-0.004500150
1640783357355109888,-0.067038750,0.328294690,9.451891900,0.015296040,-0.012466310,0.002485510
1640783357358909952,-0.306924520,0.155829070,10.417832370,0.003546480,0.019347670,0.002223250
1640783357359920128,0.000364530,0.149050090,9.516681670,-0.018675630,0.004030760,-0.012032690
1640783357363999744,-0.082196520,0.247136470,9.993061070,0.024175640,-0.029304630,-0.020439920
1640783357364889856,-0.270974990,0.314791350,9.719146730,0.005109610,0.009822850,-0.022880730
1640783357369029888,-0.128678230,0.415171500,9.423121450,-0.013074280,-0.077912220,-0.020422040
1640783357369959936,-0.290986900,0.378967880,9.878477100,0.006628040,-0.003394480,-0.009852650
1640783357373989888,-0.118230840,0.376153650,9.503851890,-0.006923080,0.005742910,-0.006033480
1640783357374939904,-0.046471200,0.473258730,10.234909060,0.007794800,-0.017635520,0.008670990
1640783357379299840,0.080558060,0.368621170,9.936930660,-0.025272370,0.039580460,0.008824470
1640783357380039936,0.166919370,0.304530290,9.898728370,-0.026075540,-0.032642480,0.014801320
1640783357383999744,-0.096231720,0.271166710,10.029447560,0.009375810,-0.001090760,-0.005203490
1640783357384960000,-0.069947700,0.282629100,9.242506980,-0.022211680,-0.058589890,-0.020278990
1640783357388900096,-0.158495190,0.335816440,9.651820180,-0.025096540,-0.032240160,-0.011315940
1640783357389959936,-0.131448080,0.222160100,9.423926350,-0.035315740,0.070181480,-0.020580000
1640783357394099968,-0.021679280,0.271540880,9.937077520,-0.026367610,-0.006018580,-0.011092430
1640783357394939904,-0.026646010,0.278129160,10.112894060,-0.003978610,0.038827960,0.019152460
1640783357398959872,0.110888970,0.066357630,9.515992160,-0.024241210,-0.025533140,0.006130340
1640783357400199936,-0.133327230,0.078832510,10.033251760,0.002506380,-0.042916830,0.024113060
1640783357405179904,-0.178365830,-0.025649850,9.249034880,0.008681420,0.006361310,0.013268000
1640783357405679872,-0.178006950,-0.160786210,9.709072110,0.013552610,-0.052995980,-0.008575620
1640783357408989952,-0.187025670,0.149374980,9.891329770,0.030699380,0.080886480,-0.017949940
1640783357410650112,-0.026111540,0.234788120,9.645375250,-0.015752020,0.015448040,-0.033412880
1640783357413920000,-0.138043430,0.463434460,10.431998250,-0.011003020,-0.028577450,-0.025118890
1640783357414909952,-0.025174900,0.546495620,9.297465320,-0.009001790,0.013722480,-0.013673310
1640783357419049984,-0.171615970,0.348307520,9.692364690,0.018073610,-0.091254700,-0.016155840
1640783357419960064,-0.282143560,0.501156690,9.723899840,0.034174330,0.017453730,0.006443260
1640783357423909888,-0.064785180,0.379877450,9.287388800,-0.013998150,0.003446640,0.014279790
1640783357424909824,-0.232182680,0.231908800,10.755395890,-0.028088690,0.027784710,0.026237970
1640783357428949760,-0.084170280,0.443705740,10.011754040,-0.024990740,0.058005750,0.011543930
1640783357429920000,-0.068602000,0.366635980,10.060331340,-0.023233890,-0.107975300,0.012218950
1640783357433920000,-0.063088860,0.334434510,9.663968090,0.000159440,0.004777310,0.005766750
1640783357434959872,0.113142450,0.291377130,8.851138110,0.002293290,0.018885730,-0.030544410
1640783357439940096,-0.107353090,0.347224440,10.081356050,-0.015255810,-0.013962390,-0.019891560
1640783357440320000,0.138560590,0.567449510,9.347155570,-0.061707190,0.063961740,-0.002647940
1640783357444369920,0.189369710,0.347260390,9.914131160,-0.084614760,-0.015631320,0.006607180
1640783357445019904,-0.216846730,0.277324350,10.656399730,-0.015111270,0.050610310,0.020344550
1640783357449240064,-0.139783230,0.260277900,9.511981960,0.026758020,-0.045931340,0.027672950
1640783357450170112,-0.353699740,-0.013783740,10.033935550,0.005610290,-0.079889600,0.032675270
1640783357454149888,-0.138096060,-0.004908450,9.003370290,-0.032372770,0.088618690,0.013005730
1640783357454979840,-0.032711200,-0.034493230,9.662771220,-0.060381000,0.017352410,-0.021083660
1640783357459030016,-0.106880670,0.063230910,10.300968170,-0.029796360,0.044919550,-0.019669530
1640783357459950080,0.264709060,0.237909240,9.207534790,0.005392730,-0.004416700,-0.042523450
1640783357463909888,-0.196844950,0.202871530,10.418945310,0.019551810,-0.055652860,-0.027158860
1640783357464910080,-0.304730420,0.280074450,9.458298680,0.004780290,0.017632550,0.005735460
1640783357469059840,-0.330046620,0.163518350,9.480428700,-0.008173290,-0.068454460,0.002358850
1640783357470019840,-0.483314960,0.154777540,10.188341140,0.007197260,0.042578580,0.017794970
1640783357474089984,0.048968900,0.319134710,9.316067700,0.011274220,0.056371090,0.006614630
1640783357475539968,-0.097276980,0.382682030,10.578075410,-0.000570710,-0.011928380,-0.001828370
1640783357478979840,0.041798220,0.406425360,9.824189190,-0.011372570,0.028666860,0.015835460
1640783357479960064,0.213033750,0.278661820,9.403176310,0.009579960,-0.077241670,-0.021483000
1640783357483959808,-0.163207340,0.385203180,9.970055580,0.004431610,-0.005607310,-0.031556190
1640783357484979968,0.064016240,0.591118630,8.958246230,-0.024764250,0.042882570,-0.011013450
1640783357488899840,-0.187647250,0.442364540,10.454463960,-0.047464670,-0.002053380,-0.005309280
1640783357490029824,-0.260959390,0.507137890,10.274958610,-0.034393370,0.048565860,0.016796590
1640783357493909760,-0.036045890,0.495347560,9.587590220,-0.013667350,-0.062915690,0.031271580
1640783357494909952,-0.276873650,0.185034540,10.134583470,-0.017283860,0.002770130,0.026814640
1640783357499209984,0.085283700,0.143288930,9.015475270,-0.006817280,0.035257640,0.009174640
1640783357500369920,-0.001963870,0.082964840,9.925285340,-0.017245120,-0.001044570,-0.023835900
1640783357504799744,0.015272520,0.134157840,9.826328280,-0.066043440,0.067324940,-0.021527710
1640783357505529856,0.209635870,0.244970320,9.619358060,-0.042484700,-0.021757180,-0.006985660
1640783357509009920,-0.183962900,0.157197820,10.316902160,-0.011798740,-0.004298990,-0.006836650
1640783357509999872,-0.091071890,0.323633160,9.047376630,-0.007887190,0.001141430,0.014759600
1640783357513929728,-0.252649040,0.186502370,9.742451670,-0.004687900,-0.017374750,0.019441540
1640783357514919936,-0.257338700,0.095998060,9.724036220,-0.014352800,0.083062060,0.012482700
1640783357519009792,0.045603340,0.247572870,9.688385010,-0.003272300,-0.004354120,-0.006957350
1640783357519939840,-0.084279250,0.133757950,10.363848690,-0.011634830,0.041364130,-0.016108160
1640783357524289792,0.190207230,0.094760040,9.399963380,0.002034010,0.027389820,-0.013464690
1640783357524989952,-0.112550770,0.041913500,10.055390360,0.048832600,-0.029754640,-0.021839140
1640783357528930048,-0.297079710,0.121445540,9.321090700,0.019641220,0.020882490,-0.020949540
1640783357529949952,-0.207313940,0.284523580,9.103572850,-0.000527500,-0.047050420,-0.009739400
1640783357533959936,-0.479651900,0.246947050,10.033700940,-0.010152160,0.050961970,-0.017087160
1640783357534939904,-0.150750460,0.490287780,9.594994540,-0.004160400,0.028264520,-0.009620190
1640783357542320128,-0.187430320,0.512977600,10.616474150,0.024676320,-0.001588460,0.006210800
1640783357543459840,-0.052774890,0.353973750,10.036471370,0.011806190,0.033199790,0.010783970
1640783357544119808,0.126612690,0.386512820,9.607519150,0.023438040,-0.054842230,0.006732350
1640783357548029952,-0.148529190,0.438460620,9.779012680,-0.006844100,0.019939240,-0.006960330
1640783357549059840,0.051423210,0.405676570,8.982900620,-0.056555870,-0.003665690,-0.014248490
1640783357550230016,-0.137673800,0.348545790,10.060538290,-0.017330050,-0.012844800,-0.027550760
1640783357554060032,-0.125523610,0.409031720,9.827646260,-0.003664200,0.043326620,-0.033648310
1640783357556789760,0.097498350,0.474345030,9.765571590,-0.013038520,-0.037580730,-0.007137660
1640783357558959872,-0.072939380,0.405169790,10.213908200,-0.038595500,0.070564450,0.018230080
1640783357559939840,0.132407780,0.183638470,9.509298320,-0.058436400,0.017739840,0.027082870
1640783357563939840,-0.002013260,0.058627160,10.050789830,0.007587670,-0.021523240,0.020237270
1640783357564940032,-0.038254000,0.069825390,9.363150600,0.005064900,0.049324330,-0.008550290
1640783357569079808,0.050843870,0.045493530,9.472936630,-0.020270050,-0.019446020,-0.004014370
1640783357570269696,-0.166129990,0.098375450,10.117124560,-0.021089620,0.073498490,-0.026641790
1640783357575980032,0.087125010,0.264361800,9.439948080,-0.061042620,0.045737630,-0.033777960
1640783357576640000,-0.021199980,0.234543950,10.231336590,-0.007247930,0.019401310,0.004985930
1640783357578909952,-0.045929230,0.142116840,9.657753940,0.026279690,0.069370870,-0.010803340
1640783357579929856,-0.080243990,0.116002280,9.592258450,0.029066210,-0.045056640,0.000378490
1640783357583959808,-0.387283150,0.020442640,9.905754090,0.029017030,0.018878280,0.013221800
1640783357584969984,-0.067938870,-0.178748850,9.250938420,-0.013577940,0.032292310,-0.013998150
1640783357589609984,-0.181317810,-0.069027030,10.292500500,0.037164980,0.053176290,-0.016567110
1640783357591029760,-0.200613080,0.158781260,10.009994510,0.053608420,0.093536090,-0.023877620
1640783357593900032,-0.063977550,0.355754850,9.743556020,0.014053290,-0.055307150,-0.024662910
1640783357594939904,-0.238395570,0.547199960,9.768515590,0.016851720,0.011265280,0.008800620
1640783357599219968,-0.060947490,0.385298760,8.986022950,0.011557340,0.027412180,-0.006029010
1640783357600219904,-0.271795480,0.427293120,10.227304460,0.066192450,-0.006513300,-0.009214880
1640783357604089856,-0.171146780,0.591254230,9.842266080,0.046898430,0.059112910,0.005486610
1640783357604940032,0.078776000,0.327796010,9.994025230,-0.013783570,0.004129110,0.005295870
1640783357608929792,-0.111212250,0.470122960,10.614645960,-0.005945560,0.067240010,0.000193720
1640783357610009856,0.003158360,0.495621090,9.672513960,-0.016410650,0.001837310,0.001625720
1640783357613959936,-0.140230920,0.327583220,9.923774720,0.013938540,-0.069047500,0.005514920
1640783357615079936,-0.131737410,0.446249810,9.128789900,0.021038950,0.041253870,-0.004893540
1640783357619059968,-0.041064920,0.350160000,9.274668690,-0.029218200,0.008362530,-0.013737380
1640783357619959808,-0.176341500,0.359485630,10.204439160,-0.043641030,0.065001850,0.019970540
1640783357623970048,0.070089320,0.235324440,9.802658080,-0.028415030,0.045701860,0.009518860
1640783357624899840,-0.022720080,0.143408490,10.496169090,0.003166500,-0.028875480,0.001354520
1640783357628899840,-0.116250500,0.310720860,9.772925380,0.006811320,0.025041400,0.008025770
1640783357629949696,-0.058183410,0.117572170,9.399641040,-0.027552250,-0.032599270,-0.001569090
1640783357633949952,-0.136138260,0.099594320,9.764039040,-0.023308400,0.054922710,-0.006817280
1640783357635109888,0.066495480,0.283057930,9.169404030,-0.015957660,0.065605350,-0.021871920
1640783357639649792,0.011272810,0.165015100,10.034283640,-0.021892790,0.013919180,-0.016671420
1640783357640450048,-0.014339210,0.203709750,9.777797700,0.005063420,0.064511580,0.009931620
1640783357644009728,-0.105515380,0.050060770,9.918644910,0.013349950,-0.040462610,0.005938110
1640783357644909824,-0.419047560,-0.065723800,10.170732500,0.027178230,-0.010988120,0.013855100
1640783357649129984,-0.206940860,0.024343720,9.134881020,0.019817060,0.010687110,0.003117320
1640783357650060032,-0.309121790,-0.076733300,10.110230450,0.013910230,0.033122300,-0.013110040
1640783357654029824,-0.177885960,0.213124770,9.725453380,0.013770160,0.098106270,-0.023789700
1640783357655899904,-0.019582220,0.402162970,9.765821460,0.007544460,-0.022661690,-0.018832090
1640783357658939904,-0.147961040,0.300268170,10.123209000,0.027453900,-0.001440940,0.001113120
1640783357659940096,0.040197290,0.357942760,9.106907840,0.055709490,-0.003725290,-0.001630190
1640783357664320000,-0.260534700,0.368181910,10.100168230,0.043955450,-0.042888520,-0.014007090
1640783357666889984,-0.124290970,0.401496050,9.545805930,-0.007252400,0.072731080,-0.002159180
1640783357669019904,0.008748530,0.422053310,9.874582290,-0.016956030,0.022090970,-0.009855630
1640783357669989888,-0.308612970,0.524382890,10.805362700,-0.007797780,0.029100480,-0.021719940
1640783357673929984,-0.008760960,0.731457230,9.304913520,0.002601740,-0.032345950,-0.000272690
1640783357674979840,-0.203683690,0.507764820,9.920373920,0.000038740,-0.064277650,-0.004263220
1640783357678999808,-0.132551280,0.441275810,9.310169220,-0.011059640,0.070008640,-0.000168380
1640783357679970048,0.015080630,0.419458750,9.386254310,-0.012320280,-0.007404390,-0.000229480
1640783357684219904,-0.138311540,0.243343290,10.413215640,-0.039353970,0.041218100,0.001962480
1640783357684939776,0.181629660,0.236076440,9.344618800,-0.036667290,0.028552120,0.003086030
1640783357688920064,-0.185522510,0.160798090,10.410415650,-0.018791860,-0.061817470,-0.006414950
1640783357689969920,-0.284673420,0.185826960,9.756525990,-0.031325220,0.024627150,0.006511810
1640783357693879808,-0.111889400,0.231129170,9.210462570,-0.013959410,-0.063195830,-0.000593070
1640783357694919936,-0.245431320,0.139473330,10.132909770,-0.019159910,0.047646460,-0.017796460
1640783357699280128,0.170324500,0.364817320,9.130199430,-0.034327810,0.101555880,-0.009028610
1640783357699950080,-0.063056540,0.337185770,10.457832340,-0.025668740,-0.018464030,-0.000855330
1640783357704939776,-0.034474950,0.132831480,9.885114670,-0.024518380,0.022490320,0.005549190
1640783357705629952,0.027273890,0.102329070,9.100681300,0.024631620,-0.085037950,0.004692380
1640783357708989952,-0.479738500,-0.048429460,10.080359460,0.024798510,-0.006206330,0.000183280
1640783357710029824,-0.190710810,0.072682190,9.054032330,-0.027568640,0.067375610,-0.003255900
1640783357714319872,-0.326371490,0.136191350,10.502992630,-0.015489760,-0.019988420,-0.019302970
1640783357716120064,-0.232472430,0.233824150,10.264275550,-0.014539060,0.059035420,-0.022877750
1640783357719059968,0.183884640,0.495648560,9.349513050,0.006705520,-0.032821300,-0.009553130
1640783357721509888,-0.309667320,0.262601410,10.496293070,0.026425720,-0.005839770,0.006684660
1640783357723929856,-0.034345740,0.226271720,8.977101330,0.023336700,-0.001664460,0.015543400
1640783357724910080,-0.209059980,0.248283940,9.616933820,0.029519200,-0.099284950,0.000725690
1640783357729339904,-0.233352800,0.215983570,9.768944740,-0.040094560,0.068919360,0.003197790
1640783357730360064,0.122055810,0.400713000,9.569951060,-0.040803850,0.031280520,-0.005190070
1640783357733939968,-0.385655310,0.480613290,11.328755380,0.009708100,-0.011104340,-0.009879470
1640783357736049920,-0.049956900,0.620732840,9.601935390,-0.010544060,-0.031699240,0.007522110
1640783357738919936,0.011657280,0.524831890,9.413101200,0.008678440,-0.119251020,0.017935040
1640783357739970048,-0.215913860,0.331590240,9.615746500,-0.021044910,0.070190430,0.005376340
1640783357743969792,0.219093170,0.427669020,8.978092190,-0.039604310,0.021794440,-0.001087780
1640783357744930048,-0.139977220,0.192745790,10.689327240,-0.031492110,0.001044570,-0.007352230
1640783357749270016,0.085447150,0.092367180,9.772897720,-0.031627710,0.024649500,-0.007875260
1640783357749949952,0.040379720,0.129878740,9.856906890,0.022043290,-0.082305080,0.005862120
1640783357754860032,-0.380106030,0.117846150,10.165514950,-0.016368930,0.015285610,0.019432610
1640783357755309824,0.141086670,0.250368570,8.830015180,-0.056740650,-0.005637110,0.033567850
1640783357758929920,0.001768000,0.052966130,10.117723460,-0.011488800,0.027921800,0.005026160
1640783357759949824,0.217209220,0.171473700,9.616365430,0.000801680,0.102479770,-0.013947490
1640783357764339968,0.276313570,0.266061780,9.815836910,0.035482640,-0.033609560,-0.005832310
1640783357764969728,-0.146526980,0.090401730,10.297009470,0.007559360,0.005020200,-0.012284520
1640783357769029888,-0.031514340,0.149873990,9.059206960,-0.020837790,-0.031958520,-0.010517240
1640783357770040064,-0.411953870,0.002971210,9.778862950,0.021037460,-0.023554270,0.001160800
1640783357773969920,-0.412135750,0.037342300,9.579383850,0.017116970,0.085827710,-0.004501640
1640783357774939904,-0.243945460,0.213226590,10.013135910,0.042094290,0.008094310,-0.003002580
1640783357780079872,-0.298808250,0.303361000,10.454471590,0.031448900,0.030405820,-0.002926590
1640783357781779968,0.130566760,0.383895550,9.469388960,-0.012995300,-0.003853440,0.007212160
1640783357783919872,-0.004859780,0.156528410,10.021768570,0.048786410,-0.001285970,0.019249320
1640783357784969728,0.022802960,0.096264430,9.552702900,0.066499400,0.031721590,-0.004969540
1640783357789100032,0.038922130,0.349660870,9.575664520,0.059276820,-0.019562240,-0.017201900
1640783357789979904,-0.326424840,0.423763130,10.055897710,-0.005157290,0.017052890,-0.011675060
1640783357794009856,-0.170808170,0.533770800,9.673336030,-0.056670610,-0.011318920,-0.016857680
1640783357795259904,-0.365639390,0.680753410,10.313488010,0.016088780,-0.010661780,-0.000789760
1640783357798949888,-0.317841200,0.659893690,9.837438580,0.025877360,0.019632280,0.007590650
1640783357800000000,-0.014320130,0.536037330,9.699172020,0.023341180,-0.022003050,0.031018260
1640783357804849920,0.010714880,0.241543010,9.931220050,0.019770860,0.062114000,0.033508240
1640783357805430016,0.114994150,0.122516370,9.686319350,-0.023831430,0.009980800,0.007148090
1640783357809020160,-0.002020090,0.103901680,10.141568180,-0.016261630,-0.030280650,-0.016462800
1640783357810299904,0.013364760,0.029659310,9.382319450,-0.009676810,-0.006207820,-0.015537440
1640783357814449920,-0.056931530,0.091737180,9.617173190,0.012293460,-0.014752150,-0.026836990
1640783357815619840,-0.227787910,0.366248220,9.813950540,0.011701880,0.068505110,-0.009675330
1640783357819020032,-0.113895210,0.422697040,9.642073630,-0.031946610,0.004002450,0.021086640
1640783357819969792,-0.178768950,0.306975220,10.306099890,-0.008670980,0.006140770,0.031739470
1640783357823920128,-0.059463640,0.297161940,9.620533940,0.015355650,0.009177630,0.021585830
1640783357824960000,-0.095601590,0.066372840,9.974424360,0.036127870,-0.042179230,0.009198490
1640783357828999936,-0.103836860,-0.123224280,9.827414510,0.062701110,0.061377880,-0.001226370
1640783357829979904,-0.041634180,-0.014239760,9.524722100,0.030666590,-0.005194550,-0.031238800
1640783357833920000,-0.202436370,0.110426210,10.039169310,-0.004217030,-0.010637940,-0.021165610
1640783357835000064,0.024306000,0.282590570,9.127688410,-0.031143430,0.026242430,-0.005586440
1640783357840920064,-0.192205400,0.210865770,10.123107910,0.031119590,-0.031085310,0.003379580
1640783357841859840,-0.352762790,0.260877610,10.248038290,0.089833150,0.032666330,0.005863610
1640783357844159744,-0.234713120,0.419866060,9.653692250,0.066405530,-0.075122720,0.019869210
1640783357845669888,-0.356634440,0.177425820,10.260428430,0.016297400,-0.016196070,0.039917220
1640783357849079808,-0.025272630,0.269380510,9.450112340,0.003883240,0.076143440,0.015610460
1640783357849989888,-0.163783270,0.482971880,10.298184390,0.016370420,-0.041708350,0.007778410
1640783357854299904,-0.083999360,0.518522320,9.982609750,0.020894410,0.011581180,0.003391500
1640783357855680000,0.221030910,0.617286380,9.051086430,0.021126870,-0.045669080,-0.013691190
1640783357859059712,-0.074347190,0.515249190,10.194640160,0.020979340,-0.009867550,-0.007323920
1640783357860440064,0.111753640,0.489616660,9.300936700,-0.007282200,0.057223440,0.011597570
1640783357864270080,0.023700540,0.323504270,9.963510510,-0.008310380,-0.060911480,0.027573110
1640783357865259776,-0.118801720,-0.014583240,10.286798480,0.006096070,0.053855780,0.041095920
1640783357869040128,-0.018871630,-0.000356050,9.474451070,0.028964880,-0.014814740,0.020186600
1640783357870220032,-0.470200090,-0.114395910,10.611708640,0.045010440,-0.070956350,0.006161630
1640783357873910016,-0.185499860,-0.032421850,9.198786740,0.016228850,0.025589770,-0.001280010
1640783357877789952,-0.072677310,0.198630620,9.416640280,-0.002133850,-0.030426680,-0.028836730
1640783357879010048,-0.149199840,0.372297530,10.250345230,-0.013385710,0.101956730,-0.020737950
1640783357880009984,0.250671650,0.553285540,9.279617310,0.001445410,0.025914610,0.006869440
1640783357883960064,-0.087300760,0.327148650,10.605737690,0.069892390,-0.081697100,0.014206770
1640783357884960000,0.015213390,0.256897240,9.417825700,0.057558720,0.030450520,0.024811930
1640783357888909824,-0.108104830,0.237816070,9.415519710,0.034679480,-0.075441600,0.020994250
1640783357890019840,-0.520899240,-0.028711660,10.475368500,-0.002339480,0.031483170,0.005783140
1640783357893939968,-0.067920950,0.203527690,9.193399430,0.006358330,0.033335390,-0.008249280
1640783357894949888,-0.373449830,0.299432070,10.622218130,0.036132340,-0.050412120,-0.016653540
1640783357898939904,-0.154770670,0.451972160,9.801359180,0.004579130,0.060521060,-0.007447600
1640783357899979776,-0.028554690,0.520515920,9.477367400,0.025682150,-0.073130430,-0.001752380
1640783357903990016,-0.340421230,0.333976600,10.457524300,0.031569600,-0.027422610,-0.003440680
1640783357905740032,0.142580430,0.631724180,8.805934910,0.002318620,0.004513560,0.013963880
1640783357909050112,-0.114060830,0.500966970,10.136202810,-0.022080540,-0.040359800,0.024649500
1640783357910060032,-0.036143720,0.358546790,10.164776800,-0.039920210,0.089524670,0.025036930
1640783357913929984,0.105948600,0.476083580,9.822693820,0.010088090,-0.054305800,0.022478400
1640783357915200000,-0.341884370,0.218476010,10.662320140,0.016637140,-0.068932760,0.033296640
1640783357919049984,0.218393240,0.255869600,8.754344940,-0.015963610,0.017902260,0.028270480
1640783357920039936,-0.027147230,0.199148670,9.762462620,-0.025981660,-0.014302130,-0.001335140
1640783357924130048,-0.077661040,0.209990680,9.978970530,-0.056432190,0.079266730,-0.006669760
1640783357924949760,0.263318840,0.319373100,9.329131130,-0.023806090,-0.016264620,-0.000540910
1640783357928939776,-0.274181540,0.066667910,10.625322340,0.007282200,-0.029635430,-0.003774460
1640783357930029824,-0.133738290,0.195641990,9.327576640,0.003914540,0.017887360,0.017303230
1640783357933920000,-0.465392320,0.077597540,9.822546010,0.005148350,-0.076590480,0.017882890
1640783357935040000,-0.519803350,-0.023483680,9.924253460,-0.039726490,0.032292300,0.011272730
1640783357939020032,-0.001199840,0.265961320,9.224009510,-0.008037690,0.030669570,0.003182890
1640783357940539904,-0.221101330,0.277687340,10.603340150,0.003103910,0.026060640,-0.006461140
1640783357944019968,0.224167990,0.388359550,9.630844120,-0.018316510,0.027412180,0.011520090
1640783357944960000,0.203158890,0.212832990,9.822938920,0.028319660,-0.045174360,0.014492870
1640783357948989952,-0.174130020,0.003517440,10.034561160,0.035054990,-0.015163420,0.008064510
1640783357950019840,0.061831290,0.247161810,8.989315030,0.019364060,-0.053049640,0.005328660
1640783357954139904,-0.418364260,0.110716020,10.169784550,-0.014555450,-0.000019370,0.000877680
1640783357955200000,-0.398786100,0.302932530,9.934470180,-0.035218900,0.029754640,-0.009614230
1640783357958929920,-0.345607790,0.587944270,10.211342810,0.008711220,-0.062666840,-0.011225040
1640783357959990016,-0.359973010,0.543546440,10.102412220,-0.007168950,-0.012041630,0.015468900
1640783357963959808,0.091605080,0.523138400,9.309468270,0.000853840,-0.003479420,0.032797450
1640783357965440000,-0.051451300,0.246931790,10.239818570,0.022377070,0.012555720,0.008033220
1640783357969080064,0.141361530,0.314911070,9.540273670,-0.017149750,-0.000099840,0.001017750
1640783357970209792,0.270148100,0.244446440,9.573024750,-0.021316110,-0.055120900,0.009801980
1640783357974659840,0.014962360,0.024756160,10.046402930,-0.037869810,0.041241940,0.004829470
1640783357975339776,-0.019715780,0.233475490,9.649513240,-0.004802640,-0.037011500,0.014756620
1640783357978960128,-0.283035160,0.130458850,10.033994670,0.023201110,-0.053067510,0.022833050
1640783357979990016,-0.096062260,0.102799330,9.314606670,-0.014370680,0.020132960,0.025103990
1640783357983959808,-0.060450400,0.252869990,9.857611660,0.007554890,0.019153950,0.012260680
1640783357984979968,-0.168223840,0.262589310,10.294754030,-0.023993850,0.050802530,-0.017371780
1640783357989019904,0.077718030,0.346335170,9.663392070,-0.016456840,-0.040060290,-0.003072620
1640783357991529984,-0.093361370,0.091157700,9.938202860,0.050340590,-0.018394000,-0.002960860
1640783357993899776,-0.181548950,0.168740820,9.267701150,0.029867890,0.009222330,-0.014305120
1640783357994969856,-0.299938110,0.347273920,9.526844020,0.011920930,-0.056089460,0.017939500
1640783357999259904,-0.304750920,0.114134850,9.763325690,-0.040344890,0.044639400,0.022448600
1640783358000059904,-0.114864450,0.221116230,9.854952810,-0.016058980,-0.006753210,0.011084970
1640783358004059904,-0.130039710,0.318525370,10.504024510,0.045925380,0.000657140,0.006398560
1640783358004979968,0.083052200,0.215746330,9.810870170,0.026781860,0.010228160,-0.000715260
1640783358012140032,0.028698040,0.240295750,9.978595730,0.040383640,-0.045649710,0.006687640
1640783358012739840,-0.097719190,0.222304140,9.683281900,0.016923250,0.008837880,-0.007124250
1640783358013929728,-0.066832360,0.539949300,9.308796880,-0.038985910,-0.043272970,-0.011309980
1640783358015130112,-0.344615850,0.670171320,10.087406160,-0.032012160,-0.006861980,0.003634390
1640783358019459840,-0.210671500,0.631157930,9.627707480,-0.033298130,0.017189980,-0.009061400
1640783358020239872,-0.259621530,0.713022350,10.158311840,0.010678170,-0.048242510,0.007309020
1640783358023949824,-0.151484650,0.489520520,9.914449690,0.001707670,0.032956900,0.044520200
1640783358024960000,0.156334330,0.179748360,9.563541410,-0.037521120,-0.012317300,0.041565300
1640783358028930048,0.028822590,0.071289550,10.278076170,-0.029267380,-0.000131130,0.035348540
1640783358030010112,0.233815660,-0.033331390,9.358937260,-0.044044850,0.017087160,0.012065470
1640783358033939712,0.160086080,-0.113783160,9.861248020,-0.022374100,-0.046263640,-0.013391670
1640783358035779840,-0.003275920,0.042877120,9.990726470,0.013984740,0.056640810,-0.014486910
1640783358040320000,0.038097840,0.290165250,9.377388950,-0.007538500,-0.017809870,-0.018817190
1640783358040989952,-0.313836070,0.489303320,10.086785320,-0.044515730,-0.019095840,0.006105010
1640783358044899840,-0.207946870,0.432303820,9.244862560,-0.056758530,0.043112040,0.030155490
1640783358046010112,-0.281760160,0.236921310,10.011956210,0.010375680,-0.046545270,0.010383130
1640783358049520128,-0.362829450,0.256524560,10.151810650,0.050018730,0.043490530,0.004638730
1640783358050400000,-0.072574230,0.206539650,9.535243990,0.011654200,-0.014771520,-0.000138580
1640783358054040064,-0.201694530,0.076756510,10.412976260,-0.015999380,-0.012101230,-0.017938020
1640783358055919872,0.076412640,0.330812360,9.307624820,-0.061891980,0.056347250,-0.022383030
1640783358060109824,0.071622500,0.313332560,9.724731450,-0.049735610,-0.040648880,-0.011691450
1640783358060539904,-0.000995260,0.273514510,10.041584010,0.014510750,0.048680610,0.009192530
1640783358064309760,0.148433910,0.475322460,9.373254780,0.024482610,-0.015228990,0.006058810
1640783358065299968,-0.202306700,0.423852590,10.337255480,-0.014147160,-0.050367410,0.023514030
1640783358069099776,-0.037553140,0.438340370,9.464656830,-0.075581680,0.067166980,0.023143000
1640783358070070016,-0.147513570,0.329058620,10.085608480,-0.053149470,-0.016015770,0.011427700
1640783358076599808,-0.421880540,0.399802710,10.590571400,0.000675020,0.022207200,-0.006979700
1640783358077339904,-0.103314180,0.694096620,9.185205460,-0.023707750,-0.041428200,-0.013205410
1640783358078919936,-0.237583210,0.460432950,10.001293180,-0.061580540,-0.026197730,0.001348560
1640783358080049920,-0.056310420,0.361459290,9.424047470,-0.071635840,0.097668180,-0.001753870
1640783358084059904,0.135456260,0.291339580,9.669985770,-0.042213500,-0.015418230,0.002078710
1640783358084979968,0.114152300,0.025552440,10.117149350,-0.022739170,0.038121640,0.031586000
1640783358089519872,0.390675400,0.037537170,9.200878140,-0.028157240,0.040681660,0.028321150
1640783358089959936,-0.041846380,-0.136557190,10.485651970,-0.035448380,-0.026071070,0.023105740
1640783358093890048,-0.155251710,-0.198840190,9.724176410,-0.035086280,0.029496850,0.019325320
1640783358094990080,-0.157296540,-0.021090260,9.507052420,-0.008147960,-0.055900220,-0.013093650
1640783358099389952,-0.453200010,0.097188520,10.090355870,-0.002105530,0.043848160,-0.018754600
1640783358100859904,-0.110574930,0.441877040,9.116128920,-0.020952520,0.070992110,-0.026689470
1640783358103999744,-0.320424800,0.540227890,10.342236520,-0.023350120,-0.000892580,-0.018662210
1640783358105909760,-0.198907730,0.430843800,9.883801460,-0.017830730,0.029061740,0.018242000
1640783358109779712,-0.065637530,0.412112950,9.485591890,0.022841990,-0.076560680,0.007244950
1640783358110679808,-0.317965450,0.182125460,10.134710310,-0.001296400,0.005498530,0.008191170
1640783358114149888,0.004304210,0.180488010,9.361869810,-0.014798350,0.044302640,0.014364720
1640783358115909888,-0.139659360,0.047687660,10.513077740,-0.011892620,-0.010512770,-0.015310940
1640783358118919936,-0.063569990,0.242321570,10.091998100,-0.032351910,0.037643310,-0.009189550
1640783358122919936,0.125078110,0.495390680,9.582715030,-0.027355560,-0.038188700,0.005450850
1640783358123909888,-0.205210800,0.220490620,10.271092410,-0.022570790,-0.015078490,-0.006701050
1640783358124940032,0.024451110,0.399233670,9.045696260,0.011643770,-0.000339750,-0.012382860
1640783358128929792,-0.202361170,0.406912240,9.822368620,0.006869440,-0.026440620,-0.008775290
1640783358130299904,-0.209498730,0.302052590,9.829083440,-0.062443320,0.072453920,0.005088750
1640783358134139904,-0.098434080,0.420433370,9.932216640,-0.043721500,-0.020357970,0.003924970
1640783358135099904,-0.376943590,0.217626900,10.652676580,-0.027686360,-0.025856490,0.009073320
1640783358139010048,-0.021976630,0.234557060,9.263071060,-0.012092290,-0.018934910,0.013899810
1640783358140090112,-0.050664720,0.125246670,9.795829770,0.019678480,-0.020867590,0.002518300
1640783358143929856,0.080092590,0.057879410,9.545389180,-0.023885070,0.085313620,-0.005310770
1640783358145870080,0.336943570,0.203743580,9.364779470,-0.032009190,0.017750260,0.005488100
1640783358149029888,0.013963050,-0.054451980,10.411706920,-0.028745830,0.020934640,-0.001437960
1640783358150199808,0.203695760,-0.002092580,9.352164270,0.006240610,-0.013375280,-0.005209450
1640783358154379776,-0.243333490,0.003030960,10.055786130,0.063824660,-0.059376660,-0.016424060
1640783358155680000,-0.471232000,-0.022201800,9.848714830,0.015175350,0.040882830,-0.028009720
1640783358158989824,-0.326385830,0.196983170,9.566947940,0.001697240,-0.027082860,-0.025679170
1640783358160049920,-0.464223410,0.207477230,10.267896650,0.007529560,0.030949710,-0.028419490
1640783358164079872,0.083395090,0.404412870,9.268717770,-0.009034570,0.065849730,-0.009603800
1640783358164989952,-0.072424300,0.341586710,10.273638730,0.066001710,-0.002698600,0.011122220
1640783358168999936,-0.171030570,0.050101590,9.967698100,0.073987250,-0.009743870,0.004598500
1640783358170019840,0.023656770,0.211905390,9.082830430,0.063470000,-0.107432890,-0.003744660
1640783358173959936,-0.308777210,0.218183310,9.843177800,0.006248060,0.009620190,-0.005488100
1640783358176189952,-0.067100990,0.289528490,9.621961590,-0.042772300,0.070674710,-0.020161270
1640783358179030016,-0.179283980,0.577724520,10.736560820,0.036704540,-0.013101100,-0.015921890
1640783358184269824,-0.169938940,0.666753170,10.371206280,0.039160260,0.005108120,-0.010028480
1640783358184880128,0.210241360,0.724404930,9.237003330,0.020720060,-0.064429640,0.003388520
1640783358185400064,-0.064983970,0.510740940,9.932293890,0.014650820,0.017073750,0.002923610
1640783358188969728,0.068417790,0.380139530,9.129199030,-0.028046970,0.036604710,-0.007748600
1640783358190039808,0.018515690,0.356166780,9.829696660,-0.004662570,-0.040844080,-0.013241170
1640783358194109952,-0.141828980,0.139370590,10.128285410,-0.012364980,0.057436520,-0.016371910
1640783358195909888,0.006704400,0.140679390,9.610089300,-0.007173420,-0.028982760,-0.000172850
1640783358199020032,-0.350574460,0.073081500,10.434506420,0.008548800,-0.019751490,-0.002539160
1640783358200259840,-0.191525090,0.112369800,9.401514050,-0.022980570,0.021976230,0.001749400
1640783358204019968,-0.059685230,0.250840930,9.563241960,-0.004227460,-0.048153090,0.003157560
1640783358206089984,-0.078384320,0.316312760,9.813215260,-0.016541780,0.088416050,-0.013481080
1640783358209059840,0.264959040,0.315159500,9.449092860,-0.013352930,0.016947090,-0.008225440
1640783358210289920,-0.032234480,0.124029030,10.480767250,0.058408090,-0.004889070,-0.010456140
1640783358213959936,-0.085914020,0.226790700,9.606506350,0.030617420,-0.007244950,-0.033390520
1640783358214959872,-0.219403390,0.397708680,9.523886680,-0.004459920,-0.098976490,-0.018870830
1640783358219019776,-0.463490460,0.301183160,9.846824650,-0.046971440,0.051155690,-0.019879640
1640783358220049920,-0.248670760,0.433653030,9.595198630,-0.033037360,0.025662780,-0.020577020
1640783358223919872,-0.301529110,0.544696030,10.544429780,0.039771200,-0.006356840,0.007444620
1640783358224979968,-0.001016130,0.388870390,9.818683620,0.013749300,0.045420220,0.003519650
1640783358228920064,0.136817690,0.172544930,9.871923450,0.018936400,-0.048959260,0.020502500
1640783358230010112,-0.006604090,-0.001585980,9.951532360,0.020819900,0.017963350,0.005394220
1640783358234409728,0.132367310,0.096909900,9.241120340,-0.030274690,-0.010675190,-0.020346050
1640783358235159808,-0.123525270,0.184026750,10.064174650,-0.008724630,-0.029802320,-0.011678040
1640783358238979840,-0.080308700,0.287365230,9.584329610,-0.005769730,0.033397980,-0.027416650
1640783358240039936,-0.100521040,0.496493280,9.910102840,-0.000682470,-0.027750430,-0.009505450
1640783358244009984,-0.246701640,0.433888440,10.203460690,0.010155140,0.044594710,0.028495490
1640783358245110016,0.032924830,0.231509610,9.654863360,-0.003199280,0.004047160,0.012949110
1640783358248940032,-0.056578670,0.198512570,10.126712800,0.033310060,-0.013723970,0.016646090
1640783358250319872,0.071092470,0.069645020,9.352916720,0.013394650,0.049634290,0.001671910
1640783358253969920,0.046507110,-0.100619230,9.718050000,0.007733700,-0.004120170,-0.019055600
1640783358255669760,-0.187141980,-0.000769830,9.988549230,0.026594100,0.030843910,-0.020061440
1640783358259119872,-0.039908610,0.097034680,9.247392650,0.003880260,-0.014245510,-0.019839410
1640783358260019968,-0.252324490,0.161523910,10.064620970,0.018347800,-0.005714600,-0.002253060
1640783358263939840,-0.207021490,0.266071290,9.693579670,0.042128560,0.064639750,0.012323260
1640783358264969728,-0.194051560,0.242053180,10.092510220,0.049221520,-0.038568680,-0.007052720
1640783358268979968,-0.164531720,0.237064670,10.072819710,0.055003170,0.024738910,0.006841120
1640783358270030080,0.097950500,0.149735600,9.410217290,0.045223530,0.031842300,0.000752510
1640783358273979904,-0.182356920,0.132338400,10.322348590,0.061663990,-0.002361830,-0.029742720
1640783358278299904,-0.199010460,0.448487520,9.555955890,0.036983190,-0.004306440,-0.030183790
1640783358278889984,-0.190900970,0.506333770,9.508694650,-0.000934300,-0.075203170,-0.031992790
1640783358280029952,-0.340806370,0.563191770,9.951693530,0.011257830,0.036348400,-0.021602210
1640783358283959808,-0.059111010,0.746931020,9.553420070,0.032928590,0.033159550,0.011782350
1640783358285449984,-0.128715630,0.497708200,10.572885510,0.043909250,-0.001780690,0.034539390
1640783358289899776,0.126992760,0.354856580,9.873871800,0.023733080,0.044034430,0.041781370
1640783358291020032,0.146142650,0.190159620,9.881708150,0.008691850,-0.046484170,0.025141240
1640783358293880064,-0.016752540,-0.047915910,9.984930040,0.008371470,0.004692370,-0.002063810
1640783358294979840,0.094423190,0.073639900,9.001238820,0.024303800,0.001765790,-0.024458770
1640783358298919936,-0.190061540,0.090888340,10.013950350,0.026912990,-0.023721160,-0.043906270
1640783358300039936,-0.066919340,0.371251940,9.463149070,-0.006492440,0.069889430,-0.017985700
1640783358304019968,-0.052456030,0.506818470,9.764820100,-0.018891690,0.001849230,0.018396970
1640783358308149760,-0.267512950,0.222159100,10.555940630,0.009238720,0.046464800,0.037579240
1640783358309459968,-0.015512980,0.256406130,9.505837440,0.059086080,-0.022725760,0.034914910
1640783358310099968,-0.251400200,0.039244410,10.152191160,0.073507410,-0.058177120,0.020006300
1640783358313959936,-0.079417750,-0.080352930,9.379597660,0.028434400,0.080560160,0.004623830
1640783358314999808,-0.082295260,0.140084160,9.620190620,0.015392900,-0.002391640,-0.025643410
1640783358319129856,-0.274016620,0.225234490,10.282531740,-0.010143220,0.029195840,-0.036427380
1640783358320089856,0.135850610,0.481161950,9.099901200,0.007262830,0.007867810,-0.014963750
1640783358324889856,-0.237221510,0.353408070,10.365058900,0.069592900,-0.035211440,-0.015151500
1640783358325709824,-0.189797300,0.373038050,9.692403790,0.070285800,0.030504170,0.008362530
1640783358328919808,-0.065416290,0.485135110,9.469039920,0.045637780,-0.052183870,0.033037370
1640783358330070016,-0.267278610,0.147699040,10.499920850,-0.017611680,0.060020390,0.038918850
1640783358333959936,0.043161150,0.233210120,9.594843860,0.010575350,0.043207400,0.021712480
1640783358335219968,-0.221734910,0.308474870,10.521146770,0.070179990,-0.083775810,-0.012753900
1640783358339200000,-0.142029230,0.475845100,9.561393740,0.021092590,0.016976890,-0.017397100
1640783358341239808,0.066109090,0.690608920,9.100811000,-0.014032430,-0.047577920,-0.018450620
1640783358344749824,-0.193165270,0.490223380,10.316452030,-0.038413700,0.042834880,-0.011686980
1640783358345289984,0.255712210,0.533097620,9.207020760,-0.014477970,0.060620910,0.020068880
1640783358348960000,0.088816360,0.275422480,10.335596080,0.057320300,-0.032754250,0.034037230
1640783358350080000,-0.025740680,0.040843400,10.159629820,0.029350820,0.056809190,0.030030310
1640783358358609920,0.006820360,0.072466170,9.371327400,-0.004100800,-0.076158340,0.030145050
1640783358359239936,-0.452345700,-0.312557880,10.366868970,-0.015422700,-0.020712620,0.008195640
1640783358359779840,-0.141942230,-0.151524250,8.994577410,0.011415780,0.051341950,-0.027276580
1640783358360119808,-0.261873660,0.232488500,9.910014150,0.056180360,-0.027377900,-0.040173530
1640783358363940096,-0.253094940,0.426927540,10.133745190,-0.014032430,0.097456580,-0.017055870
1640783358365059840,-0.042285890,0.484697880,9.514997480,-0.006651880,-0.024671850,0.020374350
1640783358369380096,-0.400562260,0.118805300,10.702763560,0.070613630,-0.091968490,0.019209090
1640783358372059904,-0.080520290,0.247582510,9.088911060,0.077003250,-0.004500150,0.026874250
1640783358374279936,-0.137422640,0.299008670,9.719945910,0.061015800,-0.048789380,0.027212510
1640783358376229888,-0.270201210,0.143442650,10.512486460,-0.027017300,0.081677740,-0.001695750
1640783358379020032,0.148385060,0.459126200,9.617397310,-0.018085540,-0.016005340,-0.008712710
1640783358380039936,-0.190371530,0.387679340,10.653790470,0.035943080,-0.076892960,-0.010101500
1640783358383919872,0.039630380,0.502906260,9.305415150,0.031329690,0.013361870,-0.023600460
1640783358385019904,-0.046422100,0.687802910,9.450018880,0.040227190,-0.080637660,-0.013716520
1640783358388979968,-0.262542250,0.466080520,10.023690220,-0.033886730,0.014677640,0.007309020
1640783358390109952,0.119745500,0.471996670,9.205997470,-0.042778250,0.028668350,0.018447640
1640783358393910016,-0.296701460,0.228124040,10.817001340,0.028720500,-0.035661460,0.020509960
1640783358394990080,-0.174098700,0.197629630,9.970927240,0.013901290,-0.002214310,0.022037320
1640783358398929920,-0.004861910,0.224722740,9.469477650,0.004324320,-0.091770310,0.019256770
1640783358400029952,-0.208406610,-0.029915830,10.042971610,-0.023031230,0.019663570,-0.000309940
1640783358410919936,0.294860300,0.244710360,9.074899670,-0.032927090,0.057071450,-0.023524460
1640783358411480064,0.121697900,0.325315620,10.196091650,0.001186130,-0.011399390,-0.016359980
1640783358411879936,0.262353330,0.155225320,9.740245820,-0.012589990,0.047454230,-0.008353590
1640783358412240128,0.254515620,0.182647080,9.685911180,0.039061910,-0.036410990,-0.003781910
1640783358413879808,-0.438400830,0.082403920,10.344221120,0.042343140,-0.036166610,0.018310550
1640783358415040000,-0.285583170,0.118930650,9.090807910,-0.018565360,-0.029021500,0.008685890
1640783358419239936,-0.557346460,0.098000920,9.930377010,-0.000937280,-0.015650690,-0.009712580
1640783358420079872,-0.433507650,0.156316670,9.900653840,0.011095410,0.072719160,-0.008207560
1640783358424009984,0.015058740,0.455254230,9.806252480,0.041559340,0.017292800,-0.007534030
1640783358428169984,-0.113767450,0.452004610,10.533622740,0.027032200,0.028160210,0.007402900
1640783358428920064,0.181035560,0.339837280,9.531797410,-0.005610290,-0.032319130,0.017638510
1640783358430039808,0.033583350,0.207558180,9.698052410,0.043135870,-0.079040220,-0.001813470
1640783358433949952,-0.145290610,0.256665080,9.304076190,0.017164650,0.020097200,-0.012016300
1640783358435449856,-0.051601580,0.344116150,9.560677530,-0.001378360,-0.016987320,-0.016815970
1640783358438919936,-0.328900840,0.487012680,10.568113330,-0.009162720,0.033864380,-0.016120080
1640783358440099840,-0.134338690,0.692575810,9.906651500,-0.064539920,-0.009416040,0.002002720
1640783358444189952,-0.127329380,0.500667810,10.235301020,-0.013525780,-0.032848120,0.022177400
1640783358445189888,-0.040666510,0.337868540,9.651268960,0.022901600,0.029551980,0.013557080
1640783358448999936,0.002277590,0.277860400,9.431902890,0.027108190,-0.041757520,-0.000663100
1640783358450459904,-0.052264420,0.161596430,9.615957260,-0.018781420,0.011883680,0.006110970
1640783358453920000,0.059291740,-0.041025260,9.455884930,-0.065481670,0.012195110,0.007660690
1640783358455719936,-0.081904960,-0.055028410,10.294912340,-0.006085630,-0.022847950,0.001259150
1640783358459169792,-0.120612890,0.176035850,9.729273800,0.016134980,0.008720160,0.001400710
1640783358460199936,-0.150683190,0.279045940,9.775751110,-0.007282200,-0.048181420,-0.000013410
1640783358463929856,-0.214181800,0.340095880,9.956145290,-0.006495420,0.044764580,0.008322300
1640783358465009920,-0.135141610,0.454128150,9.516663550,-0.018037860,-0.014473500,0.001189110
1640783358468959744,-0.185100020,0.337436290,10.087182040,0.007496780,-0.030988460,0.008916850
1640783358470369792,-0.041843720,0.176505570,9.412248610,0.026793770,0.040267400,-0.003303590
1640783358474999808,-0.182312980,0.144859240,9.993147850,0.021101530,-0.054305800,-0.027340650
1640783358475509760,-0.284337940,0.165348750,9.960131650,0.002995130,0.000014900,-0.013358890
1640783358478919936,-0.157492860,0.161390320,9.320624350,-0.029858950,-0.047983230,-0.022137170
1640783358480019712,-0.344162940,0.225749570,10.324705120,-0.005914270,-0.037856400,-0.020051000
1640783358484029952,-0.134820860,0.408452270,9.568144800,0.013101100,0.024725500,0.006060300
1640783358485110016,-0.067746100,0.341505650,10.032308580,0.006552040,-0.066126870,0.019818550
1640783358489039872,-0.063244310,0.198065190,10.276012420,0.028553610,0.029236080,0.028651950
1640783358490059776,0.039096370,0.191546980,9.611473080,0.033845010,-0.040020050,0.011824070
1640783358493889792,-0.315251800,0.349947960,10.397529600,0.002959370,-0.111450280,-0.010335450
1640783358495009792,-0.132307340,0.538719420,9.108143810,-0.040216740,-0.016629700,-0.022174420
1640783358499009792,-0.151252640,0.667954680,9.560659410,-0.049062080,-0.075088440,-0.032402580
1640783358500000000,-0.214848060,0.726302620,10.272579190,-0.033546980,0.039036580,-0.001072880
1640783358504129792,0.163095220,0.638199390,9.428106310,-0.014495850,0.011211630,0.023055070
1640783358505440000,-0.093059870,0.390622200,10.695251460,0.007799270,-0.071939830,0.039258610
1640783358512229888,0.092881010,0.240202040,9.520729060,-0.024707620,-0.007100400,0.054463740
1640783358512909824,0.138632120,-0.076486920,9.380121230,-0.051929060,-0.103500490,0.018593670
1640783358514079744,-0.130399440,-0.344260720,10.235688210,-0.026333340,0.030098860,-0.005720560
1640783358516009728,0.164342210,-0.209382010,9.095044140,0.022365150,0.018288200,-0.031982360
1640783358519009792,-0.087948020,0.089497220,10.313516620,0.020843740,-0.074160110,-0.054281950
1640783358520419840,0.040385600,0.476863410,9.496554370,-0.065720090,0.069642070,-0.010120870
1640783358524489984,0.031992580,0.471245830,9.510509490,-0.073169160,-0.053024300,0.014901160
1640783358527709952,-0.395510170,0.227539420,10.686270710,0.020833320,-0.034938750,0.008466840
1640783358528989952,0.029342550,0.261358410,8.969913480,0.085024540,-0.002899770,0.017881400
1640783358531499776,-0.289449040,0.073445860,10.275222780,0.073780140,-0.060841450,0.009834770
1640783358533880064,-0.190502270,0.094364140,9.937223430,-0.030171870,0.086778410,-0.007145110
1640783358535049984,0.099554240,0.287508670,9.307402610,-0.070646410,-0.035242740,-0.017809870
1640783358539330048,-0.289346720,0.095921590,10.646395680,-0.018000600,-0.015799700,-0.021786990
1640783358540359936,0.007847640,0.287730010,9.083090780,0.069038560,0.005181130,-0.021991130
1640783358545629952,-0.238269450,0.461319920,9.881295200,0.090958170,-0.128722190,-0.023201110
1640783358546340096,-0.241796020,0.418432860,9.769545560,-0.017297270,0.041933360,0.012448430
1640783358548960000,0.168307800,0.450249370,9.310397150,-0.062902270,0.020006300,0.029012560
1640783358550109952,-0.280006290,0.276364300,11.303978920,-0.011576710,0.001975890,0.009587410
1640783358554289920,0.110222560,0.463450970,9.663573270,0.032861530,-0.001524390,0.000505150
1640783358555699712,0.025668510,0.466706780,9.672327040,0.048883260,-0.113025310,-0.010582810
1640783358559739904,-0.262764990,0.341418450,9.727558140,-0.024585430,0.027233360,-0.010710950
1640783358562979840,0.180071440,0.463438030,8.573741910,-0.057496130,0.000016390,-0.010107460
1640783358564229888,-0.195081560,0.206789200,10.357508660,-0.026592610,-0.004316870,-0.000092390
1640783358565049856,0.106806770,0.178306820,9.653049470,0.002937020,0.069998210,0.021505360
1640783358569579776,0.053641140,0.160553400,10.165223120,0.046871600,-0.065933160,0.020498030
1640783358571899904,-0.352812140,-0.035558170,10.593264580,-0.002220270,-0.019414720,0.021567940
1640783358573989888,0.082574870,0.010972530,8.895080570,-0.033007570,-0.039607290,-0.000919400
1640783358579099904,-0.254699200,-0.156764980,9.998180390,0.010134280,-0.024303800,-0.040180980
1640783358580150016,-0.084675090,0.157472580,9.300772670,0.025877360,0.075475880,-0.040777030
1640783358580629760,0.131326500,0.482827690,9.469624520,0.026655190,-0.021456180,-0.021213290
1640783358583920128,-0.242079880,0.340710490,10.591073040,-0.014722350,0.017076730,0.011155010
1640783358585029888,0.031801890,0.315724880,9.462576870,0.004339220,-0.038973990,0.028611720
1640783358589079808,-0.263436230,0.051306750,10.198326110,0.075548870,-0.079114730,0.015193220
1640783358590070016,-0.308695700,0.058600080,9.682257650,0.053714220,0.042256710,0.002519790
1640783358593979904,-0.055345880,0.317421910,9.577343940,0.035104160,-0.020194060,-0.019693380
1640783358595340032,-0.293471400,0.347008760,10.471317290,-0.032620130,0.018943850,-0.035181650
1640783358598879744,0.127662210,0.628139380,9.348725320,-0.049866740,-0.006702540,-0.015616420
1640783358600080128,-0.079624390,0.491584150,10.123432160,0.042544310,-0.052836550,-0.015071040
1640783358604079872,-0.093904500,0.525067390,9.675718310,0.054055450,-0.000815090,-0.017586350
1640783358605259776,0.143599260,0.684456530,9.252511020,0.015625360,-0.044183430,-0.001776220
1640783358613560064,-0.126130300,0.278913170,10.251394270,-0.052361200,0.050559640,0.019136070
1640783358614639872,0.041775970,0.215790260,9.770613670,-0.050279510,0.024399160,0.020216410
1640783358615200000,-0.155908320,0.191479850,10.389405250,0.029206280,-0.064496700,0.010940430
1640783358615529984,-0.145737540,0.135008250,9.747404100,0.000348690,-0.015926360,0.003266330
1640783358618959872,0.041724920,0.196040020,9.265491490,-0.001071390,-0.034308440,-0.012783710
1640783358620069888,-0.139290060,0.199258000,9.901022910,-0.020740930,0.047013170,-0.033012040
1640783358624369920,0.190092850,0.397718370,9.455251690,-0.046570600,0.039345030,-0.022010510
1640783358625949952,0.081697460,0.367906420,10.239633560,-0.004324320,-0.003883240,-0.000758470
1640783358629120000,-0.042016180,0.216703620,9.904853820,0.002583860,0.000879170,0.005574520
1640783358630169856,-0.091949890,0.195611480,9.508785250,0.017723440,-0.075565280,0.012122090
1640783358634009856,-0.407937080,-0.025509430,9.802428250,0.009985270,0.009113550,0.001019240
1640783358635409920,-0.247823820,0.021134640,9.451704030,-0.022810700,0.013817850,-0.017011170
1640783358639069952,-0.283099950,0.199513510,10.282505040,0.003191830,-0.001575050,-0.024859610
1640783358640359936,-0.060599680,0.325800630,9.810377120,-0.023159390,0.043654440,-0.016911330
1640783358646279936,0.150358380,0.428642810,9.927027700,-0.012709200,-0.006201860,0.011821090
1640783358649489920,0.014393610,0.236875490,10.296716690,0.038731100,0.031879550,0.025494400
1640783358651089920,0.039639150,0.212389650,9.431556700,0.040231640,-0.051297240,0.004726650
1640783358651529984,-0.140606240,0.375600190,9.681118010,0.028350950,-0.060625380,0.019148000
1640783358654000128,-0.166069950,0.281064570,9.428413390,-0.042025740,0.053767850,0.014506280
1640783358655059712,-0.209261150,0.375433120,10.166910170,-0.042688850,0.002549590,-0.008350610
1640783358659139840,-0.259386690,0.543258730,10.609824180,0.004245340,0.035852190,0.007359680
1640783358660780032,0.024943160,0.377229010,9.681818010,0.009265540,-0.011891130,0.009359420
1640783358666259968,-0.000582950,0.445090320,9.979276660,0.033870340,-0.035236780,-0.006920100
1640783358667199744,0.113940320,0.475110620,9.146018030,-0.026646260,0.062522300,0.009307270
1640783358672059904,0.223720540,0.196841900,9.372202870,-0.065943580,0.002761180,0.023323290
1640783358672689920,0.013682070,-0.025103350,10.209485050,0.009694700,0.057040160,0.025968250
1640783358674089984,0.119514830,-0.149954290,9.526489260,0.047355890,-0.002686680,0.007466970
1640783358680169728,-0.249584060,-0.059210890,10.361176490,0.042337180,-0.037221610,0.000689920
1640783358680860160,-0.365990250,0.170369730,9.691182140,-0.034287570,0.052110860,-0.002172590
1640783358681530112,-0.360974820,0.167512480,9.657718660,-0.051334500,-0.050343570,-0.020629170
1640783358684140032,-0.364484910,0.359307680,9.958190920,0.019413230,0.031410160,-0.014807280
1640783358685479936,0.082786400,0.514966960,9.089009280,0.043661900,0.065006320,0.009591880
1640783358690690048,-0.087211750,0.274413730,10.498140340,0.060416770,0.005833810,0.025998060
1640783358693059840,-0.082751510,0.368617210,10.017061230,0.026245420,0.027695300,0.012698770
1640783358696610048,-0.067168990,0.357120310,9.559414860,-0.030834970,-0.107341990,0.016832350
1640783358697280000,-0.308595900,0.193123280,10.025897980,-0.016757850,-0.017231700,0.009098650
1640783358699589888,-0.087088890,0.341069460,9.221753120,0.005637110,0.050094730,-0.023293500
1640783358700049920,-0.214863240,0.447043120,10.446155550,0.031290950,-0.020398200,-0.007732210
1640783358703909888,-0.046497960,0.448099290,10.119007110,0.005984310,0.064992910,0.009481610
1640783358705039872,0.224316730,0.404497710,9.580655100,-0.036177030,-0.043250610,0.001800060
1640783358709820160,-0.024690140,0.235764240,10.256435390,-0.012436510,-0.010465080,0.016804040
1640783358710680064,0.115675270,0.169137370,9.126992230,-0.000135600,0.027643140,-0.001260640
1640783358714899968,-0.163005400,0.015575540,10.002477650,0.026498740,-0.065605340,-0.000430640
1640783358715680000,-0.288576360,0.083648360,9.842707630,0.025960800,0.030729170,0.022257860
1640783358718899968,-0.034586160,0.254342440,9.274344440,-0.033077600,-0.017373270,0.017076730
1640783358720089856,-0.148803620,0.197273670,10.397748950,-0.044696040,0.029741230,0.031356510
1640783358723949824,0.186311690,0.242799390,9.599900250,-0.000365080,0.090031320,-0.005675850
1640783358725719808,0.111094070,0.284253060,10.129038810,0.056165460,-0.054937610,-0.024425990
1640783358729240064,0.045860890,0.266841620,9.760938640,0.043384730,0.024658440,0.001198050
1640783358730080000,0.175918800,0.202652680,8.882702830,0.000578170,0.004120170,-0.004379450
1640783358733929984,-0.342867790,0.014154800,10.211085320,-0.008504090,-0.012692810,-0.005540250
1640783358735030016,-0.187800910,0.091375600,9.317733760,0.006482010,0.044325000,0.012099740
1640783358739329792,-0.272617550,0.047632600,9.866273880,0.046604870,-0.035230820,-0.021265450
1640783358740249856,-0.382054750,0.186952400,10.314933780,0.050902380,0.057962540,-0.017632540
1640783358744099840,-0.005123400,0.356213690,9.404251100,0.023764370,0.008656090,0.003886220
1640783358745080064,-0.187273190,0.131676640,10.403299330,0.020617250,-0.014959280,0.009100140
1640783358748950016,0.110608270,0.106707790,9.418426510,0.051149730,0.065171720,0.009922680
1640783358750059776,0.048684740,0.247416820,9.678559300,0.083085900,-0.032716990,-0.018097460
1640783358754230016,-0.345998670,0.412726460,10.146646500,0.021432340,0.003786390,-0.022129710
1640783358755059968,-0.062427140,0.630050120,9.071843150,-0.023259220,-0.018092990,-0.024130940
1640783358759049984,-0.354521870,0.552283470,10.341015820,-0.009863080,-0.022262330,-0.036501890
1640783358760140032,-0.093597310,0.699968930,9.730627060,0.019913910,0.072057540,0.000235440
1640783358763959808,0.109915600,0.622154240,9.915129660,0.047127910,0.001892450,0.017836690
1640783358765019904,-0.044096860,0.289151820,10.491048810,0.011363630,0.040084120,0.034284600
1640783358768930048,0.261142020,0.223884910,9.253520970,-0.008213520,-0.004699830,0.022548440
1640783358770469888,-0.120907650,-0.054764250,10.074647900,-0.011314450,-0.055143240,-0.002072750
1640783358774329856,-0.057301480,-0.084257860,9.316719060,0.000268220,0.038346640,-0.007182360
1640783358775869952,-0.065851400,0.108569900,9.515407560,0.042222440,-0.017738340,-0.018216670
1640783358779140096,-0.252714900,0.208145450,10.254478450,0.008407240,0.058725480,-0.010854010
1640783358780249856,0.150611560,0.516038420,9.498995780,-0.030952690,0.051537160,0.012741980
1640783358783929856,-0.042335390,0.448269580,10.531948090,-0.009047990,0.005909800,0.007474420
1640783358785029888,0.063410890,0.484196570,9.679179190,0.005140900,0.029242040,0.006389620
1640783358788919808,0.132000540,0.489130940,9.292446140,0.045946240,-0.031577050,0.009477140
1640783358790089728,-0.260043800,0.016091210,10.009840010,0.028115510,0.057438020,0.005652010
1640783358793920000,-0.095810400,0.008846350,9.192991260,0.015746060,0.025744740,-0.013536220
1640783358795650048,-0.465917680,0.010306200,10.215809820,0.001214440,-0.023123620,-0.021021070
1640783358798959872,-0.349335910,-0.030365450,9.637553220,-0.034146010,0.057631740,-0.009903310
1640783358800039936,-0.272476170,0.174151520,9.880609510,0.027737020,-0.028499960,-0.027725100
1640783358803959808,-0.382244710,0.270753090,10.334749220,0.050148360,0.013659890,-0.015933810
1640783358805039872,0.223292920,0.357673050,9.164801600,0.020757320,0.028513380,0.012931230
1640783358810929920,0.041098450,0.209922050,10.378882410,0.046718120,0.029022990,0.017301740
1640783358811929856,0.038527220,0.216304910,9.954791070,0.034040220,0.047242640,0.011587140
1640783358813890048,0.093054530,0.476820500,9.561874390,0.032196940,-0.087353570,-0.001889470
1640783358815040000,-0.289781750,0.462104020,9.987543110,-0.015312430,-0.005957480,-0.022000070
1640783358819059968,-0.080894790,0.668939230,9.098566060,-0.026710340,0.015778840,-0.020229820
1640783358820049920,-0.331610110,0.702503320,10.335784910,0.011122230,-0.002470610,-0.012409690
1640783358824199936,-0.210286540,0.631378170,10.068593980,-0.015902520,0.073111050,0.009518860
1640783358825219840,0.087816540,0.514612320,9.849431990,-0.008019800,-0.031171740,0.034256280
1640783358828909824,-0.187462490,0.171594290,10.494138720,-0.004348160,0.011749570,0.024001300
1640783358830060032,0.011631410,-0.008041830,9.210645680,-0.025148690,-0.020825860,0.008529430
1640783358833979904,-0.065424430,-0.160872330,9.737922670,0.025787950,-0.054366890,-0.008076430
1640783358835559936,-0.108182550,-0.090781930,9.575033190,0.001941620,0.068081920,-0.010588770
1640783358840250112,0.221362430,0.257989380,9.297071460,-0.032585860,-0.008431080,0.005346540
1640783358840940032,-0.005131360,0.325527760,10.471504210,-0.043834740,0.068892550,0.012291970
1640783358845029888,0.161566720,0.394023120,9.801359180,-0.032015150,0.044827160,0.004114210
1640783358845809920,-0.054374130,0.553393010,10.244935990,0.047196450,-0.094062090,0.005798040
1640783358848950016,-0.203176540,0.438731670,9.575524330,0.004763900,0.019206100,0.009644030
1640783358850179840,-0.050158220,0.299541800,9.013674740,-0.023086370,0.011496250,0.002464650
1640783358853920000,-0.479110810,0.082771020,10.348567010,-0.005535780,0.054113580,-0.016444920
1640783358855069952,-0.259427460,0.118051270,9.532982830,-0.021165610,0.026634340,-0.024430450
1640783358859010048,-0.246086900,0.092916910,9.973781590,0.017689170,-0.053758920,-0.010897220
1640783358861579776,-0.369291810,0.080513890,10.152775760,0.004303450,0.030095880,-0.021569430
1640783358863919872,-0.070784920,0.326638340,9.429598810,-0.009945040,-0.059558450,0.005146860
1640783358865049856,-0.045638280,0.248707380,9.994302750,0.002002720,0.005982820,0.040709980
1640783358868909824,0.265873370,0.206817760,9.635793690,-0.015103820,0.104762620,0.006273390
1640783358870089984,0.125936750,0.458520800,10.479691510,0.042688840,-0.023075940,0.011706350
1640783358874259968,-0.125625940,0.586118760,10.169984820,-0.001239780,-0.036787990,-0.005926190
1640783358878899712,0.009615710,0.693739180,8.988105770,-0.076109180,-0.069201000,-0.012455880
1640783358879369984,-0.414959340,0.632188440,9.886726380,-0.041162960,-0.007936360,0.001768770
1640783358880100096,-0.247613340,0.465583150,9.366498950,-0.031974920,0.063270330,0.004808600
1640783358883960064,-0.062375460,0.378002410,9.969614030,0.007577240,0.004419680,0.022809210
1640783358885049856,-0.111749680,0.179091050,10.488256450,-0.003658240,0.061841320,0.034083430
1640783358889439744,0.208286170,0.050892500,9.797385220,-0.070321550,-0.033631910,0.019285080
1640783358890720000,0.026047670,-0.133520330,10.045930860,-0.053356590,-0.045566260,0.016568600
1640783358893949952,0.039587400,-0.377162490,9.262518880,-0.006081160,0.039076810,-0.015649200
1640783358895049728,-0.136218090,-0.256868900,9.715623860,0.071248410,-0.025282800,-0.031170250
1640783358899119872,-0.422795210,0.239042890,9.772586820,0.031073390,0.005070860,-0.014804300
1640783358900069888,-0.083666920,0.473104600,9.201317790,-0.114573540,-0.007857380,-0.001528860
1640783358903950080,-0.316138710,0.579550500,10.518177990,-0.082600110,0.028936560,0.013902780
1640783358905050112,-0.206659080,0.650610510,10.166258810,0.014081600,0.012584030,0.014717880
1640783358912049920,0.010994870,0.540216150,10.007414820,0.075835000,-0.072608890,0.021493440
1640783358913410048,-0.083059180,0.422019270,9.796813010,0.046007340,0.041937830,0.030030310
1640783358914019840,0.031382620,0.158444050,9.434275630,-0.055934490,0.003717840,0.012631720
1640783358915399936,-0.202817710,0.087691550,10.164726260,-0.067187850,-0.028511890,0.007598100
1640783358918870016,-0.216833740,0.142880950,9.502197270,-0.034995380,-0.011388960,-0.000886620
1640783358920039936,-0.200248550,0.201956510,9.786935810,0.012826920,-0.064033250,-0.023457410
1640783358924029952,-0.227936070,0.502018450,9.942737580,0.007370110,0.019738080,-0.000086430
1640783358925069824,0.099476120,0.401465950,9.702589040,-0.052051250,0.035420060,0.032432380
1640783358928930048,0.067797140,0.159621420,10.692557330,-0.024254620,0.027945640,0.041787330
1640783358930949888,0.165726870,0.360636770,9.836095810,0.007112320,-0.013576450,0.022104380
1640783358933869824,0.253684250,0.356475920,9.447879790,-0.038637220,-0.081031030,0.020380320
1640783358935059968,0.075541040,0.240008280,9.497126580,-0.039829320,0.078155110,0.019866230
1640783358939259904,-0.076910850,0.148041200,9.663481710,-0.010292230,0.011920930,-0.002932550
1640783358940470016,-0.313265560,0.102248160,10.264267920,0.015884640,-0.030992930,0.007663670
1640783358945539840,-0.122042210,0.309249070,9.196740150,-0.021095570,0.033500780,0.014944370
1640783358946739968,-0.170715290,0.229206440,9.923603060,-0.062780080,0.009442870,0.010694560
1640783358948959744,-0.212281320,0.257871900,10.232194900,-0.051325550,0.069697210,0.011250370
1640783358950070016,0.056623210,0.287644480,9.481957440,-0.002557040,-0.029243530,0.004105270
1640783358953969920,-0.084807680,0.020012620,10.200294490,0.036285820,0.005245210,0.008951130
1640783358955069952,-0.092372950,0.193135840,9.485088350,0.026053190,0.058808920,0.004379450
1640783358958989824,-0.347082320,0.359870850,9.913601880,-0.044786930,-0.087936230,0.010585780
1640783358961570048,-0.371685560,0.276388650,9.688814160,-0.078871850,0.005625190,0.011764470
1640783358964140032,-0.101791050,0.504976870,9.229324340,-0.041764980,0.002945960,-0.006143750
1640783358965139968,-0.234953550,0.518836920,10.710165980,0.005857650,0.009539720,0.000852350
1640783358968920064,0.222730130,0.482920230,9.709289550,0.008554760,0.087663540,0.024260580
1640783358970119936,0.238918840,0.398868980,10.222378730,-0.019814070,-0.048671670,0.019387900
1640783358974020096,0.083408860,0.275451540,10.178046230,-0.067959730,0.022234020,0.022436680
1640783358980919808,0.167168750,0.302921240,8.916566850,-0.071500250,-0.022917990,0.012183190
1640783358981529856,-0.426180570,0.191223440,10.232914920,-0.036479530,-0.040659300,0.003023450
1640783358982050048,-0.385982540,0.246971340,9.356673240,-0.009886920,0.041683030,0.004427140
1640783358983929856,-0.302292320,0.339908480,9.634304050,-0.016488140,-0.068020820,0.006321070
1640783358985049856,-0.358334870,0.234315200,10.282951350,-0.078029940,0.089727330,0.034123650
1640783358989179904,0.172280420,0.219000470,9.457631110,-0.076341640,0.059157610,0.027361510
1640783358990599936,-0.043518230,0.107213810,10.815665250,-0.014197830,-0.045432150,-0.005479160
1640783358995139840,0.268635510,0.147107680,9.270052910,-0.004614890,0.030131640,-0.004556780
1640783358997189888,0.346702160,0.114460500,9.103616710,-0.008380410,-0.034585600,-0.001968440
1640783358998929920,-0.163314690,-0.069420900,10.296639440,-0.022368130,0.072193140,-0.004301960
1640783359000099840,0.090725010,0.164395600,9.068531990,-0.035922230,0.021959850,0.009520350
1640783359003909888,-0.355100690,0.138916520,10.408264160,-0.016742950,-0.047197940,0.016202030
1640783359005090048,-0.340998680,0.143680590,9.748247150,-0.021567940,0.074943900,0.005531310
1640783359016329984,-0.269450310,0.299063350,9.606117250,0.023737550,-0.052864850,-0.010055300
1640783359016909824,-0.514118250,0.160527680,10.527526860,0.024785100,0.015158950,0.002931060
1640783359017469952,-0.018639260,0.260934170,9.059471130,-0.002491470,0.050681830,-0.005188580
1640783359017839872,-0.262466820,0.304685380,10.395791050,0.003048780,-0.042895980,-0.005210940
1640783359018880000,-0.155995760,0.328799490,9.815006260,-0.026433170,0.045230980,0.003309550
1640783359020059904,0.038316000,0.440270720,9.309485440,-0.002287330,-0.063678620,-0.006969270
1640783359024109824,-0.314158170,0.331258680,10.520224570,0.022357700,-0.022347270,0.010049340
1640783359025299968,0.186518400,0.438388380,9.063342090,-0.002677740,0.024946040,0.018636880
1640783359029700096,0.114478240,0.315812260,10.108249660,-0.008435550,-0.026057660,0.036112960
1640783359030289920,0.071024170,0.094859600,10.314302440,-0.024572020,0.103163720,0.029562410
1640783359033900032,0.242929030,0.199838440,9.621875760,0.004743040,-0.035943080,0.007992980
1640783359035079936,-0.355754410,0.160629440,10.479499820,0.009436910,-0.073568520,-0.015591090
