# timestamp,accel_x,accel_y,accel_z,gyro_x,gyro_y,gyro_z
1640833596.798980,-0.344575700,0.239897890,9.414831160,0.233897570,-0.109182310,-0.023743510
1640833596.799690,-0.240091440,0.907742320,8.664340970,-0.070773070,-0.113786760,-0.018820170
1640833596.803750,-0.101078320,0.603285790,9.384544370,-0.347095760,0.024074320,0.018168990
1640833596.804600,-0.252134030,0.326340560,10.072011950,-0.118316710,0.018857420,-0.002938510
1640833596.809130,-0.355430310,0.210187720,10.214489940,0.202713940,-0.197987290,-0.052136190
1640833596.810180,-0.189271790,0.754002030,8.837841030,0.192640720,-0.157445680,-0.006894770
1640833596.814560,-0.221550870,1.017969010,8.599089620,-0.152193010,-0.053149470,0.019262730
1640833596.816949,-0.105568940,0.268581870,9.743488310,-0.368791880,0.023956600,0.038196150
1640833596.819779,-0.090842550,-0.214661200,10.164674760,-0.084082780,-0.051334500,0.007925930
1640833596.821420,0.055836480,-0.125786710,9.537841800,0.192345690,-0.177574160,-0.045269730
1640833596.823799,0.090098160,0.211952280,8.805934910,0.110828880,-0.088751320,-0.009496510
1640833596.824760,-0.206565860,0.458793250,9.140135770,-0.174139450,-0.044415890,0.003729760
1640833596.829810,-0.169189750,-0.014093360,9.568359380,-0.296445190,-0.095619260,0.017312170
1640833596.831920,-0.134587500,-0.253206580,9.472619060,-0.046296420,-0.081251580,-0.001370910
1640833596.833900,-0.045455030,0.092295500,9.187152860,0.166030230,-0.055325040,-0.060075530
1640833596.836409,-0.242529840,0.523118620,9.656660080,0.069567560,-0.081647940,-0.029486410
1640833596.838810,-0.288089010,0.761064290,9.416350360,-0.160868470,-0.108228620,0.022624430
1640833596.839599,-0.068367500,0.163435160,9.004720690,-0.245858740,-0.114856650,0.014965240
1640833596.843809,-0.268074720,-0.386979370,9.666762350,-0.009740890,-0.045940280,-0.007767980
1640833596.844669,-0.240109790,-0.122004550,9.465096470,0.199489280,-0.063404440,-0.048758090
1640833596.851889,-0.309465380,0.165154500,9.597385410,0.090326370,-0.164099040,-0.032675270
1640833596.853240,-0.149646540,0.474048970,9.222317700,-0.171394660,-0.096866490,0.018984080
1640833596.853799,0.045850440,0.180692200,9.082414630,-0.238284470,-0.043261050,0.008152430
1640833596.854640,-0.362554340,-0.200734620,10.426853180,0.013825300,-0.093920520,-0.020584460
1640833596.858950,-0.296410770,0.471048330,9.572919850,0.204539300,-0.149062310,-0.035591430
1640833596.859860,-0.184534070,0.923652950,8.908299450,0.038212540,-0.211645680,-0.019305940
1640833596.863970,-0.106677520,1.020638940,9.184856410,-0.237531930,-0.031104680,0.041136150
1640833596.864730,-0.002594060,0.588920120,9.611372950,-0.249952110,0.006273390,0.020453330
1640833596.868810,-0.279335110,0.057383520,10.688201900,0.028745840,-0.166106240,-0.012758370
1640833596.869680,-0.085699920,0.429006580,9.179796220,0.167311740,-0.171442330,0.004649160
1640833596.873800,-0.051057640,0.459395920,8.589631080,-0.035862630,-0.145562010,0.002734360
1640833596.874580,-0.204817130,0.105571370,9.627512930,-0.263322920,-0.030623380,0.037804250
1640833596.878840,0.132977900,-0.179161800,9.357271190,-0.197032090,-0.045457480,0.019106270
1640833596.880440,0.159205500,-0.453083570,9.935571670,0.042812530,-0.144493590,-0.026847420
1640833596.884460,0.118695470,0.096259420,9.441807750,0.122329610,-0.049987450,-0.004130600
1640833596.885419,-0.012495880,0.341962900,9.246371270,-0.027376420,-0.132761900,0.004614890
1640833596.888720,-0.326617870,0.179043380,9.756638530,-0.194464640,-0.149016100,0.023816530
1640833596.889550,-0.085523690,0.173477690,8.707538600,-0.142343390,-0.066342960,0.016422570
1640833596.894369,-0.179272710,-0.063598470,9.470560070,0.047697130,-0.051641460,-0.033344330
1640833596.896220,-0.352748220,0.214074150,10.080421450,0.115740300,-0.035543740,-0.018039350
1640833596.898970,-0.073176340,0.626315240,9.364656450,0.012545290,-0.162976950,-0.000382960
1640833596.900600,-0.130073580,0.148699280,9.430531500,-0.159805980,-0.121939170,0.030890100
1640833596.903730,0.012920640,-0.064288020,9.158578870,-0.121994310,-0.012049080,0.021301210
1640833596.904549,-0.153625670,-0.315191540,9.958198550,0.090344260,-0.071929400,-0.010985140
1640833596.909180,-0.321609410,-0.108704480,9.900865550,0.150305030,-0.153705480,-0.012953580
1640833596.910849,0.119869600,0.552889350,8.759400370,0.008314850,-0.148428980,0.001987820
1640833596.913980,-0.065897180,0.431339920,9.396214490,-0.185327280,-0.024570530,0.007998940
1640833596.915799,-0.167894560,0.317137000,10.107954980,-0.126376750,-0.024513910,0.007750090
1640833596.919000,-0.169682980,0.364975780,10.103830340,0.122016670,-0.141984190,-0.018316510
1640833596.919920,-0.366206380,0.660893680,9.561267850,0.130242120,-0.192172830,-0.017745790
1640833596.923790,0.033727810,1.153419140,8.670924190,-0.068205600,-0.101025400,0.023090840
1640833596.926640,-0.035494940,0.762994050,9.390195850,-0.260561700,0.018553440,0.024922190
1640833596.931900,-0.001954480,0.221204520,10.208868980,-0.140370440,-0.047047440,0.017541650
1640833596.932540,0.276233260,0.015424040,9.728405000,0.135979100,-0.116704420,0.009758770
1640833596.933709,-0.017816010,-0.012996360,9.387693410,0.117766860,-0.133809460,-0.016199050
1640833596.934559,0.064823020,0.314870480,9.119030000,-0.114420070,-0.097578790,0.032289330
1640833596.938700,0.018309980,-0.089901420,9.088662150,-0.256761940,-0.014343860,0.021216270
1640833596.939580,-0.071336610,-0.532655840,9.887358670,-0.107815860,-0.055804850,-0.023658570
1640833596.944550,-0.047741710,-0.181001130,9.857634540,0.159783680,-0.029270350,-0.029291210
1640833596.946480,-0.337287250,0.275246590,9.507081030,0.127297620,-0.149501860,-0.048440690
1640833596.950760,-0.349345180,0.724638820,9.320192340,-0.110033160,-0.146491840,0.022831560
1640833596.951530,-0.194396380,0.491085800,8.788539890,-0.234463830,0.011774900,0.034302470
1640833596.953770,-0.322425100,-0.155686990,10.040201190,-0.067248950,-0.026531520,-0.020278990
1640833596.954609,-0.215039360,0.147078370,10.368510250,0.197804000,-0.039190060,-0.017341970
1640833596.959020,0.060521410,0.576792180,9.229923250,0.124004490,-0.157260910,-0.024877490
1640833596.960520,0.203218070,0.555216550,9.405288700,-0.154083980,-0.084184110,0.026755040
1640833596.963810,0.140855570,0.207614030,9.440793990,-0.236980630,0.060354170,0.029775500
1640833596.964530,-0.048253610,-0.346711640,10.109740260,-0.008557740,-0.107418000,-0.013056400
1640833596.968780,-0.171365620,-0.090135290,9.960265160,0.222687410,-0.117616350,-0.006841120
1640833596.969610,-0.060011930,0.634588180,8.665448190,0.083281120,-0.091160830,-0.017547610
1640833596.974110,-0.267817970,0.681209680,9.710483550,-0.218568760,-0.029942390,0.019696350
1640833596.975489,-0.299274030,0.495710790,10.018396380,-0.243635490,0.030753020,0.025692590
1640833596.978850,-0.053759380,0.156623750,9.783222200,0.014720860,-0.099071880,-0.013065340
1640833596.980120,-0.122503850,0.293546740,9.916388510,0.205542180,-0.078883770,0.001350050
1640833596.983760,0.112387450,0.795967520,8.806162830,0.036627060,-0.036448240,0.023548300
1640833596.984680,0.098461460,0.360381310,9.463758470,-0.222454990,-0.061342120,0.049954660
1640833596.988720,0.197481500,-0.271098260,9.609339710,-0.200405760,0.029189890,0.048352780
1640833596.989570,0.462744150,-0.520965340,9.357853890,0.064323850,-0.008480250,-0.010527670
1640833596.993909,0.012437380,-0.382142250,10.243425370,0.216940050,-0.031197080,-0.022377080
1640833596.995869,0.037804500,0.391704680,9.223940850,0.035716600,-0.045758490,0.003118810
1640833596.998740,-0.177102250,0.321940000,9.287531850,-0.212165740,-0.061720620,0.027504570
1640833596.999539,-0.435210080,-0.171756120,9.691731450,-0.163750370,0.029727820,0.004115700
1640833597.003680,-0.277603090,-0.072652550,9.408104900,0.141274930,0.018000600,-0.030542920
1640833597.004580,-0.463166030,0.402658160,9.913964270,0.245483230,-0.063635410,-0.035706160
1640833597.008770,-0.067667160,1.025921700,9.180219650,-0.014673180,-0.000303980,0.021292270
1640833597.009620,0.047093820,0.653890670,9.601650240,-0.228513780,0.034017860,0.054562090
1640833597.014649,-0.121751840,-0.241171520,10.361483570,-0.095325730,-0.001661480,0.027717650
1640833597.015760,0.095152930,-0.199686970,9.629547120,0.226059560,-0.056429210,-0.001199540
1640833597.018720,0.071462150,0.439029190,9.161086080,0.212250660,-0.055502360,-0.010408460
1640833597.019590,0.057999190,0.771762310,9.320015910,-0.126485530,0.059463090,0.012624260
1640833597.023900,0.042232950,0.591851890,9.944781300,-0.261597370,0.065849720,0.032758710
1640833597.024590,-0.139932630,0.098332140,10.336005210,-0.038439040,-0.039416560,-0.016380850
1640833597.028800,-0.081604540,0.420148160,9.723974230,0.207601500,-0.048501790,-0.015918910
1640833597.029559,-0.170666950,1.185786960,9.151615140,0.103637560,0.003850460,0.003258880
1640833597.033720,-0.355842770,1.074274060,9.770664220,-0.233642800,0.046607850,0.038698320
1640833597.034550,-0.076094860,0.538293540,9.882328990,-0.268405710,0.042033200,0.068771850
1640833597.038980,0.133848910,0.025461340,9.536489490,0.002190470,0.007019940,0.018836550
1640833597.040089,0.107065070,0.101122240,9.789360050,0.155596440,0.036728390,0.008292500
1640833597.043810,0.072871830,0.753999650,9.471872330,-0.000835960,0.041420760,0.017140800
1640833597.044800,-0.119921510,0.347442150,9.694855690,-0.280033020,-0.016041100,0.035890930
1640833597.049080,0.107013790,-0.138832490,9.569648740,-0.242604300,0.035615260,0.054517390
1640833597.049620,0.256525640,-0.268743040,9.101229670,0.040185460,0.108224180,0.000035760
1640833597.053840,-0.026048400,-0.008022050,10.148254390,0.141266000,0.077825780,-0.016482170
1640833597.054989,0.076703400,0.751637040,9.695163730,-0.034491720,0.050370400,0.030189750
1640833597.059130,-0.193252820,0.284446090,9.429790500,-0.262105460,-0.009964410,0.034376980
1640833597.060510,-0.258740720,-0.294490900,9.706012730,-0.174620750,0.034274160,0.032351910
1640833597.063720,-0.167399570,-0.182776120,8.971974370,0.113573680,0.100249050,-0.016340610
1640833597.064540,-0.328162730,0.223328870,9.780303960,0.134120880,0.047613680,-0.035022200
1640833597.068800,-0.067292860,0.738476340,9.761355400,-0.096993160,0.119924550,0.032626090
1640833597.069640,-0.130320190,0.075486950,9.783303260,-0.226695870,0.065119570,0.033783910
1640833597.073809,-0.251096670,-0.514780100,10.419865610,-0.035341080,-0.009244680,0.015950200
1640833597.075830,-0.077638630,-0.036918840,8.997142790,0.195069610,0.031439960,-0.002555550
1640833597.078920,-0.232842700,0.400593070,9.205489160,0.084400180,0.040903690,-0.015462930
1640833597.079850,-0.115970160,0.672252600,9.832576750,-0.174596910,0.157223630,0.027669960
1640833597.083930,-0.156404690,0.320974050,10.028345110,-0.177216500,0.088268530,0.014141200
1640833597.084600,-0.228564160,0.062631680,10.505140300,0.044080620,-0.053198650,-0.003886220
1640833597.088820,-0.086388090,0.690693260,9.215386390,0.165084020,0.025774540,0.000369550
1640833597.089619,-0.298927460,0.993606570,9.292654990,-0.034785270,0.069378320,0.008879600
1640833597.094230,-0.332907740,0.707671230,10.178281780,-0.235627640,0.105778890,0.053393850
1640833597.095250,-0.139346640,0.197069320,9.811606410,-0.121694820,0.061133520,0.061132020
1640833597.098980,0.019948560,-0.036603730,9.808893200,0.080230840,-0.011456010,0.020262600
1640833597.100139,0.095911270,0.280512780,9.438263890,0.091999780,0.094860790,0.023631750
1640833597.103790,-0.048751780,0.406042810,9.510470390,-0.112250460,0.091290480,0.023192170
1640833597.104550,-0.178418700,-0.016634480,10.218632700,-0.206801310,0.034861270,0.047548110
1640833597.108820,-0.146637570,-0.408967820,9.581033710,-0.047206880,0.051583360,0.037418310
1640833597.113740,-0.108674290,-0.039129900,9.334966660,0.102724140,0.025683640,-0.002425910
1640833597.114570,-0.169115560,0.421395840,9.536020280,0.037617990,0.106370450,0.014549500
1640833597.114950,-0.199579240,0.620179180,9.602423670,-0.128878670,0.097045300,0.034555800
1640833597.118780,-0.236741750,0.244824500,10.036832810,-0.146670650,0.038492680,0.042225430
1640833597.120050,-0.295904930,-0.241371240,9.822156910,0.038111210,0.034426150,0.037245460
1640833597.123760,-0.142227710,0.021768050,9.321289060,0.155319240,0.028383730,0.013960900
1640833597.124650,-0.166989060,0.190695350,9.458620070,0.029830630,0.078213220,0.014716390
1640833597.128810,-0.077934910,0.090533060,9.693849560,-0.141508850,0.129827830,0.040234620
1640833597.130740,-0.137856130,-0.220432620,10.088070870,-0.077214840,0.062251090,0.021958350
1640833597.133859,-0.376212980,-0.545775120,10.202712060,0.130645900,-0.038917360,-0.006043910
1640833597.135150,-0.235875610,0.190032260,9.179784770,0.187730800,-0.002180040,0.003080070
1640833597.138720,-0.355744720,0.638404190,9.282035830,-0.009796030,0.076578560,0.003990530
1640833597.141070,-0.451382310,0.531636540,10.317654610,-0.162790720,0.127756610,0.033441180
1640833597.143810,-0.347097370,0.506374480,10.364501000,-0.025966770,0.026284160,0.023466350
1640833597.144640,-0.339318040,0.365539880,9.955210690,0.170426100,-0.092466200,-0.001423060
1640833597.148820,-0.082297080,0.892966510,9.051297190,0.126095130,0.032813850,0.035877530
1640833597.149649,-0.123911420,0.989095390,9.353402140,-0.097648810,0.113496180,0.034579630
1640833597.153760,-0.326507990,0.148056280,10.803040500,-0.177077960,0.046956540,0.044523190
1640833597.154569,-0.077761010,0.007026570,10.017315860,0.021132830,-0.025650860,0.032749770
1640833597.159129,0.012186220,0.009802930,9.340220450,0.150513620,-0.064967570,-0.002184510
1640833597.160359,0.019131090,0.312484560,9.451266290,0.019292530,0.097490840,0.031560650
1640833597.163780,-0.077169090,0.572416900,9.650638580,-0.149005650,0.100690130,0.023831430
1640833597.164569,-0.306271310,-0.140258640,10.513238910,-0.125305350,-0.033590200,0.015881660
1640833597.168740,-0.216357950,-0.010326490,9.632691380,0.074262920,-0.011952220,0.027108200
1640833597.169649,-0.207281720,0.301002200,9.097681050,0.142420840,-0.019091370,-0.007654730
1640833597.173760,-0.350893470,0.452911700,9.835526470,-0.033961230,0.074620530,0.014093520
1640833597.174610,-0.095313940,0.724999310,9.553523060,-0.161550910,0.079128140,0.026363130
1640833597.178850,-0.167227520,-0.011891470,10.239509580,-0.084890450,0.001169740,0.021755700
1640833597.180860,-0.291872260,-0.168508080,10.072138790,0.106005390,-0.008581580,0.018054250
1640833597.184790,-0.223136900,0.174188480,9.105786320,0.173920440,-0.065669420,-0.013464690
1640833597.185910,-0.324454400,0.139902260,9.417279240,-0.035111610,0.005573030,0.010234120
1640833597.188710,-0.067585770,0.315179260,9.430783270,-0.172904130,0.111219290,0.044481460
1640833597.189580,-0.095321420,-0.186878640,10.502444270,-0.051257010,0.059649340,-0.006125870
1640833597.194330,-0.334816550,-0.124258570,10.757637980,0.151018810,-0.052282220,-0.003808740
1640833597.194810,-0.171501820,0.602341950,9.211361890,0.192262230,-0.118373340,0.005650520
1640833597.199190,-0.433588860,0.720759990,9.238035200,-0.070782010,-0.009028610,0.009484590
1640833597.201690,-0.436505590,0.855649230,9.662837980,-0.223323700,0.071488330,0.045101340
1640833597.203680,-0.318618600,0.383917690,10.366826060,-0.035327680,0.022614000,0.024801500
1640833597.204579,-0.249424320,0.376836840,10.510227200,0.156921150,-0.060242430,-0.000213090
1640833597.208799,0.141624330,1.054539680,9.420675280,0.110566630,-0.050018740,0.024859610
1640833597.210579,-0.038643670,0.830016020,9.781061170,-0.159399230,0.042547290,0.032135850
1640833597.218479,-0.170593370,0.354088520,10.260276790,-0.246456310,-0.000049170,0.053192680
1640833597.218989,-0.032320310,-0.074395020,9.811794280,0.001469250,-0.071382520,0.038863720
1640833597.219329,-0.057971560,-0.046735910,9.468707080,0.137241180,-0.032722950,-0.001357500
1640833597.219760,0.045550600,0.567678990,9.408640860,0.006887320,0.036305190,0.022652750
1640833597.223680,-0.136407410,0.518231930,10.176836970,-0.207695380,0.058534730,0.025103990
1640833597.224560,-0.195596530,0.086560780,10.422777180,-0.219427050,-0.033190840,0.033333890
1640833597.228850,-0.207977090,-0.124502860,9.894704820,0.048656770,-0.062264510,0.022335350
1640833597.229600,-0.314632530,0.107585120,9.345981600,0.138364730,-0.028814380,-0.012069940
1640833597.233790,-0.237391110,0.537725450,9.312046050,-0.033931430,0.006379190,0.019016860
1640833597.234640,-0.075826320,0.475940170,9.644822120,-0.215505060,0.083015870,0.041230020
1640833597.238700,0.030429200,-0.065763180,10.075276370,-0.158539430,0.026333330,0.020404160
1640833597.239600,-0.191774290,-0.314538840,10.562554360,0.102399290,-0.053279110,0.018340350
1640833597.243850,-0.204227910,-0.018148940,9.472183230,0.183005630,-0.071796780,0.000549850
1640833597.244760,-0.313531370,0.216202410,9.192816730,-0.026756530,-0.054863100,0.006914140
1640833597.249830,-0.335166630,0.165696800,9.688154220,-0.199787360,0.080156330,0.029610100
1640833597.250730,-0.249896330,-0.151267920,10.032887460,-0.101926930,0.060366090,-0.006014110
1640833597.253690,-0.523695110,-0.131650520,10.878484730,0.158296530,-0.100840650,-0.025253000
1640833597.254599,-0.281028870,0.607084450,9.506244660,0.181645150,-0.097814210,-0.003290180
1640833597.259060,-0.283062960,0.779266180,9.092489240,-0.069189080,-0.033384570,0.017111000
1640833597.260249,-0.369839010,0.458973500,10.391114230,-0.196553780,0.052656230,0.029930470
1640833597.264500,-0.188368200,0.332751930,10.268476490,-0.034761430,0.003041330,0.015445060
1640833597.265519,-0.104451140,0.337241110,10.196986200,0.159022210,-0.155824440,-0.010304150
1640833597.268700,0.125960380,0.732799410,9.468692780,0.088119500,-0.036753710,0.011977550
1640833597.269610,0.065817270,0.720249710,9.424480440,-0.144340110,0.037936870,0.020688770
1640833597.273720,-0.316333680,0.099469930,10.818231580,-0.174659480,-0.050202000,0.028583400
1640833597.274580,-0.241724970,-0.051439810,10.054135320,0.015015900,-0.095471750,0.014822190
1640833597.278970,-0.107729170,0.253907020,9.264618870,0.113652660,-0.117677450,-0.002257530
1640833597.280290,-0.210678160,0.553126750,9.808739660,-0.019744040,0.035704680,0.017052890
1640833597.283820,-0.187726570,0.598591740,9.919136050,-0.179781020,0.042948120,0.025327500
1640833597.284730,-0.286959770,0.104144170,10.565541270,-0.115129370,-0.105273720,0.013974310
1640833597.288720,-0.265440700,-0.085761400,9.874129300,0.065124030,-0.096595290,0.017103550
1640833597.289630,-0.078847360,0.223410790,9.062061310,0.101552920,-0.070315610,0.003677610
1640833597.293870,-0.156335560,0.349473770,9.778642650,-0.060921920,-0.001496080,0.027962030
1640833597.299770,0.094940070,0.186055780,9.799527170,-0.180976110,0.042578580,0.029201810
1640833597.300380,0.176302390,-0.140462880,10.214026450,-0.055480000,-0.034661580,0.014658270
1640833597.300890,-0.157192300,-0.382319180,10.429703710,0.129979860,-0.077086690,-0.001794100
1640833597.303700,-0.129491810,0.117344830,9.254530910,0.139851880,-0.121231360,0.006283820
1640833597.304580,-0.342179000,0.376282780,9.218527790,-0.061118610,-0.059871380,0.021483010
1640833597.309039,-0.417747620,0.008334050,9.796843530,-0.181406740,0.046361980,0.015088920
1640833597.310200,-0.458437110,-0.090846720,10.357715610,0.011974570,-0.008679920,-0.008180740
1640833597.313830,-0.562952460,0.077599360,10.428539280,0.203771890,-0.160570460,-0.034964090
1640833597.316320,-0.238519950,0.652924840,9.310880660,0.114278500,-0.119347870,0.003285710
1640833597.318719,-0.195556970,0.897810160,9.353477480,-0.109142050,-0.002136830,0.033399470
1640833597.319630,-0.315683870,0.187200650,10.497489930,-0.164328520,0.002163650,0.019562240
1640833597.323890,-0.131112490,0.034522710,10.425089840,0.083459920,-0.095529850,0.018258390
1640833597.324580,0.058866150,0.378847330,9.593579290,0.219362960,-0.158394840,-0.014334920
1640833597.332010,0.024046260,0.726282060,9.597560880,0.009919700,-0.044304130,0.003103910
1640833597.332670,-0.002892480,0.893026290,9.855171200,-0.209040940,0.005161760,0.037425760
1640833597.333690,-0.190880420,0.128056120,10.505177500,-0.144682840,-0.083461400,-0.003069640
1640833597.334580,-0.247081610,0.113572520,10.307170870,0.107152780,-0.119715940,0.000715260
1640833597.338690,-0.119374570,0.862891440,9.239785190,0.153954330,-0.109311950,-0.009331110
1640833597.339650,-0.347478900,0.901383640,9.817419050,-0.119209300,-0.031863150,0.006622080
1640833597.343940,-0.138110350,0.788255330,9.915530200,-0.281882290,-0.004883110,0.062090160
1640833597.346890,0.007142290,-0.005482730,10.030887600,-0.095258640,-0.045236940,0.025914610
1640833597.350129,-0.161110570,-0.312374290,10.556877140,0.144264090,-0.091491630,0.007443130
1640833597.350920,0.084496630,0.506174980,9.355205540,0.118626650,-0.107224310,0.011560320
1640833597.353760,0.026877380,0.381563690,9.450120930,-0.192519990,-0.065362450,0.013691190
1640833597.354600,0.242157860,0.013195020,9.866859440,-0.307415520,0.042511530,0.039483620
1640833597.358880,0.275677080,-0.317496000,9.956383710,-0.021167100,0.041349230,-0.012129550
1640833597.359969,-0.188777790,-0.316126500,10.629616740,0.203152020,-0.132501130,-0.049404800
1640833597.363730,-0.063010220,0.676143350,9.134445190,0.079835960,-0.122633580,0.006331500
1640833597.365480,-0.305975740,0.446770910,9.055369380,-0.226865710,-0.025884810,0.018419330
1640833597.368790,-0.447012720,-0.208800290,10.332204820,-0.254468650,0.040854520,0.026178360
1640833597.369850,-0.393210530,-0.257398610,10.250941280,0.099651540,0.001928210,-0.004701320
1640833597.373860,-0.396909710,0.028949010,10.179324150,0.246258120,-0.154589120,-0.039201970
1640833597.376789,-0.114043310,0.852294270,9.288738250,-0.005823370,-0.057671970,0.019632280
1640833597.378759,-0.323629950,0.512266280,9.558053970,-0.264114110,0.012415650,0.035518410
1640833597.380129,-0.328035800,-0.387570140,10.526588440,-0.153429810,-0.062203410,-0.000478330
1640833597.383780,-0.166384910,-0.111687230,9.960191730,0.197188530,-0.092643490,-0.025396050
1640833597.384640,-0.117793290,0.600746810,9.561410900,0.205506380,-0.106318300,-0.031146410
1640833597.388710,0.009118330,1.011110310,9.782887460,-0.146657240,0.006666780,0.014492870
1640833597.389590,-0.305036370,0.685957550,10.574468610,-0.287550690,-0.001585480,0.046180190
1640833597.394179,-0.286602320,-0.120016870,10.647238730,-0.045977530,-0.154384970,0.006879870
1640833597.399740,-0.299888790,0.128342600,9.626466750,0.232726380,-0.138443740,-0.018538540
1640833597.400120,-0.360960190,0.953974960,9.291337010,0.109334310,-0.076352080,-0.004076960
1640833597.400669,-0.192330610,1.025374530,9.788072590,-0.274935450,0.019362570,0.024950510
1640833597.403689,-0.229289380,0.494225830,10.761961940,-0.314010710,-0.033128260,0.038699810
1640833597.404600,-0.048326000,0.090991470,10.572850230,0.001497570,-0.149932500,0.009249150
1640833597.409180,-0.066464410,0.340266880,9.716742520,0.181548300,-0.129568580,-0.020729010
1640833597.410539,-0.278030600,0.976402280,9.714022640,-0.007490810,-0.097301610,0.014075640
1640833597.415239,-0.038352020,0.757168230,9.548026080,-0.334413290,-0.030009450,0.057707720
1640833597.415820,0.054599400,-0.005698170,10.192625050,-0.299647480,-0.037962200,0.042787210
1640833597.418740,0.214017930,-0.275091560,10.311190610,0.047186020,-0.041909520,0.008651620
1640833597.419610,0.085665550,0.087349640,9.877337460,0.169906020,-0.099024180,-0.026558340
1640833597.423760,-0.172207430,0.530422090,9.942570690,-0.072580580,-0.131912530,0.010252000
1640833597.424640,-0.144695250,0.249278520,9.387721060,-0.333268940,-0.048901140,0.052925940
1640833597.428959,-0.145538870,-0.430507780,9.815344810,-0.218243940,-0.049385440,0.020548700
1640833597.430070,-0.154484200,-0.253908960,10.326745030,0.111874940,-0.002576410,-0.006471570
1640833597.433740,-0.065323250,0.467620610,9.796670910,0.143846850,-0.070331990,-0.012390320
1640833597.434579,-0.286409200,0.576800760,10.212538720,-0.106492650,-0.115776060,0.035405160
1640833597.439159,-0.276382420,0.179249940,9.695017810,-0.261281400,-0.052717320,0.056903060
1640833597.440039,-0.227753250,-0.354726520,9.585727690,-0.079298030,-0.086003540,0.016479200
1640833597.445330,-0.312248320,-0.206101920,10.188009260,0.161831100,-0.055843580,-0.020538270
1640833597.446040,-0.045483950,0.621644320,9.519336700,0.090928380,-0.025831160,-0.023353100
1640833597.448730,-0.118294750,0.502462570,10.201842310,-0.155061500,-0.067840520,0.014877320
1640833597.449590,-0.294758260,-0.122230190,10.597005840,-0.181795660,-0.056260830,0.025840100
1640833597.453709,-0.233379130,-0.172802870,9.767731670,0.057704750,-0.145362330,0.000794230
1640833597.454929,-0.336947590,0.240003600,9.786056520,0.166563700,-0.138260420,-0.019314890
1640833597.459129,-0.102507370,0.889743860,9.406037330,-0.043390700,0.022250410,0.010441240
1640833597.459970,-0.196023080,0.729116860,10.320095060,-0.209169070,-0.007320940,0.023101270
1640833597.463680,-0.313958050,0.124169160,11.116944310,-0.106060530,-0.130462650,0.005020200
1640833597.464609,0.031064540,0.362713370,9.515464780,0.110776730,-0.152322650,-0.007709860
1640833597.468710,-0.099915800,0.820935250,9.450384140,0.070513790,-0.113813590,-0.009378790
1640833597.469640,-0.087318930,0.910844560,10.006252290,-0.186610220,0.019234420,0.015768410
1640833597.473790,0.016627740,0.528819980,10.250276570,-0.239007190,-0.032243130,0.027132030
1640833597.475340,0.172176550,-0.039352230,10.388760570,-0.036707520,-0.132073480,0.003635880
1640833597.481940,0.199506100,0.027634210,9.660395620,0.109012420,-0.050258640,-0.006555020
1640833597.482720,-0.038794320,0.541605890,9.754980090,0.000123680,-0.064243380,-0.006429850
1640833597.483709,-0.353415070,0.372640940,10.187116620,-0.229741650,-0.084325670,0.009441380
1640833597.484580,-0.177661930,-0.001336520,9.625658040,-0.224114950,-0.070904190,0.021180510
1640833597.488730,0.092286480,-0.021257140,9.539312360,-0.008746980,-0.024232270,-0.016634170
1640833597.489610,-0.039332450,0.076029380,10.317380910,0.097943830,0.024829800,-0.014097990
1640833597.493929,0.083109500,0.592435960,10.210964200,-0.023131070,-0.038428610,0.019618870
1640833597.494750,0.027490430,0.415749190,9.831172940,-0.195840000,-0.095580530,0.028547640
1640833597.498700,0.022897830,-0.329628110,9.681033130,-0.177839400,-0.066508350,0.032335520
1640833597.499600,0.076379170,-0.344130550,9.351502420,0.061759360,0.021617120,-0.007502740
1640833597.503790,-0.273904860,-0.079050010,10.044444080,0.129351030,-0.016975400,-0.055152190
1640833597.504639,-0.216868650,0.501459300,10.191021920,-0.043687230,-0.050134960,-0.003883240
1640833597.508819,-0.182069990,0.420904900,9.723196980,-0.194600210,-0.030647210,0.009785590
1640833597.511080,-0.362217840,-0.370921550,10.383022310,-0.107418000,-0.039352480,-0.009971860
1640833597.513880,-0.358046560,-0.060788020,10.162021640,0.151324290,-0.030614440,-0.010125340
1640833597.515400,-0.302015390,0.373185070,9.522522930,0.160290290,-0.096966310,-0.032550100
1640833597.518760,-0.022553670,0.640380740,9.749716760,-0.100269910,-0.018326940,0.011803210
1640833597.519750,0.035299860,0.609737520,10.018771170,-0.209553580,0.078573820,0.029242040
1640833597.523900,-0.149773150,-0.228734690,10.919834140,-0.029778480,-0.077474120,-0.014549490
1640833597.525280,-0.136916440,0.222036990,10.350242610,0.196628290,-0.135856870,-0.016872590
1640833597.529070,-0.190134780,0.916768310,9.199833870,0.097093000,-0.094209610,-0.017841170
1640833597.529660,-0.272218670,0.752132830,9.952100750,-0.217534620,0.018833580,-0.000332300
1640833597.533870,-0.323805540,0.545348110,10.474969860,-0.226856780,0.041928890,0.028932090
1640833597.535040,-0.188600690,0.068683130,10.479898450,0.043745340,-0.120455030,-0.014619530
1640833597.538720,-0.132829000,0.423206660,10.071681980,0.151014330,-0.085452200,-0.011293590
1640833597.539670,-0.173965170,0.942606090,9.569755550,-0.028266020,-0.046141450,0.020946560
1640833597.543820,-0.224951280,0.483965550,10.287375450,-0.262710450,-0.027167800,0.015714770
1640833597.545679,-0.136573960,0.176915180,10.326539040,-0.194458680,-0.040744250,0.029410430
1640833597.548720,0.177059780,0.030842530,9.795874600,0.053350620,-0.071740140,-0.004293020
1640833597.549650,0.219463140,0.285974090,9.902455330,0.084169200,0.004027780,-0.020657480
1640833597.553690,0.078457440,0.698350790,10.108113290,-0.096938010,-0.015126170,0.006289780
1640833597.554639,-0.002617510,0.289896790,10.197927470,-0.229685020,-0.072743000,0.030227010
1640833597.558859,-0.076284120,-0.255410080,9.987259860,-0.140008350,-0.068090860,0.024285910
1640833597.559640,-0.028863860,-0.185338070,9.631461140,0.074368720,-0.011754040,0.000450020
1640833597.563710,-0.117981900,0.067880310,9.911603930,0.076501080,0.033612550,-0.012305380
1640833597.564620,-0.232998490,0.329021510,10.263148310,-0.102178750,-0.027558210,0.005100670
1640833597.568760,-0.216220240,0.195834960,10.032456400,-0.179457680,-0.046011810,0.019834940
1640833597.569620,-0.286403300,-0.296576980,9.828935620,-0.071874250,-0.039646030,-0.000450020
1640833597.574100,-0.435638790,-0.287084910,10.044547080,0.124382990,-0.046449900,-0.026686490
1640833597.575240,-0.182756890,0.272355710,9.555201530,0.114563110,-0.010383130,-0.018739700
1640833597.578750,0.075026160,0.502587850,9.693065640,-0.103472180,0.017037990,0.002703070
1640833597.579720,-0.039393380,0.102888960,10.648235320,-0.159759830,0.034090880,0.025953350
1640833597.583770,-0.061067880,-0.224435700,10.389206890,0.024288890,-0.055964290,0.003793840
1640833597.585310,-0.318027590,-0.137640670,10.008285520,0.209887370,-0.173381000,-0.017295780
1640833597.588729,-0.218372700,0.416870420,9.216658590,0.088830300,-0.034768880,-0.001513960
1640833597.589690,-0.152886640,0.653109670,9.469782830,-0.152502970,0.092819330,0.005614760
1640833597.593930,-0.501064360,0.130615200,11.297683720,-0.136134030,-0.002045930,-0.006282330
1640833597.595960,-0.276873410,0.170689370,10.530742650,0.092811890,-0.113104280,-0.017243630
1640833597.598750,-0.197640390,0.604582190,9.392906190,0.196550790,-0.155435500,-0.039322680
1640833597.599660,-0.333213150,0.812453210,9.828127860,-0.003142660,0.005204980,-0.007145110
1640833597.603710,-0.237582740,0.848542330,10.049909590,-0.200749950,0.055025520,0.020073350
1640833597.604620,-0.234222900,0.155594970,10.829211240,-0.094416750,-0.112211720,0.003618000
1640833597.608800,0.060690090,0.042677890,10.251275060,0.119522220,-0.088909280,-0.010095540
1640833597.609870,0.323570250,0.649329300,9.258354190,0.112754120,-0.030690430,-0.018729270
1640833597.615379,-0.084279470,0.503878770,10.577022550,-0.094412270,-0.001181660,-0.009395180
1640833597.616740,-0.136948440,0.298965720,10.506925580,-0.195060690,-0.034999850,0.012831390
1640833597.618690,-0.027607250,0.072166920,9.817788120,-0.036023560,-0.143378990,-0.004754960
1640833597.619650,-0.194523070,0.040601940,9.902100560,0.089743740,-0.052446130,-0.022625930
1640833597.623989,-0.008123160,0.718855860,9.417626380,0.033932930,0.047448270,-0.008019800
1640833597.625079,-0.193736480,0.620073260,10.523415570,-0.130964830,-0.011138620,0.000961120
1640833597.628719,-0.225348470,0.093061020,10.710373880,-0.148391720,-0.050108130,0.017517810
1640833597.629619,0.030136390,-0.089595860,9.713806150,0.031249230,-0.083714750,0.000773370
1640833597.633730,-0.133562670,-0.055606520,9.859726910,0.116312510,-0.056190790,-0.021907690
1640833597.634600,0.086242690,0.223590640,9.473073960,-0.020670890,0.030906500,-0.011481350
1640833597.638720,0.204375390,0.188834700,9.833946230,-0.128956150,0.048826630,-0.001224880
1640833597.639649,0.065857860,-0.437057670,10.607142450,-0.071804230,0.009484590,-0.012642150
1640833597.643800,0.027750020,-0.404499290,10.229285240,0.124712310,-0.071732700,-0.017125910
1640833597.646910,-0.191710130,0.079899110,9.624527930,0.169070080,-0.106529890,-0.020466740
1640833597.649080,-0.293104170,0.132239190,9.425491330,-0.024464720,0.002065300,-0.009964400
1640833597.649870,-0.261731330,0.169479640,9.948773380,-0.104416890,0.085236140,0.006210800
1640833597.653750,-0.339531570,-0.142624620,10.651503560,0.040858980,0.033715370,-0.027972460
1640833597.654660,-0.369198860,-0.006072200,10.579503060,0.206223160,-0.106273610,-0.037503240
1640833597.658850,-0.194412980,0.760496910,9.355617520,0.159077360,-0.097304590,-0.012335180
1640833597.660390,-0.279977650,0.553262110,9.372253420,-0.072361530,0.012817980,-0.021788480
1640833597.663980,-0.331577060,0.217587200,10.466938020,-0.089956810,0.046251720,0.007162990
1640833597.665360,-0.197092530,0.132812890,10.499583240,0.123836120,-0.033767520,-0.024703150
1640833597.668730,-0.140440640,0.349161540,10.251564980,0.199103360,-0.119569900,-0.042404240
1640833597.669639,0.070277570,0.918683950,9.689976690,0.051118430,-0.031349070,0.005736950
1640833597.674090,-0.159717560,0.546910050,9.971808430,-0.119893270,0.039169200,-0.018870830
1640833597.675210,-0.446509300,0.052542950,10.931655880,-0.046110150,-0.065939140,-0.007130210
1640833597.682420,-0.270794480,0.223114430,9.901515010,0.171937050,-0.129005310,-0.005787610
1640833597.683490,-0.145802870,0.615116420,9.299239160,0.124354660,-0.076985370,-0.042499600
1640833597.683800,-0.025277340,0.925949100,9.962702750,-0.105199230,0.061988830,0.010782480
1640833597.684640,-0.090110490,0.600739540,10.595490460,-0.158807640,0.046102710,0.003352760
1640833597.688690,-0.104304570,0.094710330,10.914975170,0.010000170,-0.127674640,-0.023005900
1640833597.689620,-0.093127590,0.323300540,9.789360050,0.160224740,-0.124439600,-0.001214440
1640833597.693859,-0.215280090,0.659627260,9.182477000,0.046840310,-0.066471110,-0.014495850
1640833597.696839,-0.155886620,0.578454140,9.853399280,-0.197750360,0.015068060,0.011636320
1640833597.698750,-0.005175460,0.243800700,10.128014560,-0.174921740,0.032788520,0.019256770
1640833597.699610,0.175423410,-0.224527510,10.432914730,0.051684690,-0.031399730,-0.018663710
1640833597.703680,0.029632510,-0.094194290,10.426863670,0.173923390,-0.052103400,-0.015948710
1640833597.704630,-0.123121220,0.379345420,9.726939200,0.041545930,-0.099118080,0.001947580
1640833597.708870,-0.069213780,0.229846510,9.378885270,-0.199186800,-0.056308510,0.013850630
1640833597.709770,-0.129201670,-0.143509360,9.744986530,-0.168365250,0.048227600,0.005400180
1640833597.714880,-0.071928540,-0.344353110,10.193599700,0.111901760,0.058695680,-0.043745340
1640833597.715870,-0.213715520,0.114478560,10.548484800,0.230662540,-0.065697710,-0.046856710
1640833597.718730,-0.255492090,0.685356560,9.809325220,0.036866960,-0.113837420,0.000593070
1640833597.719620,-0.110656000,0.432273000,9.263881680,-0.208367420,-0.012113150,0.021578370
1640833597.723990,-0.281959680,-0.254771380,10.193202970,-0.109726200,0.045931340,-0.003620980
1640833597.725299,-0.315091790,-0.331829640,10.609119420,0.213873430,-0.014512240,-0.041250890
1640833597.729090,0.054461770,0.400100560,9.751308440,0.257863100,-0.086100380,-0.047959390
1640833597.730729,-0.017272580,0.812332990,9.757140160,-0.047673290,-0.033783910,-0.006206330
1640833597.733690,-0.024345380,0.403131460,10.176106450,-0.240869820,0.044666230,0.030307470
1640833597.734670,-0.174159010,-0.122269160,10.442985530,-0.025554000,-0.048850470,-0.019513070
1640833597.738690,-0.359407870,0.042791150,10.363340380,0.265759230,-0.135762990,-0.046253210
1640833597.740379,0.053384940,0.937699910,9.105289460,0.171011690,-0.026005510,-0.037732720
1640833597.749859,-0.165273850,1.218013050,9.922340390,-0.171719460,0.046740470,-0.009447340
1640833597.751269,-0.318157880,0.538743790,11.175514220,-0.263525550,-0.002516810,0.018303100
1640833597.752009,-0.075446150,0.330927190,10.166136740,0.024874510,-0.103004290,-0.021430860
1640833597.752910,-0.245491980,0.469373490,9.934175490,0.212694700,-0.143910960,-0.042690340
1640833597.755800,-0.022016830,0.978341520,9.556629180,0.010606650,0.037671630,-0.004412230
1640833597.756420,-0.023512550,0.875593420,9.966862680,-0.254051390,0.048430270,0.023607910
1640833597.759090,-0.085568590,0.004786230,11.050046920,-0.223115130,-0.071822110,0.029529630
1640833597.761610,0.324898150,-0.051369760,9.715482710,0.034612420,-0.037775940,0.003378090
1640833597.763870,0.077479500,0.223756070,9.713099480,0.141103580,-0.059734280,-0.037054720
1640833597.764660,-0.205418180,0.473792580,10.365326880,-0.073182570,0.002519790,-0.007514660
1640833597.768689,-0.122339240,0.506760780,9.809817310,-0.253413620,-0.022760040,0.019796190
1640833597.769640,-0.107672320,-0.159499140,10.199776650,-0.171338040,-0.067748130,-0.011314450
1640833597.774140,0.084184180,0.052450810,9.863299370,0.043736400,0.057220460,-0.023871660
1640833597.776019,0.024866630,0.547436590,9.820264820,0.087732080,-0.000946220,-0.026051700
1640833597.782580,-0.198403180,0.487146620,10.331864360,-0.110258180,-0.034232450,0.005438920
1640833597.783439,-0.022495140,0.173943820,9.674404140,-0.223869090,-0.018823150,0.034596030
1640833597.783820,-0.034539820,-0.474824580,9.831573490,-0.060954690,-0.022906070,0.001391770
1640833597.784619,-0.182171910,-0.475509410,10.193675990,0.105689470,0.026187300,-0.027927760
1640833597.788699,-0.002642550,0.174081500,9.855619430,0.075492260,-0.005784630,-0.031088290
1640833597.789630,-0.119682730,0.242644130,10.120088580,-0.137166690,-0.002890830,-0.016607350
1640833597.793920,-0.194400800,-0.167378770,10.205707550,-0.173333330,-0.008527930,-0.006504360
1640833597.794680,-0.132584830,-0.321792190,9.910608290,0.077062840,-0.030136100,-0.019846850
1640833597.798750,-0.343955520,0.064463160,9.912564280,0.183600190,-0.050172210,-0.029169020
1640833597.799670,-0.068428380,0.748106180,9.641268730,0.007487830,0.009311730,0.004069510
1640833597.803680,-0.144000570,0.762383760,10.345048900,-0.178819890,0.085563970,0.027959050
1640833597.804639,-0.303279550,0.200159280,10.948218350,-0.120361160,-0.049772860,0.006747250
1640833597.808780,-0.043259070,0.238046840,10.044317250,0.133356450,-0.120173390,-0.009556120
1640833597.809700,-0.110707260,0.719722810,9.263051030,0.140422600,-0.014318530,-0.024011730
1640833597.813910,-0.165292220,0.812547450,9.937783240,-0.107489550,0.059010100,-0.001384320
1640833597.814700,-0.343081920,0.478088290,10.799975400,-0.201335560,0.015474860,0.027258700
1640833597.818719,-0.205674720,0.036524370,10.302643780,-0.054585940,-0.117920350,-0.004003940
1640833597.819660,0.067641210,0.142248150,9.781270030,0.115349890,-0.051531210,-0.001657010
1640833597.823809,-0.055195810,0.656701980,9.806955340,0.044095520,0.083021830,-0.002984700
1640833597.824810,-0.216269080,0.626191500,10.471919060,-0.170417130,0.002272430,0.000169870
1640833597.829560,-0.103034850,0.199918080,10.429731370,-0.177399780,-0.064519050,0.039841240
1640833597.830109,0.071193660,0.021912270,9.483705520,-0.002375250,-0.040028990,0.009554620
1640833597.833700,0.114671230,0.288043560,9.760568620,0.081130860,0.008545820,-0.011414290
1640833597.834620,0.097185600,0.665507440,10.128792760,-0.049519540,0.066089640,0.024352960
1640833597.838860,0.200813170,0.492702190,9.988400460,-0.193412600,0.030088420,0.023680930
1640833597.839779,0.129371850,-0.184668570,10.564342500,-0.115795460,-0.023934250,0.039814420
1640833597.843900,-0.059240600,-0.283505650,9.915987010,0.077275920,-0.012330710,0.010114910
1640833597.844679,-0.127681520,0.065315710,9.413482670,0.095996270,-0.053954120,-0.016066430
1640833597.848739,-0.169457470,0.152182650,9.666470530,-0.091119120,0.060342260,0.006310640
1640833597.849700,-0.137561380,0.063814380,9.777731900,-0.181481230,0.119538590,0.009574000
1640833597.853680,-0.106160880,-0.301764760,10.636157040,-0.015266240,0.000810620,-0.014051800
1640833597.854790,-0.245694350,0.004695780,10.299895290,0.157326460,-0.048226120,-0.017836690
1640833597.858870,-0.140613810,0.561941390,9.229309080,0.072568660,-0.036191940,0.003470480
1640833597.859700,-0.146930470,0.326465870,9.637587550,-0.119003680,0.069750860,0.015331810
1640833597.863730,-0.293513150,-0.051643210,10.313853260,-0.110492110,0.098256770,0.013792520
1640833597.864640,-0.029093450,-0.061151590,10.323951720,0.105007020,-0.029428300,-0.019010900
1640833597.868739,-0.026137770,0.312668980,9.964924810,0.155833360,-0.044679640,-0.014850500
1640833597.869680,-0.037408140,0.610689040,9.630988120,-0.013034050,0.042246290,0.017996130
1640833597.873829,-0.236724780,0.305177390,10.212820050,-0.117595490,0.051623590,0.010105970
1640833597.875980,-0.533293840,-0.112707740,10.571485520,-0.006142260,-0.046090790,0.004525480
1640833597.882380,-0.210459620,0.270965220,9.673908230,0.139646230,-0.051011150,-0.002238150
1640833597.883200,-0.208303200,0.886941310,9.587738040,0.058692690,0.019730630,-0.011123710
1640833597.883679,-0.346679900,0.852414610,10.375449180,-0.142581760,0.044123830,0.013330580
1640833597.884640,-0.062853660,0.696502750,10.357038500,-0.137104080,0.009909270,0.013493000
1640833597.888749,-0.125875500,0.323494670,10.272375110,0.043924150,-0.063182410,0.002750750
1640833597.889639,-0.067456250,0.449193030,9.955682750,0.106748950,-0.023336710,0.012084840
1640833597.893800,0.014880680,1.009283420,9.563591960,-0.045922400,0.015985970,0.020509960
1640833597.894699,-0.061167950,0.445868310,10.195877080,-0.224462180,-0.004917380,0.046171250
1640833597.898700,0.258369890,0.011967210,10.122079850,-0.143167420,0.049689420,0.040666770
1640833597.899619,0.323046510,-0.012360360,9.867735860,0.066258020,0.021453200,-0.000329320
1640833597.903750,0.020412630,0.047589130,10.310074810,0.061531360,-0.020530820,-0.005662440
1640833597.904640,0.012168420,0.559767720,9.731191640,-0.110115110,0.001737480,0.023852280
1640833597.909040,-0.189874630,0.057599900,9.696983340,-0.220006720,-0.006277860,0.031039120
1640833597.909880,-0.196256150,-0.366968390,10.100460050,-0.092521310,0.044097010,0.022874770
1640833597.914960,-0.074680690,0.120643000,9.745500560,0.103408110,0.072439020,-0.004835430
1640833597.916220,-0.231242850,0.344950970,10.165427210,0.046406680,-0.003387030,0.003111360
1640833597.918830,-0.033069720,0.535158630,9.995076180,-0.151701290,0.029012570,0.050817440
1640833597.919829,-0.007254210,-0.047804840,9.744749070,-0.162570160,0.048460060,0.051335990
1640833597.924049,-0.109344560,-0.575502340,10.265643120,0.033241520,-0.002615150,0.013393170
1640833597.925180,0.081585740,-0.056613060,9.607641220,0.159765780,0.031080850,-0.002606210
1640833597.928720,-0.028603590,0.279043700,9.659266470,0.012795630,0.048153100,-0.006829200
1640833597.929710,-0.166764210,0.122125330,10.428335190,-0.173079980,0.050091750,0.032681230
1640833597.933849,-0.290512380,-0.235875730,10.321711540,-0.060237940,0.001142920,0.019730620
1640833597.935160,-0.337135260,-0.189499600,9.936966900,0.141020120,-0.065693270,-0.003601610
1640833597.938769,-0.285332320,0.371548740,9.544701580,0.144429520,0.010307130,0.002811850
1640833597.939689,-0.343876180,0.698259710,9.918535230,-0.050404670,0.095281000,0.015483800
1640833597.943800,-0.351317520,0.498174940,10.599040990,-0.158368070,0.020447370,0.026647750
1640833597.947630,-0.194508700,0.262333660,10.384139060,-0.003193320,-0.051717460,0.014594200
1640833597.948670,-0.006129850,0.502365470,9.756005290,0.141477610,-0.024868550,0.008665030
1640833597.949659,0.000882540,0.824646830,9.784878730,0.036738810,0.043433910,-0.001962480
1640833597.953709,-0.189263600,0.582215250,10.602828030,-0.120823090,0.026275220,0.023204090
1640833597.954670,-0.022266990,0.179163130,10.289735790,-0.108853000,-0.021593270,0.039963420
1640833597.958860,0.186983750,0.000553690,9.882262230,0.029429790,-0.044070180,0.001157820
1640833597.959780,0.167962790,0.243050580,10.032337190,0.069454320,0.054591890,0.001937150
1640833597.963729,0.098666330,0.675489130,9.979516030,-0.055554520,0.075241920,0.004939730
1640833597.964680,-0.178160380,0.397086560,10.648281100,-0.144252180,-0.042018300,0.017833710
1640833597.968809,-0.187632650,0.198920650,10.039285660,-0.079107290,-0.025139750,0.031052530
1640833597.969660,-0.122795980,0.453659890,9.376862530,0.026372080,-0.011457500,-0.004257260
1640833597.974120,-0.244397430,0.531945940,10.177178380,-0.000488760,0.047798450,0.017693640
1640833597.975420,-0.001077380,0.617339910,9.917002680,-0.116731220,0.094482290,0.051014130
1640833597.981240,0.146793110,0.138807670,10.242871280,-0.119797890,0.027084350,0.036683680
1640833597.982689,-0.004409490,-0.357669350,10.636979100,-0.013452770,0.016847250,0.030854350
1640833597.984000,0.091533560,-0.005915610,9.406799320,0.047375260,-0.030873720,0.010298190
1640833597.984710,-0.033791210,-0.020705680,9.506337170,-0.036609170,-0.003474950,0.009375810
1640833597.988659,0.005421050,-0.175853740,9.723435400,-0.143514590,0.138509290,0.022107360
1640833597.989670,0.024259710,-0.202428210,10.139100070,-0.040641430,0.103007260,-0.001856680
1640833597.993810,-0.233057930,-0.218551200,10.763946530,0.088776650,-0.024110080,-0.016441940
1640833597.995319,-0.075578280,0.416148630,9.393295290,0.052410360,-0.019140540,0.020989770
1640833597.998880,-0.296512340,0.428862720,9.391483310,-0.073675820,0.036555530,0.035907330
1640833598.000280,-0.396802660,-0.084360930,10.113213540,-0.103649490,0.106453880,0.025597210
1640833598.003700,-0.249968420,-0.112979980,10.028827670,0.076790140,0.051410500,0.010420380
1640833598.004650,-0.087431590,0.139341680,9.992631910,0.156778110,-0.021018090,-0.011789800
1640833598.008849,0.059536810,0.388713960,9.772274970,-0.000566240,0.066927080,0.011895600
1640833598.009740,-0.117739450,0.290003660,10.251384740,-0.105835490,0.077310190,0.032804910
1640833598.014560,-0.279624250,-0.338293190,10.565608980,-0.015169380,-0.027506050,0.000371040
1640833598.016180,-0.210062790,-0.206315430,9.626578330,0.168806310,-0.048479450,-0.006471570
1640833598.018819,-0.103420720,0.603666480,9.201334000,0.134426370,0.030322370,-0.008299950
1640833598.019860,-0.209471990,0.682368160,10.068687440,-0.106735530,0.127474960,0.013123460
1640833598.024030,-0.398808390,0.535865310,11.012418750,-0.136560250,0.026364630,0.030246380
1640833598.025200,-0.235481800,0.392894390,10.274429320,0.062435860,-0.098367040,0.017017130
1640833598.028740,-0.256263670,0.436850550,9.648008350,0.158259270,-0.039088730,-0.000518560
1640833598.029709,-0.208302210,1.039660570,9.722182270,0.017702580,0.076998770,0.022189320
1640833598.033769,-0.258503020,0.753364920,10.346850400,-0.167566550,0.059421360,0.044995550
1640833598.034659,-0.045529000,0.078001920,10.561661720,-0.126700120,-0.039523830,0.042349100
1640833598.038730,0.349003490,0.231357800,9.709205630,0.076486180,-0.001974400,0.021025540
1640833598.039690,0.114677000,0.306481120,9.918310170,0.084809960,0.041800740,-0.003892180
1640833598.043820,-0.131200750,0.657374380,10.535831450,-0.092630090,0.011344250,0.026422740
1640833598.046020,-0.163599880,0.500011380,9.994091030,-0.191921000,-0.027383870,0.050812970
1640833598.049620,-0.096815490,-0.111450610,9.845423700,-0.090864310,-0.028114030,0.022442640
1640833598.050429,-0.040722020,0.332144500,9.826889990,0.065594920,0.079573690,0.014092030
1640833598.053720,-0.209349560,0.600599710,10.002777100,0.031560660,0.052760550,0.017209350
1640833598.054659,-0.212578300,0.424293490,10.440603260,-0.139240910,-0.019979470,0.037947300
1640833598.058840,-0.132838620,0.086896980,9.903396610,-0.143112240,-0.001236800,0.060150030
1640833598.059769,-0.083438540,-0.453975530,9.725806240,0.007489320,-0.001417100,0.028595330
1640833598.064050,-0.005403740,-0.090367420,9.963739400,0.082041330,0.044389070,0.002390150
1640833598.065169,0.059669380,0.309850990,9.865541460,-0.029820210,0.052773950,0.009493530
1640833598.068699,0.060326790,-0.041435000,10.111531260,-0.136773290,0.039958950,0.022450090
1640833598.069680,-0.175252590,-0.357425060,10.350209240,-0.032225250,-0.010915100,0.012592970
1640833598.074159,-0.258018790,-0.262892400,9.788506510,0.131151080,-0.049968070,0.004726650
1640833598.075310,-0.310177510,0.226626780,9.449541090,0.093539060,-0.006031990,-0.000555810
1640833598.082219,-0.402104770,0.390990730,9.922060010,-0.076121090,0.070193410,0.006853050
1640833598.082899,-0.335559430,0.143339660,10.473685260,-0.093853470,0.078693040,0.019244850
1640833598.083680,-0.300803630,0.002973410,10.519221310,0.086005020,-0.043182070,-0.004793700
1640833598.084640,-0.165190150,0.269789190,9.913737300,0.174920280,-0.070956350,-0.003169480
1640833598.088690,-0.014047840,0.729802970,9.293503760,0.021669270,0.036948920,0.026766960
1640833598.089619,-0.226150710,0.348210990,10.246387480,-0.124371060,0.048702960,0.017084180
1640833598.093829,-0.281757350,-0.136701540,10.815965650,-0.013342500,-0.015720730,0.023789710
1640833598.096690,0.021723260,0.207318780,9.720238690,0.150676070,-0.073042530,-0.002716480
1640833598.098719,-0.020171860,0.435036690,9.848037720,0.102676460,-0.016228860,-0.007209180
1640833598.099690,-0.097436090,0.663423600,10.112868310,-0.080613790,0.084802520,0.023804610
1640833598.103659,-0.148019310,0.558551790,10.259262080,-0.109781330,-0.017961860,0.013570490
1640833598.104660,-0.340103860,-0.017415680,10.651914600,0.034122170,-0.094272200,0.018759070
1640833598.108820,-0.082406690,0.501192090,9.284671780,0.130708530,-0.024937100,0.001613800
1640833598.109750,-0.155339630,0.709840480,9.673571590,0.019375980,0.004446510,-0.002092120
1640833598.115520,-0.098101510,0.382250850,10.469309810,-0.147396370,0.068730130,0.031633680
1640833598.115990,0.198760230,0.283774440,9.979359630,-0.085164610,0.029994550,0.024940080
1640833598.118710,0.102589650,-0.245171620,10.417819020,0.090205670,-0.075292590,0.002980230
1640833598.119660,0.087696370,0.065642360,9.616308210,0.113372500,-0.006143750,0.008530910
1640833598.123800,0.000734720,0.416203500,9.313507080,-0.023716690,-0.024808950,0.013466180
1640833598.124699,-0.128038200,-0.187900050,10.150909420,-0.147549820,0.042527910,0.015166400
1640833598.129520,-0.028053160,-0.218471590,9.953692440,-0.029054290,0.078268370,-0.013370810
1640833598.130339,-0.127529960,-0.038582060,10.335620880,0.158044710,-0.039294360,-0.039672860
1640833598.133760,-0.212884600,0.374589090,9.985397340,0.094601520,-0.028572980,-0.017769630
1640833598.134680,-0.134314540,0.691925290,9.436312680,-0.076790150,-0.005821880,0.012789670
1640833598.139119,-0.275980950,0.064016180,10.067132000,-0.111208880,0.037622460,-0.002509360
1640833598.139950,-0.302287940,-0.244753940,10.158484460,0.063903630,0.020952520,-0.017201900
1640833598.144199,0.046713450,0.192936330,9.813591960,0.207954660,-0.039543210,-0.019395350
1640833598.146109,-0.002576970,0.582670630,9.920963290,0.042758870,0.026004010,-0.008754430
1640833598.148720,-0.003339320,0.514453650,10.205616000,-0.163537280,0.024496020,0.021275880
1640833598.149659,-0.096355670,-0.006275210,10.491815570,-0.062476100,0.008133050,0.003108380
1640833598.153720,-0.344081220,-0.141550910,10.225996020,0.153030470,-0.085288290,-0.032232700
1640833598.154830,-0.187554600,0.491799090,9.511125560,0.186353940,-0.045697390,-0.027956070
1640833598.160709,-0.351847860,0.994419100,9.661285400,-0.057792670,0.070957850,-0.006550550
1640833598.161729,-0.388797100,0.708672460,10.604114530,-0.228656840,0.005407630,0.009109080
1640833598.163689,-0.109090940,0.364898470,10.495732310,-0.054630640,-0.026482340,0.006492440
1640833598.164660,-0.081201200,0.320810820,9.956789970,0.166454930,-0.045657160,-0.029742720
1640833598.168680,-0.109385620,0.711339350,10.069634440,0.100097060,-0.008621810,-0.017720460
1640833598.169700,-0.183494430,0.957448960,9.994189260,-0.148625690,0.011958180,0.017058850
1640833598.173839,-0.081290040,0.185920570,9.948163030,-0.246730450,-0.044810780,0.022967160
1640833598.175079,0.142715330,-0.311378570,10.043449400,-0.037041320,0.000000000,0.010275840
1640833598.178920,0.122031820,-0.036192330,9.844788550,0.170399290,0.033631920,-0.025743250
1640833598.180070,-0.083744180,0.332232530,10.293173790,0.036190450,-0.030225520,-0.024671850
1640833598.183719,-0.135078470,0.480451910,10.130730630,-0.196728130,-0.035223360,0.024305280
1640833598.184630,-0.131065220,-0.033308240,9.734157560,-0.207623870,-0.026945780,0.008924310
1640833598.189090,-0.071389250,-0.153373880,9.963830950,0.011427700,0.005137920,-0.020867590
1640833598.189970,-0.031281840,0.384321030,9.849290850,0.151489690,0.045666100,-0.034728650
1640833598.194470,-0.045670410,0.716143190,10.052733420,-0.007332860,0.022615490,-0.009542700
1640833598.195240,-0.104349720,0.358998360,10.314407350,-0.193329160,-0.026474890,0.029569860
1640833598.198760,-0.119523080,-0.395307030,9.892147060,-0.091710690,-0.037273760,0.019939250
1640833598.199710,-0.063594050,-0.404865150,9.579399110,0.117284060,-0.031970450,-0.013113020
1640833598.203719,-0.106618720,0.054054210,9.692440030,0.117348140,0.034691390,-0.028359890
1640833598.204730,-0.193464410,0.183028430,10.181579590,-0.073935100,0.063179430,-0.014711920
1640833598.208789,-0.197154950,-0.051384200,10.405595780,-0.124906000,-0.025135280,-0.008407240
1640833598.209689,-0.271851480,-0.378491880,10.250142100,0.049293050,-0.084500020,-0.029011070
1640833598.213739,-0.180792790,0.207164390,9.536838530,0.167229820,-0.021208820,-0.032946470
1640833598.215350,-0.238197540,0.735063020,9.650228500,0.051775580,0.034402310,-0.034630300
1640833598.218700,-0.350403790,0.551167010,10.596394540,-0.114190590,0.024037060,-0.013689700
1640833598.219740,-0.096554100,0.483224060,10.201588630,-0.049579140,-0.038442020,-0.007763510
1640833598.223899,0.042331600,0.318800960,9.892115590,0.117684920,-0.093528640,-0.037516660
1640833598.224720,0.039392690,0.623010040,9.872010230,0.095486650,0.022281710,-0.022020940
1640833598.228890,0.033677380,0.809005260,9.765274050,-0.062894830,0.046710670,-0.010466580
1640833598.229800,-0.256160860,0.006148880,10.962801930,-0.097794830,-0.042928750,-0.015936790
1640833598.233650,-0.182108040,-0.082375120,10.208687780,0.027079880,-0.073157260,-0.002650920
1640833598.234670,0.071269790,0.208472250,9.234457970,0.109933340,-0.076466810,-0.035506500
1640833598.239290,-0.083808450,0.403968010,10.067335130,-0.015960640,0.060094900,-0.029318040
1640833598.241530,0.052312290,0.706320940,10.078951840,-0.131025910,0.081802910,0.004571680
1640833598.243680,0.027531370,0.110535990,10.691198350,-0.047990680,-0.062943980,-0.005498530
1640833598.245070,-0.111317310,0.017264430,10.307744030,0.081540650,-0.069899860,-0.022110340
1640833598.248740,0.116321690,0.626185720,8.991205220,0.089526180,-0.051288310,-0.018611550
1640833598.249670,-0.032739860,0.465412710,9.719860080,-0.086934870,0.054426500,-0.020198530
1640833598.253840,0.061943490,0.283432990,10.136274340,-0.174039570,0.108958790,-0.003136690
1640833598.257200,0.078695920,-0.149373580,10.478144650,0.011530520,0.008679930,-0.018028910
1640833598.258740,-0.196278870,-0.400130390,10.526120190,0.163368930,-0.078077620,-0.036488470
1640833598.259729,-0.121725210,0.084384010,9.255800250,0.097134700,-0.061161810,-0.015655160
1640833598.263749,-0.291430890,0.142802430,9.269219400,-0.093834090,0.030229980,-0.007520620
1640833598.264660,-0.219181600,-0.277143780,9.986330990,-0.146538020,0.105139620,-0.024355940
1640833598.268679,-0.151554330,-0.241193460,10.530479430,0.098750000,0.039836770,-0.042764840
1640833598.269760,-0.140087040,0.155364870,10.267812730,0.233757540,-0.088329610,-0.064347690
1640833598.274060,-0.062022620,0.641503210,9.495746610,0.075384970,-0.045742110,-0.032940510
1640833598.275400,-0.185747180,0.611801980,9.761442180,-0.120992960,0.047202410,-0.003701450
1640833598.278710,-0.160091670,-0.018310570,10.182234760,-0.080689800,0.054575510,-0.020912290
1640833598.279719,-0.193102600,-0.113706540,10.519845010,0.174061950,-0.022453070,-0.034685430
1640833598.283670,0.039321880,0.522474830,9.808872220,0.241670030,-0.035791100,-0.028155740
1640833598.284680,-0.015798250,0.672743020,9.677135470,-0.021509830,0.021976230,-0.022348760
1640833598.289140,-0.266596380,0.349048730,10.531311040,-0.169417250,0.027497110,0.000034270
1640833598.290580,-0.249338850,-0.000577530,10.202209470,0.003404920,-0.025911630,-0.023518500
1640833598.294340,-0.200059440,0.036745150,9.881191250,0.208804010,-0.070260470,-0.042338670
1640833598.295140,-0.060109310,0.908691350,9.716917990,0.120246430,0.027775770,-0.038015850
1640833598.298679,-0.110406530,1.053040500,9.949478150,-0.144128520,0.071163480,-0.013965370
1640833598.299670,-0.089204030,0.370943550,10.619968410,-0.178025660,-0.033476950,-0.000454490
1640833598.303730,0.041128960,0.122506630,9.969699860,0.071984530,-0.020772220,-0.011122230
1640833598.304710,0.009380890,0.381758120,9.635617260,0.184397400,-0.019793210,-0.038585070
1640833598.308800,-0.003130320,0.786954520,9.893710140,-0.012505060,0.016847250,-0.025047360
1640833598.311190,-0.003101780,0.562103390,9.856928830,-0.233826090,0.058218840,0.001253190
1640833598.313769,0.194716320,-0.221790460,10.057428360,-0.141946960,0.021982190,-0.018522140
1640833598.314639,0.051217150,-0.386537080,10.285085680,0.131377590,0.039726500,-0.050289930
1640833598.318820,-0.084622100,0.186744850,9.857370380,0.169844940,-0.016766790,-0.045916440
1640833598.320099,-0.137553330,0.453454730,9.643548970,-0.088146310,-0.019945200,-0.006785990
1640833598.323840,-0.241160880,-0.012174140,9.789100650,-0.233916940,0.051897760,-0.000517070
1640833598.327190,-0.120816790,-0.355622560,10.001119610,-0.038678950,0.074519220,-0.026185810
1640833598.328689,-0.227628860,-0.063403440,10.373624800,0.200648610,0.010947880,-0.066615630
1640833598.329670,-0.169949130,0.592574890,9.971869470,0.131928940,-0.028076770,-0.045058130
1640833598.333789,-0.011211050,0.931231500,9.429643630,-0.148233770,0.024890900,0.001384320
1640833598.335310,-0.279767010,0.208140910,10.186209680,-0.207856330,0.050051510,-0.014521180
1640833598.339049,-0.288986740,-0.164546950,10.483795170,0.050143900,0.011861320,-0.032100080
1640833598.339990,-0.083142030,0.374482900,9.691788670,0.223343060,-0.032819800,-0.059850520
1640833598.343710,-0.197178360,0.671915830,9.994600300,0.030007960,0.011141600,-0.036697090
1640833598.345559,-0.079311310,0.721472440,10.030809400,-0.222054150,0.085388130,0.006614630
1640833598.348719,-0.135958060,0.165347410,10.284560200,-0.163507460,-0.009560590,-0.017391140
1640833598.349720,-0.210530940,-0.130938140,10.479403500,0.088159750,-0.047175590,-0.025621060
1640833598.353780,0.030762050,0.514739630,9.327491760,0.174720570,0.015008450,-0.033791360
1640833598.354699,-0.271573720,0.765825930,10.104062080,-0.046277050,0.014941400,-0.031681370
1640833598.358840,-0.180399920,0.552821640,10.445186610,-0.261688260,0.047890850,0.020241740
1640833598.360970,0.136962490,0.194438170,9.714189530,-0.134751220,0.007857380,-0.005975370
1640833598.363680,0.003091800,-0.136254440,10.354323390,0.111503910,0.000505150,-0.033114850
1640833598.364679,0.149878730,0.461706280,9.604590420,0.119377670,0.065222390,-0.024724000
1640833598.368719,-0.050827150,0.594162640,9.794306760,-0.095100710,-0.009480120,-0.017318130
1640833598.369700,-0.119948740,-0.086691590,10.236368180,-0.247865920,0.012700260,0.015239420
1640833598.373819,0.045055440,-0.338235530,9.512084010,-0.064636770,0.054326660,-0.019736590
1640833598.374699,-0.152434860,-0.182747500,10.106471060,0.144951050,0.007227060,-0.068598990
1640833598.378700,-0.055743960,0.378352580,9.913616180,0.055533650,0.066187970,-0.038316850
1640833598.379700,-0.076142120,0.611011860,9.833560940,-0.130081190,0.045111780,0.009851160
1640833598.383740,-0.219620390,-0.172082920,10.440197940,-0.165930390,0.025010110,0.009533760
1640833598.384680,-0.236346410,-0.277394530,9.880417820,0.043095650,0.019621850,-0.016874070
1640833598.389060,-0.274412540,0.188689500,9.615359310,0.180014980,-0.034056610,-0.027337670
1640833598.389850,-0.204530430,0.476637960,9.685667990,-0.017602740,0.083862240,-0.034117700
1640833598.393669,-0.203320470,0.578490970,10.160566330,-0.187362730,0.087282080,0.001806020
1640833598.394690,-0.124855940,0.048001720,10.658141140,-0.092531760,0.011397900,-0.019098820
1640833598.398759,-0.148535860,0.037912780,10.192123410,0.108541570,-0.022077560,-0.036729880
1640833598.400100,-0.140178250,0.615410800,9.708052640,0.135986510,-0.022585690,-0.015451010
1640833598.403730,-0.247442510,0.728788730,9.780133250,-0.100180510,0.073437390,-0.015422700
1640833598.405409,-0.246845220,0.491461960,10.196779250,-0.213491930,0.044000150,0.026156010
1640833598.408800,0.012761610,0.164534940,10.230911250,-0.043702120,0.017489490,0.015777350
1640833598.410380,0.045324920,0.192868900,10.004766460,0.112576800,0.027906900,-0.032795970
1640833598.414160,-0.064628280,0.649960700,10.165632250,0.040777020,-0.000150500,-0.020077820
1640833598.416010,-0.114624560,0.722332180,9.934542660,-0.150761010,0.023187700,0.009229780
1640833598.418680,-0.052966090,0.157065090,9.889328960,-0.210498270,-0.006496910,0.012163820
1640833598.419690,0.103112190,-0.028028970,9.942539220,-0.023783740,0.057207050,0.006864960
1640833598.423790,0.192942980,0.117939030,9.712357520,0.099396710,0.100485990,-0.024332110
1640833598.424790,0.068113850,0.296576380,10.342708590,-0.008556250,0.019766390,-0.013211370
1640833598.428710,-0.053462400,0.278336350,10.082283020,-0.155754400,0.035344070,0.033672150
1640833598.429839,-0.083831850,-0.335412560,9.587924000,-0.145329510,-0.009082260,0.015559790
1640833598.433699,-0.204861820,-0.394819500,9.891130450,0.028003760,0.016587970,-0.010308630
1640833598.434680,-0.108873780,0.200560350,9.420715330,0.096547610,0.110356510,-0.023111700
1640833598.439080,-0.018754400,0.350587220,9.958070760,-0.037841500,0.083801160,-0.023451450
1640833598.439780,-0.278316740,0.254106460,10.833847050,-0.126212850,0.065405670,0.013032560
1640833598.443719,-0.184594210,-0.068477880,9.882190700,-0.025476520,-0.029240550,-0.001089270
1640833598.444790,-0.182882160,-0.079583150,9.550079350,0.107781600,-0.052618980,-0.020363930
1640833598.448820,-0.175635170,0.432972190,9.368607520,0.063255440,0.106260190,-0.011828540
1640833598.449880,0.035376730,0.449512090,9.871663090,-0.082243990,0.129640100,-0.010585790
1640833598.453699,-0.102438570,-0.014862730,10.967670440,-0.069619720,0.041167440,-0.006784500
1640833598.454929,-0.034548090,-0.091244620,10.263866420,0.073359910,-0.033095480,-0.008177760
1640833598.459610,0.036899600,0.298063370,9.459481240,0.125381350,-0.035777690,-0.017888850
1640833598.460110,-0.357136400,0.535261930,9.880418780,-0.025178490,0.070732830,-0.010775030
1640833598.463760,-0.464538750,0.473042190,10.182162280,-0.121504080,0.071158990,0.001110140
1640833598.464710,-0.390482600,0.197274100,10.260564800,-0.009094180,-0.026667120,0.001496080
1640833598.468710,-0.296571490,0.263505820,10.045421600,0.109474370,-0.016786160,-0.010612610
1640833598.469679,0.045387960,0.802737830,9.663221360,0.062219800,0.070153180,0.006459650
1640833598.475819,-0.208280150,0.825794880,10.420770650,-0.105844440,0.061272090,0.012068450
1640833598.476549,-0.159193230,0.268041040,10.671542170,-0.134907650,-0.026358660,0.024956470
1640833598.478940,0.206388250,0.112197730,9.631310460,0.033530590,-0.020490580,0.009205940
1640833598.480710,0.065594930,0.297848550,9.557051660,0.097079580,0.012852250,-0.019901990
1640833598.483680,0.179381030,0.490368100,9.840519910,-0.047661370,0.085532670,0.015392900
1640833598.484660,0.171385140,0.487532880,9.952219960,-0.161300600,0.087648650,0.017139320
1640833598.489009,-0.188691940,-0.191887780,10.703778270,-0.093428790,-0.030244890,0.025497380
1640833598.489950,-0.087878590,-0.283782630,9.904929160,0.082430230,-0.012701750,0.019660590
1640833598.493680,-0.260391470,0.204753370,9.295781140,0.097540020,0.003625450,-0.003606080
1640833598.494830,-0.228968470,0.291240840,9.889006610,-0.101731730,0.086601080,0.021654370
1640833598.498690,-0.002645210,0.219898550,10.012106900,-0.160536170,0.141537190,0.027643150
1640833598.499719,-0.198697090,-0.275066670,10.571026800,0.011491770,0.003047290,-0.005786120
1640833598.503729,-0.117503570,-0.291666060,10.114372250,0.175049900,-0.054225330,-0.001060960
1640833598.505410,-0.033873180,0.379385290,8.924150470,0.114114590,-0.006784500,0.010272860
1640833598.508960,-0.149776380,0.185955390,9.656716350,-0.118523850,0.079210100,0.019213560
1640833598.509800,-0.038404070,-0.160361960,10.334861760,-0.142955820,0.149345430,0.026409330
1640833598.513749,-0.174972180,-0.334225570,10.611290930,0.121174760,0.023706260,-0.014504790
1640833598.514900,-0.229376850,-0.005152940,10.365434650,0.238128020,-0.098879640,-0.018571320
1640833598.518669,-0.148810250,0.745426000,9.091732980,0.057260700,-0.007845460,0.021983680
1640833598.519739,-0.369160350,0.472360760,9.633340840,-0.163681820,0.096879900,0.028179590
1640833598.523790,-0.379100830,-0.040872320,10.693795200,-0.084887470,0.090163950,0.009515880
1640833598.524720,-0.296112630,0.019855530,10.448063850,0.227406650,-0.031402710,-0.010806320
1640833598.528800,-0.153037190,0.537908200,9.880893710,0.237380000,-0.064501170,-0.012038650
1640833598.529719,0.056350640,1.008081440,9.475570680,-0.067748140,0.052398440,0.031469770
1640833598.533690,-0.163912590,0.671565830,10.290471080,-0.217956300,0.089070210,0.040519240
1640833598.534680,-0.108516130,0.139171910,10.776951790,-0.040590760,-0.000260770,0.014255940
1640833598.538990,-0.086822720,0.199380490,10.137872700,0.229154540,-0.071573260,0.002726910
1640833598.540020,-0.093833760,0.821655810,9.525609970,0.152275000,-0.017318130,0.014869870
1640833598.546700,-0.003214600,0.926491800,9.531507490,-0.184479360,0.091946130,0.041727730
1640833598.547420,-0.171680870,0.382768930,10.519909860,-0.264297430,0.053168840,0.057576600
1640833598.548900,0.014173180,-0.050914540,10.344719890,0.001180170,0.004966560,0.027398770
1640833598.549710,0.010587920,0.014330080,9.927693370,0.212092730,-0.033478450,-0.009329620
1640833598.553700,-0.151094080,0.624777200,9.777956010,0.067149110,0.008979440,0.013172630
1640833598.554980,0.010138810,0.647134360,9.417572980,-0.233082470,0.071422760,0.044484440
1640833598.558920,0.020070460,-0.056898000,10.256778720,-0.244891640,0.054106120,0.043030090
1640833598.561349,0.096414280,-0.248776240,10.144306180,0.053657600,0.083841380,0.025221710
1640833598.563670,0.021830120,-0.090483360,9.843674660,0.225298110,-0.010307130,-0.023831430
1640833598.564689,-0.356581090,0.301686260,10.096067430,0.048908590,-0.014302140,0.016327200
1640833598.568709,-0.265401870,0.375264200,9.212701800,-0.227797000,0.035947560,0.036942960
1640833598.569700,-0.220756160,-0.337623300,9.715416910,-0.194519770,0.054334100,0.009459260
1640833598.573820,-0.324912250,-0.363831880,10.455485340,0.108076650,0.087858750,-0.013397640
1640833598.576330,-0.006486180,0.337308680,9.758365630,0.240181390,0.021089620,-0.020538270
1640833598.579190,-0.110567220,0.584570940,10.079145430,0.012485680,-0.020553170,0.020453340
1640833598.580250,-0.157922920,0.315266670,9.840064050,-0.215135530,0.058129430,0.058788060
1640833598.583740,-0.086232270,-0.298600670,9.825293540,-0.074629490,0.026698420,0.018811230
1640833598.584679,-0.400026290,-0.354286880,10.510347370,0.193755340,-0.016874070,-0.015538930
1640833598.588980,-0.080003800,0.557852030,9.420158390,0.183878850,0.019490720,-0.014589730
1640833598.589810,-0.099114790,0.814198790,9.715600010,-0.075709830,0.039497020,0.009495020
1640833598.594709,-0.286325720,0.386118890,10.605466840,-0.213584330,0.062648960,0.025683640
1640833598.595340,-0.174607990,0.187425320,10.262431140,-0.001324710,-0.002574920,0.019817060
1640833598.598680,-0.304293480,0.326775910,10.052653310,0.199845480,-0.090786820,-0.005665420
1640833598.599700,-0.084937650,0.900564310,9.404477120,0.062084200,0.031116600,0.020046530
1640833598.603649,0.001519990,0.971756100,9.778609280,-0.184646230,0.105547900,0.046268110
1640833598.604980,-0.055179510,0.205990640,10.782560350,-0.201535220,0.049138070,0.041580200
1640833598.608899,0.027320050,-0.092212220,10.312454220,0.050288440,-0.025683640,0.014038380
1640833598.609750,0.117868410,0.282000900,9.410256390,0.171038520,-0.054121020,0.003609060
1640833598.614650,-0.153519560,0.433910160,9.580702780,-0.039424000,0.047193470,0.007340310
1640833598.615110,-0.060513390,0.314274130,9.934553150,-0.228588280,0.076420610,0.037352740
1640833598.618710,0.075859280,-0.200871240,9.956079480,-0.126887860,0.056035820,0.023004410
1640833598.619730,-0.057657390,-0.405825440,10.373373030,0.099942110,0.037384030,-0.002045930
1640833598.625120,-0.042127750,0.316255210,9.916152000,0.146074610,0.016094740,0.015744570
1640833598.625890,-0.350555120,0.547545310,9.633517270,-0.073328610,-0.027722120,0.041711330
1640833598.628820,-0.268797930,0.035057510,9.737773900,-0.220151260,0.027331710,0.051888820
1640833598.629690,-0.135761250,-0.175235540,9.615123750,-0.041422250,0.105986010,0.007198750
1640833598.633710,-0.319690880,-0.184816690,10.391808510,0.169518600,0.029399990,-0.037066640
1640833598.634689,-0.028923540,0.486516890,10.162171360,0.113137070,0.016132000,-0.018697980
1640833598.639220,-0.010448410,0.924157440,9.576096530,-0.140716140,0.021116440,0.022818150
1640833598.640740,-0.065991300,0.065651460,10.201699260,-0.214689970,0.034980480,0.040929020
1640833598.643859,-0.177349970,-0.175052670,10.208392140,0.036780540,0.062789020,0.020943580
1640833598.644719,-0.380018800,0.133457970,9.979869840,0.228518260,-0.050508980,-0.000070040
1640833598.648749,-0.241539300,0.496974020,9.730524060,0.050051510,-0.003930930,0.021035970
1640833598.649740,-0.239227370,0.792760670,9.628318790,-0.206956280,0.069294870,0.039400160
1640833598.653770,-0.243413940,0.125442120,10.495604520,-0.203694420,0.054931640,0.013694170
1640833598.654940,-0.185116590,0.036127730,10.585786820,0.066229700,0.011092430,-0.010727350
1640833598.658789,-0.117540190,0.628487470,9.819602010,0.196960610,-0.055545580,-0.010475520
1640833598.659780,-0.038440720,0.916535380,9.669589040,-0.047135350,0.023497640,0.018243490
1640833598.663679,0.039211040,0.787690100,9.754270550,-0.273917620,0.073091690,0.052888700
1640833598.665109,0.126148300,0.112999090,10.177304270,-0.166861710,0.044323510,0.049279640
1640833598.668700,0.171235500,-0.138383080,10.133139610,0.085686150,0.024853650,0.013959410
1640833598.669690,0.058104110,0.112332360,9.859375950,0.152498480,0.002776090,0.015842910
1640833598.674360,-0.208223190,0.320196630,9.841568950,-0.069549690,0.025534630,0.024905800
1640833598.677690,-0.225718990,0.112963150,9.768506050,-0.265492500,0.016194580,0.040684640
1640833598.678730,-0.275892910,-0.281527730,9.989367490,-0.134575340,0.054126970,0.020188090
1640833598.679790,-0.186498110,-0.119578990,9.916946410,0.098682960,0.080494580,-0.032077730
1640833598.683670,-0.278005330,0.267174990,10.225388530,0.137880430,-0.000263750,-0.024180110
1640833598.684729,-0.174876470,0.669013740,9.762946130,-0.069084760,0.011272730,0.024048980
1640833598.689110,0.018441930,0.387118760,9.409717560,-0.223200050,0.040306160,0.043536730
1640833598.690410,-0.240045740,-0.359900470,10.397894860,-0.075325380,0.044518710,0.032117970
1640833598.693830,-0.152550100,-0.172675540,9.915286060,0.159655510,0.038425630,-0.001907350
1640833598.694730,-0.066020380,0.157491680,9.666063310,0.145317630,-0.034686920,-0.015524030
1640833598.698680,-0.077925640,0.322101090,9.991772650,-0.092655430,0.062885890,0.027966500
1640833598.699740,-0.047462350,0.174826250,9.911678310,-0.194472070,0.092747810,0.023053590
1640833598.703750,-0.323009340,-0.395823030,10.781937600,0.000940260,-0.035245710,-0.009855630
1640833598.704800,-0.458301130,0.092758100,10.112607960,0.203409810,-0.030769410,-0.018413370
1640833598.708760,-0.226125910,0.821011420,9.061529160,0.099852680,-0.037184360,-0.017330050
1640833598.709770,-0.371700560,0.854140700,10.057390210,-0.162535890,0.071643280,0.017268950
1640833598.714190,-0.260863360,0.705947940,10.387248990,-0.200814050,0.095562650,0.039434430
1640833598.714710,0.039052970,0.284264830,10.413932800,0.043469670,-0.044155120,0.009530780
1640833598.718740,-0.114066970,0.377358050,10.293350220,0.175310660,-0.029359760,0.006210800
1640833598.719720,0.141500150,0.778330980,9.306997300,0.017412010,0.027292970,0.028580430
1640833598.726620,-0.004602870,0.414588630,10.040634160,-0.205549600,0.037209690,0.042678410
1640833598.727079,-0.036135710,-0.221371530,10.355600360,-0.173504670,0.026874250,0.041766470
1640833598.728690,0.316826050,-0.334189980,9.608732220,0.075834990,0.015877190,0.003023450
1640833598.729780,-0.066847070,-0.024230090,10.091176990,0.153650340,0.033847990,-0.016805530
1640833598.733880,-0.147664620,0.471936730,9.932475090,-0.044561930,0.018139180,0.007854400
1640833598.735080,-0.157745260,0.451771500,9.808329580,-0.203464930,0.014123320,0.041124220
1640833598.739050,-0.370604720,-0.104502830,10.168902400,-0.116749120,0.012953580,0.021125380
1640833598.739990,-0.093133340,-0.053377670,9.717196460,0.112840530,0.036875910,-0.004872680
1640833598.743749,-0.080895210,0.470805110,9.640419010,0.155185150,0.036875900,-0.014522670
1640833598.744710,-0.026832520,0.545651020,9.982440950,-0.071182840,0.047878910,0.007480380
1640833598.748690,0.048899660,0.173580900,10.175070760,-0.182312770,0.059558460,0.043132910
1640833598.749709,-0.162529080,-0.512829010,10.168318750,-0.020122530,-0.016741450,0.005845730
1640833598.753690,-0.152968020,-0.625636700,9.827616690,0.198097540,-0.037659700,-0.015150010
1640833598.754819,-0.108216380,0.092119710,9.205510140,0.156499450,0.056353220,-0.002948940
1640833598.758790,-0.294673620,0.000608740,9.896747590,-0.085501380,0.081434850,0.000377000
1640833598.760330,-0.353429940,-0.303294570,10.722266200,-0.106719140,0.018604100,0.024019180
1640833598.763720,-0.329295070,-0.142673810,10.012399670,0.113917890,-0.051426890,-0.007906560
1640833598.764740,-0.392124060,0.178131490,9.798623090,0.218817610,-0.062093140,-0.023075940
1640833598.768740,-0.316113410,0.864087520,9.631335260,0.078266860,0.052046780,0.019969050
1640833598.769760,-0.393314180,0.793230000,9.992981910,-0.090332340,0.055173040,0.003214180
1640833598.773790,-0.258692290,0.249672710,10.639770510,-0.042241820,-0.043484570,0.015072530
1640833598.774740,0.013849270,0.358311000,9.835057260,0.164520760,-0.052349280,0.010530650
1640833598.778699,0.048985470,0.511439980,9.627439500,0.164987160,-0.008976460,-0.008650120
1640833598.779790,-0.029198750,0.529010240,10.271242140,-0.035987790,0.043356420,0.018210710
1640833598.783700,-0.215882840,0.170235630,10.442596440,-0.081229210,-0.002472100,0.028477610
1640833598.784690,-0.140946600,-0.300373850,10.260980610,0.042352080,-0.109402840,0.005991760
1640833598.788859,-0.047523470,0.148767100,9.540326120,0.147226450,-0.022077560,-0.007458030
1640833598.792780,-0.231298830,0.651151240,9.754631040,0.050438940,0.038771330,-0.003193320
1640833598.793670,-0.160979990,0.634698870,10.386544230,-0.115934010,0.029461090,-0.002302230
1640833598.794750,-0.307399270,0.514971730,10.508177760,-0.066661840,-0.032305720,0.021173060
1640833598.798750,-0.173643920,0.343112830,9.958653450,0.082646320,-0.093190360,0.007869300
1640833598.799729,0.031719950,0.596101700,9.347293850,0.085766620,-0.004094840,-0.001320240
1640833598.803680,-0.053833340,0.745956180,9.854730610,-0.042548780,0.039543210,0.024624170
1640833598.804960,0.276512830,0.289114830,9.991661070,-0.139094890,0.066259510,0.031481680
1640833598.808780,0.168767940,-0.306846140,10.353130340,-0.034873190,-0.006914140,0.011366610
1640833598.810370,0.048201870,-0.555327000,10.226018910,0.134934500,-0.047066810,0.008310380
1640833598.813760,-0.050180890,-0.209039960,9.356583600,0.109358140,-0.039234750,-0.012098250
1640833598.815100,-0.373028160,-0.072262930,9.666659360,-0.061662500,-0.013148780,0.001931190
1640833598.818679,-0.166253540,-0.097396190,9.642008780,-0.135037320,0.097990040,0.010725860
1640833598.819779,-0.142323340,-0.313369130,10.142292020,0.049263240,0.053194170,-0.002960860
1640833598.823830,-0.408364420,-0.118802060,10.854292870,0.234273090,-0.047631560,-0.018833580
1640833598.824750,-0.148939850,0.659672140,9.325830460,0.150373550,-0.057303910,0.006842610
1640833598.828650,-0.282768990,0.469522090,9.331582070,-0.073434420,-0.034916400,0.018121300
1640833598.829749,-0.168413910,-0.024678130,9.919935230,-0.096422460,0.110568120,0.012634700
1640833598.833809,-0.027370490,-0.208014160,10.041674610,0.160327570,0.047482550,-0.022460520
1640833598.834760,-0.144438550,-0.084630520,10.496110920,0.308546420,-0.097769520,-0.048784910
1640833598.839040,0.115804440,0.519879700,9.300692560,0.103922200,-0.005249680,0.001290440
1640833598.839840,-0.123652560,0.202679130,9.614809990,-0.105097900,0.025962300,0.014472010
1640833598.843760,-0.501226720,-0.607008760,10.903493880,0.004965070,0.002832710,-0.004145500
1640833598.844760,-0.371587840,-0.351066530,9.840452190,0.301615890,-0.065933180,-0.038822000
1640833598.848850,-0.361557540,0.433987650,9.455932620,0.318668810,-0.105141130,-0.051529710
1640833598.849720,-0.211151690,0.863804700,9.691027640,-0.014515220,0.098370020,-0.006990140
1640833598.853700,-0.300974880,0.716489020,10.522724150,-0.132346150,0.052490830,0.008156900
1640833598.854960,-0.372892800,0.201385600,11.011300090,0.103721030,-0.124420230,-0.019885600
1640833598.859949,-0.088600400,0.496200410,9.475734710,0.315262380,-0.105144100,-0.036677720
1640833598.860489,0.054902800,1.323936220,9.075622560,0.175806890,-0.018903610,-0.017671290
1640833598.863720,-0.029037240,0.949157300,10.209796910,-0.148034110,0.103305280,0.009366870
1640833598.864719,0.045763600,0.282175330,10.734937670,-0.131860380,0.001551210,0.007075070
1640833598.868670,0.117546040,0.022386620,10.312407490,0.165688960,-0.116328900,-0.024457280
1640833598.869740,-0.098630610,0.039706350,9.674224850,0.245381940,-0.061190140,-0.049367550
1640833598.873860,-0.324377300,0.635272560,9.616845130,0.037978580,0.000330810,-0.023071470
1640833598.874800,-0.383356840,0.514261900,9.902911190,-0.187586230,-0.002986190,-0.000089410
1640833598.878950,-0.171646890,-0.155163390,10.148437500,-0.112172960,-0.005348030,0.005225840
1640833598.880770,0.114815620,0.167619780,9.912300110,0.170658540,0.040914120,-0.029245020
1640833598.883679,-0.168614660,0.471657160,10.298035620,0.208170710,-0.025022030,-0.045372550
1640833598.884800,-0.154141900,0.663139050,10.113085750,-0.025513770,-0.079254810,0.007563830
1640833598.888780,0.015873170,0.469485850,9.168537140,-0.164930510,-0.021959840,0.013294820
1640833598.889819,0.135471120,-0.398120760,9.632967000,-0.055822730,0.033551450,-0.017060340
1640833598.893689,0.189599320,-0.132000880,10.163798330,0.186870960,0.110445920,-0.041154020
1640833598.895110,0.002060090,0.400370300,10.114373210,0.177013860,-0.016099210,-0.063908090
1640833598.898690,-0.089504730,0.199141430,10.108676910,-0.064595040,-0.082367660,-0.019435590
1640833598.899760,-0.280461400,-0.133089560,9.505624770,-0.116835540,0.011296570,-0.007677080
1640833598.903689,-0.433170200,-0.680129590,9.608070370,0.079445530,-0.010778010,-0.054827330
1640833598.906370,-0.452540220,-0.190025430,9.977871890,0.242303340,0.013226270,-0.058068340
1640833598.909279,-0.250498620,0.708821770,9.581787110,0.119198870,0.032103060,-0.042741000
1640833598.909850,-0.137099620,0.378914710,10.272654530,-0.101445620,0.024126470,-0.009720030
1640833598.913730,-0.313004050,0.014748530,10.561167720,-0.020080800,-0.028142330,-0.004990400
1640833598.914940,-0.149383740,-0.045478010,9.635188100,0.220417980,-0.109791760,-0.042946640
1640833598.918660,-0.055886190,0.427020010,9.206188200,0.220693650,-0.025701520,-0.047136840
1640833598.919770,-0.075911780,0.772201300,9.712520600,0.002361830,0.086469960,-0.023548310
1640833598.923820,-0.101094010,0.307031720,10.563938140,-0.110326690,0.051315130,-0.018548960
1640833598.924939,-0.216502880,-0.024009180,10.737899780,0.066192460,-0.100243090,-0.034900010
1640833598.928740,-0.145554960,0.159542340,9.698454860,0.247097030,-0.114673380,-0.038734080
1640833598.929780,-0.270501460,0.649014230,9.232823370,0.124570730,0.010670720,-0.034242870
1640833598.933660,-0.487511340,0.732245740,10.097896580,-0.091591480,0.029256940,-0.012794140
1640833598.934710,-0.426629540,0.257215920,10.537217140,-0.082030890,-0.014954810,0.012373920
1640833598.938769,-0.141583220,0.257512390,9.935949330,0.110070410,-0.093485410,-0.021603710
1640833598.939760,0.011965440,0.524336930,9.795063970,0.185479220,-0.045953690,-0.028900800
1640833598.945720,0.052121740,0.910973910,9.822649960,0.008663530,0.065806500,-0.016507500
1640833598.946220,-0.041114180,0.707252860,10.298397060,-0.147838910,-0.024431950,-0.004529950
1640833598.948710,-0.117552470,0.055703160,10.454442980,-0.053231430,-0.084052990,0.017154220
1640833598.949720,0.191146790,0.138830240,9.045351030,0.109437120,-0.046470770,-0.020690270
1640833598.954120,0.074039470,0.280234580,9.559764860,0.103677830,0.015230480,-0.027070940
1640833598.958799,-0.052507660,0.321044390,10.196779250,-0.054873530,0.087754420,-0.000093880
1640833598.960199,0.004727670,0.176054780,9.975637440,-0.111353400,-0.014375150,0.000324850
1640833598.960810,-0.265958100,-0.428326160,10.489970210,0.008614360,-0.075565280,-0.000932810
1640833598.963750,-0.273730490,-0.125902590,9.414922710,0.127293140,-0.028586390,-0.014097990
1640833598.965060,-0.300369290,0.273214880,9.237548830,0.093972690,-0.040607150,-0.025758150
1640833598.968720,-0.251324860,0.218595270,9.884687420,-0.074388090,0.081063810,-0.013309720
1640833598.969810,-0.064041640,0.213977720,9.897870060,-0.077117980,0.073759270,-0.013257560
1640833598.973870,-0.141731740,-0.196806760,10.638056760,0.092045960,-0.071498760,-0.040152670
1640833598.975100,-0.109575930,0.085817610,9.739955900,0.172109870,-0.058795520,-0.028193000
1640833598.980650,-0.042353340,0.444932850,8.929968830,0.067439680,-0.037869800,-0.013700130
1640833598.981400,-0.158037950,-0.072124100,9.919728280,-0.085611640,0.078573830,-0.018453590
1640833598.983670,-0.193123160,-0.230124770,10.230624200,-0.013814870,0.059701510,-0.015500190
1640833598.984779,-0.172738640,-0.270420070,10.265456200,0.198730860,-0.097350780,-0.035901370
1640833598.988750,-0.282930730,0.218819660,9.803852080,0.175257030,-0.063228610,-0.031995770
1640833598.990680,-0.241745550,0.708059130,9.337655070,-0.010508300,-0.004214050,-0.002288820
1640833598.994550,-0.410161550,0.312042120,10.270727160,-0.084032130,0.040245060,-0.017589330
1640833598.995920,-0.567239400,0.126880680,10.568085670,0.071041290,-0.034640730,-0.028774140
1640833598.998839,-0.091713080,0.608115020,9.596144680,0.221300130,-0.109638290,-0.024390220
1640833599.000510,-0.035266310,0.944314600,9.503451350,0.072051580,0.000998380,-0.034682450
1640833599.003759,0.022705300,0.950289960,10.010064130,-0.139981510,0.048279770,0.005052980
1640833599.005030,0.136591210,0.433536050,10.316321370,-0.083841380,0.003841520,-0.000962620
1640833599.008950,-0.010907520,-0.012150360,10.328203200,0.114412610,-0.096003720,-0.024077300
1640833599.009980,0.182502270,0.437139240,9.535953520,0.164635450,-0.042138990,-0.004071000
1640833599.014789,-0.027148830,0.639434520,9.506834030,-0.027483700,0.033521660,-0.008022790
1640833599.016620,-0.175528990,0.142651620,10.258202550,-0.192534920,0.008642670,0.005039570
1640833599.018630,0.043720190,0.002692700,9.785183910,-0.043907760,0.017292800,0.001814960
1640833599.019770,-0.125371100,-0.181540500,9.768660550,0.143001990,-0.009949510,-0.044889750
1640833599.024240,-0.268586070,0.252312480,10.115057950,0.120416280,-0.008091330,-0.034223500
1640833599.025780,-0.252167520,0.743503210,9.473204610,-0.064665090,-0.007317960,0.000756980
1640833599.028890,-0.207883950,0.090489600,9.659490590,-0.178098650,-0.022266810,-0.009174650
1640833599.029749,-0.008660190,0.006241090,9.845410350,-0.027339160,0.084252660,-0.007213650
1640833599.033670,0.065814320,0.047479400,9.778249740,0.180321950,0.061540310,-0.041815640
1640833599.034740,-0.058842620,0.232522860,10.316493030,0.132159900,-0.052395460,-0.040008130
1640833599.038990,-0.000323170,0.591962580,9.442454340,-0.076548760,-0.015807150,0.016801060
1640833599.040290,-0.127875180,-0.294834970,9.404027940,-0.145928580,0.015406310,0.009188060
1640833599.044989,-0.374271060,-0.645484450,10.272111890,0.048553940,0.030882660,-0.028736890
1640833599.045610,-0.281035870,-0.103859690,9.758340840,0.247904670,0.017851590,-0.046069920
1640833599.048699,-0.306015880,0.314625440,9.851676940,0.104816260,-0.032165640,-0.052225590
1640833599.049770,-0.294501810,0.643922510,9.905735020,-0.121568140,0.025226180,-0.005181130
1640833599.053740,-0.383151890,0.230815440,9.977346420,-0.097586210,0.009050960,-0.013795490
1640833599.054860,-0.464327720,0.120257870,10.214622500,0.125521420,-0.074912620,-0.024846200
1640833599.058810,-0.227321520,0.608406660,9.443182950,0.231680300,-0.043064360,-0.030688950
1640833599.059890,-0.134860650,1.014154430,9.498538020,0.021339950,0.031162800,-0.020480160
1640833599.063730,-0.085346800,0.855761890,10.370281220,-0.192354620,0.045676530,0.019039220
1640833599.064720,-0.056674740,0.216371270,10.534183500,-0.086012480,-0.033305590,0.004385410
1640833599.068679,0.092381090,0.158163340,9.730960850,0.137986260,-0.087730590,-0.031901900
1640833599.069810,0.051237930,0.406786950,9.267137530,0.152784600,-0.016121570,-0.031574070
1640833599.074010,-0.296256120,0.629814090,9.831676480,-0.070479520,0.040519240,-0.016814470
1640833599.074760,-0.339549210,0.358690170,10.080929760,-0.214123730,-0.035111610,0.004146990
1640833599.078680,-0.300303670,-0.227196220,10.094350810,-0.057408210,-0.067681070,-0.008982420
1640833599.079840,-0.087855730,0.035187330,9.533228870,0.135983530,0.013318660,-0.034797190
1640833599.083660,-0.131557300,0.536659960,9.712013240,0.089038890,0.009104610,-0.038112700
1640833599.084730,-0.073354750,0.557795640,10.120857240,-0.111268470,0.004997850,-0.002858040
1640833599.088729,0.061123920,0.269987310,9.668721200,-0.180886730,-0.005055970,0.003412370
1640833599.090040,-0.079720740,-0.279377580,10.019341470,0.000718240,-0.073845690,-0.023466350
1640833599.094529,-0.010373040,-0.069102860,9.429354670,0.150342300,-0.001208480,-0.030711290
1640833599.095039,-0.014511220,0.444286230,9.155921940,0.043781110,0.015680490,-0.044924020
1640833599.098699,-0.216134190,0.135472480,10.381118770,-0.150011490,0.041070580,-0.025607650
1640833599.099759,-0.208678130,-0.197138770,10.071704860,-0.105796750,0.005860630,-0.016801060
1640833599.103720,-0.320315000,-0.419071230,9.964238170,0.123250480,-0.119504350,-0.048828140
1640833599.105610,-0.429978460,0.012619970,9.612708090,0.167603810,-0.021003190,-0.024801500
1640833599.108709,-0.319855960,0.591612760,9.168784140,-0.019715730,0.031279030,-0.022704900
1640833599.110669,-0.419017200,0.207933490,10.410048480,-0.146324930,0.019378960,-0.020784140
1640833599.113740,-0.284352570,0.117379700,10.236185070,-0.011914970,-0.019265710,-0.023443990
1640833599.114730,0.065880190,0.504296480,9.464092250,0.169168410,-0.108988590,-0.051149730
1640833599.118830,-0.057893600,0.755751310,9.783494950,0.077921160,0.006213780,-0.029802320
1640833599.119760,-0.037402190,0.929155650,9.731131550,-0.120450570,0.052209200,0.005236270
1640833599.123819,-0.129545300,0.244885920,10.494109150,-0.116896640,-0.045374040,-0.007864830
1640833599.124770,-0.248457910,-0.120436150,10.210270880,0.047549610,-0.083476310,-0.023536380
1640833599.128650,0.087640230,0.368568510,9.024073600,0.131985550,-0.063069160,-0.026790800
1640833599.129870,-0.220267890,0.540555240,9.836646080,-0.044432270,0.051018590,-0.027897950
1640833599.133829,-0.206707750,0.478397490,10.204967500,-0.207135130,0.027029220,0.004352630
1640833599.136040,-0.016488440,0.095400940,10.108043670,-0.068737570,-0.050818920,0.006088610
1640833599.139089,-0.222882490,-0.031344740,10.070882800,0.105549410,-0.069870070,-0.027896470
1640833599.140060,0.016721080,0.609103800,9.316712380,0.073866550,-0.031317770,-0.000195210
1640833599.143720,-0.048696380,0.767540040,9.540875430,-0.130803880,0.036872930,0.014431780
1640833599.144760,0.039981780,0.203393400,10.038425450,-0.220160230,0.033164020,0.016924740
1640833599.148749,0.286036070,-0.098775680,9.920661930,-0.007933380,0.026074050,0.014975670
1640833599.149809,0.040902280,-0.139773290,9.900662420,0.154893100,-0.033172970,-0.042231380
1640833599.153740,-0.108648370,0.234993200,9.706919670,0.034384430,-0.050909810,-0.014695520
1640833599.156070,-0.143622960,0.287701550,9.301211360,-0.170537840,0.036709010,0.026921930
1640833599.159400,-0.262285290,-0.481235060,9.839363100,-0.172828140,0.036858020,-0.014600160
1640833599.159960,-0.216965510,-0.454165550,10.107334140,0.081256020,0.037142630,-0.008857250
1640833599.163760,-0.102121520,0.083101180,9.460879330,0.207023320,-0.004532930,-0.033670670
1640833599.164820,-0.193023550,0.308013890,9.775848390,0.013616680,-0.011001530,-0.008428100
1640833599.168650,-0.267643960,0.287593480,9.943634990,-0.148911770,0.043591860,0.037871300
1640833599.169760,-0.199996720,-0.317667100,9.641509060,-0.044341380,-0.008779760,-0.004592540
1640833599.176380,-0.221747820,-0.244843450,9.927960400,0.173540410,-0.038196150,-0.027388340
1640833599.176820,-0.019547620,0.677710350,9.206743240,0.169408320,0.050853200,-0.032348930
1640833599.180620,-0.181221740,0.595944520,9.850630760,-0.066243120,0.038793690,-0.018699470
1640833599.181259,-0.353080450,0.198915970,10.600987430,-0.122804950,-0.007876750,0.010785460
1640833599.183810,-0.224017810,-0.066602110,9.586545940,0.076065960,-0.055833170,-0.019449000
1640833599.184769,-0.310133870,0.088613230,9.597095490,0.191533570,-0.057147450,-0.024136900
1640833599.189060,-0.279221420,0.812983330,9.551544190,0.044977670,0.064626340,-0.001963970
1640833599.189849,-0.305005460,0.615106170,10.031229970,-0.144635160,0.040149690,0.009639560
1640833599.194660,-0.229635270,0.053929230,10.535841940,-0.086231510,-0.060905510,0.019484760
1640833599.195040,0.011511880,0.141520890,9.542879100,0.138972710,-0.031882520,-0.004079940
1640833599.198989,-0.089627570,0.408675340,9.563549040,0.141865020,-0.015750530,-0.018696490
1640833599.200019,-0.163827930,0.749415640,9.955714230,-0.075420720,0.014565880,0.000183280
1640833599.203699,-0.196634640,0.473082240,9.935520170,-0.179559010,-0.010803340,0.015817580
1640833599.205340,-0.048206150,0.023127110,9.867959020,-0.053142010,-0.058549640,0.001682340
1640833599.209430,0.049131810,0.183237750,9.591670990,0.128455460,0.018526610,-0.019890070
1640833599.209990,-0.093774010,0.594769300,9.745524410,0.064119680,0.030177830,-0.009289380
1640833599.213690,-0.185631720,0.645811800,9.987640380,-0.143265740,-0.016295910,0.018025930
1640833599.215570,-0.248579520,0.084146740,9.908052440,-0.166080910,-0.034411250,0.035132470
1640833599.218700,-0.060363850,-0.273230080,9.408061980,0.010719900,-0.025080150,0.011684000
1640833599.219820,-0.099692330,-0.147558180,9.571855550,0.134933010,0.031863150,-0.021120910
1640833599.223750,-0.058937920,0.260915220,9.790517810,0.023247300,0.053688880,-0.006137790
1640833599.226070,0.099634790,0.225824460,9.647494320,-0.157023980,0.005511940,0.013098120
1640833599.228649,-0.127623560,-0.432762500,10.158598900,-0.094522540,-0.003322960,0.004635750
1640833599.230019,-0.092553960,-0.376948680,9.604692460,0.109867770,-0.018768010,-0.002609190
1640833599.233670,-0.165999200,0.005447460,9.297665600,0.170932710,-0.039230290,-0.023753940
1640833599.234730,-0.147758140,0.233510760,9.503338810,-0.004118680,0.062002250,-0.015950210
1640833599.238790,-0.080382350,0.321689400,9.644308090,-0.134141760,0.107668350,0.004477800
1640833599.239820,-0.431434450,-0.354841050,10.726696970,0.007712840,-0.043947990,-0.017376250
1640833599.243650,-0.272037680,-0.090538380,9.664816860,0.198765080,-0.083161880,-0.013580920
1640833599.244799,-0.205038530,0.441022630,8.684986110,0.155112130,-0.031228360,-0.008253750
1640833599.248800,-0.376404230,0.140566920,9.915642740,-0.051712990,0.091040130,0.008155410
1640833599.249859,-0.227115010,0.056789300,10.051568030,-0.070579350,0.079432140,0.012880560
1640833599.253680,-0.176794720,-0.246954260,10.287856100,0.131160020,-0.112156580,-0.026932360
1640833599.255479,-0.042958270,0.208507660,9.638140680,0.196427110,-0.044305630,-0.015158950
1640833599.259330,-0.010140940,0.863539990,8.954731940,0.064159940,0.023208560,-0.003311040
1640833599.259909,-0.324954660,0.386254250,10.435302730,-0.096523770,0.025488440,0.001324710
1640833599.263680,-0.251927820,0.255308210,10.204350470,-0.017338990,-0.000159440,0.017200410
1640833599.264750,-0.088224320,0.269006130,9.641341210,0.179870440,-0.106404720,-0.016753380
1640833599.268700,-0.269954710,0.639481840,9.797962190,0.122779610,-0.003060700,-0.020442900
1640833599.269810,-0.103085580,1.040622950,9.349330900,-0.086990010,0.036184490,0.016026200
1640833599.273830,-0.062278550,0.449750660,10.234883310,-0.145976260,-0.000511110,0.011599070
1640833599.274799,-0.059382500,0.041581240,10.275504110,0.016456840,0.009723010,0.010016560
1640833599.278970,0.154472530,0.353747130,9.513551710,0.177273150,-0.053991380,-0.008483230
1640833599.280670,-0.227626280,0.627156380,10.029476170,0.025801360,-0.006616120,-0.012087820
1640833599.285070,-0.180215640,0.627252580,9.695994380,-0.196541860,-0.002217290,0.037163500
1640833599.285719,0.089738290,0.119729430,9.641614910,-0.147517040,0.006924570,0.031213460
1640833599.289019,-0.021211540,-0.159007880,9.966405870,0.059810290,0.054444380,-0.013177100
1640833599.290190,0.044143310,0.355355680,9.756814000,0.143854320,0.018626450,-0.005087260
1640833599.293680,-0.185059550,0.658368770,9.820132260,-0.041744110,-0.016510490,0.011423230
1640833599.296300,-0.245165330,0.154066430,9.671064380,-0.232672710,-0.021688640,0.047163670
1640833599.298660,-0.089731610,-0.281405690,9.395565990,-0.084398690,0.038465860,0.041514640
1640833599.299770,-0.132155880,-0.298881920,9.701388360,0.137750800,0.060877210,-0.028799470
1640833599.303609,-0.016987730,0.289992360,10.023422240,0.110554700,0.040362780,-0.019644200
1640833599.305430,-0.015570300,0.665103140,9.695320130,-0.101405390,0.049105290,0.026558340
1640833599.309729,-0.157827720,-0.240732010,9.976447110,-0.189639640,-0.019837920,0.021120910
1640833599.310299,-0.238221050,-0.475190160,9.736186980,0.053587560,-0.033819680,0.024880470
1640833599.313740,-0.143372770,-0.123094570,8.751626010,0.217786480,0.005196040,-0.021119420
1640833599.315860,-0.151857290,0.224360700,9.578656200,0.051642960,0.083737080,-0.000041720
1640833599.318650,-0.257899550,0.387756470,10.361110690,-0.138171030,0.117069490,0.039072330
1640833599.319810,-0.234635870,-0.301335960,10.293391230,-0.067016490,-0.059604640,0.005576010
1640833599.323789,-0.270449400,-0.225135860,9.918462750,0.162652180,-0.101912020,-0.001597400
1640833599.326079,-0.243433430,0.436779530,8.764615060,0.189611330,0.027556720,-0.005769730
1640833599.328709,-0.327583700,0.420410840,9.556213380,-0.025181480,0.071939830,-0.006091600
1640833599.329810,-0.421417770,0.347281460,10.485844610,-0.102771830,0.047169630,0.029230120
1640833599.333730,-0.080773700,0.096966470,9.815250400,0.039353970,-0.065127020,0.007572770
1640833599.334829,0.026636240,0.262747440,9.709184650,0.159533370,-0.058241200,-0.003276770
1640833599.338770,-0.169945060,0.748224020,9.644370080,0.083635750,0.057531900,0.011737650
1640833599.339830,-0.307192560,0.488847760,10.082471850,-0.078119340,0.007803740,0.003130730
1640833599.343890,-0.453145890,0.137811810,10.294207570,-0.047855080,-0.072570150,0.024198000
1640833599.345850,-0.145524580,0.291133430,9.278800010,0.084789100,-0.060081480,0.001652540
1640833599.348790,-0.112277190,0.648152710,9.451299670,0.060626860,0.030760470,-0.007535520
1640833599.349750,-0.282046530,0.805617330,10.277292250,-0.067895650,0.030329830,0.015343730
1640833599.353680,-0.169203300,0.507327320,10.227105140,-0.098519050,-0.036232170,0.028041010
1640833599.354750,-0.054762880,0.283890840,9.858952520,-0.008688870,-0.074645880,0.038962070
1640833599.358840,-0.042434060,0.371522930,9.602363590,0.046402220,-0.025576350,0.017584860
1640833599.360060,-0.003508220,0.666336480,9.614269260,-0.045953690,0.036022070,0.020298360
1640833599.363740,0.027130970,0.518696490,9.899853710,-0.151695330,-0.009727480,0.024876000
1640833599.364740,0.122397810,0.029220420,9.948214530,-0.096178050,0.005124510,0.025616590
1640833599.368680,0.182343650,-0.004059850,9.579465870,0.026302040,0.008410210,0.010575350
1640833599.369799,-0.191085700,0.117745740,9.988811490,0.040677180,-0.031296910,0.000433620
1640833599.373999,-0.246230270,0.399820420,9.682898520,-0.094896560,-0.008444490,0.030438600
1640833599.374920,-0.194707050,0.254744860,9.315266610,-0.188791800,-0.027383870,0.033259400
1640833599.381189,-0.167391750,-0.228048280,9.841188430,-0.075829010,0.047038490,0.026401880
1640833599.381880,0.084215010,0.011746470,9.596657750,0.087673970,0.092689680,0.004680460
1640833599.383620,-0.056483110,0.355420950,10.018237110,0.063940890,-0.034350160,0.002479550
1640833599.384790,-0.061500150,0.324076770,9.807534220,-0.113822530,-0.001019240,0.049752000
1640833599.389000,0.065669990,0.047922680,9.080532070,-0.159619750,0.010538100,0.035169720
1640833599.389959,-0.205858560,-0.488284320,10.017876630,0.011034310,0.006434320,0.001460310
1640833599.394349,-0.054110810,-0.137225790,9.444705960,0.143267210,0.062812870,-0.009234250
1640833599.395439,-0.071578980,0.398587440,9.383489610,0.046612310,0.001458820,-0.019274650
1640833599.398680,-0.272358480,0.170819970,10.173535350,-0.143316390,0.054062910,0.020901860
1640833599.399829,-0.320556070,-0.109464180,9.765407560,-0.089129810,0.011561810,0.022506720
1640833599.403630,-0.547772290,-0.396653120,9.972240450,0.146539480,-0.100313120,0.003089010
1640833599.405110,-0.467635450,0.040158200,9.301738740,0.177744080,0.001059470,-0.005240740
1640833599.408900,-0.280428920,0.595002650,9.151856420,0.002163650,0.048065190,0.013376770
1640833599.409799,-0.414476810,0.216908870,10.598427770,-0.147865730,0.053773820,0.014869870
1640833599.413780,-0.148813520,0.137467340,10.260798450,-0.011511150,-0.039863590,0.011676550
1640833599.414929,0.063508050,0.368125050,9.520940780,0.190013660,-0.106635690,-0.012743470
1640833599.418690,-0.055980150,0.638101880,9.462197300,0.097319490,0.033792860,-0.021691620
1640833599.419780,-0.151658910,0.933569490,9.791554450,-0.085555000,0.033243000,0.021371240
1640833599.423920,-0.328533980,0.389178400,10.348841670,-0.117440540,-0.054067380,0.014983120
1640833599.425350,-0.263215120,0.179809080,9.800897600,0.019758940,-0.082711880,-0.002406540
1640833599.428720,-0.177917820,0.660669510,9.313423160,0.115510840,-0.041058670,-0.003789370
1640833599.429829,-0.447527050,0.630072060,9.977347370,-0.022302570,0.036604710,-0.016620760
1640833599.433640,-0.372762830,0.549647870,10.388630870,-0.153034940,-0.018288200,0.021965800
1640833599.434820,-0.097328950,0.263919170,9.826999660,-0.076356530,-0.062154240,0.024561580
1640833599.439129,0.002239250,0.058511630,9.689214710,0.018849970,-0.038942700,-0.023624310
1640833599.440660,0.093959460,0.669087830,9.645936010,0.012025240,0.021913650,0.008694830
1640833599.443709,0.041363660,0.622666840,9.661446570,-0.110436960,-0.010073180,0.018534060
1640833599.445040,0.201221960,0.140970620,9.949639320,-0.168915110,-0.040477510,0.025424370
1640833599.448850,0.278505680,0.202698600,9.574097630,-0.029593710,0.037701430,0.034017860
1640833599.449829,0.035494710,0.087950230,9.905467990,0.028476120,-0.013658410,-0.019653140
1640833599.453680,-0.143156600,0.449647670,10.129163740,-0.067056700,-0.014948840,0.004228950
1640833599.454919,-0.201304440,0.465653750,9.262900350,-0.166860220,-0.004380940,0.023905930
1640833599.458870,-0.095400350,-0.314858590,9.505718230,-0.136071460,0.008393830,0.000420210
1640833599.459869,-0.153651130,-0.160477920,9.785509110,0.037601590,0.086113800,-0.000856820
1640833599.463660,-0.229930640,0.137509240,9.701560020,0.069570540,-0.017584860,-0.009012220
1640833599.464820,-0.154354230,0.080094710,9.878337860,-0.100752710,-0.027531390,0.017099080
1640833599.468619,-0.251280340,-0.044492000,9.582510950,-0.156326610,0.042141980,0.026518110
1640833599.469900,-0.143358360,-0.624591830,9.710227970,-0.001896920,0.006462630,-0.006787480
1640833599.473860,-0.116450270,-0.281652450,9.737626080,0.145444270,0.030288110,-0.030177840
1640833599.474769,0.017382620,0.504753230,9.349926950,0.041662150,0.022551420,-0.020052490
1640833599.478680,0.067050400,0.242532760,9.845830920,-0.155596440,0.055819760,0.006881360
1640833599.479849,-0.383116220,-0.184859410,10.475746150,-0.074629490,0.010223690,0.004030760
1640833599.483630,-0.341590580,-0.253518430,9.680060390,0.152046990,-0.086110830,-0.018545990
1640833599.484759,-0.318474050,0.182688090,9.015463830,0.167177620,-0.020174680,-0.031308830
1640833599.489189,-0.417411680,0.612309040,9.498546600,-0.050167750,0.093878810,-0.004084410
1640833599.490440,-0.289167730,0.216397350,10.299304010,-0.150004040,0.082096460,0.003728270
1640833599.493660,-0.419614730,-0.189271850,10.583413120,0.039510430,-0.090458990,-0.022292140
1640833599.494799,-0.244472380,0.116789650,9.532697680,0.218093410,-0.104969740,-0.028619170
1640833599.498680,-0.120122860,0.754742150,8.911602970,0.078003120,0.028005240,-0.036661330
1640833599.499869,-0.445371180,0.717911420,10.315422060,-0.145386160,0.043590370,-0.007620450
1640833599.503929,-0.248251620,0.396667420,10.363886830,-0.124274190,-0.011207160,0.009363890
1640833599.504799,0.064765110,0.225397780,9.499647140,0.090247390,-0.115182980,-0.033563370
1640833599.508819,0.021923950,0.381287400,9.648110390,0.146831590,-0.007195770,-0.024440880
1640833599.510330,0.041886990,0.759006080,9.449715610,-0.026758020,0.091119120,-0.007475910
1640833599.513769,-0.298120980,0.297681960,10.475457190,-0.158301010,-0.066758690,-0.005753340
1640833599.514910,-0.286268380,-0.087092000,10.103077890,-0.084751830,-0.077471130,0.004355610
1640833599.518770,0.023025320,0.091741900,8.724973680,0.072516510,-0.046308350,-0.038254270
1640833599.519800,-0.248634250,0.263570730,9.856857300,0.060582160,0.038942690,-0.044499330
1640833599.523800,-0.085510560,0.557832420,9.785976410,-0.081130860,0.074702510,-0.007140640
1640833599.525869,-0.019223700,0.165134220,9.963149070,-0.107935070,-0.054575510,-0.003764030
1640833599.528669,-0.243742260,-0.373346300,10.150918010,-0.009050970,-0.056950750,0.004111230
1640833599.529800,-0.004851280,-0.126312690,8.986824990,0.116802770,-0.043642520,-0.010970240
1640833599.533890,-0.231996640,-0.036224920,9.466639520,0.056320430,-0.015634290,-0.022174410
1640833599.535940,-0.099971560,0.020797210,9.674188610,-0.089781000,0.077466690,-0.012202560
1640833599.538830,-0.011769470,-0.110815750,10.005554200,-0.048778950,0.027988850,-0.018808250
1640833599.539850,-0.269041060,-0.329747440,10.363308910,0.085572900,-0.070627030,-0.038877130
1640833599.543660,-0.162175310,0.111697430,9.345342640,0.154206170,-0.083336220,-0.025175510
1640833599.544800,-0.331155540,0.390413760,9.063551900,0.056174400,-0.027838350,-0.021462140
1640833599.548740,-0.365255500,0.153430430,9.635156630,-0.086788820,0.050099190,-0.019009410
1640833599.549880,-0.300415100,-0.009553130,10.214927670,0.007194280,0.043267000,-0.020453340
1640833599.553720,-0.332571690,0.073254180,10.198631290,0.163432990,-0.088138890,-0.043492020
1640833599.555189,-0.150148150,0.430484440,9.633642200,0.125767280,-0.091475230,-0.029470020
1640833599.559020,-0.125762050,0.734869840,9.326104160,-0.027124580,0.012819470,-0.003981590
1640833599.559830,-0.246203060,0.193053680,9.964127540,-0.088624660,0.020332630,-0.025050350
1640833599.563640,-0.278206230,-0.049713410,10.470132830,0.070038440,-0.054505480,-0.017936530
1640833599.564810,-0.073907360,0.386829410,9.467146870,0.182136890,-0.098888580,-0.032657380
1640833599.568730,0.026455580,0.515427230,9.430863380,0.037655240,-0.035640600,-0.034588580
1640833599.569880,-0.053246680,0.616402150,10.009333610,-0.122614210,0.055235630,-0.005486610
1640833599.573799,-0.127649590,0.229430320,10.117239000,-0.059548020,-0.021982190,-0.024101140
1640833599.574780,-0.129711990,-0.010634550,10.258925440,0.115811830,-0.119175020,-0.027394300
1640833599.578670,0.016405200,0.711578850,9.153683660,0.128383930,-0.039273500,-0.031729050
1640833599.579820,-0.081030800,0.811333600,9.423867230,-0.081738820,0.011479850,-0.021532180
1640833599.583969,0.017760150,0.420652660,10.083834650,-0.184229030,0.035035610,-0.000900030
1640833599.584820,0.090224550,0.103594710,9.744799610,-0.014828150,0.012424590,-0.024110080
1640833599.588889,-0.043881200,-0.150662600,10.078176500,0.146614030,-0.059714920,-0.039653480
1640833599.589850,-0.037494630,0.233013090,9.501461980,0.095221410,-0.019487740,-0.022816660
1640833599.593780,-0.164219710,0.346079620,9.300052640,-0.121980910,-0.018180910,-0.009682770
1640833599.594770,0.003911920,-0.169463530,9.715061190,-0.185108200,0.030991440,-0.008480250
1640833599.598850,-0.038355920,-0.376353140,9.762130740,0.031512980,0.085768100,-0.038754940
1640833599.599799,-0.092514350,-0.163617490,9.968139650,0.204734530,-0.032839180,-0.062684710
1640833599.603680,-0.097801720,0.306511010,9.561925890,0.098127140,-0.041221090,-0.036932530
1640833599.604980,-0.187315150,0.395976660,9.208213810,-0.129713120,0.010076170,-0.002118950
1640833599.609810,-0.220952750,-0.145420300,9.742544170,-0.140404700,0.052741180,-0.029648850
1640833599.610350,-0.381090220,-0.386531770,10.229628560,0.126929580,0.016404690,-0.055566440
1640833599.613799,-0.133993740,0.199373320,9.496166230,0.264447960,-0.040526690,-0.070956350
1640833599.614950,-0.037056520,0.693676890,9.213930130,0.061418120,0.011149050,-0.044606630
1640833599.618630,-0.252871870,0.325085370,10.023239140,-0.166274620,0.058341030,0.002922120
1640833599.619830,-0.233376370,-0.213776660,9.993614200,-0.045196720,-0.003533070,-0.023792690
1640833599.623780,-0.343908940,-0.417804570,9.958827970,0.240649280,-0.088216370,-0.063362730
1640833599.624770,-0.188549030,0.467056130,9.335188870,0.230696840,0.000701840,-0.054053970
1640833599.628670,-0.127956880,1.002933500,9.324143410,-0.055585800,0.072710220,-0.043347480
1640833599.629989,-0.425771240,0.374923590,10.734405520,-0.204047560,0.015240910,-0.031237310
1640833599.633710,-0.204283700,0.333012580,9.901528360,0.023594500,-0.058504940,-0.043588880
1640833599.634840,-0.104036060,0.319270340,9.302442550,0.255812700,-0.108663760,-0.077919660
1640833599.638890,-0.205005710,0.808899280,9.587450980,0.111246120,0.057005890,-0.053176280
1640833599.639870,-0.087645160,1.139940500,9.718070030,-0.167606790,0.066795950,-0.014950340
1640833599.643679,-0.193483080,0.095192560,10.775848390,-0.201766190,-0.051580370,-0.005054470
1640833599.644800,0.068186540,0.013986620,9.634380340,0.048878790,-0.038112700,-0.036932530
1640833599.648739,0.123584930,0.302697870,8.962360380,0.205042960,-0.048054750,-0.067721310
1640833599.649860,-0.226134720,0.447657880,9.847551350,0.000098350,0.063291190,-0.051631040
1640833599.653669,-0.143040310,0.710975650,9.703083040,-0.221857430,0.020466750,-0.019684440
1640833599.655050,-0.089771880,-0.109076910,10.082634930,-0.179724400,-0.047664350,-0.026910010
1640833599.659930,0.019537760,-0.140457290,9.655103680,0.054246190,0.046335160,-0.059682140
1640833599.660460,0.098618060,0.497393730,9.445816040,0.152970870,0.022146100,-0.066818300
1640833599.663679,-0.097681930,0.496889290,9.862565990,-0.062885890,0.030642750,-0.040958820
1640833599.664840,0.056824060,0.302237870,9.466564180,-0.213521720,0.027710200,0.004069510
1640833599.668660,0.061984150,-0.395252940,9.661157610,-0.080667440,0.023819510,-0.016543270
1640833599.669790,-0.134023580,-0.562914310,9.808116910,0.110076370,0.031584500,-0.057061020
1640833599.673859,0.029608780,0.137072580,9.442322730,0.127069650,0.029346350,-0.057105720
1640833599.675050,-0.091268950,0.173655820,9.582482340,-0.086605550,0.092041500,-0.060839950
1640833599.678700,-0.202249230,-0.171352180,10.112216000,-0.169168460,0.041693460,-0.042788690
1640833599.680179,-0.142680390,-0.351624490,9.828225140,0.053164360,0.020404160,-0.049503150
1640833599.683650,-0.356668170,-0.171721710,9.422184940,0.195230570,-0.027662520,-0.077867530
1640833599.684800,-0.374271870,0.343059030,9.443144800,0.087779760,0.009341540,-0.037696960
1640833599.688979,-0.252801330,0.302408730,9.361605640,-0.093501810,0.132964570,-0.038787720
1640833599.689819,-0.316242190,-0.225703630,10.443236350,-0.054191060,0.026595600,-0.040879850
1640833599.693650,-0.127884910,-0.073358390,10.241983410,0.168517230,-0.009089710,-0.044913590
1640833599.695099,-0.042066100,0.339386050,9.118014340,0.184260320,-0.016397240,-0.065250700
1640833599.698680,-0.236485320,0.397974100,9.808374400,0.014492870,0.024266540,-0.046907360
1640833599.699839,-0.327797890,0.302115830,9.853118900,-0.061638660,0.098499670,-0.033812230
1640833599.703670,-0.286909520,-0.020212270,9.942785260,0.044149160,-0.059241070,-0.059442230
1640833599.705109,-0.137740640,0.434869710,9.807990070,0.160096600,-0.016531350,-0.044360760
1640833599.708730,-0.034393020,0.916635270,9.294041630,0.074011090,0.086098920,-0.045710800
1640833599.710620,-0.227267800,0.607111330,10.502533910,-0.074046840,0.033439700,-0.046667450
1640833599.713760,-0.408491580,0.352698150,10.502513890,-0.019882620,-0.008539860,-0.014500320
1640833599.714850,-0.169315550,0.233102410,9.243863110,0.095516440,-0.103418540,-0.045274200
1640833599.718639,-0.170638400,0.595104280,9.373243330,0.071212660,0.013680760,-0.042477250
1640833599.719820,-0.147458900,0.846843960,9.552610400,-0.085054340,0.114986310,-0.021918120
1640833599.723780,0.056150100,0.293477090,10.176711080,-0.117476290,0.025242570,-0.030964620
1640833599.724840,-0.034795600,-0.008419240,10.403652190,0.037091970,-0.002789500,-0.025276840
1640833599.728850,0.167470340,0.078109470,9.436005590,0.121797630,-0.027295950,-0.036375220
1640833599.729859,-0.021152090,0.265624760,9.611764910,0.002905730,0.008505580,-0.030891600
1640833599.733680,-0.119701400,0.322792530,9.538437840,-0.140954570,0.053554770,-0.009611250
1640833599.734759,0.134949100,-0.066307480,9.438547130,-0.097756100,0.071737180,-0.025448210
1640833599.738900,-0.188545910,-0.263710470,10.213796620,0.091859700,0.054651500,-0.048312550
1640833599.739859,-0.187762710,0.199275020,9.781068800,0.148355960,-0.006255510,-0.048561390
1640833599.744279,-0.193941460,0.631453100,9.379109380,-0.019051140,-0.019295510,-0.022204220
1640833599.745649,-0.325115560,0.212365060,9.596131320,-0.166460870,0.058382760,-0.015126170
1640833599.748659,-0.110459950,-0.147266860,9.781181340,-0.047890850,0.105433190,-0.039526820
1640833599.749810,-0.204609900,-0.217734680,10.075873370,0.185559690,0.035099690,-0.070291760
1640833599.753660,-0.104505660,0.209823250,9.708187100,0.165244950,-0.024935600,-0.053671010
1640833599.755050,0.100970500,0.595639530,9.049921040,-0.062757730,0.049319870,0.000977520
1640833599.760800,-0.259332210,-0.123660930,9.859965320,-0.165663670,0.080056500,-0.006890300
1640833599.761690,-0.323612990,-0.448234440,10.389671330,0.045754020,0.028616190,-0.034281600
1640833599.763690,-0.228263570,-0.012992150,9.417903900,0.265777110,-0.033229590,-0.068610910
1640833599.764819,-0.249632400,0.465902270,9.509953500,0.109493730,0.018993020,-0.069877510
1640833599.768669,-0.198406380,0.967613820,9.751464840,-0.147868710,0.129209470,-0.018693510
1640833599.769879,-0.434004600,0.305327620,10.389450070,-0.152792040,0.016163290,-0.042378900
1640833599.773800,-0.515752260,0.059540900,10.419807430,0.110925730,-0.085645900,-0.048339360
1640833599.775820,-0.155749280,0.746157230,8.755290030,0.246849630,-0.030055640,-0.047361840
1640833599.778669,-0.324139740,0.872713800,9.524020200,-0.010642410,0.078599150,-0.040005140
1640833599.780680,-0.203978810,0.775746520,10.425004010,-0.225840510,0.120627890,0.013712050
1640833599.783630,-0.001667900,0.115218160,10.169443130,-0.108921540,-0.034856790,-0.010317560
1640833599.784819,0.041240720,-0.178183630,10.056807520,0.127103940,-0.070966780,-0.035783640
1640833599.788800,0.122935510,0.580889940,9.031484600,0.157883760,0.041189790,-0.040383640
1640833599.789880,-0.273264260,0.643261970,9.785587310,-0.104993580,0.017936530,-0.031527880
1640833599.793949,-0.223783150,0.406308620,10.135096550,-0.259388980,0.016571580,-0.000827010
1640833599.795310,0.089949090,0.102434060,9.440591810,-0.080667440,0.024472180,-0.026419760
1640833599.798650,-0.064653390,0.009591790,10.047982220,0.118963440,0.031296910,-0.041840970
1640833599.799820,0.068813150,0.678823470,9.669748310,0.080859670,0.063590710,-0.025165090
1640833599.804190,-0.095838530,0.644760070,9.712343220,-0.154416280,0.022298100,-0.004442040
1640833599.805090,-0.128807560,-0.027462290,9.884936330,-0.229218600,-0.009900330,0.035922230
1640833599.809800,-0.002298150,-0.361483160,9.217789650,-0.010293720,0.043544180,-0.011780860
1640833599.810840,-0.092681420,-0.215947760,9.508852960,0.132407230,0.054244700,-0.054582950
1640833599.814060,-0.008699480,0.382846150,9.746013640,0.025451180,0.070214260,-0.034342700
1640833599.814810,0.001812200,0.398424120,9.734945300,-0.183323030,0.082285710,-0.011803210
1640833599.818660,-0.156784360,-0.293569090,10.154925350,-0.173671530,0.013363360,-0.015281140
1640833599.820580,-0.310449180,-0.534876290,9.797738080,0.107640040,0.009459260,-0.036188960
1640833599.823779,-0.244501020,0.004406560,9.003527640,0.192968550,0.004084410,-0.052851430
1640833599.824880,-0.220491480,0.509575430,9.274194720,-0.036877400,0.088799000,-0.032339990
1640833599.828660,-0.260093450,0.386901800,10.002509120,-0.206810220,0.147886560,-0.000049170
1640833599.829870,-0.279619600,-0.164397190,10.432113650,-0.061498570,-0.004972520,-0.027126070
1640833599.833649,-0.362093960,-0.070590350,10.042075160,0.205244090,-0.075781350,-0.049720700
1640833599.834820,-0.098856770,0.669522400,8.884690280,0.151766850,0.035516920,-0.032344460
1640833599.838899,-0.131232650,0.787093520,9.461703300,-0.124268240,0.119300190,-0.026443600
1640833599.840099,-0.298552190,0.394121470,10.675299640,-0.198632490,0.094342230,-0.007998940
1640833599.843750,0.042874080,0.177438350,9.856836320,0.010091070,-0.032690170,-0.027854740
1640833599.844820,0.000314220,0.310564160,9.480596540,0.176043780,-0.053280590,-0.055280320
1640833599.848680,-0.044836740,0.896879550,9.323411940,0.034748020,0.107133410,-0.025020540
1640833599.849840,-0.100489150,0.762752410,9.781135560,-0.200063010,0.093974170,-0.014831130
1640833599.855790,-0.406684460,0.042032040,10.843523980,-0.173179810,0.004629790,-0.014977160
1640833599.856720,-0.061431330,0.149325210,9.502729420,0.046457350,-0.015524030,-0.021500890
1640833599.858780,-0.062600030,0.343606380,9.187897680,0.116932400,0.016318260,-0.039421020
1640833599.861160,-0.182873560,0.548505310,9.817043300,-0.084643070,0.130027530,-0.020386280
1640833599.863680,-0.021509610,0.510149480,9.689349170,-0.208687800,0.078591700,-0.001491610
1640833599.864790,-0.192135260,-0.158633520,10.336893080,-0.110633680,-0.026838480,0.004665550
1640833599.868640,0.065845090,0.041300620,9.405632970,0.049382460,0.042295460,-0.010055300
1640833599.870060,0.080140900,0.403376610,9.219601630,0.044329470,0.059454150,-0.027698280
1640833599.874019,-0.097204050,0.281302540,9.962434770,-0.129194560,0.098338730,-0.010308620
1640833599.874830,0.185525310,0.240601880,9.556523320,-0.161087530,0.106039660,0.000192230
1640833599.878660,-0.041448840,-0.287525150,10.041453360,-0.032413010,0.040920080,-0.011475390
1640833599.879890,-0.215259100,-0.189388540,9.884773250,0.074973700,0.037199260,-0.021815300
1640833599.883679,-0.204057110,0.221428560,9.079302790,0.047445290,0.014650820,-0.024943050
1640833599.884850,-0.335817100,0.035224120,9.344419480,-0.128799680,0.086845470,-0.025369230
1640833599.888850,-0.224454050,-0.042943480,9.733092310,-0.131341790,0.157366690,-0.016427040
1640833599.890410,-0.269784360,-0.244613660,10.205786710,0.049994890,0.065478680,-0.038729610
1640833599.893730,-0.324163110,-0.003723300,9.962498660,0.131551950,-0.019949680,-0.039425500
1640833599.894830,-0.128853930,0.462293450,9.036429410,0.036494430,0.033204260,-0.006473060
1640833599.898640,-0.209729490,0.112186020,9.385986330,-0.119994580,0.129108130,-0.010462110
1640833599.899870,-0.344416980,-0.129884700,10.330576900,-0.051252550,0.095795090,-0.027538840
1640833599.903880,-0.123148170,0.062284280,9.901848790,0.136500580,0.015093380,-0.045315920
1640833599.905360,-0.071826290,0.437202300,9.397511480,0.105297550,-0.000935790,-0.055460630
1640833599.909139,-0.110713010,0.775673450,9.609458920,-0.050736960,0.099729000,-0.023369490
1640833599.909870,-0.318804620,0.437116560,10.080948830,-0.129202010,0.104875870,-0.027756390
1640833599.913760,-0.542994620,0.108977880,10.424235340,0.005948540,-0.042663510,-0.041896100
1640833599.914980,-0.307197840,0.349129620,9.403784750,0.145864500,-0.021964310,-0.047235190
1640833599.919210,-0.300833020,0.793746230,9.074319840,0.012613840,0.068384420,-0.051470110
1640833599.921170,-0.405417890,0.758645530,10.260980610,-0.166995810,0.083544840,-0.004073980
1640833599.923800,-0.219269660,0.348497750,10.228243830,-0.146290670,0.052925940,-0.002023580
1640833599.925109,-0.068501640,0.123903570,9.847383500,0.038149960,-0.062976780,-0.034411260
1640833599.928650,0.024549640,0.455112580,9.561824800,0.100234150,0.022670620,-0.022746620
1640833599.929880,0.006404570,0.820431770,9.335645680,-0.094096370,0.093919040,-0.022463500
1640833599.933790,-0.132582140,0.422923680,10.357977870,-0.229126230,0.006771090,0.004602970
1640833599.936110,0.075534010,0.104716260,9.825827600,-0.112959740,0.037485360,-0.000226500
1640833599.938870,0.194086100,0.045745880,9.324205400,0.054612760,0.013804440,-0.040523710
1640833599.939870,-0.110624000,0.359646920,10.079856870,0.036916140,0.067940350,-0.029134750
1640833599.943640,-0.187460210,0.711561740,9.671070100,-0.154633860,0.060576210,-0.006332990
1640833599.944830,-0.291521700,0.144644690,9.929366110,-0.234811010,-0.038571660,0.002144280
1640833599.948660,-0.205509870,-0.157270370,9.509423260,-0.084771220,0.068806120,0.006110970
1640833599.949930,0.028519540,-0.011896180,9.107019420,0.071647760,0.094880170,-0.038266180
1640833599.953879,-0.133772300,0.120034070,10.195075990,0.022347270,0.072073940,-0.021260980
1640833599.954900,0.034659380,0.246518280,9.739955900,-0.154857340,0.094810150,0.030706830
1640833599.958660,0.038894180,-0.444499790,9.856417660,-0.147409720,0.002986190,0.017741320
1640833599.959859,-0.193367200,-0.725309430,9.911112790,0.028781600,0.037056210,-0.004632770
1640833599.963660,0.029167860,-0.151141910,8.862449650,0.134582830,0.066474080,-0.025796890
1640833599.964840,-0.092290430,0.130122210,9.558606150,0.002546610,0.099988290,-0.034715240
1640833599.968649,-0.201460840,0.123544970,9.970767020,-0.149668740,0.137276960,-0.007982550
1640833599.970160,-0.244358320,-0.211152730,10.036919590,-0.020906330,0.013472140,-0.024837260
1640833599.974180,-0.574281630,-0.291357790,9.893039700,0.166243310,-0.055468090,-0.035423040
1640833599.975020,-0.403130410,0.298100140,8.830485340,0.152409080,0.025498870,-0.021196900
1640833599.978639,-0.452812020,0.337529930,9.335951810,-0.029055780,0.123260920,-0.011087950
1640833599.979940,-0.389781240,-0.156400050,10.304148670,-0.092612210,0.113879160,0.004190210
1640833599.984010,-0.075321910,-0.345593420,10.123834610,0.127942880,-0.004948680,-0.007314980
