# timestamp,accel_x,accel_y,accel_z,gyro_x,gyro_y,gyro_z
1640772778.642230,0.127232190,0.161861520,10.354187010,-0.075532500,0.075848400,0.020764770
1640772778.643950,-0.091916460,0.124214870,10.625672340,-0.039085750,-0.077857080,-0.000195210
1640772778.647240,0.202203470,0.252442420,9.286684040,-0.042712700,-0.054189570,0.009740890
1640772778.647790,-0.085825720,0.171603980,9.177396770,-0.045461950,0.015039740,-0.017651920
1640772778.652580,-0.238694530,0.087106380,9.935448650,-0.036188970,0.044754150,-0.021685670
1640772778.653340,0.055055500,0.320202140,9.555401800,-0.051519280,0.058501970,-0.020474200
1640772778.657190,-0.073874610,0.188202660,10.003438950,-0.053320830,0.024265050,-0.003685060
1640772778.657620,-0.059538940,-0.089629780,10.077941890,-0.033120810,0.031237300,0.025036930
1640772778.662310,-0.104013460,-0.105537040,9.547843930,0.025291740,-0.026965140,0.012296440
1640772778.662980,-0.243179340,-0.314286590,9.800370220,0.009609760,-0.009615720,0.009447340
1640772778.668090,-0.038674050,-0.301401380,9.627938270,-0.019259750,0.094909980,0.001242760
1640772778.668630,-0.129399570,-0.301511470,10.032958030,0.020143390,0.047364830,-0.036926570
1640772778.672160,-0.183665950,-0.176933510,10.228896140,0.026628380,0.013440850,-0.048843030
1640772778.672520,-0.269648610,0.176466910,9.581396100,0.056333840,0.003190340,-0.036761160
1640772778.677390,-0.566219870,0.262630550,9.620575900,0.047636030,-0.075197230,-0.021544100
1640772778.678080,-0.429290530,0.502711180,9.408580780,-0.001379850,-0.020159780,0.002045930
1640772778.682210,-0.175572510,0.576867880,9.442596440,0.006374720,0.077226770,0.015214090
1640772778.683060,-0.161899860,0.164837600,10.838113780,0.044268370,0.077478600,-0.001181660
1640772778.687190,-0.034014020,0.328539040,10.783623700,0.102819520,0.003588200,-0.024607780
1640772778.687560,-0.016554200,0.522483590,9.787864690,0.048334900,-0.096115480,-0.031617290
1640772778.692400,-0.205930610,0.387855350,9.468784330,-0.072684890,-0.050729510,-0.011612480
1640772778.694360,-0.409998090,0.309816360,9.363307000,-0.033411390,-0.005453820,-0.012952090
1640772778.697450,-0.343206520,0.414845820,9.519577030,0.029930470,-0.028860570,-0.027211010
1640772778.698030,-0.119304430,0.561769840,10.145607950,0.012086330,0.030726200,-0.022131200
1640772778.702340,0.012189850,0.660345320,10.476064680,-0.020581480,0.063951320,0.000423190
1640772778.703000,-0.032551690,0.559010450,10.633666040,-0.070071220,-0.047606230,-0.006790460
1640772778.707170,-0.129729520,0.606260360,10.249126430,-0.074814270,-0.090947750,0.004059080
1640772778.707560,0.020052660,0.602598130,8.924275400,-0.059819230,-0.031562150,-0.011311470
1640772778.712240,-0.042787080,0.373722020,9.392702100,-0.057439510,0.008015330,-0.031229860
1640772778.712760,0.030139540,0.471579940,9.842008590,-0.059950350,0.096036490,-0.035245720
1640772778.717240,0.142215270,0.361576620,9.830079080,-0.102528910,0.032292310,-0.020356470
1640772778.717630,-0.079955120,-0.083288760,10.756196020,-0.092598800,-0.042554750,0.006587800
1640772778.722160,-0.019418770,-0.061163940,9.620177270,-0.048498810,-0.013715030,0.010606650
1640772778.722560,-0.064225680,-0.189412550,9.399530410,-0.056254860,-0.037933890,0.023177270
1640772778.727330,-0.173639910,-0.369076880,10.055253980,-0.051951410,0.074262900,0.017718970
1640772778.727990,0.142905730,-0.122297970,9.393304820,-0.044672180,0.086279210,-0.029899180
1640772778.732340,0.045461010,0.092559910,10.318027500,-0.043141840,0.001274050,-0.035719570
1640772778.732800,0.051365860,0.149660180,9.806092260,-0.046874580,0.056527550,-0.027641660
1640772778.737250,-0.063440400,0.195150080,9.209464070,-0.009791550,-0.035411120,-0.016064940
1640772778.737600,-0.416721140,0.054945230,9.934708600,0.021149220,-0.011162460,0.012312830
1640772778.742730,-0.244882870,0.020435600,9.240362170,-0.009451810,0.082726780,0.011312960
1640772778.743920,-0.175044720,-0.074403900,10.074247360,-0.007064640,0.033286210,-0.000686940
1640772778.747390,-0.195444350,-0.128352980,10.615576740,0.015102330,0.081221770,-0.028194490
1640772778.749200,0.070166100,0.137149040,9.705493930,0.011943280,0.017882880,-0.039762260
1640772778.752200,-0.136600450,0.119526920,10.039772030,0.021219250,-0.005504490,-0.018590680
1640772778.752610,-0.269483120,-0.050063930,9.467729570,0.026462970,0.018297140,0.005134940
1640772778.757170,-0.213905870,0.078176580,9.257174490,0.064697870,-0.024712090,0.018346310
1640772778.757490,-0.433501870,0.168222760,9.999229430,0.039263080,0.043416030,0.007864830
1640772778.762230,-0.393537520,0.214577180,10.216884610,-0.006966290,0.042377410,-0.000445540
1640772778.762760,-0.280551080,0.482736530,10.433481220,0.023335220,-0.021281840,-0.028641530
1640772778.767530,-0.291138470,0.704555630,10.195536610,0.003825130,-0.003853440,-0.045365090
1640772778.768490,0.038076040,0.872287870,9.637989040,-0.015698370,0.023962560,-0.005558130
1640772778.772130,-0.000222320,0.846025880,9.815238000,-0.010544060,0.012855230,-0.006696580
1640772778.772490,-0.030648370,0.518628240,9.896768570,-0.023736060,-0.004027780,-0.007639820
1640772778.777350,0.123611920,0.470061420,9.466235160,-0.012317300,0.007221100,0.016783180
1640772778.778240,-0.286203620,0.137634750,10.068340300,-0.031921270,0.005455320,0.000667570
1640772778.782280,-0.274866220,-0.049397120,10.256144520,-0.038509070,-0.010533630,0.010356310
1640772778.782880,-0.185395940,0.285159050,9.695804600,-0.044587250,-0.008624790,0.013749300
1640772778.787200,-0.188655530,0.047702320,10.006287570,-0.079493230,0.014853480,0.009481610
1640772778.787510,0.206604930,0.203521880,9.857256890,-0.046429030,0.082519640,0.008496640
1640772778.792180,0.149370340,0.477411540,9.865210530,-0.014677640,0.043295320,-0.033304090
1640772778.793760,0.058730800,0.258874150,10.258462910,-0.052613020,-0.006391110,-0.010159610
1640772778.799130,0.010953000,0.311428820,9.283455850,-0.033614040,-0.005856160,0.006164610
1640772778.800080,-0.228526440,0.059513460,9.299053190,-0.025957830,-0.036571930,-0.000569220
1640772778.802170,-0.149344680,0.043762800,9.727044110,-0.047440830,0.075663630,0.043831770
1640772778.802570,-0.158616830,0.106973050,9.808159830,-0.046902900,0.104090580,0.016021730
1640772778.807240,-0.115752510,-0.160829020,10.717028620,-0.026990480,0.003220140,-0.006355350
1640772778.807690,0.106619070,0.097744910,9.822444920,-0.009909270,0.049917410,-0.015515090
1640772778.812340,0.023517890,0.066310550,9.245017050,-0.011385980,0.017471610,-0.021651380
1640772778.812940,-0.238023650,-0.170679210,10.039366720,-0.008727610,0.032144790,0.005328660
1640772778.819080,-0.338483010,-0.127118360,9.230570790,0.030767920,0.028325620,0.006747250
1640772778.819420,-0.443896290,-0.214523910,9.730340960,0.033172970,-0.038418170,0.002571940
1640772778.822180,-0.482137020,-0.066892580,10.235977170,0.011824070,0.061048570,0.002592800
1640772778.822480,-0.299556610,0.226233600,9.863509180,0.014671690,0.026404860,-0.031867630
1640772778.827310,-0.122856120,0.567625640,10.426117900,-0.008845330,-0.005540250,-0.029659270
1640772778.827880,0.027533090,0.695147100,9.751918790,-0.015814600,0.071696920,-0.001564620
1640772778.832510,0.122988760,0.469221260,9.622465130,0.041605530,-0.000390410,0.012788180
1640772778.833780,-0.142066760,0.439653370,10.083938600,0.057275600,-0.010898710,0.005732480
1640772778.837200,-0.298477530,0.391976450,9.371448520,-0.002901260,-0.036881860,0.017087160
1640772778.837540,-0.356138050,0.171108320,9.768740650,-0.058920690,-0.009803470,0.010891260
1640772778.842620,-0.580212590,0.132168140,10.436465260,-0.040185460,0.036564470,-0.008057060
1640772778.843390,-0.350969050,0.381240250,10.183711050,-0.000968580,-0.006216760,-0.002437830
1640772778.848510,-0.002398690,0.600827040,10.025259970,-0.022105870,0.018879770,0.007753070
1640772778.849100,0.088996170,0.416715350,9.968557360,-0.043600790,0.045230980,0.012545290
1640772778.852130,0.345494330,0.420134690,9.705190660,-0.036387140,0.009979310,-0.000260770
1640772778.852450,0.092029660,0.418501760,9.854128840,-0.039377810,-0.013110040,-0.018042320
1640772778.857160,-0.114570020,0.255861190,9.763814930,-0.054447360,-0.030463930,-0.013177100
1640772778.857540,-0.141611810,0.474821300,9.510611530,-0.069119040,-0.001525880,-0.008048120
1640772778.862400,-0.436413140,0.359393810,10.052855490,-0.091530380,0.014615060,0.017532700
1640772778.863000,-0.161432390,0.238623260,9.875598910,-0.085228700,0.059601680,0.049923370
1640772778.867490,-0.010230540,0.174601610,9.877540590,-0.032311680,0.040109460,0.037756570
1640772778.867930,0.031042950,-0.114547370,10.129131320,-0.026242440,0.030013920,0.028078260
1640772778.872150,0.282025250,-0.102350320,9.459776880,-0.044237090,0.042757390,0.008568170
1640772778.872500,-0.028794940,-0.277638350,9.810745240,-0.034481290,-0.002463160,-0.007522110
1640772778.877330,-0.106517170,-0.360351150,9.690841670,-0.031085310,0.018316510,-0.012134010
1640772778.877990,-0.118284220,0.004026050,9.224477770,-0.018829110,0.032249090,-0.013950470
1640772778.882140,-0.488846270,-0.119429210,10.092151640,-0.025500360,0.022564830,-0.014415380
1640772778.882510,-0.347688880,0.119194450,9.810381890,0.003449620,0.039438910,-0.004710260
1640772778.887190,-0.282119690,0.394328770,9.731365200,0.026480860,-0.003215670,-0.005781650
1640772778.887510,-0.141001080,0.202611300,10.037241940,-0.026853390,0.042837860,0.026872760
1640772778.892760,0.083603230,0.091463110,9.720662120,0.016568600,0.098209090,0.044626000
1640772778.894000,-0.233947250,-0.307459150,10.262276650,0.094975540,-0.010831660,0.011290610
1640772778.899350,-0.302952890,-0.149565550,9.782960890,0.069105630,-0.047935550,0.011833010
1640772778.899920,-0.352467120,0.008198350,9.003603940,0.030694910,-0.041791800,0.003643330
1640772778.902140,-0.637785320,-0.113166090,9.777448650,-0.016707180,-0.009718540,-0.032161180
1640772778.902440,-0.445524540,0.406744420,9.969262120,0.016582010,0.029917070,-0.026531520
1640772778.907240,-0.078697980,0.576789020,10.099378590,0.064994400,0.023376940,-0.005397200
1640772778.908780,0.066826080,0.535877650,10.666591640,0.048378120,0.032661860,0.003042820
1640772778.912240,0.066322970,0.728302900,10.280646320,0.044201310,-0.006508830,0.023201100
1640772778.912820,-0.191915010,0.544972420,9.696586610,0.003165010,-0.110219430,0.016361470
1640772778.917120,-0.450480340,0.444581420,9.250896450,-0.036108500,-0.097024460,0.018528110
1640772778.917500,-0.476445730,0.554383100,9.146575930,-0.003452600,-0.010466570,0.006516280
1640772778.922200,-0.395287390,0.497597130,9.821426390,-0.033436720,0.030718750,-0.007970630
1640772778.922820,-0.081612030,0.546660900,10.587778090,-0.047101080,0.041116780,0.019019840
1640772778.930770,0.302348080,0.397441950,10.479717250,-0.025455650,0.042518970,0.026835500
1640772778.931430,0.272150070,0.243099940,10.411008830,-0.037711860,-0.063520680,0.008077920
1640772778.932180,0.182704120,0.352143850,9.627524380,-0.058704620,-0.067532070,0.013282900
1640772778.932610,0.046674680,0.139111770,8.674442290,-0.074206290,-0.024713580,-0.003474950
1640772778.938780,-0.254723580,0.032595570,9.483273510,-0.054369860,-0.013010200,-0.019742540
1640772778.940190,-0.221955640,0.430688260,9.644744870,-0.051735350,0.070095060,-0.002348420
1640772778.942190,-0.177052020,0.243251370,10.052860260,-0.087304440,0.026723750,0.012490160
1640772778.943160,-0.393913030,0.011028040,10.908454900,-0.046278530,-0.004419680,0.029887260
1640772778.947160,-0.122524130,0.108540620,9.562466620,-0.011537970,-0.026091940,0.026582190
1640772778.947530,-0.032419550,-0.135121780,9.504218100,-0.028121470,-0.053095820,0.031079350
1640772778.952200,0.086171640,-0.233736340,9.504854200,-0.034259260,0.089918090,0.023788220
1640772778.952600,0.344551440,-0.216815620,9.251305580,-0.022512680,0.065606840,-0.018829110
1640772778.957240,0.053276180,-0.234951500,10.403569220,0.000941750,0.010828670,-0.025480990
1640772778.957670,-0.072170110,-0.102881410,9.659342770,0.017037990,-0.002941490,-0.021901730
1640772778.962160,-0.291848690,0.014142950,9.521080970,0.025694070,-0.096155700,-0.014762580
1640772778.962580,-0.561763820,0.233196010,9.782308580,0.000983480,-0.004129110,0.007462500
1640772778.967300,-0.236788210,0.201227650,9.316198350,-0.014691060,0.075934830,0.038449470
1640772778.968020,-0.275745930,0.003712970,10.677660940,0.068305430,0.067548460,0.017564000
1640772778.972290,-0.301872460,0.176731970,10.570825580,0.094497210,0.014090540,-0.017955900
1640772778.972920,-0.070233630,0.548147020,9.481185910,0.034289070,-0.093282780,-0.018300120
1640772778.977290,-0.352303270,0.491010070,9.399897580,-0.040695070,-0.044932960,-0.018551950
1640772778.977890,-0.338635330,0.482343140,9.242105480,-0.035558640,0.001737480,-0.023937230
1640772778.983040,-0.115645000,0.697027440,9.703638080,0.020381810,0.013779100,-0.003178420
1640772778.983350,-0.010972520,0.572245540,10.315400120,0.023984910,0.060957670,0.024411080
1640772778.987580,0.229224320,0.365614180,10.500847820,-0.002014640,0.026860840,0.044097010
1640772778.989140,0.110387410,0.341837380,10.321264270,-0.024367870,-0.037559870,0.037194790
1640772778.992200,-0.096607800,-0.013868700,9.739240650,-0.061465800,-0.067795810,0.007386510
1640772778.992670,-0.137534620,0.078149360,9.181516650,-0.026676060,-0.017158690,-0.017027560
1640772778.997270,-0.432213010,0.308577570,9.336860660,-0.010320540,-0.005364420,-0.048884750
1640772778.998120,-0.267232480,0.371863310,9.665719990,-0.065869080,0.022707880,-0.032648440
1640772779.002200,-0.106168690,0.553942320,9.809288020,-0.074955820,0.066530710,0.011083480
1640772779.002590,-0.243666110,0.085617040,10.503379820,-0.028030580,-0.016044080,0.025831160
1640772779.007120,0.079507840,0.180658130,10.053009990,0.005370380,-0.042302900,0.037351250
1640772779.007480,0.158939000,0.201195360,9.191831590,-0.024515390,-0.006838140,0.037601590
1640772779.012300,0.179898520,-0.405385820,9.816527370,-0.052855910,0.052993000,0.010867420
1640772779.012920,0.163227080,-0.110940720,9.870468140,-0.008593500,0.093299160,-0.026233490
1640772779.017150,-0.093973060,-0.001108360,9.804842950,0.001449880,-0.046180190,-0.048300630
1640772779.017500,-0.265062420,0.019795560,9.787474630,-0.022546950,-0.023423140,-0.029632450
1640772779.022160,-0.519138100,0.290605660,9.157156940,-0.013010200,-0.011235480,-0.025206810
1640772779.022520,-0.684198080,0.127644020,9.920671460,-0.009234250,-0.045543910,0.001859660
1640772779.027170,-0.395113410,0.246513800,9.976957320,0.007854400,0.075444580,0.025913120
1640772779.028360,-0.108995100,0.098428890,10.073062900,0.042781230,0.058731440,0.019311910
1640772779.033740,0.000721840,0.037539310,10.883161540,0.029148170,0.023876140,0.005960470
1640772779.034460,0.033602850,0.328041140,9.760606770,-0.001189110,-0.013685230,-0.002923610
1640772779.038680,-0.154409230,0.309666780,9.352508540,-0.032708050,-0.115190460,-0.018702450
1640772779.041410,-0.320897010,0.502143860,9.390034680,-0.040341920,-0.036108490,-0.032258030
1640772779.042120,-0.164919700,0.723681930,8.999283790,-0.026188790,0.024491550,-0.021375720
1640772779.042440,-0.098938180,0.637987020,10.377378460,-0.034213070,0.074113920,0.009390710
1640772779.047250,-0.098370490,0.472975280,10.983894350,-0.018891690,0.072117150,0.027263170
1640772779.047870,0.003920270,0.378427770,10.411109920,-0.015416740,-0.069715090,0.026986000
1640772779.052210,-0.166981040,0.335534160,9.930345540,-0.074608620,-0.087425110,0.014840070
1640772779.052720,-0.183506710,0.025115020,8.968070980,-0.080376870,-0.009222330,-0.000818070
1640772779.057150,-0.129470360,-0.003858910,9.105907440,-0.036031010,0.021880870,-0.033302610
1640772779.057450,-0.065899770,0.228122920,9.777469640,-0.037838520,0.054158270,-0.042195620
1640772779.062270,0.131349520,0.217377420,9.891089440,-0.059275330,0.072687860,0.003783410
1640772779.062790,0.061873030,0.119480180,10.369676590,-0.062489510,-0.010365250,0.029535590
1640772779.067180,-0.169640120,-0.077976480,10.308671000,-0.029192860,-0.069613760,0.027126070
1640772779.069730,-0.032412830,-0.078421420,9.131813050,-0.016798080,-0.030809640,0.029741230
1640772779.072180,-0.169612680,-0.207500860,9.518507000,0.007878240,0.045450030,0.009562070
1640772779.072510,-0.237864020,-0.150414420,10.014291760,-0.003975630,0.084434460,-0.026717780
1640772779.077170,0.032863640,0.274070320,9.616745000,-0.040419400,0.028522310,-0.029084090
1640772779.078380,-0.334904130,0.041202960,10.160372730,-0.021880870,-0.016610330,-0.021649900
1640772779.082280,-0.435198190,0.007222010,9.649990080,0.032250590,-0.047405060,-0.004826490
1640772779.082870,-0.405965240,0.257361140,9.145471570,0.053387890,-0.065413120,0.013142820
1640772779.087400,-0.344146460,0.004427060,9.825375560,-0.003460050,0.058299300,0.034688410
1640772779.087990,0.050466400,-0.023607420,10.104195590,-0.005932150,0.136126610,0.024102630
1640772779.092160,0.007401770,0.054510380,10.870638850,0.067390500,-0.004878640,-0.019265710
1640772779.092490,-0.012264580,0.321272080,10.274241450,0.035879020,-0.065439950,-0.019748510
1640772779.097240,0.027873530,0.639594200,8.861541750,-0.009715560,-0.054433950,-0.018325450
1640772779.097920,-0.442693800,0.553330840,9.534379960,-0.037886200,-0.031331190,-0.021484490
1640772779.102350,-0.321066110,0.711224850,9.438054080,-0.043834750,0.032469630,0.001946090
1640772779.102880,-0.136850070,0.669176520,9.890612600,0.009228290,0.035214430,0.015874210
1640772779.107140,-0.331966070,0.381693120,11.080842020,0.001856680,0.049905480,0.020495060
1640772779.107570,-0.120565580,0.516669510,10.180403710,-0.018979610,-0.041863320,0.035516920
1640772779.112280,-0.259823590,0.298658160,9.834356310,-0.065174710,-0.121246280,0.021597740
1640772779.114890,-0.125974980,0.069795960,9.089385030,-0.097671150,0.003722310,0.003317000
1640772779.117160,0.142114550,0.240759630,8.984109880,-0.026391450,0.046201050,-0.020198520
1640772779.117560,0.021956920,0.340449660,10.064864160,-0.030645730,0.059734290,-0.035479670
1640772779.122190,0.312224360,0.387365490,9.942509650,-0.080683830,0.038591030,0.002963840
1640772779.122560,0.015923180,0.186977040,10.264007570,-0.052089990,-0.037387020,0.031933190
1640772779.127210,-0.322970330,-0.089264680,9.946480750,-0.045691430,-0.083367510,0.033043330
1640772779.127730,-0.184157910,-0.118949240,9.040218350,-0.014005600,-0.035823890,0.048263370
1640772779.132390,-0.241584090,-0.268614350,9.339976310,-0.017406050,0.089854000,-0.008147960
1640772779.135580,-0.151077510,-0.228996650,10.277424810,-0.032077730,0.082963710,-0.031611320
1640772779.137180,0.105466690,0.056731350,10.019074440,-0.008474290,0.033265350,-0.034947690
1640772779.137580,0.021173040,0.066251300,9.713866230,-0.021645430,-0.039333110,-0.036098070
1640772779.142190,-0.180815430,0.036181670,9.695081710,0.011101370,-0.037817660,0.028066340
1640772779.142600,-0.299085590,-0.024478350,9.029791830,0.059194870,-0.000290570,0.032055380
1640772779.147320,-0.483413130,-0.228685110,9.773699760,0.026619440,-0.020502510,0.024041540
1640772779.148050,-0.310937370,-0.027977640,10.083295820,0.040459640,0.063668180,0.030876700
1640772779.152290,-0.057547510,0.007270840,9.986103060,0.031644110,0.035522880,-0.029064720
1640772779.152730,-0.091979220,0.327161220,10.627629280,0.008998810,-0.010992590,-0.040477520
1640772779.157140,-0.001677500,0.577236710,9.528409960,0.020579990,0.007446110,-0.006940960
1640772779.157440,-0.037694220,0.329389450,9.321356770,0.043393670,-0.068375480,-0.017160180
1640772779.162280,-0.186452310,0.554875080,9.668638230,0.045767430,0.000357630,0.012646620
1640772779.163120,-0.097810990,0.548273740,9.277574540,-0.004115700,0.056824090,0.026780370
1640772779.168890,-0.282414910,0.096824480,10.705900190,-0.012522940,-0.004167850,0.022654240
1640772779.169440,-0.314090280,0.286652000,10.480511670,0.026117270,-0.002069770,0.010772050
1640772779.172160,-0.093502030,0.473556490,9.446206090,0.000879170,-0.065726050,0.002790990
1640772779.172440,-0.126653080,0.409210860,9.923377990,-0.048655280,0.017328560,0.013184550
1640772779.177520,0.075521450,0.484579320,9.331154820,-0.052897640,0.066408510,0.001499060
1640772779.178140,0.244518130,0.434160800,9.744705200,-0.016123050,-0.007367130,-0.009743870
1640772779.183910,0.047177700,0.436652630,10.048305510,-0.017106530,0.037404900,-0.012278560
1640772779.185150,-0.003337250,0.369878050,9.550189970,-0.031650070,-0.027874110,0.015766920
1640772779.187260,-0.194359540,0.153240160,9.963395120,-0.054793060,-0.044453150,0.017248090
1640772779.187880,-0.209613440,0.060121370,9.448271750,-0.063085560,0.041657690,0.030721720
1640772779.192200,-0.018019040,-0.135236620,9.639493940,-0.031186640,0.057117650,0.020518900
1640772779.192600,-0.054129470,-0.145896490,10.109834670,0.010137260,0.078858440,-0.015838450
1640772779.197270,0.103779670,0.082917300,9.712181090,-0.027292970,0.015108290,-0.031962980
1640772779.198010,0.131211670,0.158888150,9.588107110,-0.057041650,0.028806930,-0.007291140
1640772779.202270,-0.282486710,-0.178150970,9.641838070,-0.026577710,0.017453730,-0.002430380
1640772779.202710,-0.323343870,-0.090963810,9.427386280,0.040784480,-0.025556990,0.003957750
1640772779.207150,-0.423523600,0.044818270,9.273251530,0.042949620,0.032776600,0.001159310
1640772779.207550,-0.549891590,-0.137209620,9.952790260,-0.010828670,0.049270690,-0.003261860
1640772779.212310,-0.286439960,0.131247070,10.040410040,0.004506110,0.036939980,-0.019773840
1640772779.213280,-0.286315020,0.247882520,9.931909560,0.011387470,-0.025765600,-0.038710240
1640772779.217740,0.074904520,0.331827850,9.599977490,0.004749000,0.021004670,-0.011000040
1640772779.218150,0.148286060,0.336478830,9.416888240,0.052830580,0.084237780,0.014115870
1640772779.222150,-0.226966870,-0.029923850,10.283915520,0.067292150,-0.009147820,0.014221670
1640772779.222560,-0.118468200,0.188417390,9.607332230,0.039689240,-0.038301940,0.025251510
1640772779.227570,-0.434416620,0.042623090,9.398916240,0.004439060,-0.046683850,-0.002916160
1640772779.229160,-0.550546590,0.034161750,9.986819270,-0.012332200,-0.004756450,-0.021439790
1640772779.232740,-0.307715620,0.539976480,9.638375280,0.015075500,0.035867090,-0.022609530
1640772779.236230,-0.306259190,0.457466660,10.285590170,0.026725230,0.009523330,-0.008773800
1640772779.237220,0.039073020,0.656417550,10.203826900,0.012324750,0.030215090,0.009733440
1640772779.237620,0.185851190,0.713645400,9.547601700,0.001882020,-0.010228160,0.008998810
1640772779.242290,-0.052933100,0.380430970,9.959264760,-0.034835930,-0.038686390,0.010629000
1640772779.242910,-0.120419920,0.384315310,9.384655950,-0.012250250,-0.021311640,0.012427570
1640772779.247400,-0.304250360,0.210110100,9.398874280,0.014732780,-0.076578560,0.004273650
1640772779.247990,-0.178434340,0.242233230,9.632865910,-0.038737060,0.017571450,0.006680190
1640772779.252140,0.047291300,0.252363620,9.626394270,-0.059677670,0.091187660,0.022082030
1640772779.252510,0.111177460,-0.063201920,10.437315940,-0.031258170,0.039091710,0.014571850
1640772779.257150,0.179884240,0.022226210,10.202854160,0.020779670,-0.012078880,-0.013464690
1640772779.257530,0.215166350,0.195512220,9.144139290,0.011333820,-0.022649760,-0.011555850
1640772779.262440,-0.041772750,0.038879290,9.436374660,-0.058898330,0.000576670,-0.001311300
1640772779.263260,-0.268663730,-0.099641550,9.582006450,-0.018519160,0.047066810,0.003133710
1640772779.267270,-0.212281120,-0.080301650,9.376708980,0.026635830,0.013805930,-0.012791160
1640772779.267910,-0.361317600,0.054187370,9.891198160,0.023457410,0.011330840,-0.001212950
1640772779.272160,-0.301306010,0.068734990,9.708200450,0.015081470,0.046379870,0.003230570
1640772779.272600,-0.212169390,0.236741420,9.691576960,-0.013612210,-0.015538930,-0.022922460
1640772779.277290,-0.197793410,0.168737780,9.978762630,-0.003504750,0.008007880,-0.010015070
1640772779.277830,0.126376730,-0.089924340,9.339051250,0.060565770,0.063689060,0.000756980
1640772779.282220,-0.027870280,-0.032219820,9.970541000,0.094613460,0.014865400,-0.022105880
1640772779.282690,-0.198617820,0.060628270,10.151490210,0.045751040,0.015859300,-0.000767410
1640772779.287270,-0.174377040,0.071189650,9.178869250,-0.015187260,-0.044351820,-0.012129550
1640772779.287680,-0.456719580,0.049597140,9.767438890,0.014300650,-0.060288600,-0.039437410
1640772779.292330,-0.290221900,0.428093170,9.340756420,0.048226110,0.044420360,-0.039729470
1640772779.292820,-0.169949000,0.727566120,9.706715580,0.033377110,0.044222180,-0.021861500
1640772779.297310,-0.312138590,0.589918790,11.022753720,0.006185470,0.040437280,-0.004903970
1640772779.297880,0.004976880,0.644827430,9.863487240,-0.001904370,-0.021861490,0.013089180
1640772779.302510,-0.081406970,0.530039550,9.666771890,0.016435980,-0.091144450,0.007320940
1640772779.302990,-0.323120740,0.356054480,9.635167120,-0.010012090,0.020340090,0.003616510
1640772779.307300,-0.211600830,0.457000460,9.110356330,-0.016109650,-0.023637710,-0.005468730
1640772779.308760,-0.234231400,0.409651550,9.909875870,-0.043465200,-0.029018520,-0.012329220
1640772779.312390,0.135804360,0.397949100,9.505103110,-0.077970310,0.080998230,0.006613140
1640772779.313720,0.278069350,0.333348780,10.134984970,-0.024954980,0.040753190,0.010915100
1640772779.317300,0.028351320,0.229555230,10.745456700,-0.004217030,0.008118150,0.001549720
1640772779.317790,0.132140220,0.367153580,9.464527130,-0.043134390,-0.064674020,0.011102850
1640772779.322250,-0.125117720,0.174490660,9.363168720,-0.067137180,-0.038518020,0.006327030
1640772779.323350,-0.290026630,-0.003683830,9.345149990,-0.064004970,0.049598510,-0.009614230
1640772779.327120,-0.104738860,0.196925010,9.326828960,-0.014893710,0.044195360,-0.004543360
1640772779.327450,-0.238074970,0.170554620,10.019378660,-0.034372510,0.067795820,0.007694960
1640772779.332260,-0.063500840,-0.034343550,9.951137540,-0.049805640,0.014171010,0.037212670
1640772779.332850,0.074357830,-0.074896610,9.735569950,-0.001904370,-0.010523200,0.025396050
1640772779.337230,-0.025566220,-0.135361120,9.719064710,-0.020810960,0.027535860,0.000901520
1640772779.337650,0.052576430,-0.145379050,9.732669830,0.000210110,0.046053530,0.018714370
1640772779.342200,-0.075300990,-0.242987350,9.692458150,0.037494300,0.037010030,-0.029842560
1640772779.342710,-0.229996520,-0.129197140,9.793862340,0.022110340,0.006569920,-0.036342450
1640772779.347290,-0.362032650,0.175675500,9.410151480,0.019150970,0.007209180,-0.007431210
1640772779.347620,-0.724356410,0.011060440,9.563300130,0.007539990,-0.057415660,-0.031600890
1640772779.352280,-0.537549440,0.338099330,9.585750580,0.021490460,-0.026772920,-0.003312530
1640772779.352800,-0.246712650,0.453829440,9.450864790,0.039920220,0.072602940,0.006750230
1640772779.357210,-0.141465690,0.107046980,10.682991030,0.033903120,0.068391840,0.009995700
1640772779.357680,0.101360860,0.315317210,10.543049810,0.069968420,0.036731370,0.022462020
1640772779.362410,-0.041456810,0.265920040,9.763534550,0.040377680,-0.096216800,-0.020828840
1640772779.363310,-0.245967600,0.219514190,9.458684920,-0.007906560,-0.098514560,0.007124250
1640772779.367420,-0.407749150,0.470023870,8.706529620,0.001911820,-0.027188650,-0.006227200
1640772779.369230,-0.438116670,0.440505330,9.454475400,-0.005270540,-0.031723090,-0.019367040
1640772779.372360,-0.141643020,0.721734580,10.188036920,-0.023141510,0.083841380,0.031426550
1640772779.372880,0.018851740,0.540853860,10.471481320,0.005765260,0.039932140,0.014027960
1640772779.377140,-0.010699970,0.442766820,11.036465640,-0.006937980,-0.084641580,0.010956820
1640772779.377460,0.011416120,0.657827440,9.400278090,-0.036969780,-0.064188240,0.022563340
1640772779.383040,-0.208248700,0.251851380,8.922809600,-0.074397030,-0.092069810,0.000910460
1640772779.383590,-0.288663390,0.212178200,9.340227130,-0.064411770,0.007051230,-0.000588600
1640772779.387350,-0.071781630,0.298108490,9.003270150,-0.018768020,0.038054590,0.005945560
1640772779.387950,-0.004012080,0.075943100,10.319575310,-0.047567490,0.023953620,0.017552080
1640772779.392130,0.054209420,0.051574760,10.471375470,-0.055632000,0.042346120,0.037193300
1640772779.392530,0.075341410,-0.129838570,9.953085900,-0.028812890,-0.086703900,0.032511350
1640772779.398600,-0.017433330,-0.196626920,9.836070060,-0.034819550,-0.066539660,0.016286970
1640772779.399750,-0.008348580,-0.209686400,8.894130710,-0.004704300,0.033921010,0.001342590
1640772779.402230,-0.022475480,-0.175831690,9.371492390,0.011084970,0.024575000,-0.024893880
1640772779.402750,-0.186635760,0.050092420,9.890468600,-0.012426080,0.052708390,-0.029975180
1640772779.407160,-0.266946700,0.098656770,9.669078830,-0.010697540,-0.015145540,-0.015689430
1640772779.407570,-0.490968200,0.068846550,10.016020770,0.015762450,-0.082601610,0.006376210
1640772779.412330,-0.542193830,0.106183540,9.571168900,0.038591030,-0.046440960,0.011949240
1640772779.412990,-0.171140310,0.038671780,9.396413800,0.023555760,0.027479230,0.044812260
1640772779.417200,-0.074209510,-0.436033040,10.265382770,0.058542190,0.101494800,0.023442510
1640772779.417540,0.076120310,-0.667582810,10.380028720,0.128674520,0.023414190,0.000694390
1640772779.422210,0.286323580,-0.585104820,9.659379010,0.148430470,-0.054408610,-0.002850590
1640772779.422590,-0.121845770,-0.843548600,9.357589720,0.133974870,-0.055040420,-0.015926360
1640772779.427220,-0.226979540,-0.791409730,9.208864210,0.147040190,-0.044399500,-0.004971030
1640772779.428050,-0.291217600,-0.396433650,9.358105660,0.188338770,0.006602700,0.001785160
1640772779.433180,-0.294583260,-0.259675380,10.215199470,0.186814370,0.051569940,0.026598570
1640772779.434190,-0.130715880,0.255340610,10.630279540,0.218501690,0.071535990,0.051671270
1640772779.437340,-0.301531490,0.631965580,10.544126510,0.213001650,-0.065259620,0.033318990
1640772779.438430,-0.183944490,0.858377040,9.725173950,0.147409720,-0.097499770,0.032070270
1640772779.442160,-0.088818500,0.986456570,8.721837040,0.158292060,0.002308190,0.024624170
1640772779.442480,-0.199803840,0.738632800,9.349500660,0.198484960,0.009684260,0.007921460
1640772779.447260,0.168882440,0.782634790,9.634176250,0.171780600,0.055083630,0.025551020
1640772779.447910,0.311585130,0.332788170,9.792922970,0.154359650,0.063908100,0.049093370
1640772779.452360,0.131282280,-0.485265200,10.766805650,0.167275980,0.004836920,0.061811520
1640772779.452840,0.138743880,-0.504273300,9.926753040,0.213398050,-0.039057440,0.043532250
1640772779.457150,-0.062802690,-0.640864550,9.274231910,0.194177050,-0.061172240,0.016659500
1640772779.457460,-0.122184220,-0.476475120,9.390647890,0.145308670,0.053437060,-0.011767450
1640772779.462270,-0.128019940,0.127543690,9.283470150,0.175789010,0.088605300,-0.041358180
1640772779.463020,-0.178827050,0.541006920,9.925220490,0.155326710,0.028350950,-0.036169590
1640772779.468200,-0.236765670,0.908826950,9.991973880,0.178956970,0.037708870,0.008797640
1640772779.468670,-0.312325150,0.935271020,9.607223510,0.203721240,-0.026056170,0.034588580
1640772779.472220,-0.349874080,0.725908640,9.813382150,0.167919710,-0.037434700,0.061862180
1640772779.472540,-0.050943910,0.299132560,9.441227910,0.168176000,0.085814300,0.054964430
1640772779.477180,0.167680460,-0.208091650,9.839512830,0.186046960,0.099805020,0.011287630
1640772779.478620,0.175726980,-0.228604330,10.425464630,0.201410040,0.058846170,-0.024892390
1640772779.483170,0.153360110,-0.141900300,9.563447000,0.170083340,0.014002620,-0.028620660
1640772779.484030,-0.247724440,-0.130774710,9.357227330,0.126592810,-0.062040980,-0.040254000
1640772779.487720,-0.735005800,0.135388460,9.546944620,0.152713080,-0.055880840,-0.022974620
1640772779.489050,-0.541542530,0.519578160,9.027991290,0.163376330,0.025342410,-0.008308890
1640772779.492190,-0.494856980,0.733908890,10.235324860,0.147169840,0.086699430,0.012922290
1640772779.492480,-0.325995590,0.835794330,11.114009860,0.155133010,0.104971240,0.021004680
1640772779.497260,0.099494790,1.085109950,10.219986920,0.130404530,-0.027892000,0.017376240
1640772779.497770,0.062558490,1.079224590,9.969051360,0.076164310,-0.082990530,0.023348630
1640772779.502310,0.281049370,0.760921480,8.711473460,0.058028110,0.036329030,0.021959840
1640772779.502760,0.243630390,0.503688450,8.956481930,0.081591320,0.023341180,-0.023300950
1640772779.507130,0.052196530,0.374055560,10.201547620,0.083881600,0.085650380,-0.008878110
1640772779.507560,0.130906950,0.054397510,9.806877140,0.058843200,0.081861030,0.011751060
1640772779.512370,-0.336252750,-0.158074660,10.758466720,0.061991820,-0.062827770,0.005236270
1640772779.513000,-0.455319970,-0.049178410,9.940154080,0.041800740,-0.032506890,0.025931000
1640772779.517610,-0.293112810,-0.087444370,8.771424290,0.035248700,-0.004243850,0.021053850
1640772779.518260,-0.489931170,0.023903830,9.939047810,0.073985760,0.072124600,-0.014775990
1640772779.522200,-0.000338500,0.544433180,9.392933850,0.079126660,0.095115610,-0.030983980
1640772779.522530,0.228213430,0.797292770,9.769516940,0.021909180,0.022958220,-0.018133220
1640772779.527170,0.073440390,0.653678600,10.339050290,-0.005698200,0.072352590,0.007329880
1640772779.528060,0.189939380,0.490362520,9.578976630,0.059071180,-0.028477610,0.039570030
1640772779.532690,0.086670640,0.172600020,9.592480660,0.101009000,-0.034327800,0.052976610
1640772779.533200,0.271162360,-0.274292470,9.114752770,0.064931820,0.152386740,0.051392620
1640772779.537900,0.313795480,-0.473072710,9.900977130,0.071521110,0.145851110,0.010910630
1640772779.538690,0.042679930,-0.479908380,10.450404170,0.067350270,0.071486840,-0.028981270
1640772779.542230,-0.032871620,-0.425467460,9.493642810,0.067025450,-0.002951920,-0.035256160
1640772779.542780,-0.637205780,-0.218368720,9.359975810,0.120715800,-0.012940170,-0.030332810
1640772779.547280,-1.140490650,0.004787170,9.304014210,0.113905970,-0.012412670,-0.025814770
1640772779.548660,-0.940985800,0.345613720,9.185464860,0.100173060,0.013382730,0.016273560
1640772779.553260,-0.717457350,0.362279740,9.918449400,0.102099800,0.122047960,0.002360340
1640772779.553610,-0.252588510,0.401310680,10.684208870,0.121179220,0.082632900,-0.012086330
1640772779.557180,0.379878130,0.766699670,10.201237680,0.139409300,0.022266810,0.003901120
1640772779.557490,0.587949630,0.439258840,9.592586520,0.086860350,0.020499530,0.000305470
1640772779.562280,0.534079310,0.177363340,9.409257890,0.100937470,0.021941960,0.016599890
1640772779.562910,0.166865530,0.075479900,9.032355310,0.139343740,-0.025506320,-0.007604060
1640772779.567300,-0.212851700,-0.185244310,9.507617000,0.100047890,-0.017760700,-0.020216410
1640772779.568230,-0.484930070,0.152206930,9.893310550,0.085368760,0.076414640,-0.010634960
1640772779.572180,-1.009354950,0.264979420,10.682821270,0.072410690,-0.016707180,-0.040827680
1640772779.572600,-0.820418480,0.640660350,10.517069820,0.040538610,-0.039003790,-0.005403160
1640772779.577160,-0.530086340,0.905057250,9.377890590,0.065463790,0.027860700,-0.000382960
1640772779.578860,-0.433173120,0.666141990,9.831768040,0.088647020,-0.004111230,-0.019140540
1640772779.582280,0.121616360,1.027235150,9.391000750,0.064362590,0.043360900,0.001469250
1640772779.584120,0.226182950,0.853461030,9.420850750,0.003756580,-0.002221760,-0.001616780
1640772779.587230,0.222038430,0.461293010,10.466268540,-0.036120410,-0.015313930,0.003312530
1640772779.587710,0.409028860,0.488723160,9.707908630,0.009715560,-0.001074370,0.025777520
1640772779.592190,0.291758540,0.045842960,9.933165550,0.022763020,-0.032053890,0.021800400
1640772779.592620,0.429578360,-0.089268790,9.877859120,0.010436770,0.108239060,0.033527610
1640772779.597410,0.148347650,-0.077786860,9.700388910,0.029961770,0.068131070,0.005950030
1640772779.598170,-0.195212220,-0.065503630,10.137185100,-0.021235640,-0.047750770,-0.029143700
1640772779.602450,-0.269682500,0.222487910,9.137824060,-0.047421460,0.017371780,-0.017465650
1640772779.603190,-0.712236640,0.118632070,9.305367470,0.010740760,-0.010497870,-0.029331450
1640772779.607140,-0.861271260,0.345883700,10.033613200,0.022883710,0.007572770,-0.023950640
1640772779.607460,-0.495882600,0.618094560,9.443984990,0.008739530,0.058086220,0.006932020
1640772779.612330,-0.242932010,0.337515710,10.192905430,-0.026616460,0.049673020,0.015038250
1640772779.614190,0.128222300,0.218211160,10.285954480,-0.008627770,0.054681300,0.000435110
1640772779.617270,0.546866950,0.059670400,9.360086440,0.044055290,0.008365510,-0.004681950
1640772779.617760,0.499683350,-0.292222050,9.579755780,0.055456170,0.021131340,-0.006940960
1640772779.622160,0.220938350,-0.405574200,9.491280560,0.061117120,0.044637910,-0.017637010
1640772779.622530,-0.100309840,-0.271122430,9.386894230,0.022123760,-0.025241080,-0.021289290
1640772779.627280,-0.554775540,-0.298855220,9.884023670,-0.002881880,-0.001573560,-0.028526780
1640772779.628680,-0.894853470,-0.064035910,9.954431530,0.062331560,0.003471970,-0.036476550
1640772779.632240,-0.930085060,0.520409050,9.939501760,0.084450830,-0.051023060,-0.027950100
1640772779.632790,-0.804095750,0.588266020,9.983794210,0.036655370,0.006622080,0.003449620
1640772779.637270,-0.431862560,0.548183860,9.772820470,0.033757100,0.066627570,0.020027160
1640772779.637680,-0.312584280,0.579656480,10.161781310,0.063118350,-0.039777160,-0.006105010
1640772779.642220,-0.184806910,0.582769390,9.871042250,0.053539880,-0.089922550,-0.015375020
1640772779.643120,0.162527840,0.621945560,8.947426800,-0.003179910,-0.053997330,-0.030656160
1640772779.647400,-0.001722490,0.556426640,9.947002410,-0.030457980,-0.029031930,-0.030440100
1640772779.648260,0.083379540,0.495708260,10.261816980,-0.024144350,0.009149310,0.000697370
1640772779.652180,0.286591140,0.419172790,9.957981110,-0.008359550,-0.021007660,0.012944640
1640772779.652540,-0.000339400,0.054478890,10.591593740,0.020717080,-0.030754510,0.019046670
1640772779.657120,-0.088712280,0.194962020,9.625377660,-0.004215540,-0.028502940,0.005848710
1640772779.657550,-0.496045740,0.303513910,9.665119170,-0.057813530,-0.123007600,-0.026085970
1640772779.662190,-0.832917090,0.293222010,9.692987440,-0.086621940,-0.061915830,-0.032457710
1640772779.663820,-0.546626210,0.821891610,8.999810220,-0.074319550,-0.051866480,-0.047644970
1640772779.667540,-0.430284800,0.959822540,10.188577650,-0.084954500,-0.008644160,-0.019221010
1640772779.669460,0.122467340,0.832977240,10.215274810,-0.089366730,0.091664500,0.032459200
1640772779.672150,0.511493800,0.629991770,10.441870690,-0.046615300,-0.028276450,0.036226210
1640772779.672530,0.494290470,0.204596250,10.386252400,-0.064358120,-0.060845920,0.024543700
1640772779.677180,0.754071890,-0.139196890,8.686113360,-0.096187000,-0.036104020,0.021924080
1640772779.677580,0.326403110,-0.572746690,9.340992930,-0.064852830,0.001183150,-0.008291010
1640772779.682210,-0.059603180,-0.515139100,9.518541340,-0.072890530,0.039914240,-0.039862100
1640772779.683520,-0.103941830,-0.040638480,9.450340270,-0.092595820,-0.010617080,-0.022430720
1640772779.687200,-0.610658050,-0.219618320,10.459314350,-0.087155410,0.031983850,-0.009725990
1640772779.687930,-0.789623920,-0.046010840,10.212211610,-0.028397150,-0.019101800,-0.014197830
1640772779.692310,-0.720904770,0.439089360,9.930138590,0.006796420,-0.082649290,0.005486610
1640772779.693060,-0.513905230,0.155741620,9.484648700,-0.051501400,0.030118230,0.027792160
1640772779.697300,-0.056261630,0.145751940,9.385100360,-0.033791360,0.066173060,0.005695220
1640772779.697940,-0.003646700,0.182842490,10.014287950,0.001645090,0.025290250,-0.020709630
1640772779.702240,0.116086750,0.021184790,9.697997090,-0.019909440,-0.048516700,-0.024819380
1640772779.702840,0.201690610,0.229612020,9.381490710,-0.001198050,-0.060129170,-0.026269250
1640772779.707270,-0.159233930,0.201535970,9.769402500,-0.052931920,-0.032025580,-0.014689570
1640772779.708540,-0.064407750,0.073486510,9.962622640,-0.057829920,0.000135600,0.023727120
1640772779.712440,-0.138443620,-0.147794710,10.160409930,0.029458110,0.047004230,0.010788440
1640772779.713590,-0.430561450,-0.367238790,10.519639020,0.077176100,-0.014948850,-0.005307790
1640772779.717270,-0.524568620,0.099890390,9.897639270,0.049491240,-0.088100150,0.006215280
1640772779.717750,-0.856427970,0.264958620,9.190707210,-0.061161820,-0.128613430,-0.032088160
1640772779.722160,-0.806672100,0.458140430,9.188265800,-0.093661250,-0.098721690,-0.029008090
1640772779.723180,-0.486383860,1.136229520,9.469218250,-0.031587490,0.008478760,-0.033557420
1640772779.727120,-0.152668830,1.069109560,10.512776370,-0.028952960,0.013558570,-0.008457900
1640772779.727460,0.306784690,0.953455810,10.986408230,-0.008298460,0.016419590,0.026483830
1640772779.732330,0.402254760,0.931536440,10.408267020,-0.030955670,-0.080515440,0.011889640
1640772779.733150,0.360799940,0.400778320,9.878112790,-0.137263520,-0.144276010,0.032159690
1640772779.737200,0.251575830,0.148264910,8.792248730,-0.125867140,-0.057858220,0.001025200
1640772779.737640,-0.053245240,-0.102887570,8.949023250,-0.073727970,-0.052528090,-0.041292610
1640772779.742870,-0.139463320,-0.030929630,9.760292050,-0.082242490,0.012549760,-0.024786590
1640772779.743430,-0.239491550,0.180321110,10.037581440,-0.103208420,0.041458010,-0.006225710
1640772779.747520,-0.462469940,-0.119213220,11.053482060,-0.114332140,-0.073933610,0.007207690
1640772779.748040,-0.539763450,0.128822480,10.496429440,-0.094106800,-0.090736150,0.022618470
1640772779.752130,-0.388420280,0.153857290,9.082348820,-0.070565950,-0.115969790,0.017046930
1640772779.752530,-0.105391520,-0.102901090,9.274367330,-0.057120620,-0.001923740,0.005796550
1640772779.757200,0.174776020,0.258105250,9.091496470,-0.039577490,0.106418130,-0.024430460
1640772779.757800,0.398737130,0.363038720,9.775994300,-0.089812290,-0.017972300,-0.024200980
1640772779.762150,0.343035310,0.201424910,10.308769230,-0.110696260,-0.027579070,0.006119910
1640772779.762990,0.099233810,0.160078090,9.586832050,-0.053867700,-0.076864670,-0.006003680
1640772779.767320,-0.196986760,-0.042222000,10.010301590,-0.030097370,-0.104378170,0.008295480
1640772779.768650,-0.405231860,-0.226940960,9.697990420,-0.022676590,0.041088470,0.005118550
1640772779.772190,-0.344742890,-0.354418430,9.716944690,-0.008270150,0.013042990,-0.012776250
1640772779.772680,-0.438906520,-0.176463040,10.303894040,-0.022014980,-0.000675020,-0.024132430
1640772779.777130,-0.504684570,-0.059191820,9.647293090,-0.036379700,-0.034305450,-0.007237500
1640772779.777500,-0.432251750,0.029928000,9.569170000,-0.008428100,-0.110691790,-0.005979840
1640772779.782220,-0.564919290,0.264906350,9.601062770,0.015379490,-0.078886750,-0.012716650
1640772779.782800,-0.175350340,0.522652630,9.400631900,-0.017209350,-0.021773580,0.005665420
1640772779.787320,0.116989390,0.621390880,10.274609570,-0.035886460,0.064450490,0.005012750
1640772779.788270,0.065548050,0.681165160,10.921038630,-0.031746920,0.005707150,0.000984970
1640772779.793040,0.356350420,0.945070740,10.160121920,-0.046260650,-0.103780650,0.008650120
1640772779.793390,0.082420300,0.736385880,9.458838460,-0.071440640,-0.096802420,0.015480820
1640772779.797330,-0.159992770,0.339481260,9.197737690,-0.058592860,-0.070901200,0.008025770
1640772779.798120,-0.112009650,0.457669050,9.052764890,-0.060182810,-0.009837750,-0.007584690
1640772779.802390,-0.370782410,0.223607360,10.032679560,-0.102792670,0.003360210,-0.008736550
1640772779.803560,-0.214073060,-0.035244930,10.470832820,-0.103543680,0.014436240,0.006957350
1640772779.807130,-0.382503180,0.086501580,10.460732460,-0.056657210,-0.084286930,-0.005322700
1640772779.807500,-0.366387780,0.071494560,9.963903430,-0.085696590,-0.130587820,0.019027290
1640772779.812450,0.128571510,0.197119400,8.794305800,-0.104488430,-0.001218910,0.026716290
1640772779.813480,0.127506610,0.176482330,9.504446030,-0.083203620,0.040194400,-0.009496510
1640772779.817210,0.489518140,0.319071020,9.917857170,-0.087115170,0.046488650,0.006717440
1640772779.817600,0.568926220,0.343730360,9.695725440,-0.058114530,0.022131210,0.013740360
1640772779.822160,0.033551710,-0.015295780,10.266135220,-0.052292650,-0.077581410,0.002817810
1640772779.822510,-0.082378050,0.051796310,9.403101920,-0.066624590,-0.064855820,0.021325050
1640772779.827160,-0.492142650,-0.162253290,9.247838970,-0.073459750,-0.028863550,-0.003132220
1640772779.827600,-0.602947890,-0.319042740,9.882718090,-0.076206020,0.038670000,-0.018218160
1640772779.832320,-0.373502220,0.047125480,9.776767730,-0.019422170,0.057250260,-0.025659800
1640772779.833030,-0.390241710,-0.008339730,10.238596920,-0.029337410,-0.021480020,-0.019466880
1640772779.837820,-0.252741720,-0.057519650,9.940695760,-0.032211840,-0.026729700,0.019858780
1640772779.838440,-0.254993080,-0.103538650,9.329419140,0.031198560,-0.069531800,0.018776950
1640772779.842270,-0.296037140,0.004461060,9.498737340,-0.000990930,-0.078359250,0.011153520
1640772779.842730,-0.058400620,0.397697660,9.394243240,-0.055742270,0.036188960,0.009538230
1640772779.847330,0.005544250,0.362883750,10.158490180,-0.044648340,0.042352080,-0.009031590
1640772779.848160,-0.031552150,0.580554430,10.844400410,-0.028295810,-0.036744780,-0.031615800
1640772779.852190,0.105821670,0.877850530,9.865129470,-0.004681950,-0.063322480,-0.005656480
1640772779.853120,-0.123098810,0.623936410,9.506781580,-0.043424960,-0.072439010,0.006118420
1640772779.857170,-0.404688060,0.511000220,9.592774390,-0.070759660,-0.054666400,0.007693470
1640772779.857620,-0.322821050,0.386407260,9.165053370,-0.072358550,-0.021797420,0.011277200
1640772779.862550,-0.392349630,0.000402430,9.882809640,-0.064635280,-0.001846250,0.008751450
1640772779.863460,-0.370178880,0.000692730,10.488308910,-0.006066260,0.004710260,0.012281540
1640772779.870350,-0.142153050,0.304582060,10.025004390,-0.065316270,-0.069080290,0.017221270
1640772779.870770,0.036989270,0.233057020,9.851072310,-0.131441650,-0.070443760,0.027525430
1640772779.872180,0.335735470,0.235622790,9.381022450,-0.088864570,0.046743450,0.009931620
1640772779.872510,0.426751230,0.348806440,9.433971410,-0.046013300,0.017105040,-0.022766000
1640772779.877120,0.240117680,0.354603200,10.031936650,-0.032044950,-0.010007620,-0.013747810
1640772779.878520,0.146449010,0.317749710,9.303867340,-0.067009040,-0.016443430,-0.000764430
1640772779.882400,-0.328790660,0.135680450,9.757415770,-0.098744020,-0.093796840,0.003711880
1640772779.882980,-0.590202570,-0.022057320,9.852878570,-0.091744950,-0.018301600,0.022369620
1640772779.888920,-0.372532430,-0.124541480,9.314431190,-0.058513880,0.023522970,-0.006362800
1640772779.889560,-0.521977900,-0.178539050,10.411670680,0.003014500,0.008106230,-0.013914710
1640772779.892150,-0.037070860,0.026415450,9.667942050,-0.027641660,0.048670170,-0.008821490
1640772779.892530,0.161424350,-0.022780990,9.467455860,-0.060394410,-0.015497210,0.002849100
1640772779.897240,-0.148752570,-0.267119970,10.047108650,-0.021816790,-0.025059280,0.010217730
1640772779.897680,0.010490990,-0.013908420,8.988099100,0.008362530,-0.062616170,-0.006891790
1640772779.902670,-0.256841480,0.152062820,9.483641620,0.008121130,-0.060580680,-0.012929740
1640772779.903200,-0.272786320,0.360446420,10.004737850,-0.041590630,0.059695540,-0.022792820
1640772779.907130,-0.078959060,0.738377690,10.088786130,-0.058190530,0.015355650,-0.016626720
1640772779.907480,-0.162292910,0.702496170,10.705759050,-0.039933630,-0.021637980,0.008840860
1640772779.912380,0.079285380,0.497561420,9.709274290,-0.008155410,0.009417540,0.025057800
1640772779.913140,-0.065232390,0.401443570,9.459815980,0.039702650,-0.051070750,0.018939380
1640772779.917210,-0.309527810,0.262681420,9.594408040,-0.041645770,-0.030766430,0.009363890
1640772779.917710,-0.199715660,0.108971680,9.205607410,-0.098223970,-0.001271070,0.007973610
1640772779.922150,-0.385186400,-0.061809870,10.070970540,-0.041714310,-0.009308760,-0.004768370
1640772779.922560,-0.269439670,0.171178040,10.163259510,-0.030736630,-0.006231670,-0.000572200
1640772779.927160,0.076490660,0.407542940,9.805336950,-0.037632880,-0.000818070,0.027108190
1640772779.928600,0.117134200,0.253476740,10.011225700,-0.063551960,0.023552780,0.016458330
1640772779.932640,0.364996020,0.357968570,9.665891650,-0.055815280,0.019569690,0.016693770
1640772779.935420,0.232433860,0.399494740,9.479541780,-0.037074090,0.010725850,0.015366080
1640772779.937180,-0.022550400,0.123765880,9.601186750,-0.051285330,-0.015570220,-0.000582640
1640772779.937610,-0.143267990,0.231033940,9.458270070,-0.029005120,-0.010032950,0.018742680
1640772779.943120,-0.281463300,0.220520180,9.295519830,-0.062687700,0.018705430,0.013183060
1640772779.943700,-0.302292470,-0.092712120,10.070529940,-0.077724460,0.058574990,0.022038820
1640772779.949180,-0.204805240,-0.019087320,10.088460920,0.004723670,0.095607340,0.008088350
1640772779.950080,-0.195927520,0.024083010,10.034164430,-0.005522370,-0.030170380,-0.015789270
1640772779.952450,0.034261620,-0.051353370,9.709290500,-0.026561320,0.010341410,0.034587090
1640772779.953240,0.001110030,-0.326997310,8.957937240,-0.003203750,0.053083900,0.009615720
1640772779.957150,-0.283065110,-0.357798340,9.833916660,0.029957300,-0.025235120,-0.009754300
1640772779.957490,-0.216370310,0.107927950,9.459589000,0.008687380,0.031463810,-0.001800060
1640772779.962310,-0.349174650,0.166740430,9.539834020,-0.038319830,-0.019308930,-0.029136240
1640772779.963000,-0.470258860,0.475989550,10.515204430,-0.022171440,0.004507600,-0.017346440
1640772779.968860,-0.134950010,0.848314520,9.536693570,-0.000342730,0.040373210,-0.001019240
1640772779.969530,-0.054368390,0.483264510,10.073950770,0.011098390,0.011208650,0.019031760
1640772779.972120,0.000355740,0.332819370,10.144450190,0.048846010,0.089216230,0.023606420
1640772779.972540,0.052801430,0.250245390,9.329138760,0.024650990,-0.030772390,0.011435150
1640772779.977170,-0.285759930,-0.044777990,10.055309300,-0.027966500,-0.070068240,0.003723800
1640772779.978040,-0.293391410,0.091628160,9.070555690,-0.051233170,0.017648940,-0.019766390
1640772779.982300,-0.346681060,0.211366940,9.507885930,-0.036939980,-0.035586960,-0.015091900
1640772779.983090,-0.278917700,0.302987400,10.340862270,-0.024902830,0.081747780,0.007367140
1640772779.987280,0.077482040,0.427505220,9.710467340,0.007680060,0.076870620,0.024612250
1640772779.987750,-0.020041120,0.446697470,10.650001530,0.013241170,-0.039213900,0.029328470
1640772779.992140,-0.010952240,0.518882810,9.711135860,-0.055992610,-0.002484020,0.033965710
1640772779.992520,0.082383240,0.211988760,8.812658310,-0.061748930,-0.051446260,0.027503070
1640772779.997360,-0.200777680,-0.090563620,9.678049090,0.016199050,0.027300420,0.002266470
1640772779.998170,0.004623680,0.174831580,9.048660280,0.013136860,0.069770220,-0.006525220
1640772780.002500,0.042960600,0.213838670,9.901180270,-0.040324020,0.039298830,0.019961590
1640772780.003750,-0.138649480,-0.102615270,10.501001360,-0.053276130,0.070616610,0.011569260
1640772780.007150,-0.033637010,-0.018075180,9.798960690,0.001306830,-0.052240490,0.008101760
1640772780.007530,-0.124810310,0.003569850,9.665449140,0.042256720,-0.023505090,0.011691450
1640772780.012280,-0.152647380,-0.200595840,9.161242490,0.033353270,0.082862380,0.006890300
1640772780.015200,-0.144244890,0.018235880,9.532998090,0.028891860,0.049586590,-0.000824030
1640772780.017720,-0.333184270,0.064066570,9.828311920,0.003474950,0.027388340,-0.005282460
1640772780.018470,-0.295760870,-0.041686360,9.631131170,0.010284780,-0.019684430,-0.002878900
1640772780.022170,-0.387936710,0.337155700,9.705125810,0.061285500,-0.016917290,-0.013071300
1640772780.022580,-0.390780630,0.434979140,9.722148900,0.012384360,0.004164870,-0.000703330
1640772780.027320,0.031636940,0.413200350,9.751090050,-0.002929570,0.075432660,0.036405030
1640772780.028610,0.027632490,0.180714460,10.229020120,0.059655300,0.095696730,0.007103380
1640772780.035420,-0.091819900,0.077632430,10.434339520,0.079172860,-0.009396670,0.001637640
1640772780.035900,-0.107317850,0.507719810,9.382157330,0.040417900,-0.072698300,0.004574660
1640772780.037100,-0.499487160,0.229563850,9.237880710,-0.039814420,-0.073938070,-0.015777350
1640772780.037510,-0.496690630,0.466842380,9.323655130,-0.039248170,0.009822850,0.007891660
1640772780.042180,-0.356966760,0.783720790,9.629476550,-0.006319580,0.053834920,0.007158520
1640772780.042830,-0.075085830,0.281970080,10.617645260,0.022187830,0.069791090,0.029569860
1640772780.047490,0.177778600,0.555008770,10.486199380,0.063486400,0.052650280,0.029560920
1640772780.048340,-0.062089290,0.507950070,10.198279380,-0.012749430,-0.099095700,0.015331800
1640772780.052150,0.046126680,0.166583110,9.252229690,-0.102627280,-0.082993510,0.038422640
1640772780.052540,0.024785960,0.172883270,8.256013870,-0.041300060,0.012274090,-0.001415610
1640772780.057140,-0.068159100,0.003078620,9.441949840,0.005972390,0.062671310,-0.005149840
1640772780.057610,0.044746860,0.166923550,10.047550200,0.014626980,0.118072330,0.026646260
1640772780.062470,-0.131851450,0.042927000,10.357670780,0.012123580,-0.016707180,0.023223460
1640772780.063850,-0.234785170,-0.075671440,10.621512410,-0.035023690,-0.082536050,0.035059450
1640772780.071090,-0.228964670,0.162096140,9.189113620,-0.040435790,-0.018921500,0.031897430
1640772780.071540,-0.238036870,-0.284022750,9.275792120,0.020280490,0.006933510,-0.000099840
1640772780.072130,-0.218874720,-0.065644840,9.597228050,0.079879160,0.112952310,-0.021059810
1640772780.072570,-0.175507650,0.356075940,9.409878730,0.063282260,0.025588280,-0.015467410
1640772780.077210,-0.280617680,0.323117670,10.232159610,-0.048175460,-0.058515380,0.007638340
1640772780.077620,-0.378734140,0.388666600,9.694117550,-0.040635470,-0.039647520,0.022998450
1640772780.082300,-0.208403740,0.311113450,9.415488240,0.024175640,-0.058020650,0.019346170
1640772780.084200,-0.145794500,0.158915370,10.140350340,0.063550470,0.069749360,0.021106010
1640772780.087380,0.011006910,0.123194570,10.039168360,0.101332370,0.085015580,0.012345610
1640772780.088360,0.043184790,0.391442240,10.363536830,0.019818540,-0.036323070,0.001926720
1640772780.092260,-0.173814370,0.444659260,9.915346150,-0.084282470,-0.073409080,0.013323130
1640772780.092840,-0.182004620,0.231005790,8.957500460,-0.037555390,-0.083953130,-0.007425250
1640772780.097200,-0.279043530,0.454299330,9.265464780,0.059330460,-0.019510090,-0.023923810
1640772780.097700,-0.335885520,0.671748580,9.774196620,0.042349100,0.050358470,0.007845460
1640772780.102290,-0.056900860,0.496911760,10.224732400,-0.037109850,0.050625210,0.046631690
1640772780.103180,-0.157600480,0.236581390,10.736491200,-0.046592950,-0.023125110,0.039111080
1640772780.107260,-0.137143180,0.124490040,10.069090840,-0.007440150,-0.080278520,0.041158500
1640772780.107670,0.024531810,0.079457620,8.970178600,0.007946790,-0.058300800,0.012178720
1640772780.112570,-0.124883490,-0.046509600,9.069473270,0.011406840,0.001971420,-0.026893610
1640772780.113760,0.149491670,0.244322460,9.127836230,-0.034508110,0.081089140,-0.009834770
1640772780.117230,0.092475470,0.222329710,9.974946020,-0.050939620,0.038135050,0.003831090
1640772780.117640,-0.156162200,-0.079321350,10.591848370,0.009356440,-0.043916690,0.023116170
1640772780.122160,-0.141244780,0.199156120,9.671648980,0.054331120,-0.083822000,0.024341050
1640772780.122850,-0.417659430,0.034092980,9.673733710,0.027303400,-0.060147050,0.023199620
1640772780.127390,-0.300412890,-0.172005770,9.369831090,-0.001445410,0.040413440,0.015114250
1640772780.128570,-0.099139120,0.014167880,9.312327380,0.039377810,0.060592600,-0.020083790
1640772780.132240,-0.251690570,0.080122980,10.246640210,0.029963260,0.009055440,-0.022454570
1640772780.132670,-0.105273310,0.259866950,9.668872830,0.026774410,-0.034870210,-0.003147130
1640772780.137140,-0.349618700,0.217984800,9.505171780,0.058768700,-0.124266760,0.003276770
1640772780.137550,-0.413614270,0.242380430,9.524981500,0.022418800,-0.045506670,0.012235350
1640772780.142130,-0.129094270,0.365414830,9.468321800,0.018179420,0.043550140,0.023004410
1640772780.142640,-0.231933340,0.031027330,10.702676770,0.058402120,0.041241940,0.013941520
1640772780.147250,-0.069636400,0.389142660,10.545347210,0.068335220,-0.022755560,0.001858170
1640772780.147840,-0.026763200,0.667136190,9.604140280,0.031466790,-0.112819670,0.012193620
1640772780.152250,-0.236929070,0.441340090,9.297415730,-0.031970450,-0.084994760,0.002460180
1640772780.152700,-0.165882010,0.715977790,8.868119240,-0.016896430,-0.020615750,-0.000207130
1640772780.157260,-0.165040840,0.648390230,9.569738390,0.013764200,0.006118420,0.008459390
1640772780.157800,-0.161538020,0.377405790,10.330840110,0.006473060,0.023826960,0.016805530
1640772780.162300,0.002925630,0.431668520,10.402868270,0.034606460,-0.020574030,0.033551460
1640772780.162850,-0.188160290,0.156506930,10.340124130,-0.036330520,-0.082637370,0.038664050
1640772780.167300,-0.089543480,-0.082307160,9.592509270,-0.060431660,-0.079351660,0.034020840
1640772780.167810,0.065637210,-0.180042710,8.850659370,0.019061570,-0.005890430,-0.003010030
1640772780.172250,0.051970050,-0.071791130,9.176137920,0.028310720,0.033918020,-0.022098420
1640772780.172770,0.080542410,0.158074840,9.881333350,0.001347070,0.050011280,0.000692900
1640772780.177750,-0.105299450,0.099541680,9.936341290,-0.015823540,-0.038973980,0.006048380
1640772780.178430,-0.336838190,-0.004767660,10.191003800,-0.000159440,-0.140826370,0.012679400
1640772780.182120,-0.286739740,0.311485680,9.393475530,0.018860400,-0.018918510,0.019264220
1640772780.182580,-0.319256250,0.150270520,9.529889110,0.019514560,0.004723670,0.009016690
1640772780.187500,-0.342193510,0.217858990,10.438564300,0.052659220,0.012245770,0.000813600
1640772780.188210,0.060045240,0.579660770,9.290974620,0.012278560,-0.005102160,-0.003959240
1640772780.192160,-0.067396370,0.288899120,9.832091330,-0.024746360,-0.076282020,0.009807950
1640772780.192560,-0.174431880,0.254888360,9.784968380,0.022067130,-0.021272900,0.008259710
1640772780.197160,-0.135423690,0.449851750,9.178400040,0.014363230,-0.083638750,-0.012253230
1640772780.197640,-0.254071830,0.353482010,10.204215050,-0.017827750,-0.031633680,0.016380850
1640772780.202310,-0.063662480,0.252899740,9.815203670,-0.006501380,0.071661170,0.011505190
1640772780.203060,-0.124873450,0.389688760,10.386563300,0.006978210,-0.062912700,0.010012090
1640772780.208910,-0.200636220,0.485630480,10.410885810,-0.022260840,-0.048741700,0.029394030
1640772780.209550,0.005757410,0.386717620,8.872074130,-0.049854820,-0.061427070,0.014472010
1640772780.212230,-0.148110460,0.395835520,9.462968830,-0.025743250,-0.073544670,-0.010320550
1640772780.212780,-0.054727550,0.512013790,9.260572430,-0.035092230,0.056725740,-0.001984830
1640772780.217140,0.105144920,0.318092470,9.644486430,-0.030609970,0.007908050,0.025291740
1640772780.217520,-0.213633780,0.095584770,10.933064460,-0.007426740,-0.029139220,0.039204960
1640772780.222170,-0.029656480,0.115304030,9.753274920,-0.025856490,-0.061666960,0.045368070
1640772780.222600,-0.008725580,0.010550300,9.528264050,-0.052072100,-0.080801530,0.036688150
1640772780.227470,-0.109745340,-0.174608420,9.463943480,-0.026078530,0.040830680,0.001887980
1640772780.228400,0.183874500,0.023661030,9.184254650,0.004117190,0.017327070,-0.023351610
1640772780.233760,0.081672620,0.196123290,9.853524210,-0.002753740,0.020718580,-0.011928380
1640772780.234470,-0.115932150,-0.009696020,9.828631400,-0.017754730,-0.017914180,0.009649990
1640772780.237270,-0.302288260,0.004927540,9.865741730,0.021877890,-0.086851430,0.024950510
1640772780.237720,-0.620979370,-0.008417910,9.667486190,0.016649070,-0.068818040,0.023770330
1640772780.242100,-0.414511200,-0.151873980,9.502923970,0.005725030,-0.010380150,0.028492510
1640772780.242610,-0.273396580,0.046280590,9.808465960,0.050745900,0.057196620,-0.001512470
1640772780.248200,-0.091102350,0.204939260,10.078893660,0.026625400,-0.002028050,-0.011786820
1640772780.248660,0.256764380,0.298165260,9.712153430,0.009371340,-0.007371600,0.031076380
1640772780.252680,0.021646650,0.118853640,9.595404620,0.054782630,-0.051151220,0.016987330
1640772780.254470,-0.185548190,0.036696680,9.716026310,0.065702210,-0.097909590,0.011895600
1640772780.257170,-0.242298960,0.452907320,9.208114620,0.038321320,-0.035160780,0.022047760
1640772780.257560,-0.498091340,0.248036860,10.009511950,-0.006811320,-0.017984210,-0.003470480
1640772780.262300,-0.308108900,0.472466560,10.458700180,-0.012516980,0.021219250,0.004996360
1640772780.263020,-0.225573600,0.825871530,10.057488440,0.020530830,-0.038328770,0.006772580
1640772780.269050,-0.152536380,0.480655820,10.172025680,0.008004900,-0.066550080,0.023366510
1640772780.269540,0.077135180,0.638154630,9.197574620,0.021298230,-0.010730330,0.017713010
1640772780.272120,-0.096036420,0.565459370,9.334856030,-0.021004680,-0.071823600,-0.010319050
1640772780.272560,-0.076275070,0.313782300,9.881061550,-0.073315210,-0.010119380,0.024451320
1640772780.277670,-0.130435410,0.263338830,9.675974850,-0.008678440,-0.021746750,0.020916760
1640772780.278380,-0.244414460,0.198154940,10.364190100,-0.010058280,-0.084370380,0.015608970
1640772780.282190,0.070953180,0.345500500,9.683804510,-0.057195130,0.019326810,0.044542550
1640772780.282720,0.085406500,0.095379520,9.609034540,-0.031046570,0.003750620,0.023588540
1640772780.287150,0.025347490,0.129701760,10.125652310,-0.032888350,-0.016176700,-0.001825390
1640772780.287550,0.130651980,0.346444400,9.211918830,-0.030754510,-0.016973910,0.008125600
1640772780.292160,-0.016852180,0.030425160,9.374849320,-0.022259350,-0.051534180,0.002795460
1640772780.292600,-0.229533720,0.095861050,9.745674130,-0.025753680,0.002546610,0.000889600
1640772780.297200,-0.230728510,0.212487580,9.518570900,-0.028082730,-0.007185340,0.016710160
1640772780.297680,-0.175742360,0.044150910,10.021582600,-0.048981610,-0.009344520,0.002448260
1640772780.303540,-0.135579840,0.073280570,10.001955990,-0.011353200,0.028608740,-0.016401710
1640772780.304460,0.090023580,0.187647390,9.612072940,0.011184810,0.006382170,0.002309680
1640772780.307570,0.012158830,-0.118933690,9.799883840,-0.005292890,0.000980500,0.001151860
1640772780.308340,-0.199206740,-0.303365860,9.533723830,0.036440790,-0.009392200,-0.000792740
1640772780.312230,-0.279106860,-0.100670640,9.178823470,0.032615660,-0.055891280,-0.011053680
1640772780.312830,-0.561212180,-0.094931480,9.742313390,-0.008460880,-0.034992390,-0.030930340
1640772780.317300,-0.524514620,0.190297190,9.811322210,-0.002597270,0.002464650,-0.035198030
1640772780.317900,-0.260137470,0.623237250,9.941236500,0.006704030,-0.004696850,-0.028353930
1640772780.322110,-0.173838840,0.608961280,10.540832520,0.014905630,0.025957820,-0.002172590
1640772780.322600,0.156860110,0.615681530,9.861345290,0.025075670,0.010447200,0.007638340
1640772780.327610,0.081553760,0.509022950,9.661831860,0.045892590,-0.084336090,0.003185870
1640772780.328520,-0.133511840,0.429632430,9.509030340,-0.014208260,-0.051732370,0.000563260
1640772780.332360,-0.107524160,0.423974720,9.051259040,-0.061984370,-0.027540330,-0.011859830
1640772780.332940,-0.460957170,0.255563380,10.203393940,-0.035203990,-0.050459790,-0.025446710
1640772780.337200,-0.218433380,0.413922700,9.950266840,-0.029379130,0.015029310,-0.007538500
1640772780.337670,0.117168140,0.448492910,9.856903080,-0.029271840,0.008183720,0.007355210
1640772780.342120,-0.019440840,0.102497320,10.552738190,-0.023919350,0.023497640,0.008639690
1640772780.342660,0.212972660,0.212886230,9.515358920,-0.022099910,-0.029933450,0.004632770
1640772780.347190,0.025368480,0.104717770,9.409776690,-0.031244760,-0.075076520,-0.004152950
1640772780.349970,-0.106249900,-0.057979490,9.179611210,-0.048305090,-0.010657310,-0.008067490
1640772780.352180,-0.031405680,0.215517360,9.196831700,-0.018435720,0.023721160,-0.005486610
1640772780.352690,-0.295839850,0.221819270,10.286286350,-0.039002300,0.034064060,0.002992150
1640772780.357130,-0.104824760,0.259028940,10.160056110,-0.041690470,-0.002363320,0.011521580
1640772780.357590,0.050640840,0.299927350,9.807893750,0.000147520,-0.025093550,0.007118280
1640772780.362240,-0.014578970,0.079858150,9.559163090,-0.016966460,0.014452630,0.000026820
1640772780.362790,0.107509320,-0.018429720,9.424433710,-0.002603230,0.035874550,0.015553830
1640772780.370200,-0.097271230,-0.269747380,9.513876910,0.035391750,0.005088750,-0.007975100
1640772780.370800,-0.196021800,-0.203971770,9.515842440,0.002455710,-0.027889020,-0.031423570
1640772780.372150,-0.242883430,0.069387430,9.520992280,-0.021198400,0.011640790,-0.020295380
1640772780.372540,-0.539427520,-0.077098910,9.855270390,-0.006040930,-0.009796020,-0.048954780
1640772780.377480,-0.421794410,0.265142740,10.118110660,0.047068290,-0.041830540,-0.034873180
1640772780.379220,-0.031267170,0.540914420,9.418177600,0.032748290,0.048358740,0.001189110
1640772780.382340,-0.021358050,0.003014080,10.087797160,0.011938810,0.050650540,0.018869340
1640772780.384850,-0.013307940,0.033127160,10.220413210,0.077152260,0.028905270,0.015422700
1640772780.387110,-0.112853370,0.207240220,9.296226500,0.054821370,-0.104752170,-0.012686850
1640772780.387560,-0.293974640,0.237802000,9.451962470,-0.014719370,-0.109659120,-0.024975840
1640772780.392160,-0.316738670,0.640920520,9.073627470,-0.034998350,0.033734730,-0.046648080
1640772780.392660,-0.307414350,0.723347780,10.032425880,-0.029507280,0.002050400,-0.032773610
1640772780.402620,-0.163615750,0.632168890,10.999917030,0.022266810,0.046746440,-0.005634130
1640772780.403300,0.040125410,0.587593500,10.019402500,0.065118070,-0.006058810,-0.010301170
1640772780.403640,-0.084696350,0.467558560,10.153602600,0.007809700,-0.119070720,0.001129510
1640772780.403920,-0.144428060,0.372928860,9.211752890,-0.082680590,-0.011031330,0.008752940
1640772780.407300,-0.219409450,0.073816720,8.884646420,-0.072206560,-0.065401200,-0.016586480
1640772780.407810,-0.260332080,0.142898920,9.870136260,0.002418460,-0.030767920,-0.014188890
1640772780.412280,0.108803060,0.436471490,9.406204220,-0.008249280,0.079751010,-0.006762150
1640772780.413250,0.232657660,0.325679480,10.577490810,-0.054579980,0.019562250,0.009250640
1640772780.417430,0.127458010,0.238949690,10.886023520,-0.047656890,0.017006700,0.005531310
1640772780.418080,0.282445130,0.311435520,9.273950580,-0.032521790,-0.089778010,-0.006015600
1640772780.422130,0.060516330,0.173203680,9.197735790,-0.030934810,-0.053457920,-0.003777440
1640772780.422590,-0.189974340,-0.002157140,8.846613880,-0.013665850,0.070452680,-0.015121700
1640772780.428060,-0.284926650,0.235269260,9.362583160,-0.033225120,-0.003725290,-0.024192040
1640772780.428700,-0.509746070,0.161271750,10.254918100,-0.072990360,0.014926490,-0.014694040
1640772780.434260,-0.343907710,-0.050196170,9.915943150,-0.037334860,-0.006344910,-0.022478400
1640772780.435140,-0.283213730,0.214828950,10.146705630,0.014288720,-0.033955280,-0.020959970
1640772780.437180,-0.193061500,0.124410560,9.847448350,-0.016464300,0.026814640,0.007833540
1640772780.437560,0.108538960,-0.219883400,9.531301500,-0.013126440,0.028891870,0.018276280
1640772780.442380,0.009768670,-0.235370130,9.667022710,0.042271620,0.016075370,-0.011031330
1640772780.443750,-0.104351880,-0.142253640,9.596574780,0.018100440,-0.046266610,-0.024005770
1640772780.449400,-0.148813990,0.234201850,9.346677780,-0.009758770,-0.053828960,-0.019007920
1640772780.449860,-0.467180550,0.476974840,9.696120260,-0.035448380,-0.050666930,-0.049653650
1640772780.452130,-0.272332130,0.749329210,9.926351550,-0.046584000,0.001131000,-0.012834370
1640772780.452610,-0.062971180,0.807452560,9.963253970,0.007884200,0.065170230,0.004513560
1640772780.457160,-0.125238540,0.349040480,10.711508750,0.047554070,0.021034480,-0.007107850
1640772780.457580,0.064426960,0.510496620,9.932600980,0.040216740,-0.022007520,0.015729670
1640772780.462380,-0.267794340,0.305478570,9.376713750,-0.043377280,-0.116007030,-0.005291400
1640772780.463300,-0.308684470,-0.123857580,9.155159950,-0.092476610,-0.074595210,0.001941620
1640772780.467210,-0.172522490,0.121306990,8.654326440,-0.021712480,0.014486910,-0.017319620
1640772780.467770,-0.138327610,0.003605380,9.912459370,-0.000523030,0.038123140,-0.016318270
1640772780.472140,0.183571830,0.060267600,10.514127730,0.003811720,0.102104240,0.020395220
1640772780.472570,0.116557780,0.157227780,10.463029860,0.027507540,-0.022053720,0.005614760
1640772780.477510,0.015730830,0.046615810,10.266387940,-0.041367120,-0.114507990,0.006063280
1640772780.478690,0.167522670,0.089232390,8.698932650,-0.036089120,-0.007338820,0.023005900
1640772780.482280,-0.132182610,-0.206297050,8.986746790,0.047102570,0.020915270,-0.026227540
1640772780.482700,-0.230110810,0.204701510,9.685966490,0.038723650,0.064840910,-0.032308690
1640772780.487110,-0.217675460,0.508559880,9.463546750,-0.008274610,0.011496250,-0.010539590
1640772780.487550,-0.353992760,0.156098840,10.360328670,-0.054438410,-0.041535490,-0.009407100
1640772780.492220,-0.414843380,0.321552540,10.083358760,0.002436340,-0.012494620,0.007246430
1640772780.492940,-0.241107990,0.186580110,9.550610540,0.061555200,-0.023899970,0.013528760
1640772780.499210,-0.097079920,-0.106220460,9.960829730,0.052896130,0.039282440,0.004225970
1640772780.499740,0.014999260,0.099271350,9.619097710,0.041133160,0.070254510,-0.002358850
1640772780.502290,0.026570680,0.212466020,9.959840770,-0.027810040,-0.041002040,-0.005196040
1640772780.503010,-0.131409530,0.260943350,9.867156980,-0.046877560,-0.054618720,-0.017349420
1640772780.507320,-0.132283140,0.539125800,9.181396480,0.020502510,-0.062382230,-0.029456620
1640772780.508430,-0.100247680,0.855225500,9.556131360,-0.006324050,0.014807290,-0.015109780
1640772780.512250,-0.159751650,0.637451590,10.309255600,-0.028967860,0.096789020,0.013576450
1640772780.512810,-0.010780780,0.512337030,10.378046040,-0.006014110,0.019472840,0.014179950
1640772780.517140,-0.054738260,0.452424910,10.263672830,-0.020691750,-0.064881150,0.016523900
1640772780.517640,-0.146664430,0.218325020,9.550353050,-0.053827460,-0.038966530,0.007687510
1640772780.522120,-0.122918930,0.144710570,9.011427880,-0.060489770,-0.000996890,-0.018747150
1640772780.522630,-0.198990400,0.049649300,9.497041700,-0.027427080,0.004595520,-0.035689770
1640772780.527570,0.137902190,0.150424750,9.396912570,-0.027658050,0.077828750,-0.001636150
1640772780.528910,0.159455910,0.097431670,10.039912220,-0.034661600,0.048960750,0.010679660
1640772780.534830,-0.159607460,-0.096453620,10.763452530,-0.008423630,-0.013156240,0.026811660
1640772780.535280,0.046223780,0.091076140,9.549180980,-0.020562110,-0.052145130,0.031603870
1640772780.537150,-0.110136580,-0.102839180,9.411135670,-0.011476870,-0.023792690,-0.005325680
1640772780.537560,-0.012787470,-0.052693800,9.230878830,-0.004497170,0.092984740,-0.028462710
1640772780.542160,0.115989150,0.354538110,9.311054230,0.002044440,0.099939120,-0.033314530
1640772780.542660,-0.227008250,0.164262590,10.451897620,-0.018118320,0.017176570,-0.019791720
1640772780.547280,-0.218196780,0.077590450,9.709289550,0.004714730,-0.040651860,0.003468990
1640772780.547860,-0.380497900,0.022045290,9.401458740,0.048540540,-0.065945090,0.001111630
1640772780.552160,-0.536200760,-0.226522190,9.759926800,0.016124550,0.042204560,0.008352100
1640772780.552560,-0.209762160,-0.128608230,9.710022930,0.031872100,0.093562910,0.003613530
1640772780.557230,-0.148058060,-0.005397740,10.402251240,0.050848730,0.034397840,-0.023332240
1640772780.557690,0.028055580,0.361985980,10.145835880,-0.004224480,0.016251210,-0.012499100
1640772780.562220,0.044230400,0.533212960,9.465314870,0.017653410,-0.044383110,-0.011509660
1640772780.562850,-0.292651590,0.514951290,9.564326290,0.020375840,-0.066533670,-0.026376540
1640772780.567390,-0.118560090,0.825214920,9.067773820,-0.003309550,0.004200640,-0.006085630
1640772780.568220,-0.133612190,0.690748270,9.858562470,-0.009945030,0.082649300,0.008106230
1640772780.572210,-0.157829540,0.440707300,10.774718280,-0.020353500,0.061851740,0.006054340
1640772780.572750,-0.013408090,0.616943000,10.510940550,-0.000043210,-0.022101400,0.007955730
1640772780.577160,-0.132301510,0.333874910,9.878537180,-0.046609350,-0.054161260,0.000581150
1640772780.577600,-0.095161810,0.052758990,9.139424320,-0.051935020,-0.021582840,-0.010602180
1640772780.583840,-0.023222160,0.180333410,8.867388730,-0.006937980,0.054276000,-0.028610230
1640772780.584200,-0.105508690,0.209444360,9.522226330,-0.059889260,0.062012680,-0.019811090
1640772780.587310,-0.050245820,0.048333120,10.329456330,-0.049975520,0.036540630,0.022549930
1640772780.588780,-0.091093980,0.054729830,10.060325620,-0.016398730,-0.005631150,0.008833410
1640772780.592150,-0.214317770,0.023273500,10.110993390,-0.030310460,-0.055250530,0.013166670
1640772780.592640,-0.114434830,0.092018130,9.622393610,-0.022827090,0.044883790,0.004377960
1640772780.597220,-0.081203400,0.146034760,9.256815910,-0.031630700,0.026459990,-0.047837200
1640772780.597730,-0.044525240,0.329603110,9.751180650,-0.035765770,0.018930440,-0.026525560
1640772780.602290,0.182638450,0.302912270,9.126485820,-0.034639240,0.104053320,-0.023922320
1640772780.604120,-0.215585490,-0.004668940,10.136034010,-0.005987290,-0.025342400,-0.009532270
1640772780.607130,-0.443104420,0.057599350,10.338091850,0.029692050,-0.041495260,0.020523370
1640772780.607590,-0.247905750,0.055943100,9.015855790,-0.024770200,-0.038875640,0.013086200
1640772780.612700,-0.400966500,-0.121761430,10.157358170,-0.035540760,0.025194890,0.013312700
1640772780.613780,-0.176816850,0.090895560,9.953325270,0.003042820,0.124549880,0.000552830
1640772780.617310,-0.065778840,0.403459010,10.034716610,0.007972120,-0.016227360,-0.012749440
1640772780.617960,-0.173268380,0.540777920,10.223931310,-0.001829860,-0.048565860,0.018195810
1640772780.622150,0.013550000,0.615443710,8.744320870,-0.030460950,-0.030039250,-0.007203220
1640772780.622660,-0.188466410,0.697180090,9.521227840,-0.053222480,-0.031164290,-0.013229250
1640772780.627160,-0.311879630,0.581266760,10.054379460,-0.054045030,0.086104870,0.009834770
1640772780.627570,-0.148683440,0.422714170,9.968130110,-0.025388600,-0.005438920,0.013065340
1640772780.632260,-0.254358860,0.454843640,10.585445400,-0.025497380,-0.047872960,0.021556020
1640772780.637840,0.032039430,0.288793440,9.501014710,-0.085051360,0.031311810,0.041978060
1640772780.638360,0.121781940,-0.031266730,9.489926340,-0.063890220,0.005535780,0.027023260
1640772780.638860,-0.031085550,-0.088236120,9.740142820,-0.019963090,0.034835940,-0.000682470
1640772780.642150,0.245431810,-0.031221230,9.079202650,-0.029623510,0.017158690,0.002370770
1640772780.642580,-0.082300270,-0.078652040,9.892478940,-0.031365460,0.012820960,0.015112760
1640772780.647310,-0.387605610,-0.123770280,10.003829000,-0.034004450,-0.010973220,0.009052450
1640772780.648000,-0.287356110,0.119684520,9.627389910,-0.040416430,-0.056917980,0.016009810
1640772780.652150,-0.339131860,0.099510120,9.610750200,-0.016801060,0.044855480,-0.001725550
1640772780.653000,-0.130011980,0.180836810,9.767821310,-0.000301000,0.063817210,-0.025542080
1640772780.657140,0.101765680,0.592007520,9.794555660,0.007867810,0.040484960,-0.000946220
1640772780.657710,0.096554610,0.247591360,9.715473180,-0.038465860,0.023956600,0.007665160
1640772780.662650,0.083501330,-0.011477590,9.730129240,-0.012938680,-0.005711620,0.023320320
1640772780.663950,-0.268030760,-0.117358040,9.520580290,0.054563590,-0.031468280,0.015158950
1640772780.670040,-0.432138980,-0.326512340,9.637864110,0.018750130,-0.042794650,-0.008144970
1640772780.670650,-0.317837450,0.005234890,9.588067050,0.001053510,0.055018070,-0.007276240
1640772780.672140,-0.432766500,0.044021220,10.236081120,-0.022336840,0.033213200,-0.030690430
1640772780.672600,-0.185695130,0.315613240,10.516352650,-0.008448960,0.012271100,0.004926320
1640772780.677150,-0.018606190,0.528594320,9.610652920,0.044979160,-0.002710520,0.011169910
1640772780.677730,-0.097147210,0.296647160,9.723358150,0.049406290,-0.043275940,-0.008778270
1640772780.682770,-0.027617810,0.769986630,9.350505830,0.000539420,0.018212200,0.018349290
1640772780.684270,-0.230879580,0.522721470,9.537606240,-0.055573890,-0.014723840,0.004276630
1640772780.687350,-0.234079820,0.276668370,10.234596250,-0.031821430,-0.025689610,-0.011670590
1640772780.687900,-0.053202610,0.653231140,9.573493960,0.006212300,0.021110480,0.003108380
1640772780.692120,-0.118641590,0.253890600,10.130778310,-0.021933020,-0.007098910,0.019517540
1640772780.692570,0.125098020,0.155124250,10.012305260,-0.035654010,0.035232310,0.014156100
1640772780.697310,0.184359540,0.152711730,9.290664670,-0.016267600,0.011153520,-0.002166630
1640772780.697880,0.003624340,-0.098153990,9.978585240,-0.028549130,-0.011847910,0.012792650
1640772780.702350,-0.102668790,-0.097183380,9.360879900,0.000135600,0.021700560,0.018653270
1640772780.703940,-0.382844090,-0.117397080,9.459671020,0.024908780,-0.070188920,0.001296400
1640772780.707140,-0.514504910,0.100609530,9.905941960,-0.025856500,-0.010067220,0.013472140
1640772780.707600,-0.319585890,0.181109890,9.329031940,-0.038395820,0.038188700,0.010718410
1640772780.712530,-0.228341950,0.222958250,10.308342930,-0.003124770,0.013911730,-0.013616680
1640772780.713780,-0.050402340,0.483469840,10.050199510,0.027738510,0.030548870,-0.006586310
1640772780.718180,0.206016840,0.366669710,9.305109020,0.027835370,-0.016066430,0.007751590
1640772780.718640,0.029435520,0.088141960,9.769709590,0.017321110,-0.006791950,0.017085670
1640772780.722140,-0.199892240,-0.070833170,9.323677060,0.020775200,-0.010733310,0.010991100
1640772780.722590,-0.272350670,-0.100183930,9.434143070,0.014817720,-0.059957810,0.002558530
1640772780.727110,-0.516741930,-0.090609460,9.948637960,0.013209880,-0.008723140,-0.017836690
1640772780.727610,-0.348928090,0.156966880,9.891426090,0.026859340,0.002081690,-0.012028220
1640772780.732270,-0.219508500,0.426772980,10.310277940,0.000642240,0.013874470,0.020045040
1640772780.733050,-0.236062940,0.169196320,10.294265750,0.021114940,0.001484160,0.022865830
1640772780.738230,-0.064672140,0.309568490,9.628366470,0.068239880,-0.059674680,0.014080110
1640772780.738650,-0.189908830,0.552905140,9.372854230,0.038893520,-0.076064470,0.002400580
1640772780.742150,-0.247128130,0.486550300,9.402235030,-0.045621400,-0.038489700,0.004866720
1640772780.742650,-0.114141900,0.649401010,9.587733270,-0.043506920,0.000706320,0.007365640
1640772780.747230,-0.139660550,0.511405170,10.265545850,-0.002999600,-0.016747420,0.008097290
1640772780.747780,0.177550630,0.472889780,10.208331110,0.011515620,0.027972460,0.034397840
1640772780.752300,0.301380220,0.414189700,9.923003200,0.013189020,0.000104310,0.026784840
1640772780.753760,0.053777400,0.016782650,10.093118670,-0.017911190,-0.041618940,0.023014840
1640772780.757110,0.095195650,0.042652660,9.119078640,-0.038979950,-0.028428440,0.024642050
1640772780.757590,-0.289047600,-0.163471160,9.269388200,-0.004510580,-0.053811080,0.005143880
1640772780.762760,-0.369389000,-0.128416960,9.495843890,0.005188590,-0.006026030,0.003522630
1640772780.763500,-0.091554140,0.392585990,9.359436990,-0.015170870,0.039653480,0.014737250
1640772780.767860,-0.164674510,0.088638420,10.589556690,-0.042141980,0.041757520,0.017993150
1640772780.768630,0.146591340,0.172723310,10.262027740,0.002597270,0.029331450,0.016497080
1640772780.772160,0.287994500,0.384599030,9.582497600,0.057560210,-0.020653010,0.002807380
1640772780.772620,0.138324220,0.135533180,9.516842840,-0.005303320,-0.001211460,0.019618870
1640772780.777150,0.097383310,0.071990970,8.939155580,0.002563000,0.035254650,0.012923780
1640772780.779180,-0.245602670,-0.074183490,9.473168370,0.021921100,-0.011426210,-0.009927150
1640772780.782240,-0.422170490,-0.044980620,9.822794910,0.002901260,0.002789500,-0.002531710
1640772780.783030,-0.491833960,0.066746030,9.830372810,0.033906110,0.000616910,-0.017814340
1640772780.787130,-0.540112080,0.189199450,10.239752770,0.015100840,-0.012210010,-0.015246870
1640772780.787550,-0.276012960,0.296013030,10.026865010,0.005519390,0.038778780,0.030589100
1640772780.792130,-0.105097380,0.030927490,9.740768430,0.058341030,0.031775240,0.032208860
1640772780.792680,-0.172568510,-0.003820290,9.897257800,0.085538640,-0.042116650,0.013412540
1640772780.797760,-0.119775410,0.329609070,9.362156870,0.056137150,-0.037653740,0.015667080
1640772780.798750,-0.182872340,0.409571470,9.269172670,-0.027224430,-0.031168760,-0.006173550
1640772780.802450,-0.363442990,0.584495250,10.116049770,-0.047566000,-0.044742230,-0.014066700
1640772780.803710,-0.080349880,0.815377180,9.935462950,0.003452600,0.022234030,0.006379190
1640772780.807170,0.092757560,0.546894670,10.139092450,0.026845930,0.019432600,0.012111660
1640772780.807660,-0.045104970,0.409347150,10.605311390,0.057919320,0.006094580,0.021895770
1640772780.812540,0.042455290,0.404880880,9.413345340,0.005888940,-0.043793020,0.028924640
1640772780.813740,-0.259306190,0.016276410,9.412134170,-0.070440780,-0.106503080,0.025708970
1640772780.817450,-0.430480780,-0.205787020,9.359140400,-0.023920830,-0.029163060,0.025282800
1640772780.818600,-0.217719700,-0.166627200,8.899291990,0.035302340,-0.009731950,0.009045010
1640772780.822130,-0.262545500,-0.013854060,10.419437410,0.027041140,0.024665900,0.004535910
1640772780.822610,0.050711980,0.287410650,10.333915710,-0.013893840,0.075092920,0.012746450
1640772780.827600,0.271646860,0.312805320,10.154476170,-0.029528140,-0.075022880,0.001876060
1640772780.828320,0.201816250,0.334920320,9.923180580,-0.002902750,-0.035108630,0.007280710
1640772780.832240,0.308587910,0.243235720,8.528542520,0.041306030,0.009441380,0.012159350
1640772780.833130,-0.141042460,0.078445840,9.513631820,0.082153080,-0.039316710,0.003570320
1640772780.837130,-0.371599440,0.174408350,9.746461870,0.005920230,0.029310580,0.010678170
1640772780.837580,-0.357750510,0.159187300,9.704523090,-0.047394630,-0.029709940,0.007396940
1640772780.842190,-0.650267660,0.044445800,10.816124920,-0.011107320,-0.030739610,-0.014077130
1640772780.842740,-0.291976480,0.255219640,9.743556020,0.025232140,0.014241040,-0.002993640
1640772780.847700,-0.088531640,0.225022760,9.788703920,0.056189310,-0.004549320,0.023145970
1640772780.848320,-0.139153180,0.043125200,9.993519780,0.051856040,0.029174980,0.014571850
1640772780.852190,0.160949630,0.231094630,9.208643910,0.011184810,-0.057086350,0.014247000
1640772780.852600,0.032370360,0.418691990,9.604602810,-0.031040610,-0.039848680,0.007495280
1640772780.857130,-0.224228110,0.326037560,9.955619810,-0.048860910,-0.001712140,-0.010074670
1640772780.857660,-0.122724970,0.679759320,10.042693140,0.021155180,-0.045929850,-0.008066000
1640772780.862180,-0.117281500,0.798283700,10.123930930,0.009900330,-0.002451240,0.014992060
1640772780.862620,0.157222150,0.538776930,9.946343420,-0.050406150,0.059963760,0.029416380
1640772780.867220,0.199680660,0.472150890,9.971041680,-0.017221270,0.033803280,0.026349720
1640772780.867780,-0.071121250,0.047746950,9.772799490,-0.009371340,-0.049236420,0.000727180
1640772780.872160,-0.060100860,-0.103186610,9.182083130,-0.005532800,-0.049476330,0.018414860
1640772780.872640,-0.328205590,-0.206498130,9.089401250,-0.000141560,-0.025296210,0.013802950
1640772780.877160,-0.419588210,-0.349025960,9.793997760,-0.035011770,0.016243750,0.016996260
1640772780.877640,-0.089032720,0.126175610,9.960050580,-0.036212810,0.072458390,0.028002260
1640772780.882260,-0.084354530,-0.034058710,10.549812320,-0.005626680,0.035803020,-0.005857650
1640772780.882960,0.207768990,0.285685990,10.249517440,0.035730000,-0.022093950,-0.017857550
1640772780.887090,0.339215990,0.683298230,8.937117580,0.013373790,-0.004431610,-0.002123420
1640772780.887580,0.133788350,0.025494150,9.254228590,-0.020813940,0.011396410,0.017844140
1640772780.892340,-0.149096800,0.096884930,9.492768290,0.043047970,0.047737360,0.019191210
1640772780.892860,-0.415523350,0.180180300,9.623876570,0.038687890,-0.043392180,-0.005324180
1640772780.897430,-0.538953420,-0.003367610,10.285286900,-0.029207760,-0.030280650,0.000041720
1640772780.898870,-0.520499410,0.267137560,9.801718710,-0.012512500,0.040763610,-0.024373830
1640772780.903590,-0.438965110,0.172767730,10.194648740,0.011187790,-0.016872580,-0.017502900
1640772780.904490,-0.176741480,0.298370810,10.140885350,0.029346350,0.042042140,0.020198530
1640772780.907200,0.093830190,0.333544340,9.288720130,0.054468220,0.004769860,0.019173330
1640772780.907770,0.069395690,0.174529630,9.917696000,0.021860000,-0.044195360,0.024923680
1640772780.912180,-0.021936700,0.401074260,9.461057660,-0.018429760,-0.005131960,0.025354330
1640772780.912710,-0.115644280,0.316140620,9.600719450,-0.029669700,-0.069515410,0.001375380
1640772780.917260,-0.234598060,0.452354910,10.233693120,-0.010158120,-0.018790360,0.001706180
1640772780.918030,-0.115514380,0.689597960,9.774806020,-0.010462110,0.013540690,0.004903970
1640772780.922260,0.071411410,0.508062300,10.130742070,-0.036634500,0.022718310,0.020532310
1640772780.922720,0.066312690,0.300538660,10.071557040,-0.013397630,0.040793420,0.013849140
1640772780.927200,0.138037920,0.269549130,9.409776690,0.006011130,-0.031718620,0.015364590
1640772780.927670,-0.028562070,0.116470750,9.351434710,-0.034105780,-0.051447760,0.026254360
1640772780.932610,-0.354563060,-0.239984780,9.238704680,-0.027905410,-0.015521050,0.029343370
1640772780.933680,-0.338567550,-0.206506120,9.509441380,-0.000482800,-0.010426340,0.020723040
1640772780.937230,-0.407047750,-0.091608980,10.096080780,-0.007727740,0.013928120,0.007545950
1640772780.937780,-0.158238280,-0.040798370,10.192884450,-0.008140500,0.023446970,-0.015509130
1640772780.942230,0.175182770,0.431749050,9.909622190,-0.002056360,0.019069020,-0.027324260
1640772780.942990,0.123394690,0.416490790,9.840025900,-0.010921060,-0.011715290,-0.012347100
1640772780.947440,0.202064780,0.261090870,9.338319780,0.008708240,-0.010755660,0.015681980
1640772780.948940,-0.064525950,0.198670770,9.212262150,0.061571610,-0.042125590,0.018945340
1640772780.952330,-0.369193880,0.015502570,9.755788800,0.034463410,-0.044584270,0.018575790
1640772780.952860,-0.293658440,0.111505260,9.680376050,-0.028653440,0.037935380,0.006653370
1640772780.957250,-0.566891190,0.010855350,10.584018710,-0.005750360,-0.015659630,-0.017853090
1640772780.958070,-0.394848260,0.179056210,10.514032360,0.020344560,-0.014476480,-0.018531080
1640772780.962190,-0.039786290,0.544517100,9.493594170,0.032079220,-0.011289120,0.004453960
1640772780.962780,-0.146527630,0.327827130,9.825519560,0.010137260,-0.016655030,0.008037690
1640772780.971020,0.172089200,0.465849220,9.284627910,-0.004179780,0.017569960,0.016379360
1640772780.972040,0.158844610,0.501811980,9.401993750,-0.003680590,-0.029270350,0.006063280
1640772780.972540,-0.048671560,0.251989330,10.112355230,-0.023227930,-0.009582940,0.015324360
1640772780.972910,-0.017785030,0.304373620,9.890510560,0.006105010,0.000588600,0.012607880
1640772780.977150,-0.240488480,0.256719680,10.276421550,0.010050830,-0.054898870,0.000922380
1640772780.977670,-0.016535130,0.164929600,9.870588300,-0.041900580,0.011780860,0.009207430
1640772780.982580,0.156898510,0.191303540,9.420655250,-0.004550820,0.051963330,-0.005865100
1640772780.983900,-0.008779000,0.169874000,9.771492960,-0.008250770,0.016526870,-0.015959150
1640772780.987340,0.059076200,0.100928960,9.493349080,-0.012472270,0.010828670,0.010842080
1640772780.990320,-0.200898160,-0.146440490,9.481152530,0.044572360,-0.032614180,0.013160710
1640772780.992140,-0.431920110,-0.093466680,9.839461330,0.019724670,-0.055527700,0.008213520
1640772780.992690,-0.353066090,0.125487760,9.795095440,-0.017827750,0.004453960,0.031030180
1640772780.997190,-0.211688430,0.080741690,9.988316540,-0.024451320,0.061652060,-0.004018840
1640772780.999100,-0.062999760,0.178264410,10.495912550,0.016455350,0.026530030,-0.024265050
1640772781.002320,0.243030650,0.532179710,9.708666800,0.054973370,0.022117790,-0.000712280
1640772781.003150,0.200519580,0.393477830,9.306618690,0.014060740,-0.026150050,0.003162030
1640772781.007130,-0.039442610,0.299094620,9.762213710,0.006468600,-0.027507550,0.015909970
1640772781.011140,-0.057313280,0.469364140,9.127887730,-0.017756230,-0.003576280,0.008811060
1640772781.012100,-0.202494530,0.143615380,10.123826030,-0.032532220,-0.001762810,0.009450320
1640772781.012630,-0.296750190,0.159506130,10.641913410,0.026986000,0.084257130,0.009948020
1640772781.017220,-0.202755170,0.435851600,10.133011820,0.028659410,-0.006692110,-0.000634790
1640772781.017760,-0.227596040,0.406908900,10.373111720,-0.035946070,-0.043731930,0.014340880
1640772781.022200,0.036023710,0.470234600,8.979648590,-0.063060220,0.039601340,0.014813250
1640772781.022740,0.128830550,0.391949360,8.972035410,-0.028744340,-0.000602010,-0.006593760
1640772781.027180,0.060890600,0.349586070,9.939162250,-0.004808610,0.079418720,0.005640090
1640772781.027710,0.166190030,0.258834600,9.521285060,0.012505060,0.053979460,0.024220350
1640772781.032540,-0.071266420,0.053368010,10.573753360,-0.002674760,-0.051654880,0.017552080
1640772781.033360,-0.153210550,0.085850950,10.056506160,-0.059904170,0.024199490,0.016784670
1640772781.037300,-0.025396430,-0.045672730,9.371881480,-0.048768520,0.011868770,0.008422140
1640772781.038850,-0.158318430,-0.106155400,10.054559710,0.012068450,0.063703950,-0.027479240
1640772781.042540,-0.006122860,0.171912340,9.144978520,0.025330490,0.099439920,-0.025366250
1640772781.044010,-0.092285830,0.169267950,9.696481700,0.006139280,-0.001752380,0.012412670
1640772781.047410,-0.405133610,-0.046457950,9.928776740,-0.008369980,0.002816320,0.020635130
1640772781.048050,-0.327611120,0.026080610,9.405406000,0.006584820,-0.037944320,0.026327380
1640772781.052350,-0.286863060,0.003523440,9.984226230,0.026461480,0.031916800,0.019325310
1640772781.053990,-0.187635660,-0.114546510,10.152307510,0.037316980,0.105308000,-0.007894640
1640772781.059210,0.071265880,0.269762810,10.223517420,0.052332890,0.052121280,-0.009477140
1640772781.060210,-0.006202110,0.333988900,10.063568120,0.018487870,0.007684530,-0.000752510
1640772781.062170,-0.132286950,0.254845410,9.398283960,0.008268650,-0.060178340,0.006678700
1640772781.064150,-0.121713350,0.576678450,8.878670690,0.040081150,-0.046548240,0.006386640
1640772781.067920,-0.499734640,0.450231400,9.643084530,-0.000730160,0.033546990,0.005976860
1640772781.069370,-0.336315540,0.446874410,10.374990460,-0.006985660,0.068719690,0.024844710
1640772781.072220,-0.243630100,0.427148580,10.755476000,0.036141280,0.020258130,0.005833810
1640772781.074500,-0.298704390,0.401691080,10.737533570,0.002245610,-0.037246940,0.011666120
1640772781.077360,0.046407510,0.595777930,9.515770910,-0.035941590,-0.024071330,0.031247740
1640772781.078060,-0.161287670,0.272441300,9.191944120,-0.027258690,-0.032380230,-0.012367960
1640772781.082300,0.087126030,0.491279180,9.001797680,-0.026735670,0.010377170,0.002433360
1640772781.083200,0.236256140,0.501445000,9.225893020,-0.028505920,0.070171050,0.031998750
1640772781.087910,0.030136020,-0.086062290,10.607812880,-0.023752450,0.035178670,0.013795500
1640772781.090220,0.051011990,0.141800460,10.713026050,-0.009134410,-0.003160540,0.036816300
1640772781.092180,-0.144589500,0.016045350,10.112084390,-0.021135810,-0.066424910,0.026327380
1640772781.092720,-0.146593690,-0.259848830,9.730361940,-0.051015620,-0.022676580,-0.019446010
1640772781.097120,-0.023040580,0.151822220,8.900790210,-0.009168690,0.071793790,-0.024215880
1640772781.097700,-0.135782640,0.025598020,9.355764390,0.008553270,0.053609920,-0.016382340
1640772781.102520,-0.180425790,0.069056000,9.958889960,0.000815090,0.020235780,0.003573300
1640772781.103690,-0.236437400,0.231469170,9.705614090,0.026804210,-0.034020840,0.029866400
1640772781.107200,-0.377868180,-0.034521680,10.100354190,-0.005461280,-0.064612930,0.033743680
1640772781.107920,-0.268417950,-0.032074600,10.060803410,-0.007881230,0.028632580,0.018070640
1640772781.112140,-0.089171940,-0.173082380,9.893645290,0.072266150,0.055699050,-0.007745620
1640772781.112650,-0.006014710,0.071123320,10.150730130,0.072476280,0.023344160,-0.024212890
1640772781.117590,-0.006718350,0.377867880,9.742771150,0.021222230,0.003497300,-0.005432960
1640772781.118440,-0.110294880,0.381810070,9.373446460,-0.018016990,-0.074732300,-0.001369420
1640772781.122250,-0.300532580,0.463396880,9.487501140,-0.001086290,-0.082263340,0.003317000
1640772781.122890,-0.212335680,0.499824350,9.492746350,0.037518140,0.040419400,0.013928120
1640772781.127100,-0.225387540,0.412265870,10.357657430,0.040316590,0.058884920,0.006154180
1640772781.127640,-0.324708700,0.425068860,11.107452390,0.036652390,-0.005142390,-0.000204150
1640772781.132250,-0.047902080,0.470512960,10.090663910,-0.023044640,-0.050187110,0.025096540
1640772781.132840,0.033517070,0.319570840,9.308512690,-0.046819450,-0.073277950,0.008444490
1640772781.137150,-0.075963470,0.116779160,9.281852720,0.008898970,0.000773370,-0.011092420
1640772781.137600,0.202699380,0.380213890,8.767978670,0.020343070,0.047761210,0.005970900
1640772781.142240,0.036213890,0.207028570,10.103503230,-0.004006920,0.012403730,0.025865440
1640772781.142720,-0.021905180,-0.067520480,10.559246060,-0.010699030,0.023269650,0.036130850
1640772781.147660,0.004390660,0.101701320,9.991712570,-0.006993120,-0.058813400,0.027026240
1640772781.148370,-0.266879860,-0.169369130,10.441369060,-0.003536050,-0.046132500,0.000511110
1640772781.152200,-0.072657280,-0.066433760,9.193396570,0.017993150,0.045876210,-0.036883350
1640772781.152670,-0.031866490,0.259507120,9.127184870,0.032554560,-0.001104180,-0.041736650
1640772781.157200,-0.175113840,0.231482220,9.801648140,-0.012589990,0.062741340,-0.013251610
1640772781.157810,-0.086475690,0.233618740,9.374317170,-0.002451240,-0.007328390,0.009916720
1640772781.162190,-0.426276620,0.008759670,10.247211460,0.061585010,-0.085519250,0.021970270
1640772781.162690,-0.386242510,-0.087248120,9.835083960,0.050891940,-0.008241830,0.020109120
1640772781.167390,-0.074765790,-0.024427090,9.687476160,0.052082550,0.020809470,0.006121400
1640772781.168640,-0.088050820,-0.078180400,10.546911240,0.038692360,0.063763560,-0.017978250
1640772781.172130,0.226239440,0.204420330,9.873899460,0.020731990,0.034350160,-0.012412670
1640772781.172670,0.154769120,0.342254070,9.769897460,0.054460780,-0.067384550,-0.008219480
1640772781.177140,-0.152019310,0.313207420,9.411069870,0.046768780,-0.055150680,-0.017559530
1640772781.177710,-0.116838120,0.657118920,9.001667980,0.033618510,-0.030452010,0.006696580
1640772781.182190,-0.354027060,0.701702180,9.983695980,-0.005514920,0.036114450,0.014758110
1640772781.182680,-0.276207980,0.381048860,10.518276210,-0.007757540,0.054995720,0.022631880
1640772781.187160,-0.078352790,0.538873200,10.537429810,0.057116160,-0.005950030,0.014565890
1640772781.187640,-0.151725830,0.383514940,10.226162910,0.026942790,-0.043879440,0.008866190
1640772781.192440,0.140999630,0.157694680,9.232243540,-0.017572940,-0.027790670,0.003005560
1640772781.192900,0.133078130,0.322167610,8.868556980,-0.014324490,0.018198790,-0.018493830
1640772781.197130,0.014708150,-0.002266080,9.536494260,-0.031304360,0.034347180,-0.004684930
1640772781.197600,0.044736530,-0.025787310,10.000942230,0.020457810,0.030595060,0.010915100
1640772781.202710,-0.195944490,0.074588120,10.138959880,0.052423770,-0.033542520,0.010608130
1640772781.203350,-0.238923400,-0.050006070,10.256012920,-0.004617870,-0.044162560,0.032234190
1640772781.207160,-0.096859610,0.190967710,9.519340520,-0.024363400,0.041581690,0.008447470
1640772781.209520,-0.049761520,0.037849340,9.614994050,0.000159440,0.030538450,-0.027814510
1640772781.212540,0.095935020,0.216058460,9.794897080,0.061234830,0.059269370,-0.025245550
1640772781.213080,0.103464310,0.425667380,9.231737140,0.064605470,0.023131070,-0.022462010
1640772781.218070,-0.135564430,0.019750870,9.978093150,0.020216410,-0.043262550,0.000683960
1640772781.218500,-0.367303940,0.083972970,9.803414340,0.017006690,-0.003236530,0.009061400
1640772781.222140,-0.495661620,-0.000229090,9.655794140,0.028423960,-0.050070890,-0.007447600
1640772781.222700,-0.421461370,-0.068469080,10.207839010,0.040902200,0.005070860,-0.007508700
1640772781.227150,-0.146321940,0.245027650,9.713621140,0.069582480,0.078527640,-0.027453900
1640772781.227650,-0.005591640,0.344477470,10.246372220,0.034841900,0.009231270,-0.003109870
1640772781.232170,-0.009690320,0.284791530,10.257398610,0.025571890,-0.015828020,0.017909710
1640772781.232960,0.046095750,0.362962630,9.203874590,0.050993270,-0.067089510,-0.009264050
1640772781.237140,-0.130858720,0.585084920,9.563866620,0.012600420,-0.045910480,-0.010661780
1640772781.237660,-0.351751860,0.585570630,9.920578960,-0.015263260,0.031749910,-0.000257790
1640772781.242370,-0.195505230,0.507678870,10.027151110,0.010409950,-0.013244150,-0.004895030
1640772781.243010,-0.123906460,0.618147310,10.322995190,0.016681850,-0.010296700,0.012978910
1640772781.247140,0.037624310,0.403117390,10.009175300,0.002458690,0.023707750,0.028625140
1640772781.247660,0.197774350,0.149209340,9.702217100,-0.000816580,-0.001141430,0.006082650
1640772781.252150,-0.059438490,0.059022830,9.686270710,0.012679400,-0.034952170,-0.004993380
1640772781.252690,0.023547950,-0.011922320,9.222470280,-0.006522240,-0.021636480,0.000470880
1640772781.257190,-0.089605750,-0.024218300,9.351264950,-0.011001530,0.001874570,-0.000186260
1640772781.257920,-0.371125010,-0.056153860,10.171395300,0.008866190,0.001940130,0.007206200
1640772781.262470,-0.059509030,0.197315130,9.870840070,-0.008095800,0.022614000,0.020116570
1640772781.263660,-0.039345290,0.183890850,10.020023350,0.012762850,0.005628170,0.007903580
1640772781.267420,0.083981890,0.185267700,10.033473970,0.026503210,0.019171830,-0.006401540
1640772781.268270,0.379428920,0.434490530,9.239058490,0.018242000,0.050021700,0.007997450
1640772781.272210,0.001617500,0.056470570,9.962286000,0.026850400,0.001864140,0.006791950
1640772781.272740,-0.103075390,-0.160753220,9.631402020,0.049521030,0.004237890,0.000840430
1640772781.278670,-0.295071300,0.012464860,9.275481220,0.060589610,-0.046850740,-0.003731250
1640772781.278990,-0.669792470,-0.141204070,10.141693120,0.017802420,-0.013181570,-0.006541610
1640772781.282150,-0.384364780,0.018018050,9.690232280,0.013102590,0.036069750,-0.014449660
1640772781.282860,-0.268132180,0.314058180,10.202701570,0.061696770,-0.002995130,-0.007124250
1640772781.287120,0.024401870,0.343175590,10.343930240,0.036081680,0.067782400,0.021100050
1640772781.287630,0.252433180,0.429481090,9.783701900,0.058679280,0.022794310,0.026667120
1640772781.292330,-0.043472850,0.350463720,10.069335940,0.062026090,-0.069783640,0.005066390
1640772781.293010,-0.033517820,0.496704520,9.168331150,0.018480420,-0.036089120,0.008948150
1640772781.297150,-0.120981810,0.621067170,9.224873540,0.000892580,-0.025309620,0.006489460
1640772781.297640,-0.331735430,0.507886590,10.257942200,-0.033308570,0.049695380,0.003947320
1640772781.302230,0.035045230,0.524136720,10.115577700,-0.007057190,0.054168700,0.033831600
1640772781.302680,0.007628920,0.206964420,10.431506160,0.065813980,0.011518600,0.026805700
1640772781.307410,-0.031823060,0.025038700,9.998612400,0.042368470,-0.019764900,0.008542830
1640772781.308400,0.028819130,0.140688000,9.169866560,0.003086030,-0.040130320,0.028845670
1640772781.312210,-0.324453950,-0.202112240,9.307061200,-0.041529540,-0.016161800,0.016961990
1640772781.312870,-0.261362970,-0.310830410,9.436276440,-0.001242760,0.003322960,0.002132360
1640772781.317160,-0.172349970,0.083549730,9.515152930,0.078873340,0.033903130,-0.006382170
1640772781.317720,-0.217573020,0.181689130,10.263521190,0.034673510,0.023914870,-0.009748340
1640772781.322400,-0.045042650,0.322571070,10.471144680,0.003425780,0.004494190,0.020962950
1640772781.323160,0.095648040,0.461876570,9.584905620,0.010272860,-0.019606950,0.006471580
1640772781.328900,0.143183980,0.134360880,9.642387390,0.027312340,-0.022482870,0.024107100
1640772781.329600,0.069177130,0.024625470,9.320051190,0.102597480,0.080376870,0.020278990
1640772781.332160,-0.245772300,-0.024999050,9.505410190,0.091543790,-0.031834830,-0.030188260
1640772781.333180,-0.503197430,0.077525170,10.084466930,0.008152430,-0.062127410,-0.009074810
1640772781.337120,-0.533531900,0.216865940,9.394221310,-0.016205010,-0.023114680,-0.031618780
1640772781.337620,-0.502648470,0.238462870,10.114169120,0.006861980,-0.036117440,-0.036402050
1640772781.342260,-0.305352210,0.511755530,10.361024860,0.071911510,0.055605180,0.014205280
1640772781.342970,0.020652130,0.372343180,9.861195560,0.103214410,0.019985440,0.009731950
1640772781.347200,0.029553160,0.339075090,10.435977940,0.061109670,-0.058175620,0.010946390
1640772781.347670,0.105110580,0.517811780,9.280853270,0.005088750,-0.050771240,0.032195450
1640772781.352130,-0.010267670,0.315484340,9.259833340,-0.028960400,-0.088421990,-0.007906550
1640772781.352670,-0.146133240,0.461152020,9.842646600,-0.007095930,-0.029747190,-0.020134450
1640772781.357610,0.036585870,0.617087600,9.429299350,0.029337410,0.028893360,-0.006335970
1640772781.358550,0.162909840,0.514017400,10.419203760,0.009037560,0.034423170,0.010062750
1640772781.362210,0.030131920,0.527708110,10.669573780,-0.018790360,0.026966630,0.013445320
1640772781.362810,0.036526240,0.418028320,9.827834130,-0.035439430,-0.077700610,0.027327240
1640772781.367320,-0.193980990,0.210283370,9.483559610,-0.040426850,-0.085918610,0.018420810
1640772781.369250,-0.391506310,-0.075849560,8.981188770,0.007002060,-0.025850540,0.007174910
1640772781.372460,-0.135210860,0.015585440,9.058543210,0.015974050,0.010956820,0.001959500
1640772781.373320,-0.135128270,0.148249160,10.084483150,-0.035816430,0.066056850,0.010241570
1640772781.377930,0.055927890,0.077004850,10.590037350,-0.055627530,0.028985740,0.027292970
1640772781.378630,0.270164820,0.199448410,10.237869260,-0.019393870,-0.046229370,0.007338820
1640772781.382150,0.151821930,0.062364440,9.824949260,0.027330220,-0.052960220,0.009603800
1640772781.382750,0.266516860,-0.046417910,9.120919230,0.044725840,0.020587440,0.006569920
1640772781.387280,-0.003656510,0.062336990,9.261858940,0.033317510,0.032465160,-0.013168160
1640772781.388170,-0.320130650,0.084989320,9.932991980,-0.023140020,-0.004671510,-0.013042990
1640772781.392480,-0.298170150,0.227534070,9.679362300,-0.038427120,-0.013843180,-0.008888540
1640772781.392900,-0.675406930,0.230002810,10.181881900,0.021545590,-0.082476440,-0.028002260
1640772781.397150,-0.468429270,0.444446770,10.001564980,0.030243390,-0.014239550,0.004678960
1640772781.397670,-0.134714110,0.448441000,9.686234470,0.020763280,0.063377630,0.027698280
1640772781.402300,-0.191205100,0.107614780,10.726469040,0.015261770,0.029897690,0.013746320
1640772781.403360,0.178996550,0.242813050,9.924407010,0.008751450,-0.010825690,0.015456970
1640772781.407210,0.026740300,0.306016360,9.503846170,0.010278820,-0.097559400,-0.004786250
1640772781.407940,-0.113528740,0.386480600,9.529763220,-0.039057430,-0.075329840,-0.025010110
1640772781.412110,0.133551150,0.707406940,8.956230160,-0.054131450,0.017383690,0.008299950
1640772781.412670,0.028997570,0.518059850,10.246754650,-0.043205920,0.054225330,0.023143000
1640772781.417300,0.174341750,0.313069050,10.767462730,-0.022538010,0.073906790,0.026386980
1640772781.417710,0.191563930,0.301289620,10.366847990,0.029660770,-0.034040210,0.024428960
1640772781.422150,-0.180062410,0.026886410,10.024365430,-0.013895330,-0.081700090,0.002817810
1640772781.422750,-0.300878050,-0.069214980,8.989217760,-0.065654510,-0.049620860,0.001537800
1640772781.427110,-0.427465800,-0.129938410,8.773281100,-0.025983150,-0.026910010,-0.002424420
1640772781.427640,-0.340127860,-0.053740650,9.364732740,-0.021512810,0.050042570,-0.025871400
1640772781.432180,-0.100875230,0.206578220,10.247775080,0.000652670,0.085292760,0.006403030
1640772781.434780,-0.077991490,0.190858170,10.775084500,0.011906030,-0.009402630,-0.003694000
1640772781.437490,0.073562920,0.216731340,10.516407970,-0.022341310,-0.085447740,-0.001013280
1640772781.437940,0.291176710,0.213160830,9.337838170,-0.002335010,-0.008201600,0.036022070
1640772781.442290,0.166263060,-0.193001450,9.072094920,0.031350560,0.019761920,-0.006249550
1640772781.442700,-0.049446090,0.007923800,9.772582050,0.048530090,0.027714670,-0.025591260
1640772781.447120,-0.171696230,0.343136160,9.499159810,0.009569530,-0.013555590,-0.019843880
1640772781.447640,-0.474695860,0.274225030,10.122594830,-0.051812840,-0.099453350,-0.043518850
1640772781.452590,-0.509246650,0.654605210,10.126608850,-0.048911580,-0.034999850,-0.022058190
1640772781.453410,-0.235846730,0.566367630,9.587939260,-0.009258090,0.020238760,-0.000534950
1640772781.457130,-0.152020360,0.267560840,10.691860200,0.033290690,0.042752920,-0.000509620
1640772781.457830,0.086551270,0.465879680,10.095637320,0.045119230,0.044229630,0.011168420
1640772781.462140,0.139925630,0.381715660,9.602660180,-0.039593880,-0.090590110,0.004743040
1640772781.462650,0.032631860,0.335318920,9.653245930,-0.105892120,-0.067166980,0.005450850
1640772781.467710,-0.006880570,0.351441710,8.823190690,-0.072109680,-0.019448990,-0.002320110
1640772781.468830,-0.063986250,0.290515900,9.850199700,-0.013902790,-0.017732380,-0.003054740
1640772781.472180,0.087489110,0.351461770,10.227912900,-0.013600290,0.104755160,0.004228950
1640772781.472840,0.166409430,0.220945300,10.298373220,-0.024445350,0.030107790,-0.000864270
1640772781.477130,0.049561370,0.190954550,10.685287480,-0.079056620,-0.033393510,-0.007984040
1640772781.477640,-0.097956450,0.034328770,9.371004100,-0.074392560,-0.033508240,-0.004599990
1640772781.482500,-0.197350800,-0.188484610,8.892181400,-0.008055570,-0.063188360,-0.017173590
1640772781.483270,-0.376430660,-0.050479130,9.141639710,0.016427040,0.029765070,-0.025227670
1640772781.487200,-0.331369550,0.079052570,9.531126020,-0.035221880,0.062219810,0.004500150
1640772781.487640,-0.223555490,0.128050950,10.585735320,-0.068058080,0.031335650,-0.004692380
1640772781.492340,-0.205988530,0.237836810,10.632035260,-0.042447450,-0.036413970,-0.015205150
1640772781.492740,0.248713930,0.281921420,9.702375410,-0.001864140,-0.034970040,0.008147950
1640772781.497090,0.259306130,0.118321890,9.544214250,0.035552680,0.067020960,-0.007320940
1640772781.497670,-0.068189080,0.028828080,9.931791310,0.035250190,0.021150710,-0.010292230
1640772781.502210,0.023171670,0.284323420,9.386569980,-0.013577940,-0.042329740,-0.000767410
1640772781.503100,-0.387126560,0.281637070,9.682698250,-0.063142180,-0.065901880,-0.022794310
1640772781.507180,-0.456098970,0.408522130,9.935894970,-0.068733100,-0.014594200,-0.020506980
1640772781.509140,-0.351476880,0.677374960,9.926414490,-0.021201370,0.027133530,-0.007270280
1640772781.512100,-0.325275060,0.365390060,10.695647240,0.005404650,0.017420950,0.000312920
1640772781.512680,0.224055680,0.338806750,10.005450250,0.001148880,0.055027020,0.015681980
1640772781.517340,0.202162430,0.314710710,9.776621820,-0.015145540,-0.022904580,0.002290310
1640772781.518460,0.016830190,0.142198090,9.702957150,-0.090678060,-0.058929630,0.013506410
1640772781.522110,0.139335240,0.105888460,8.800957680,-0.067514200,-0.022028390,0.028149790
1640772781.522730,-0.230785700,-0.093743590,9.687927250,0.004665550,-0.013974310,0.004924830
1640772781.527120,-0.047263820,0.097044980,10.017026900,-0.012066960,0.065657500,0.007443130
1640772781.527660,0.194863740,0.263190210,10.161646840,-0.038468840,0.075162950,0.000564750
1640772781.532430,0.040923830,0.174843120,10.762006760,-0.065283480,0.020830330,-0.028416510
1640772781.534120,0.182043250,0.364221450,9.707108500,-0.057011850,-0.001834330,-0.017502900
1640772781.537140,-0.070379420,0.155310470,9.074021340,0.012606380,-0.030675530,-0.006994610
1640772781.537680,-0.435999130,-0.022658400,9.199203490,0.024743380,-0.016970930,0.000439580
1640772781.542230,-0.435683220,0.204369960,9.307265280,-0.012522940,0.027309360,0.024484100
1640772781.542730,-0.552608070,-0.011676630,10.225250240,-0.062979770,0.036650910,0.013355910
1640772781.547340,-0.389135690,-0.057302790,10.768673900,-0.049866740,0.018487870,-0.015805660
1640772781.549260,-0.064737920,0.269353240,10.318964960,0.033161050,0.008536880,-0.020127000
1640772781.552090,0.142499850,0.320258890,9.715487480,0.015646220,0.006817280,-0.012756880
1640772781.552660,0.209442620,0.232752790,9.720547680,-0.002293290,0.010937450,0.002406540
1640772781.557200,0.260744570,0.415788020,9.139008520,-0.012964010,0.009748340,0.005979840
1640772781.557670,0.085726690,0.358543280,9.524677280,-0.046889480,-0.033575300,0.002802910
1640772781.562150,-0.167576340,0.446978480,10.328298570,-0.034706290,0.023087860,0.012636180
1640772781.562700,-0.337586700,0.508269490,10.167265890,-0.014343860,0.006592270,-0.002522770
1640772781.567500,-0.444907040,0.398561690,10.717229840,-0.028428440,-0.048403450,-0.003547970
1640772781.568090,-0.123957870,0.472990810,9.871913910,-0.038748980,0.046171250,0.002494450
1640772781.572110,0.095611130,0.258252530,9.267607690,-0.043961410,0.017711520,-0.011673570
1640772781.572730,0.127933790,0.225620430,9.875759120,-0.043691690,0.042156880,0.003676120
1640772781.577080,0.206064690,0.115076810,9.206763270,-0.045555830,0.048275300,0.027652080
1640772781.577680,-0.012001130,-0.323226600,9.846851350,-0.013941530,-0.080937150,0.027534370
1640772781.582460,-0.124816570,-0.250700920,10.070772170,-0.003673140,0.006859000,0.016869600
1640772781.583070,0.032119620,-0.058852290,9.474854470,-0.034379960,0.044527650,0.010916590
1640772781.587080,-0.096984600,-0.060932160,10.679547310,-0.042402740,0.053313380,-0.019441550
1640772781.587640,0.046527620,0.219769080,9.930485730,-0.014302130,0.091639170,-0.035445400
1640772781.592210,0.047387690,0.317444590,9.439579010,0.021991140,-0.030390920,-0.014959280
1640772781.592700,-0.333942890,0.143185510,9.652757640,0.035114590,-0.021371250,0.002671780
1640772781.597240,-0.396443990,0.206462500,8.875957490,0.014032430,-0.016115610,0.008521980
1640772781.597770,-0.402754070,0.312583420,9.787457470,-0.031155350,0.006824730,0.015972560
1640772781.602120,-0.374595170,0.198534640,10.578121190,-0.045701850,0.103507940,-0.016820430
1640772781.602670,-0.058302900,0.288461830,10.623187070,0.003211200,0.024111570,-0.017938020
1640772781.607180,0.124966700,0.364381490,10.385424610,0.041945280,0.010105970,-0.006864960
1640772781.607790,0.110715880,0.226669710,9.701393130,0.013498960,-0.002436340,0.001376870
1640772781.612140,0.225603710,0.387154670,9.058138850,-0.017668310,-0.024324660,0.022219120
1640772781.612840,0.025809210,0.275173840,9.219098090,-0.051307670,0.006446240,0.008587540
1640772781.617380,-0.059317970,0.129601060,9.821826930,-0.042897460,0.048132240,0.006967780
1640772781.617830,-0.117415190,0.327887210,10.384914400,0.016169250,0.047695640,-0.001823900
1640772781.622120,-0.454925180,0.361878370,10.926432610,0.002923610,-0.023919340,-0.022445620
1640772781.622810,-0.082001630,0.563495040,9.849715230,-0.062732400,-0.004068020,-0.001679360
1640772781.627260,-0.045715040,0.457472680,9.325969700,-0.071211170,0.034752490,-0.014428800
1640772781.628430,-0.122642660,0.200134930,9.566923140,-0.037543490,0.054717070,-0.005485120
1640772781.632480,0.163574370,0.200814130,9.075993540,0.025738780,0.061573090,0.043040510
1640772781.633600,-0.167052110,-0.201501670,9.898074150,0.034570690,-0.017547610,0.030013920
1640772781.637170,-0.146796110,-0.243304790,10.035986900,-0.042732060,-0.009544190,0.034151980
1640772781.637660,-0.097131400,-0.161500930,9.861583710,-0.062565510,0.012387330,0.010515750
1640772781.643050,-0.216161740,-0.398467120,10.494901660,-0.020048030,0.026150050,-0.049014400
1640772781.643460,0.138284150,0.146263880,9.733155250,0.042797630,0.069156290,-0.056441120
1640772781.647130,0.118936600,0.438762630,9.406137470,0.061564150,0.044892740,-0.025245550
1640772781.647710,-0.194137590,0.322833810,9.874552730,-0.013056400,0.008182230,0.007413330
1640772781.652100,-0.291365650,0.458596710,9.201398850,-0.018300120,-0.049619390,0.043913730
1640772781.652710,-0.530555670,0.171071840,9.547596930,0.011926890,-0.053232900,0.032895800
1640772781.657220,-0.509853420,0.154789360,10.109725000,0.021056830,0.062149770,0.004950170
1640772781.658010,-0.260969520,0.319588150,10.505448340,0.046652550,0.074043860,-0.023578100
1640772781.662180,-0.166107360,0.381132420,10.815050130,-0.009401140,0.016254190,-0.027874110
1640772781.662890,0.068195990,0.463301750,10.053915020,-0.051006680,-0.031998760,-0.007951260
1640772781.667930,0.153352050,0.382618040,9.079338070,-0.013120470,-0.045889620,-0.009647010
1640772781.668520,0.113308850,0.369789720,8.757133480,0.000457470,-0.015854830,0.005395710
1640772781.672200,0.101505260,0.269159290,9.409931180,0.010405480,0.063990060,0.038185720
1640772781.672730,-0.000683220,0.023176590,10.184061050,0.008986890,0.061561170,0.034476820
1640772781.677270,-0.121102440,-0.033152040,10.897423740,-0.009828810,-0.048927960,0.018318000
1640772781.677790,-0.084294850,0.072489960,10.398036000,-0.018900630,0.014565880,0.006429850
1640772781.682590,-0.122001630,0.003167370,9.560768130,-0.023464860,0.005593900,-0.029470030
1640772781.683940,-0.262080040,0.054577340,9.660570140,0.025185940,-0.010907650,-0.040864950
1640772781.687100,-0.090445950,0.342884180,8.582067490,0.034739080,0.054150820,-0.016649070
1640772781.687700,-0.126998690,0.230971590,9.208418850,-0.003431740,-0.001966950,0.016070900
1640772781.694980,-0.277123450,0.144854530,10.496706960,-0.002028050,0.025200850,0.038655100
1640772781.695570,-0.050124630,0.104486210,9.908209800,0.012548270,-0.012986360,0.034588580
1640772781.697130,-0.046679400,-0.237077500,10.611907010,0.057885050,-0.033989550,0.017929070
1640772781.697730,0.066577050,-0.262158840,9.959762570,0.086285180,0.091329220,-0.020807980
1640772781.702200,0.104068200,0.008170010,9.315691950,0.057223440,-0.000211600,-0.025486950
1640772781.702760,-0.286152480,0.050677720,9.952307700,0.019714230,-0.029928980,-0.016489620
1640772781.707260,-0.340578650,0.297451970,8.908082960,0.010827180,-0.052827600,-0.016036630
1640772781.707920,-0.321975680,0.585433720,9.353960040,0.030565260,-0.063580270,0.004090370
1640772781.713040,-0.386772250,0.557642460,10.424282070,0.037685040,0.096879910,0.025528670
1640772781.713560,-0.074189900,0.556150620,10.614195820,0.050523890,0.077742360,0.021900240
1640772781.717330,-0.064086080,0.570984070,11.173754690,0.057329240,-0.028224290,0.020334130
1640772781.717750,-0.055197970,0.422778040,9.875652310,-0.001892450,-0.054711100,0.009569530
1640772781.722150,0.081843640,0.409797730,8.709947590,-0.014817720,-0.079092390,0.006644430
1640772781.723200,-0.094307970,0.388732610,8.903150560,-0.014552470,0.013290350,-0.003819170
1640772781.727620,0.082986060,0.235463280,9.271778110,-0.017593800,0.079545390,0.011074540
1640772781.729050,0.190145160,0.234650570,10.488075260,0.010196860,0.074657790,0.025288760
1640772781.732460,0.014184130,0.057063910,11.162230490,0.018741190,-0.009116530,0.000871720
1640772781.733420,0.139233900,0.174929230,10.269032480,-0.012977420,-0.054907800,0.014652310
1640772781.737100,-0.033238310,0.144852220,9.403153420,-0.018280750,-0.024691230,0.018994510
1640772781.737690,-0.202173410,-0.236445620,9.155774120,0.000670550,0.024150310,-0.006741290
1640772781.742250,0.038623750,0.223541830,8.738881110,0.033609580,0.067533570,0.005598370
1640772781.745420,-0.095549350,0.111634280,9.664217000,0.027626750,0.053210560,0.003549460
1640772781.747090,-0.147219780,0.105552260,10.451404570,-0.013500450,0.029271840,-0.001433490
1640772781.747710,-0.031940930,0.584369360,10.037891390,-0.014068190,-0.023183230,0.010585780
1640772781.752130,-0.196034370,0.011268950,10.341100690,-0.007073580,-0.007809700,0.003610550
1640772781.752760,0.059344650,-0.107572600,9.572282790,0.059339400,0.072665510,-0.002755220
1640772781.757190,0.027502040,-0.082005250,9.289239880,0.123372690,0.065773730,-0.009857120
1640772781.757720,-0.237970050,-0.209160150,9.956943510,0.043125440,0.027763850,-0.013551120
1640772781.762160,-0.177865340,0.202915850,9.276940350,-0.021077690,-0.034067030,-0.004760920
1640772781.762770,-0.421403260,0.133739500,9.648926730,-0.013914700,-0.069975850,-0.016498560
1640772781.767220,-0.278076110,0.297947260,9.957091330,0.018051270,0.068086390,0.007410350
1640772781.767880,-0.038551730,0.484021190,10.256600380,0.104658300,0.108027460,0.004054610
1640772781.772600,-0.092710180,0.385315450,11.036581990,0.087967510,0.040858990,-0.000292060
1640772781.773580,0.121645260,0.685695950,10.006867410,-0.005017220,-0.014361740,0.004903970
1640772781.777450,-0.044581000,0.568707590,9.220257760,-0.047276920,-0.066177550,0.006803870
1640772781.778040,-0.226693780,0.315715040,8.991413120,-0.023534900,-0.038225960,-0.000464920
1640772781.782560,-0.165052530,0.446558920,8.917530060,0.045873220,0.032831730,0.008435550
1640772781.783670,-0.084395490,0.305517700,9.938187600,0.040873890,0.091849270,0.028525290
1640772781.787130,0.104014250,0.121447910,10.873227120,-0.026173890,0.079053650,0.023922320
1640772781.787820,0.188745630,0.083265710,10.872756000,-0.016431510,0.016085810,0.017642980
1640772781.793000,0.106967840,-0.104541270,9.841397290,-0.010609630,-0.045676530,0.007222590
1640772781.793690,-0.182277400,-0.288753870,9.235112190,0.041762000,-0.062203420,-0.008128580
1640772781.797100,-0.181208950,-0.003867560,8.307970050,0.060467410,0.041857360,-0.020760290
1640772781.798890,-0.169520200,0.185052080,8.974029540,-0.023482740,0.064198680,-0.014463070
1640772781.802220,-0.344586460,0.211755110,10.776222230,-0.035874550,0.103652490,0.005362930
1640772781.802900,-0.084093610,0.477810110,10.454970360,0.003127750,0.007930400,-0.013931100
1640772781.807240,-0.088729050,0.435917680,10.559545520,0.038449470,-0.074742730,0.014781950
1640772781.807900,-0.024790770,0.123655710,9.609545710,0.059966750,0.069886460,0.028702620
1640772781.812160,-0.033138060,-0.143227790,9.001873020,0.070266410,0.032672290,0.004702810
1640772781.812740,-0.296604070,-0.253737240,9.789626120,0.047218790,-0.006127360,0.000552830
1640772781.817140,-0.148559960,-0.073693070,8.985790250,-0.005839770,0.020174680,-0.026269260
1640772781.817680,-0.289026920,0.206097350,9.782518390,-0.007852910,-0.045128170,-0.044314560
1640772781.822200,-0.394842300,0.457990320,10.640372280,0.009329620,0.035631660,-0.033983590
1640772781.822890,-0.065463410,0.677898350,10.038235660,0.036300710,0.041794780,-0.013962390
1640772781.827460,-0.103868530,0.604399500,10.741436000,0.064602490,-0.003029410,0.008307400
1640772781.828040,0.035641880,0.540386500,9.854665760,0.044284760,0.031901900,0.015798210
1640772781.832620,0.069804160,0.529964090,9.103838920,-0.013671820,-0.046026710,0.019995870
1640772781.833720,-0.239656870,0.291989360,9.587231640,-0.027571620,-0.051373240,0.005455320
1640772781.837160,-0.153241430,0.195882650,9.094010350,-0.017838180,-0.004914400,-0.004728140
