# timestamp,accel_x,accel_y,accel_z,gyro_x,gyro_y,gyro_z
1640842506.831620,-0.115923830,0.051781560,9.901568410,-0.030665100,0.003039840,0.038206580
1640842506.834450,0.082459740,-0.043109220,9.170718190,0.014768540,0.109289590,0.009496510
1640842506.836800,0.128142600,-0.115493800,9.544266700,0.025960800,0.017893310,-0.007994470
1640842506.839670,-0.181445460,0.035920560,10.309229850,0.031760350,0.064504160,0.028227280
1640842506.841610,0.119813780,0.090404290,9.176514630,-0.013139840,0.042197110,0.021858520
1640842506.844510,-0.300446420,0.033970430,10.399057390,-0.005342070,-0.026376550,0.028482080
1640842506.846660,-0.203679010,0.194712950,9.557641030,0.028190020,0.089298190,0.028291350
1640842506.849510,0.050989880,-0.094422410,9.248818400,0.069496030,0.027643140,0.002102550
1640842506.851650,-0.450845060,0.093064210,10.477907180,0.106844310,0.087939190,0.005452330
1640842506.856610,-0.134359480,0.436748740,9.066866870,0.020080800,0.043521830,-0.001461800
1640842506.857840,-0.401242580,0.155463950,9.999386790,-0.018903610,-0.092265020,0.010687110
1640842506.859520,-0.248490780,0.486408680,9.313052180,0.022351750,0.073173640,0.014665730
1640842506.861650,0.221595000,0.542730150,9.171791080,0.029271840,0.064058600,0.017163160
1640842506.864490,-0.169264760,0.341404080,11.281202320,0.056347250,0.101442640,0.049534440
1640842506.866650,0.263397340,0.517155170,9.816237450,0.041304530,0.075252350,0.016473240
1640842506.869660,-0.028021090,0.299145130,10.176852230,-0.001434980,-0.121873600,0.028887390
1640842506.871730,-0.275925130,0.344692800,9.459322930,-0.020755830,0.042298440,0.036412480
1640842506.874580,0.083265540,0.336681870,8.331745150,-0.025613610,0.036612150,-0.010022520
1640842506.876720,-0.444444750,0.300021530,10.449190140,0.015121700,0.052665190,0.026759510
1640842506.879560,0.009700430,0.466785250,9.412476540,0.004491210,0.142295660,0.031815470
1640842506.881610,0.045145730,0.102780680,10.215035440,-0.006227200,-0.036376720,0.031079350
1640842506.884480,-0.332368430,0.138616410,10.618539810,0.008381900,0.037091970,0.069276990
1640842506.889480,0.242663250,0.164457470,8.655757900,-0.027649110,0.012500590,0.021950900
1640842506.890890,-0.099672330,-0.217025970,10.192379000,0.000290570,0.011323390,0.020185110
1640842506.891650,0.042261060,-0.005633340,9.256150250,0.055299710,0.177934780,-0.010295210
1640842506.894560,0.139870450,0.080793660,9.447108270,0.036276880,-0.016668440,-0.020159780
1640842506.896650,-0.480470900,0.033442460,10.532348630,0.008384880,0.020459300,0.052988530
1640842506.899540,0.018876640,0.034828160,8.541865350,0.008510050,0.036719450,0.036352870
1640842506.901730,-0.406748320,-0.199405940,10.316510200,0.053884100,-0.027601420,0.041465460
1640842506.904840,-0.310513970,0.063350050,9.973508830,0.082036850,0.159652550,0.047889350
1640842506.907420,0.214001000,0.025063360,9.565273280,0.077202920,0.024041540,-0.013341010
1640842506.909500,-0.426689450,0.268842160,11.113273620,0.041045250,0.025704500,0.010679660
1640842506.912050,0.130979960,0.689915420,8.705143930,-0.005054480,0.039485100,0.017128890
1640842506.914470,-0.194757120,0.323618860,9.784110070,0.030101830,-0.088948000,0.008553270
1640842506.916660,-0.407099310,0.712787810,9.513829230,0.070257490,0.099493570,0.027045610
1640842506.922860,0.146017830,0.737299980,8.832168580,0.034664580,0.028713050,0.016479200
1640842506.923820,-0.420931730,0.276190760,11.305813790,0.009542700,0.052532550,0.056000050
1640842506.924420,-0.006409590,0.395570040,9.779305460,0.021825730,0.078500810,0.046077370
1640842506.926710,0.042291780,0.150886850,10.021259310,0.021442770,-0.123830120,0.030045210
1640842506.929530,-0.126319680,0.116020310,9.746904370,-0.003571810,0.078858440,0.030048190
1640842506.931590,0.428643550,0.117586930,8.373054500,0.006558000,0.075604030,-0.020986800
1640842506.934480,-0.216275590,-0.006666380,10.482301710,0.032182040,0.007745620,-0.010192390
1640842506.936750,-0.014269390,0.244379760,9.241702080,0.020635130,0.096103550,0.024564570
1640842506.939550,-0.111722450,-0.025020710,9.666930200,0.019824510,-0.074550510,0.017812850
1640842506.941620,-0.710960510,0.049180260,10.484474180,0.029751660,0.021925570,0.051140790
1640842506.944500,-0.052108120,0.225352000,8.710122110,0.023905930,0.040036440,0.020907820
1640842506.946740,-0.288458760,0.043990440,10.488301280,0.031390790,0.020512940,-0.005961950
1640842506.949520,-0.131439390,0.440397590,9.798065190,0.049024820,0.132583080,-0.000022350
1640842506.952090,0.313371240,0.477060500,9.273097040,0.026148560,-0.055055320,-0.005827840
1640842506.954580,-0.254854710,0.201059180,10.311406140,0.005184110,0.015595560,0.034746530
1640842506.956810,0.121855410,0.127354440,8.795666690,0.056143120,0.040851540,0.031070410
1640842506.959530,-0.258312940,-0.143203060,10.203067780,0.085505840,-0.060199200,0.005492570
1640842506.961660,-0.378106590,0.072661920,10.039409640,0.044125320,0.101953750,0.017994640
1640842506.964450,0.031790740,0.227646900,9.562376980,0.014665720,0.002606210,0.000564750
1640842506.966670,-0.496210810,0.307465910,10.909968380,-0.004033740,-0.011880700,0.017686190
1640842506.969460,0.106711690,0.664584100,9.009351730,0.005021690,0.041422250,0.027900940
1640842506.971910,0.152488980,0.407796080,9.563768390,0.061091790,-0.022134180,0.003618000
1640842506.974450,-0.214346130,0.547221180,9.973090170,0.064855820,0.081232190,0.002101060
1640842506.976680,0.331233770,0.673400520,8.979172710,0.004051630,-0.003694000,0.017309190
1640842506.979510,-0.181729260,0.021633940,10.365025520,-0.034461920,-0.005428490,0.031372900
1640842506.981610,-0.095779030,-0.051503190,9.564916610,0.020879500,0.070360300,0.035978850
1640842506.984500,-0.001664930,-0.109510350,9.659271240,0.080017760,-0.056523100,0.028622150
1640842506.987410,-0.334139260,-0.197973150,9.947781560,0.039836760,0.052975110,0.002843140
1640842506.989800,0.196571410,0.246932240,8.989678380,0.004646180,0.064112250,-0.010161100
1640842506.991660,-0.141886090,0.212853730,10.266314510,-0.014258920,0.010339920,-0.011321900
1640842506.994600,-0.078158890,0.195186930,9.699474330,0.009052460,0.047723950,0.003258880
1640842506.996720,-0.005026140,0.132905480,9.544102670,0.115117430,-0.022333860,0.006338960
1640842507.001060,-0.633587540,0.069696320,10.067007060,0.113190730,-0.018285220,0.015665590
1640842507.002880,-0.206597520,0.439803780,9.035092350,0.009168690,0.002565980,0.023926790
1640842507.004500,-0.310699490,0.349479790,9.939474110,-0.040568420,0.023052100,0.016178190
1640842507.006750,-0.147156880,0.463637770,9.937734600,-0.011235480,0.082744660,0.005488100
1640842507.009480,0.249187190,0.650330070,10.032886510,0.069841750,-0.000725690,0.005932150
1640842507.012810,0.048893090,0.387421880,10.249243740,0.079059610,0.021435320,0.012625750
1640842507.014510,0.112813030,0.363474490,9.527544980,0.024810430,-0.008277590,0.005319710
1640842507.016740,-0.105326460,0.321225880,9.732066150,-0.013841690,-0.042225420,0.005875530
1640842507.019490,-0.284027900,0.095054900,9.345590590,-0.049108270,0.034016370,0.008933250
1640842507.021730,-0.183360790,0.214469390,9.681808470,0.019347670,0.015349690,0.005507470
1640842507.024480,-0.422621460,0.324602900,10.172869680,0.054234270,0.007818640,0.016506010
1640842507.026740,0.022914530,0.382766130,9.433090210,-0.011421740,0.008031730,0.032362350
1640842507.029600,0.200949820,0.447794290,9.887451170,-0.030627850,0.038513540,0.018626450
1640842507.031700,0.166197050,0.395222280,9.793962480,-0.044129780,0.071272260,0.006099040
1640842507.034440,0.222038110,0.368488100,9.955496790,-0.007137660,-0.030151010,0.012379880
1640842507.036680,-0.051109540,0.096576560,9.558151250,0.055278840,0.000055130,0.011475380
1640842507.039490,-0.204322530,-0.067307640,8.988971710,0.016222890,-0.008364020,0.005687770
1640842507.041640,-0.361989590,0.032635760,9.673657420,-0.011187790,0.018490850,0.018230080
1640842507.044550,-0.422737840,-0.171400350,9.597935680,-0.032584370,0.052577260,-0.000180300
1640842507.046710,-0.190004570,-0.028378330,10.034194950,0.008226930,-0.004850330,-0.009006260
1640842507.049660,-0.114165140,0.326398850,10.131145480,0.056290630,0.045186280,0.009362400
1640842507.055120,0.099760000,0.152631450,9.637230870,0.014783440,0.023683910,0.010728840
1640842507.055920,-0.071812750,0.222046300,10.298151020,0.042513020,0.001597400,0.018526610
1640842507.056660,-0.249755380,0.292091580,9.330654140,0.035016240,-0.020715590,0.007621940
1640842507.059560,-0.299626560,0.180107740,9.371061330,-0.002209840,-0.086134670,0.005957480
1640842507.061760,-0.397151890,0.520133970,9.668186190,0.021614140,0.034074490,-0.003947320
1640842507.064680,-0.186772230,0.566873670,9.561411860,-0.011439620,0.038312380,-0.006461140
1640842507.066700,-0.032083660,0.545697690,10.767780300,-0.008963050,0.016133490,0.026731190
1640842507.069440,0.151729730,0.489706220,10.060765270,0.029231610,0.049783300,0.019970540
1640842507.071740,0.154625270,0.136247050,9.892309190,0.023059540,-0.074142210,0.003296140
1640842507.074450,-0.181076060,0.305510700,9.830006600,0.012110170,-0.039301820,0.003378090
1640842507.076740,-0.132049460,0.016662860,8.529842380,-0.041200220,-0.032082200,-0.000637770
1640842507.080280,-0.264464470,-0.233769980,9.717166900,-0.017832220,-0.006316600,0.005292890
1640842507.081780,-0.253084570,0.154522520,9.754469870,0.039249660,0.094628360,0.009410080
1640842507.084520,-0.024844420,-0.017046390,9.958209990,0.006660820,-0.031359500,0.025503340
1640842507.086700,-0.101847110,0.208644330,10.535468100,0.022321940,-0.004005430,0.025086110
1640842507.089790,0.149823440,0.405601140,9.117263790,0.002959370,-0.006589290,0.011773410
1640842507.091660,0.121932060,0.188229050,9.821443560,-0.015509130,-0.027917330,0.010144710
1640842507.094610,-0.045858820,0.186880390,9.601635930,0.055706510,0.088092700,-0.000821050
1640842507.097690,-0.001455910,0.041296960,9.231269840,0.057983410,-0.040614610,-0.030282140
1640842507.099470,-0.415569540,0.124342100,10.175128940,0.041535490,-0.037592640,0.010779500
1640842507.101650,-0.264691380,0.065743670,9.013317110,0.008197130,0.008422140,-0.000283120
1640842507.104460,-0.317961390,-0.133768710,10.070739750,-0.000070040,-0.066098570,0.004711750
1640842507.106870,-0.290294050,0.061286860,10.281811710,0.079634790,0.076070430,0.031334160
1640842507.109530,0.151778700,-0.164152280,9.616635320,0.103798530,0.024771690,-0.002279880
1640842507.111910,-0.153664830,-0.009142060,10.882514950,0.105205190,-0.024169690,0.000192220
1640842507.114620,-0.048553920,0.482090980,9.188036920,0.051546100,-0.016850230,-0.009568040
1640842507.116680,-0.106385390,0.411665530,9.242565160,-0.025524200,-0.129847210,-0.022435180
1640842507.119440,-0.352875080,0.713234010,9.794158940,0.018081070,0.015740100,-0.009913740
1640842507.121720,0.064924690,0.918215220,9.165054320,0.052441660,0.043034550,-0.013032560
1640842507.124500,-0.042245380,0.737287460,10.997163770,0.038558250,0.006620590,0.025694070
1640842507.126730,0.076961350,0.753636960,10.416260720,0.032885380,0.063017020,0.042058530
1640842507.131220,0.088670810,0.393961010,9.974269870,-0.021310150,-0.120547420,0.031338630
1640842507.131760,-0.261114980,0.190721170,9.931900020,-0.023108720,-0.068964070,0.036117440
1640842507.134410,0.076729800,0.034688960,8.297431950,-0.001950560,0.031203030,-0.019513070
1640842507.136660,-0.116643520,0.013671460,9.708886150,0.003372130,0.003048780,-0.021311640
1640842507.139880,-0.166588020,0.300793170,10.054573060,-0.009313230,0.084608790,-0.000146030
1640842507.141610,0.114557790,0.159843940,9.751627920,-0.047226250,-0.032500920,0.010019540
1640842507.144560,-0.256015420,0.084792870,10.766020770,-0.002259020,-0.070215770,0.047177080
1640842507.147280,-0.035642880,0.302219330,9.315863610,0.034660100,0.005026160,0.037567320
1640842507.149470,0.090167580,0.179342550,9.518750190,-0.017365810,-0.029216710,0.026059150
1640842507.151670,-0.040441950,0.103985770,10.014433860,0.001852210,0.104609150,0.008322300
1640842507.154580,0.262301560,0.120531800,9.222073550,0.021719930,0.028403100,-0.044189390
1640842507.157030,-0.187735540,0.090053390,10.147603030,0.011834500,-0.085672740,-0.011593100
1640842507.160130,-0.249608610,0.002340800,9.084256170,0.027224420,-0.002259020,0.019009410
1640842507.161680,-0.264800490,-0.126765610,9.304439540,0.012782220,-0.047022110,0.012369450
1640842507.165120,-0.577833890,-0.257498500,10.605843540,0.040908160,0.038236380,0.049337740
1640842507.166660,-0.045240450,-0.405684110,9.785603520,0.090697420,0.075027350,0.012597440
1640842507.169460,-0.184922100,-0.144935160,10.677186010,0.110307340,-0.047469140,-0.026680530
1640842507.171660,-0.190197270,0.346381840,9.814782140,0.045216090,-0.022554400,-0.011411310
1640842507.174480,0.188122750,0.549904350,8.701718330,-0.023432070,-0.055661790,-0.014708930
1640842507.176860,-0.246028160,0.633241890,9.900939940,0.025999550,-0.009156760,-0.025242570
1640842507.180740,-0.025024900,0.862286980,9.603383060,0.084112590,0.043420490,-0.007154050
1640842507.181700,0.044448760,0.960781220,10.151837350,0.049172340,-0.029511750,0.001497570
1640842507.184430,-0.232169080,0.611243130,10.839943890,0.001522900,0.018508730,0.037598600
1640842507.186760,0.025163900,0.316599160,9.979879380,-0.008885560,-0.018213690,0.026811660
1640842507.189440,-0.150733930,0.180389050,9.851873400,0.005771220,-0.089143220,0.022251910
1640842507.191820,0.038922500,-0.108523880,9.179064750,0.020745390,0.032585850,0.009489060
1640842507.194660,0.219487220,0.102434060,9.163584710,0.014913080,0.065211940,-0.035375360
1640842507.197730,-0.161256190,0.299800690,10.379677770,-0.022251910,-0.003242490,-0.043033060
1640842507.199440,-0.045992830,0.223646600,9.999456410,-0.041316450,-0.024056440,-0.002247100
1640842507.201670,-0.085051770,0.273693200,9.636938100,0.016541780,-0.055396560,0.006680190
1640842507.204450,-0.317620960,0.187901530,10.105093960,0.036604710,0.005806980,0.033785410
1640842507.207090,0.102282940,0.347196160,9.478713040,0.004561250,0.065422070,0.029705460
1640842507.209880,0.215977220,0.258136810,9.832416530,-0.009812410,0.040605670,0.003929440
1640842507.211750,0.307075740,0.181373060,10.080228810,-0.010621550,0.053197150,-0.017470120
1640842507.214560,0.441172360,0.340494100,9.270803450,0.009691720,0.017404560,-0.020210440
1640842507.216710,-0.080557850,-0.099256110,9.817271230,0.023807590,-0.019207600,-0.013120470
1640842507.219480,-0.151979180,-0.159804430,9.508996960,0.037148600,0.040557980,0.001658500
1640842507.221700,-0.415473340,-0.194830630,9.554603580,0.042413180,0.011444090,-0.012189150
1640842507.224930,-0.670243020,-0.410628320,10.416015620,0.019972030,0.028869510,-0.011585650
1640842507.226790,-0.356648800,-0.018947090,9.677654270,0.060664120,0.037424260,-0.020323700
1640842507.230610,-0.294274420,0.261753500,9.950319290,0.057676450,-0.022856890,-0.022357710
1640842507.231670,0.124369350,0.499063040,9.819531440,0.011330840,0.081446750,0.015100830
1640842507.234480,0.213462020,0.565756740,9.721633910,0.056774930,0.055351850,0.002901260
1640842507.236640,-0.151051420,0.387307230,10.555675510,0.075204670,-0.041396920,-0.009292370
1640842507.239620,0.104857570,0.630390640,9.278530120,0.059805800,-0.007106360,-0.005583460
1640842507.241730,-0.219608230,0.565040950,9.649475100,0.005438920,-0.017464160,-0.020384790
1640842507.247330,-0.284852090,0.463604930,10.245307920,-0.034651160,0.070300710,-0.000813600
1640842507.247910,0.051690580,0.555613160,9.617640500,0.003135200,0.039921700,0.009791550
1640842507.249500,-0.115251520,0.140247940,10.570193290,0.040566920,0.011509660,0.017590820
1640842507.251690,0.115816180,0.118827730,9.826861380,0.061844300,0.077201430,0.018733740
1640842507.254580,-0.139820430,0.241653960,9.769664760,0.027416650,-0.074908140,-0.009134410
1640842507.256900,-0.363514750,0.095887330,9.982275960,-0.079768900,-0.004845860,0.001347070
1640842507.259830,0.042249620,0.164517700,8.877027510,-0.030584630,0.060509150,-0.020201500
1640842507.261690,-0.262556340,0.205895140,10.262579920,0.047433370,0.025264920,-0.033617020
1640842507.264480,0.064616410,0.474151400,9.904822350,0.037033860,0.104542100,0.015828020
1640842507.266690,0.296584040,0.456955460,9.574516300,0.016061960,-0.005286930,0.032934550
1640842507.269440,-0.039343910,0.207591770,10.501728060,-0.032359360,0.010961300,0.039750340
1640842507.272000,0.409399720,0.225599070,9.092038150,-0.014115870,0.055553030,0.028668350
1640842507.274960,0.002216920,-0.261964050,10.088582040,0.055703520,0.031289450,-0.021214780
1640842507.276800,-0.168139190,-0.219297410,10.121492390,0.072450940,0.098885600,-0.051096090
1640842507.279930,-0.087892430,0.023731570,9.270646100,0.052468480,0.006043910,-0.041313470
1640842507.281670,-0.603296340,-0.247260600,10.099463460,-0.006735330,0.009565060,-0.011518600
1640842507.284430,-0.398792980,-0.064668290,9.355357170,0.032070280,0.050482160,0.009691720
1640842507.286740,-0.513263170,0.075611460,9.864184380,0.107449300,-0.018684570,0.013674800
1640842507.289530,-0.296823500,0.188430910,10.111942290,0.068449970,0.091028210,0.017282370
1640842507.291890,0.139341090,0.379376650,9.950263980,0.073792050,0.085492430,0.002211330
1640842507.294600,-0.097229130,0.408425750,10.868075370,0.059092050,0.011976060,-0.021933020
1640842507.296690,0.209608700,0.696357970,9.616001130,0.026755030,0.012220440,-0.017842650
1640842507.299490,0.136982170,0.765706540,9.329010010,0.049538910,-0.034405290,-0.024396180
1640842507.301650,-0.186288860,0.792003690,9.747645380,0.008933250,0.058037050,-0.017479060
1640842507.304600,0.130529420,0.898251590,9.378327370,-0.008514520,0.055390590,0.016149880
1640842507.306680,-0.203747300,0.387043120,10.699601170,0.016753380,0.046278540,0.021952390
1640842507.309620,-0.171852170,0.287893590,10.429915430,0.006662310,0.079855330,0.019285080
1640842507.311680,-0.131316130,0.369867000,10.134190560,0.007289650,-0.058321650,0.025199350
1640842507.314430,-0.362819430,0.105952120,9.934812550,-0.055363770,0.010526180,-0.003172460
1640842507.316670,0.068580630,0.229374160,8.796191220,-0.060348220,0.072626770,-0.042827440
1640842507.319440,-0.078813290,0.328600910,9.801699640,0.016123060,0.046132500,-0.036449730
1640842507.321810,-0.060261850,0.355318670,9.847782140,-0.012399260,0.089333950,-0.008517500
1640842507.324490,0.160762850,0.345170620,9.809178350,-0.008867680,-0.003479420,0.022189320
1640842507.326830,-0.255231500,0.143746240,10.481478690,-0.014674670,0.014573340,0.038586560
1640842507.330480,0.109806350,0.022758500,9.501489640,-0.041137640,0.041584670,0.017620620
1640842507.331640,0.088159550,-0.033374900,9.984196660,0.023648140,0.053849820,-0.015842910
1640842507.334470,-0.003242520,0.070152770,9.830005650,0.014485420,0.124757000,-0.055553020
1640842507.337060,0.165737290,0.259537640,9.531234740,-0.014154610,0.004890560,-0.039896370
1640842507.339520,-0.288825480,0.167069750,9.802113530,-0.003063680,0.021266940,-0.006200370
1640842507.342020,-0.298773230,-0.018771730,9.190426830,0.006175040,0.033682580,-0.001415610
1640842507.344530,-0.635266420,0.031886040,10.266447070,0.060631350,-0.006471580,0.009408590
1640842507.346740,-0.610921560,0.046571850,9.930009840,0.034268200,0.070515280,0.002868470
1640842507.349460,-0.065989430,-0.011910660,9.857904430,0.009779630,0.038048630,-0.025929510
1640842507.351840,-0.221029950,0.448918190,10.683099750,0.031472740,0.078439720,-0.022317470
1640842507.354540,0.194125850,0.559661920,9.614305500,-0.014424320,0.030186770,-0.022810700
1640842507.356710,0.198380110,0.442796290,9.947424890,0.019897520,-0.051677230,-0.010505320
1640842507.362740,-0.049913030,0.651799200,9.393623350,0.052271780,0.056700410,-0.009581450
1640842507.363180,0.011478360,0.431485470,9.403968810,-0.000697370,-0.005069380,-0.001360480
1640842507.364410,-0.424078670,0.428885070,10.653230670,-0.006417930,0.026699900,0.026132170
1640842507.366780,-0.210183720,0.339391920,9.671107290,-0.030289590,0.055123870,0.004367530
1640842507.369470,-0.142169490,0.138254960,10.295428280,-0.014378130,-0.024665890,0.006978210
1640842507.371680,-0.171279160,0.385573570,9.814807890,0.007538500,0.073836770,0.006726390
1640842507.374920,0.212880460,0.232890920,9.136082650,-0.031612810,0.024421510,-0.030767920
1640842507.376740,-0.161801830,0.387254090,10.417635920,-0.024719540,0.010880830,-0.007984040
1640842507.379590,-0.032691850,0.300700660,9.172142980,-0.039674350,0.048664220,-0.012411180
1640842507.381690,-0.065276810,-0.223717910,9.853136060,0.006999080,-0.049236420,-0.020131470
1640842507.384520,-0.434899510,0.108436670,10.133234980,0.049559770,0.065593430,-0.005409120
1640842507.386770,-0.101671140,0.077302710,9.125728610,-0.026364620,0.013047450,-0.019818540
1640842507.389460,-0.162594590,-0.076094580,10.438622470,-0.052009520,0.001089270,0.002355870
1640842507.392000,-0.021835640,0.269418270,9.460852620,0.003528600,0.098522020,-0.012928250
1640842507.394480,0.260333240,0.101372270,9.729932790,0.026081510,-0.037655230,-0.000037250
1640842507.396760,-0.123269740,0.148508970,10.423724170,0.055259470,0.073541700,0.020891430
1640842507.399560,0.051493040,0.194206280,9.111491200,0.015975530,0.033116340,-0.016477700
1640842507.401730,-0.433132050,0.047035150,10.558751110,0.001303850,-0.068996850,-0.003220140
1640842507.404440,-0.598080990,0.387723770,9.485828400,0.007072090,0.043107570,-0.023499130
1640842507.406750,-0.235422160,0.451214520,9.208286290,-0.009317700,-0.053820020,-0.048334900
1640842507.409490,-0.422092350,0.681923270,10.531105040,0.010703510,0.072294470,0.013922160
1640842507.411840,0.209314750,0.737407090,9.351052280,-0.014203790,0.099062920,0.021708010
1640842507.414440,0.271577060,0.218137320,10.835355760,0.004307930,-0.022551420,0.028158720
1640842507.416780,0.045493650,0.299144150,10.228109360,0.046272580,0.039243700,0.023338200
1640842507.419460,0.281426250,0.103429790,8.951215740,-0.002956390,-0.079675030,-0.014762580
1640842507.421720,-0.232359200,-0.118592590,10.066208840,-0.031235820,0.008818510,0.003522630
1640842507.424740,-0.003060920,0.087764820,8.777930260,-0.006924570,0.114049020,-0.017364330
1640842507.426780,-0.011344940,0.019226950,10.016864780,-0.001956520,0.000311430,-0.007027390
1640842507.429580,-0.248155560,0.149780060,10.445158960,0.037616490,0.103195020,0.039884450
1640842507.432230,0.120170760,0.235875460,9.453187940,0.030447550,-0.006188450,0.007826090
1640842507.434450,-0.236661270,0.224581870,10.582144740,0.007440150,-0.049658130,0.025717920
1640842507.436720,-0.049258900,0.241587340,9.120414730,0.002484020,0.102710750,0.006286800
1640842507.439430,0.026628780,-0.056752530,9.578341480,0.041094430,0.010780990,-0.036662820
1640842507.441690,-0.486602370,0.061840660,10.349598880,0.087088350,0.073857610,-0.028984250
1640842507.444560,-0.116204680,0.360628400,8.885180470,0.037385520,-0.010985140,-0.018841030
1640842507.449400,-0.340495850,0.109904110,10.134321210,-0.015617910,-0.051021580,0.008644160
1640842507.449820,-0.267446280,0.222935320,9.743555070,0.015999380,0.090418760,0.026537480
1640842507.451670,0.201519240,0.304886970,9.786560060,0.051401550,0.020189580,0.017148250
1640842507.454450,-0.135045010,0.032136850,11.133698460,0.081183010,0.059135260,0.027707220
1640842507.456780,0.057733570,0.271540250,9.674011230,0.079552820,0.029188390,-0.004239380
1640842507.459520,-0.203904930,0.486257850,9.847397800,0.013791030,-0.116972650,-0.028008220
1640842507.461780,-0.523618400,0.566471100,9.297719960,-0.045689950,0.010968740,-0.003406410
1640842507.464710,-0.225370200,0.850497720,8.849355700,-0.023405250,0.009214880,-0.024205450
1640842507.466730,-0.447687030,0.957035060,10.582218170,0.008365510,0.043252110,0.003838540
1640842507.469460,-0.019393060,0.833024920,10.024804120,-0.002105530,0.096011170,0.031718610
1640842507.471690,0.188946490,0.593671980,10.401415820,-0.009247660,-0.029246510,0.025561460
1640842507.474610,-0.157121110,0.228046220,10.464593890,-0.026765470,-0.015068060,0.034606460
1640842507.476780,0.322307560,0.141469150,8.790706630,-0.057022280,-0.041569770,0.016081330
1640842507.479740,0.109638240,-0.158112270,9.523284910,-0.045736140,0.019770860,-0.018414860
1640842507.481710,-0.074775530,-0.230009150,9.634083750,-0.005757810,0.105418260,-0.028246640
1640842507.484440,0.060308880,0.117930780,9.732189180,0.001978870,-0.023023790,-0.016832350
1640842507.486790,-0.391909480,-0.046702810,10.382426260,-0.034244360,0.006903710,0.022464990
1640842507.489460,-0.339595500,-0.047883820,9.646819110,-0.016361470,-0.006914140,0.032493470
1640842507.491870,-0.434030680,0.068181920,9.989457130,0.026470420,-0.052200260,0.000652670
1640842507.494540,-0.323270440,0.040456180,9.651173590,0.019080940,0.055472560,-0.013445320
1640842507.498820,0.102114510,0.327993010,9.661440850,0.025604670,0.053244830,-0.031000380
1640842507.499430,-0.100458000,0.434763730,10.289102550,0.004041190,0.028242170,-0.028368830
1640842507.501680,0.078372080,0.443646670,9.543273930,-0.027343630,-0.044664740,-0.000683960
1640842507.504410,0.020601990,0.330490140,9.495721820,0.021389130,-0.042943660,0.017356870
1640842507.506820,-0.246116310,0.129487780,9.581346510,0.041767960,0.023216010,0.015433130
1640842507.509510,-0.104285760,0.212987420,9.918707850,0.017833710,0.010244550,0.026591120
1640842507.511840,-0.170726950,0.049216740,10.374794960,0.008119640,0.055722890,0.012162330
1640842507.515120,-0.166422710,0.042512690,10.307786940,-0.004239380,0.006023050,-0.003252920
1640842507.516740,-0.103279270,0.472805560,10.134361270,0.006048380,-0.065653030,-0.002300740
1640842507.519460,-0.201495660,0.420039330,9.415959360,-0.012286010,-0.007575750,-0.018638370
1640842507.521760,-0.018290100,0.517733510,9.328990940,-0.009337070,-0.003415350,-0.027315320
1640842507.524720,-0.100965510,0.770986320,9.789106370,0.011160970,0.046794120,-0.018782910
1640842507.526770,0.044270730,0.556049880,9.732131960,-0.047563020,0.034904480,0.008025770
1640842507.529530,0.101339690,0.362226100,10.236460690,-0.019256780,0.003889200,0.043918200
1640842507.532280,-0.189888400,0.142045870,10.052816390,0.022092460,-0.024992230,0.027446450
1640842507.534410,0.104163840,-0.049671050,9.338027000,-0.026460000,-0.057356060,0.041115290
1640842507.536730,0.102315220,-0.164759100,9.567941670,-0.006699560,0.084272010,0.002388660
1640842507.539490,0.073977570,-0.139878510,9.798385620,-0.017119950,0.101386010,-0.052012510
1640842507.541900,-0.030792420,0.133751060,10.381463050,-0.006204840,-0.019538410,-0.021138790
1640842507.544580,-0.251730800,0.224868460,9.605387690,0.011849400,-0.025424360,-0.019605460
1640842507.548420,-0.293245170,-0.025750690,9.276925090,0.007984040,-0.045923890,0.005556640
1640842507.549420,-0.624841330,0.146578120,9.880149840,0.067412850,0.026711820,0.028106570
1640842507.551720,-0.414411370,0.214272830,9.516663550,0.029762090,0.029133260,-0.004495680
1640842507.554560,-0.111096310,0.256051480,10.285851480,-0.010678170,0.014543540,0.008134540
1640842507.556810,-0.101331930,0.618442420,10.306358340,0.014053290,0.053133080,-0.007691980
1640842507.559590,0.173861710,0.524711010,9.925436970,-0.018924480,-0.057461860,-0.009354950
1640842507.561770,0.109981340,0.444897090,9.893366810,0.028295810,-0.005163250,0.023493170
1640842507.565110,0.015934100,0.344842820,9.360424040,0.052705410,0.031718610,-0.015047190
1640842507.566750,-0.220595170,0.220658170,10.057369230,-0.001750890,-0.034987930,0.007346270
1640842507.569450,-0.414216790,0.308212070,9.897941590,-0.017584870,0.001890960,0.013846160
1640842507.571730,-0.336216750,0.118958080,9.800780300,-0.043593350,-0.027859210,-0.006709990
1640842507.574750,-0.294018690,0.358424570,10.226900100,-0.008903440,0.001595910,0.031231340
1640842507.576910,-0.097577040,0.525649730,9.735359190,0.011548400,0.029136240,0.005728010
1640842507.579570,0.117491760,0.387309400,9.999256130,-0.033859910,0.005725030,0.005270540
1640842507.581650,0.073082520,0.614927770,10.001489640,-0.019997350,0.007566810,0.011453030
1640842507.584400,0.108437320,0.418312160,9.512379650,-0.052593650,-0.041246420,-0.021627550
1640842507.586760,0.080898760,0.109826550,9.667900090,-0.031262640,-0.028611720,0.011669100
1640842507.589460,-0.069586040,0.059952610,9.478578570,0.046108660,0.039404630,0.002375250
1640842507.592070,-0.144663050,-0.042368010,9.777212140,-0.019820040,-0.004291530,0.001767280
1640842507.594970,-0.142899570,0.015762160,9.997852330,-0.052697960,0.019757450,0.040698060
1640842507.596730,-0.174087420,-0.119512760,9.835716250,-0.022600590,0.019751490,-0.009275970
1640842507.599470,-0.194611890,0.006361760,10.134800910,0.003570320,-0.054006280,-0.010384620
1640842507.601700,-0.210111630,0.157818910,9.698497770,0.056988000,0.013947490,-0.002285840
1640842507.604460,-0.097261190,-0.009613690,9.590122220,0.022929910,0.036504860,-0.028137870
1640842507.606760,-0.350713910,0.197284210,10.303421020,0.015394390,-0.003892180,0.001789630
1640842507.609630,-0.356185620,0.310153390,9.663261410,0.024642060,-0.036887820,-0.011824070
1640842507.611760,-0.129746000,0.431308000,9.450594900,-0.013458730,-0.058567520,-0.021655850
1640842507.614440,-0.191025570,0.807558360,9.857966420,0.010819730,0.013132400,0.013369320
1640842507.616720,0.122755330,0.675679860,9.860509870,-0.017932060,0.058327620,0.011128190
1640842507.619480,0.205135420,0.502898930,10.546220780,-0.015760960,0.010968750,0.021451710
1640842507.621780,0.027420570,0.314996300,10.395648000,0.064185260,-0.011569260,0.022493300
1640842507.624720,-0.068639050,0.196540360,9.654792790,-0.000894070,-0.084543240,-0.013099610
1640842507.627100,-0.369623300,0.204124670,9.410513880,-0.059710440,-0.064717220,0.000761450
1640842507.629540,-0.423186510,-0.085482310,9.292613980,-0.033316020,0.020951030,-0.020837790
1640842507.631700,-0.306281860,0.052347790,9.684641840,-0.008024280,0.015485290,-0.030399860
1640842507.634440,-0.249080030,0.197709610,10.178792950,0.039927660,0.006335970,0.016346570
1640842507.636680,-0.015060290,0.131360580,10.100907330,0.016431510,0.013694170,0.005823370
1640842507.639680,-0.002446540,0.407133310,10.158891680,-0.023323300,-0.087267160,0.004091860
1640842507.641980,-0.009815380,0.354518470,9.761065480,-0.025105480,-0.048467520,0.025680660
1640842507.644530,0.315697760,0.055055800,9.096089360,-0.002390150,0.026308000,-0.014708940
1640842507.648230,-0.157781350,0.132695840,10.250791550,0.071948770,0.022540990,-0.025355820
1640842507.649400,-0.260982160,0.249686790,9.992003440,0.053378940,-0.023292010,-0.011105840
1640842507.651730,-0.238637750,0.195983510,9.532737730,-0.033871820,-0.112308570,-0.009851160
1640842507.654580,-0.514345530,0.306836870,9.976525310,-0.033289190,-0.050750380,0.013791020
1640842507.656830,-0.035189950,0.344875540,9.363441470,-0.018738210,0.062125920,0.007556380
1640842507.659610,-0.061163080,0.203901810,10.618985180,0.042232880,0.012633210,-0.002278390
1640842507.661790,-0.044616000,0.315978320,10.871775630,0.090424730,0.037185860,0.001856690
1640842507.664450,0.125734690,0.496528710,9.719049450,0.008237360,-0.100633510,-0.021366780
1640842507.666710,-0.285277250,0.606975020,9.884437560,-0.076372920,-0.141403080,-0.007098910
1640842507.669440,-0.022993310,0.655297820,8.704311370,-0.088530780,0.030319390,-0.007069110
1640842507.671890,0.070537110,0.521083650,9.429088590,-0.017616150,0.025403500,-0.033707920
1640842507.674840,-0.181400210,0.482719780,10.918858530,0.052092970,0.051936510,0.004695350
1640842507.676780,0.351557280,0.342493830,9.727458950,0.024329130,0.008517500,0.015853350
1640842507.679820,-0.011766460,0.050444470,10.540255550,-0.051108000,-0.103245680,0.022184850
1640842507.681700,-0.073904780,0.004732200,9.798024180,-0.096632530,0.014416870,0.034014880
1640842507.684430,0.157411190,-0.448417010,8.930638310,-0.018446150,-0.014357270,-0.018277760
1640842507.686810,-0.417571900,-0.426232990,10.470828060,0.094883150,0.014096500,-0.055582820
1640842507.689550,-0.148792510,0.288075600,9.157213210,0.050933660,0.052924460,-0.041183830
1640842507.691710,-0.354017650,0.136887580,9.848451610,-0.053597990,-0.108240550,-0.024661420
1640842507.694600,-0.578503010,0.387663990,10.217041970,-0.066880880,-0.009271500,0.003422800
1640842507.696800,0.123430070,0.612356900,8.944935800,-0.001752380,-0.003263350,-0.000445540
1640842507.699460,-0.185387480,0.266860340,10.999215130,0.075304520,0.007005040,0.004121660
1640842507.701710,0.180954810,0.674884560,10.143537520,0.072795150,0.129096220,-0.002034010
1640842507.704500,0.072649120,0.563157080,10.121378900,-0.026446580,-0.114086270,-0.011922420
1640842507.706740,-0.408983500,0.288797560,10.298446660,-0.085650390,-0.095112630,0.000914930
1640842507.709950,0.000397910,0.401064660,8.171793940,-0.038664040,-0.017298760,-0.026921920
1640842507.711750,-0.399763320,0.181978600,9.946389200,0.024575000,-0.046962500,-0.027291480
1640842507.714520,-0.206423520,0.538064120,10.079154010,-0.002692640,0.141833710,0.006587800
1640842507.716760,0.304910480,0.339132370,9.964882850,-0.044557460,-0.010882320,0.014044340
1640842507.721640,-0.322140570,0.008429600,11.624259950,-0.030399860,-0.053468350,0.025613610
1640842507.722440,0.102016400,0.477361680,9.177676200,-0.027695300,-0.046150390,0.009271500
1640842507.724430,-0.125048790,0.165401910,9.371757510,-0.027394290,-0.136339680,-0.009073320
1640842507.727070,-0.250459880,0.319232140,9.447981830,-0.031507020,0.103341070,-0.027500090
1640842507.729560,0.323568610,0.613852800,8.896764760,-0.039155780,0.076217950,-0.018571320
1640842507.731710,-0.234164600,0.104934620,11.187401770,-0.042778260,-0.016170740,0.018692020
1640842507.734440,0.100010880,0.207537650,9.715540890,0.001777710,0.009189550,0.028610230
1640842507.736750,0.061037810,-0.004545760,9.683034900,0.015218560,-0.122737890,0.018453600
1640842507.739470,-0.341647360,-0.268216370,10.195996280,-0.017908210,0.040052830,0.023375450
1640842507.741690,0.222934780,-0.096928400,9.002560620,0.004665550,0.084964940,-0.026543440
1640842507.744540,-0.307290850,-0.228255690,10.712316510,0.024530290,-0.017040970,-0.047822300
1640842507.747890,-0.258611410,0.237731710,9.710115430,0.008538370,0.019915400,-0.037021930
1640842507.749460,-0.218869460,0.365232080,9.210785870,0.010493400,-0.097425290,-0.029937920
1640842507.751930,-0.775953950,0.254071410,10.323525430,0.014398990,-0.044870380,0.002348420
1640842507.754600,-0.039987790,0.711501840,9.085419650,0.016295910,0.043264040,0.006797910
1640842507.756770,-0.060016600,0.485734280,10.600241660,0.009499490,0.020642580,0.017988680
1640842507.759480,-0.030055080,0.421704080,10.851142880,0.007718800,0.088873510,0.006130340
1640842507.761760,0.355514110,0.675561610,9.813472750,0.018598140,-0.088641070,-0.019373000
1640842507.764860,-0.183568660,0.475951790,10.041262630,-0.037744650,-0.115229190,-0.020071870
1640842507.766850,0.190219860,0.528689440,8.407284740,-0.065892930,0.019234420,-0.034132600
1640842507.769490,0.089568400,0.539788370,9.462562560,-0.037492820,0.052259860,-0.033119320
1640842507.771710,-0.232333650,0.276856840,10.621307370,-0.037638850,0.102083380,0.005638600
1640842507.774420,0.064684510,0.135723610,10.156422620,0.009691720,-0.016646090,0.023733080
1640842507.777070,-0.431866380,-0.147168030,10.665659900,0.014454130,-0.099419060,0.031037630
1640842507.779540,-0.260307070,-0.100416030,9.227730750,-0.051413480,-0.013141330,0.027270610
1640842507.782210,-0.034421460,-0.126521480,9.260220530,-0.045689930,0.020635130,-0.022435190
1640842507.784510,-0.131029380,0.044070920,9.879260060,-0.020548700,0.103788100,-0.054758790
1640842507.786790,0.210761000,0.459638920,9.692089080,0.002552570,0.026062130,-0.047850610
1640842507.789460,-0.061352200,0.417868320,10.244242670,0.012834370,-0.041188300,-0.018075110
1640842507.791690,-0.146670120,0.351188360,9.535549160,-0.017941000,-0.030884150,0.022508200
1640842507.794620,-0.087794360,0.292034690,9.677476880,0.002184510,-0.037904080,0.038346650
1640842507.796790,-0.199670520,-0.012081080,10.013316150,-0.000716750,0.088578470,0.025710460
1640842507.799510,0.065251020,-0.063756080,10.076315880,0.013324620,0.066933040,-0.006853040
1640842507.801770,-0.124366020,0.026230490,10.699686050,0.048887730,0.018899140,-0.031724580
1640842507.804440,-0.271187310,0.275430140,9.612588880,-0.018328430,-0.050589450,-0.031530860
1640842507.806740,-0.224634840,0.453285600,9.244590760,-0.043028590,-0.106103720,-0.025700040
1640842507.809430,-0.319713000,0.696006480,9.167436600,-0.041621920,0.063823160,-0.025767090
1640842507.811800,-0.152069370,0.719988700,9.765479090,-0.044979160,0.075566750,0.004979970
1640842507.822810,-0.233558860,0.513385300,11.254055980,0.032863020,0.048616530,0.026996440
1640842507.823360,-0.199772370,0.471554040,10.401225090,0.021322070,-0.038726630,0.019299990
1640842507.823650,0.111008140,0.449709950,9.625542640,-0.058065360,-0.107204920,0.038443510
1640842507.823900,0.106088120,0.352554080,9.120144840,-0.111785550,0.086903580,0.013892360
1640842507.824410,0.381959500,0.193741500,9.041830060,-0.102850790,0.069358950,-0.034156440
1640842507.826950,0.133819300,0.089655720,10.509028430,0.016698240,0.052656230,-0.020036100
1640842507.829480,0.055636220,0.088937040,9.663748740,0.033445660,0.013531750,-0.025404990
1640842507.831950,-0.240305100,-0.097277850,10.034234050,-0.039601320,-0.085386620,0.021262460
1640842507.834470,-0.661043940,-0.089501230,10.105712890,-0.069578000,0.015166400,0.040055820
1640842507.836710,-0.371269970,-0.172934960,9.188860890,-0.079204150,0.015176840,0.003784900
1640842507.839430,-0.402320980,-0.081408240,10.438178060,0.022909050,0.029908130,-0.019781300
1640842507.841700,-0.012476270,0.395563510,9.451380730,0.057943160,0.123406950,-0.029942400
1640842507.844580,0.122541790,0.422623570,9.900270460,-0.024114550,-0.030632310,-0.011815130
1640842507.846840,-0.125804710,0.472832950,10.328438760,-0.044795860,-0.009164210,0.024047490
1640842507.850180,0.161514490,0.461408500,8.796464920,-0.054848190,-0.027710200,0.002057850
1640842507.851720,-0.121239630,0.264250790,10.305468560,-0.003583730,-0.025513770,0.027818980
1640842507.854520,-0.118786060,0.301064550,9.956686020,0.037717820,0.148917750,0.015121700
1640842507.856770,-0.014624880,0.284369320,10.161371230,-0.015881660,-0.033888220,-0.009034570
1640842507.859420,-0.328544940,0.357140390,10.864793780,-0.041383510,-0.012066960,0.042082370
1640842507.861830,0.052704080,0.307911570,8.721117970,-0.064279140,0.024887920,-0.005301830
1640842507.864720,-0.192905860,0.245676850,9.811772350,-0.035038590,-0.056956710,-0.025460130
1640842507.867440,-0.347032400,0.486869100,9.644172670,0.006210800,0.111614180,-0.014130770
1640842507.869420,0.030372870,0.329420890,9.201279640,-0.032541150,-0.000341240,-0.018765030
1640842507.871700,-0.426351880,0.120952810,11.087766650,-0.020398200,-0.007724760,0.041247910
1640842507.874420,-0.043108020,0.173275750,9.336470600,-0.025194890,0.050155820,0.028628110
1640842507.877270,0.084678740,-0.136495080,9.886276250,-0.031630690,-0.065889950,0.026030840
1640842507.882270,-0.035973490,-0.045693520,10.027943610,0.010153650,0.100354860,0.013236700
1640842507.883140,0.511771440,0.183387550,8.718949320,-0.007095930,0.058351460,-0.033855440
1640842507.884470,-0.024035970,0.073331890,10.751059530,-0.015534460,-0.008234380,0.009794530
1640842507.886740,-0.021563650,0.215568350,9.368626590,0.005444880,0.087909410,-0.003778930
1640842507.889450,-0.189008190,0.211462410,9.644198420,-0.005714600,-0.110337150,-0.029721860
1640842507.891720,-0.839527130,0.310729770,10.466234210,0.001478200,0.028449300,0.012257700
1640842507.894560,-0.315799890,0.387951430,8.897200580,-0.014191870,0.059553980,-0.019581620
1640842507.896920,-0.586457730,0.437439710,10.867494580,-0.005277990,-0.036753720,0.001056490
1640842507.900560,-0.179732320,0.618828540,9.786223410,-0.014951830,0.118653500,0.034466390
1640842507.901690,0.438627540,0.294960680,9.467445370,-0.027874110,-0.020581480,0.006118420
1640842507.904440,-0.048755170,0.224611400,10.799024580,0.011524560,0.017952920,0.016537310
1640842507.906790,0.432523160,0.345978980,8.711357120,-0.001908840,0.038686400,-0.008894500
1640842507.909490,0.090299820,0.089535800,10.065505030,-0.046622750,-0.060695410,-0.011821090
1640842507.911850,-0.295955210,0.111912830,10.075503350,-0.022913520,0.096002220,0.013697150
1640842507.914620,0.082694750,0.148220430,9.144727710,-0.005967920,-0.015683470,-0.004464390
1640842507.917300,-0.489816250,0.185540940,10.620729450,0.003089010,0.005467240,0.023582580
1640842507.919630,-0.142009510,0.361854940,9.133695600,-0.017304720,0.098273170,0.008159880
1640842507.921890,-0.067333750,0.322625250,9.741695400,-0.038889050,-0.035484140,-0.020036100
1640842507.924450,-0.395158620,0.311623130,10.232760430,-0.020924210,0.063326960,0.009013710
1640842507.926730,0.211006160,0.082073550,8.782630920,0.022943320,0.041800740,-0.001595910
1640842507.929540,-0.401035220,0.050798520,10.519536970,0.037080040,-0.030556320,-0.017990170
1640842507.933020,-0.344211430,0.173821090,9.500961300,-0.012749430,0.049604480,0.007940830
1640842507.934600,-0.051678540,0.031239400,9.278908730,-0.041854380,-0.049792230,-0.000315900
1640842507.936730,-0.483344410,0.113147040,10.500463490,-0.005868080,0.038298970,-0.001159310
1640842507.939440,0.266752060,0.313407750,9.251928330,0.026145580,0.075557830,0.021114940
1640842507.941710,0.085224410,0.202706780,10.569559100,0.040318080,0.004094840,0.005127490
1640842507.945070,-0.217243850,0.231224020,10.386681560,0.033576800,0.051920120,0.007452070
1640842507.946850,0.065388970,0.378625150,9.199882510,0.003486870,-0.088700660,-0.011473890
1640842507.949550,-0.602422360,0.452153150,9.865681650,-0.031755860,-0.042285020,-0.019316380
1640842507.954810,-0.357779920,0.597383920,9.026396750,-0.042301420,0.056457520,-0.003063680
1640842507.955810,-0.284357940,0.710728650,9.873422620,-0.007180870,-0.001238290,0.001783670
1640842507.956750,-0.308660000,0.467675690,10.389091490,0.008760390,0.054688760,0.029325490
1640842507.959640,0.358922840,0.260184910,9.676976200,0.010927020,0.022678080,0.030319400
1640842507.961980,0.040179110,0.118912380,10.284847260,0.008703770,-0.032189490,0.021611150
1640842507.964520,0.176993430,-0.093753290,9.418546680,-0.044400980,-0.002408030,0.024117530
1640842507.968080,0.221199780,-0.240791540,9.189097400,-0.014638900,-0.007738170,-0.003311040
1640842507.969420,-0.351604340,-0.309465860,9.741033550,0.030002000,0.025241080,-0.036196410
1640842507.971720,-0.221874860,0.047148540,9.521028520,0.025147200,-0.010277330,-0.023740530
1640842507.974410,-0.484464970,0.218976150,9.854709630,0.012750920,-0.020802020,-0.007876750
1640842507.976770,-0.456053110,0.339082480,9.854915620,-0.024496020,0.010441250,-0.006008150
1640842507.979440,-0.146841410,0.677974520,9.952315330,-0.008435550,0.000403820,0.023862720
1640842507.981740,-0.177925380,0.385133770,10.092496870,0.029794870,0.031039120,0.021475550
1640842507.984470,0.223548890,0.123592070,9.953397750,0.047646470,0.026229020,-0.004209580
1640842507.989250,0.293251280,-0.007559420,9.896924970,0.080204010,0.018948320,-0.014685100
1640842507.989760,0.523691420,-0.648859140,9.306788440,0.056098410,0.016704200,-0.047872960
1640842507.992090,1.090890880,-0.898093520,9.313628200,0.095339130,0.065039100,-0.077453260
1640842507.994620,1.265401120,-1.091197970,9.423022270,0.179663350,0.194558530,-0.100308680
1640842508.007530,1.605732200,-1.316497800,10.153745650,0.177463890,0.214529070,-0.122441370
1640842508.008140,1.035937190,-1.050741310,11.303583150,0.235267010,0.205819350,-0.109003500
1640842508.010120,0.463014330,-0.707534610,10.168100360,0.234158380,0.099326690,-0.142660740
1640842508.010900,-0.263567860,0.033236620,9.702555660,0.188077960,0.023972990,-0.137768690
1640842508.011680,-0.963741900,0.849076630,8.877122880,0.175264480,0.145253510,-0.144152330
1640842508.012040,-0.711148440,1.082874660,8.792864800,0.165615990,0.266318020,-0.160276900
1640842508.012340,-0.687834440,1.335355040,10.657458310,0.243534160,0.330997940,-0.119565410
1640842508.015000,-0.230927140,1.022709730,11.008014680,0.300492380,0.273352860,-0.086602580
1640842508.017030,0.553307410,0.382051440,10.379732130,0.247697580,0.173640270,-0.091117620
1640842508.022730,0.695304100,-0.019734350,10.008372310,0.214527560,0.185605850,-0.084047010
1640842508.023540,0.904330250,-0.744342510,9.214756970,0.197222860,0.293830070,-0.130917150
1640842508.024440,0.679553990,-0.900078000,9.308656690,0.249135490,0.266091560,-0.224687160
1640842508.027060,-0.120627510,-0.429246570,10.071996690,0.290839400,0.184594110,-0.247131290
1640842508.029510,-0.523268280,0.105822390,9.474888800,0.218334840,0.191640880,-0.236313090
1640842508.031870,-1.045198680,0.655057490,9.892752650,0.164698050,0.145021080,-0.198833640
1640842508.034560,-1.441844220,1.104905130,10.923818590,0.175750300,0.210118320,-0.137487070
1640842508.036820,-0.719978870,1.200688480,9.919141770,0.233215120,0.288958850,-0.103817890
1640842508.039630,-0.500560340,0.712262390,11.105920790,0.304450150,0.216114570,-0.112316030
1640842508.042070,-0.119290690,0.535818990,10.597597120,0.300340350,0.266882810,-0.113637770
1640842508.044920,0.641603590,0.266500740,8.782842640,0.210885700,0.148156300,-0.135476890
1640842508.046970,0.219492210,-0.006861770,10.113523480,0.131675590,0.132711220,-0.174973880
1640842508.049440,0.402446360,0.372284290,8.901410100,0.124937300,0.253641610,-0.191111880
1640842508.051760,0.066726060,0.471568700,10.031682970,0.152537240,0.146923960,-0.218419760
1640842508.054610,-0.835316360,0.829647960,11.554366110,0.174261630,0.216138380,-0.188277660
1640842508.056810,-0.873997990,1.181101560,10.144708630,0.151515020,0.110006340,-0.168751180
1640842508.059500,-1.562654610,1.419179440,10.819814680,0.055290760,-0.028738380,-0.143541400
1640842508.061780,-1.181558850,1.439147830,9.255186080,-0.010727350,0.153329970,-0.120042280
1640842508.064430,-0.375659640,0.938417850,9.004864690,0.037713350,0.194957880,-0.159825400
1640842508.066800,-0.151947920,0.676013410,10.815849300,0.127874330,0.216007250,-0.158049140
1640842508.069450,0.777499910,0.341655050,9.970064160,0.110569600,0.193066900,-0.124834490
1640842508.071740,1.094474790,-0.206238330,10.194609640,0.023253260,0.084732470,-0.112099930
1640842508.074630,0.746254740,-0.654858470,10.524061200,0.007154050,0.116780400,-0.106453900
1640842508.076760,0.767354010,-0.772241950,9.436800000,0.058047480,0.147582610,-0.141195950
1640842508.079390,0.110796530,-0.501615940,9.946582790,0.104525700,0.140830890,-0.185364480
1640842508.081730,-0.605998690,0.044149140,9.991364480,0.104728340,0.175133330,-0.208856180
1640842508.084420,-1.013802770,0.830083250,9.490061760,0.014995040,0.095464290,-0.195004060
1640842508.086820,-1.561693550,1.043052550,9.954823490,-0.019960110,0.059928000,-0.151950120
1640842508.089540,-1.468329190,0.914360760,9.898059840,0.057819490,0.106906890,-0.132848340
1640842508.092120,-0.863376920,1.109953050,9.914212230,0.119417910,0.134427850,-0.128245350
1640842508.094410,-0.231423770,0.722020090,10.665636060,0.076167290,0.186932100,-0.113150490
1640842508.096740,0.568063380,0.225451020,10.832875250,0.027766830,0.190430890,-0.122207420
1640842508.099450,1.070724130,0.071841220,10.122958180,0.015790760,0.096301740,-0.146600600
1640842508.101790,1.047173380,-0.233872070,9.787205700,0.011321900,0.042501090,-0.132662060
1640842508.104520,0.871458650,-0.127616960,8.979055400,0.045877700,0.142714380,-0.130121420
1640842508.106970,0.284325090,0.209467350,9.338073730,0.032259520,0.113531950,-0.153914060
1640842508.110870,-0.530178550,0.433328240,10.543392180,-0.021888320,0.135463490,-0.116328910
1640842508.111900,-0.782514450,0.837366100,9.988700870,-0.035063920,0.141055900,-0.117144010
1640842508.114420,-1.479810710,0.887032510,10.999238010,-0.016388300,0.048346830,-0.128993390
1640842508.116730,-1.527371290,1.169601800,10.255056380,-0.004273650,0.072033710,-0.096854570
1640842508.119440,-0.819635390,1.204899550,8.755038260,-0.036926580,0.048492850,-0.124533500
1640842508.121940,-0.387635140,0.814526320,9.727601050,-0.073461240,0.162827970,-0.120002050
1640842508.124760,0.654102560,0.768445250,9.186335560,-0.085255500,0.257676810,-0.102289010
1640842508.126760,0.933224680,0.050977460,10.456900600,-0.061705710,0.085905200,-0.095014270
1640842508.129420,0.929439250,-0.439014790,10.586701390,-0.024336580,0.101357720,-0.060422730
1640842508.131740,1.023025870,-0.471334430,8.989956860,-0.022509700,0.058233740,-0.070054830
1640842508.134450,0.242730600,-0.667971250,10.091945650,-0.079563260,0.078870360,-0.076138970
1640842508.136760,0.125613730,-0.152052860,9.147980690,-0.099559130,0.256481770,-0.088356440
1640842508.139630,-0.408315330,0.388598860,9.913400650,-0.072875620,0.106297440,-0.128373500
1640842508.141830,-1.108681440,0.780851190,10.563530920,-0.058595840,0.098326800,-0.095289950
1640842508.144900,-0.879918810,1.268000480,8.652192120,-0.049448010,0.084429990,-0.074219700
1640842508.146760,-1.388413670,1.113443370,10.172194480,-0.090970090,0.040356810,-0.061966480
1640842508.149500,-0.815916180,1.172439460,9.412274360,-0.129969420,0.203010480,-0.035730000
1640842508.151740,-0.098165230,0.890284960,9.520205500,-0.126095130,0.111189480,-0.059919050
1640842508.154640,0.116070820,0.399979590,10.910553930,-0.110371410,0.174158830,-0.050833820
1640842508.157140,1.056475880,0.396905780,9.126447680,-0.107212370,0.157770530,-0.040873890
1640842508.159500,0.880212310,-0.073945630,10.077145580,-0.140950100,0.027377900,-0.029048330
1640842508.161730,0.845570090,-0.243763830,9.436598780,-0.167538230,0.212508480,-0.012132530
1640842508.164460,0.643208440,0.012581350,8.810057640,-0.155721600,0.120760510,-0.048892200
1640842508.166750,-0.596036850,0.044570100,10.657011990,-0.166843850,0.101111820,-0.022456050
1640842508.169470,-0.568315630,0.519079630,8.807968140,-0.156036020,0.139261800,-0.018626450
1640842508.171750,-1.232191800,0.756206930,9.792364120,-0.161346760,0.021365290,-0.030669570
1640842508.174430,-1.259815450,1.098284840,9.884200100,-0.207544880,0.187973680,0.011506680
1640842508.176760,-0.339213880,1.177067760,8.701565740,-0.203590120,0.156599280,-0.012382870
1640842508.179410,-0.370220150,0.936400180,10.455064770,-0.209203380,0.166517500,-0.011262300
1640842508.181780,0.632529560,0.872506680,9.043178560,-0.207458440,0.227314250,0.021867460
1640842508.184530,0.720017910,-0.137462170,9.491578100,-0.177621840,0.065869100,0.013917680
1640842508.187370,0.488722740,-0.524368110,9.561201100,-0.156775130,0.140075400,0.037328900
1640842508.189550,0.807383950,-0.551200510,8.199333190,-0.177505610,0.129359980,0.028485060
1640842508.193070,-0.016973700,-0.855666940,9.990407940,-0.233683020,0.162132100,0.017663840
1640842508.194390,-0.000261200,-0.104346360,9.511363980,-0.209407520,0.242222850,0.011847910
1640842508.196730,-0.522126200,0.268961910,9.839578630,-0.181336670,0.082775940,0.003229080
1640842508.199390,-0.960068580,0.827628670,9.769198420,-0.195750590,0.125502060,0.050170720
1640842508.202050,-0.712806820,1.289037820,8.473158840,-0.194402050,0.130708520,0.048694010
1640842508.204450,-1.108995320,1.270174380,9.619044300,-0.242611770,0.130400080,0.055389110
1640842508.206980,-0.472340550,1.558947320,9.006324770,-0.263972610,0.178971900,0.066335500
1640842508.209390,-0.120158580,1.034619570,9.434370990,-0.264702680,0.126503390,0.055827200
1640842508.211730,0.254585650,0.737493040,9.751675610,-0.266803830,0.196406280,0.092342500
1640842508.214380,0.617846970,0.332154690,9.328867910,-0.251287220,0.153428360,0.105662660
1640842508.216750,0.465473860,-0.394081830,9.562971120,-0.291815430,0.108815750,0.109709800
1640842508.219500,0.518798170,-0.317389850,8.642077450,-0.264315340,0.136549770,0.092150290
1640842508.221880,-0.048679240,-0.494048330,8.919964790,-0.289461110,0.135290620,0.072127580
1640842508.224750,-0.410431860,-0.263907130,9.284964560,-0.284939940,0.154539960,0.084133450
1640842508.227180,-0.685905220,0.195885750,9.174404140,-0.248530480,0.100733340,0.081939990
1640842508.229460,-0.625690160,0.635111030,9.023511890,-0.293122260,0.143049660,0.112034390
1640842508.231800,-0.351080030,1.065255640,9.100532530,-0.307033960,0.202256490,0.123901670
1640842508.234800,-0.282923010,1.142005210,9.438229560,-0.306794110,0.187751700,0.128234920
1640842508.236830,0.254961520,1.131054520,9.021680830,-0.278972120,0.123108930,0.139293070
1640842508.239670,0.136684450,0.695833330,8.868644710,-0.282809140,0.134845090,0.148101150
1640842508.241750,0.356442990,0.210353990,8.437948230,-0.312288110,0.171361880,0.141403090
1640842508.244420,0.087624240,-0.157080720,8.931662560,-0.315551460,0.148442400,0.124083470
1640842508.246740,-0.180109800,-0.368883400,8.922322270,-0.332361490,0.171823810,0.126525760
1640842508.249490,-0.072848920,-0.370631220,8.966482160,-0.314311680,0.122082260,0.116147120
1640842508.251770,-0.543785810,-0.192482010,9.305195810,-0.304655730,0.154325380,0.136087850
1640842508.254430,-0.257258830,0.162827890,8.800093650,-0.301101830,0.171540680,0.162079950
1640842508.257050,-0.551382600,0.376712890,9.413071630,-0.303399650,0.146418850,0.159551200
1640842508.259410,-0.435628150,0.865278840,8.861705780,-0.323101910,0.144338610,0.173436120
1640842508.261810,-0.255229500,1.060067650,8.814163210,-0.338390470,0.093564380,0.175891800
1640842508.264520,-0.314422070,1.295523170,8.744124410,-0.382526280,0.159014810,0.179573920
1640842508.267030,0.252435830,1.355934500,8.418376920,-0.388789270,0.145101590,0.199849930
1640842508.269500,0.191689060,0.904585060,9.180438040,-0.410956230,0.199981060,0.215221990
1640842508.271840,0.557916100,0.558920740,8.756505970,-0.365956190,0.206711930,0.224189500
1640842508.274430,0.237161170,0.046055740,9.368523600,-0.377744530,0.123010590,0.207963630
1640842508.276780,0.084343570,-0.160872890,8.538257600,-0.410226080,0.159493100,0.218108330
1640842508.279400,-0.135763080,-0.445486430,8.200362210,-0.423972370,0.107270500,0.196172330
1640842508.281830,-0.562059160,-0.373695580,8.552534100,-0.427524810,0.193058000,0.182890940
1640842508.284460,-0.372840610,-0.017359790,8.024047850,-0.381718580,0.191994030,0.194197890
1640842508.286880,-0.610911550,0.089620160,9.260332110,-0.382673770,0.165322440,0.207920400
1640842508.289610,-0.281156480,0.590185880,8.684383390,-0.370210500,0.200696320,0.223870620
1640842508.291750,-0.190643240,0.697340190,9.008164410,-0.415930210,0.092521320,0.247721420
1640842508.294390,0.055865790,0.566054940,8.705461500,-0.412569940,0.218771440,0.261177120
1640842508.296800,0.495983930,0.381329690,8.033232690,-0.357215170,0.201989740,0.234368490
1640842508.299550,0.156888430,0.367443320,9.090875630,-0.379945340,0.219544810,0.247594710
1640842508.301810,0.490541760,0.172353820,7.830320360,-0.387786390,0.199794780,0.262716440
1640842508.304490,0.040953800,-0.197160710,8.687521930,-0.426367010,0.103656960,0.252401860
1640842508.306870,-0.136202230,-0.060265830,8.236620900,-0.392097290,0.248290630,0.261525840
1640842508.309590,-0.264191900,-0.144761740,8.458590510,-0.383287760,0.166738060,0.262199370
1640842508.311770,-0.799817680,-0.064235990,9.641500470,-0.354777280,0.244233060,0.256496700
1640842508.314650,-0.421653870,0.413861600,8.116355900,-0.371514290,0.168231130,0.239293320
1640842508.316780,-0.758739950,0.572326060,9.188662530,-0.421294630,0.110451890,0.261269600
1640842508.319450,-0.199561070,0.752867880,7.488805770,-0.409771500,0.254175100,0.269550090
1640842508.321780,0.059924650,0.838547470,8.262459750,-0.410728220,0.142957310,0.263328940
1640842508.324500,0.325124800,0.950504360,8.407169340,-0.403834880,0.328104230,0.319029390
1640842508.326760,0.920461890,0.518933530,8.118688580,-0.440618460,0.209823280,0.315585760
1640842508.329400,0.413813680,0.067046060,9.599642750,-0.399898080,0.238932700,0.345747260
1640842508.331820,0.716652750,-0.103294970,7.709968090,-0.395266770,0.203518610,0.324557810
1640842508.334440,0.008650670,-0.552503470,8.754860880,-0.398759600,0.156515880,0.312763510
1640842508.336810,-0.046956600,-0.334450630,7.322786810,-0.402604130,0.344632600,0.277346370
1640842508.339640,-0.303306670,-0.197608490,8.243599890,-0.420545040,0.223450380,0.268676880
1640842508.341830,-0.737483860,0.164879830,8.656842230,-0.390422430,0.326739250,0.298449400
1640842508.344490,-0.446127120,0.314158470,7.926330570,-0.391809640,0.173489760,0.292992590
1640842508.346920,-0.825118010,0.352816280,8.784812930,-0.356604190,0.212298380,0.343930780
1640842508.349560,-0.051400790,0.448364680,7.393660550,-0.365465880,0.292499390,0.313685830
1640842508.351720,-0.041303330,0.312050910,8.949019430,-0.378494020,0.296776090,0.319482480
1640842508.354420,0.621265710,0.523725510,8.126911160,-0.379173490,0.353130760,0.328426150
1640842508.357120,0.725053370,0.142127710,8.566037180,-0.398875860,0.242471740,0.323985580
1640842508.359400,0.565442380,0.031829560,8.203643800,-0.356534150,0.308589640,0.352798430
1640842508.361760,0.248620450,-0.411237270,7.889297010,-0.313286480,0.211934790,0.327779440
1640842508.364500,-0.351398470,-0.240858970,8.093086240,-0.314611260,0.265558150,0.325128500
1640842508.366780,-0.529480460,0.010140250,7.811179640,-0.386926530,0.283527370,0.321146940
1640842508.369390,-0.830527010,0.150982070,8.729600910,-0.430765780,0.328516960,0.331155990
1640842508.371700,-0.757291730,0.646463330,8.683450700,-0.384184780,0.286434680,0.321662520
1640842508.374650,-0.633530140,0.749660490,8.573173520,-0.340861110,0.240364670,0.327946280
1640842508.376810,-0.157632830,0.900045040,7.706690790,-0.334438710,0.257498060,0.329712030
1640842508.379470,-0.094419550,0.723610400,8.046413420,-0.382696150,0.303374320,0.343650640
1640842508.381810,0.398648440,0.508629020,7.822127820,-0.421889220,0.342238010,0.380539950
1640842508.384520,0.341486810,-0.110859460,8.538750650,-0.390482010,0.263336330,0.378495510
1640842508.388100,0.591052890,-0.370651160,7.945489880,-0.346902100,0.313934770,0.380605520
1640842508.390020,0.282889900,-0.583661320,8.238813400,-0.323934910,0.253853290,0.356328550
1640842508.391800,-0.075731480,-0.620786190,8.205279350,-0.341461690,0.330720900,0.349156620
1640842508.394460,-0.213686670,-0.289550750,7.945755000,-0.367404550,0.240793850,0.326520230
1640842508.396790,-0.776199580,-0.070511590,8.353371620,-0.360776540,0.297687950,0.342960750
1640842508.399450,-0.605075120,0.157531630,7.737988950,-0.328083370,0.281508270,0.325535330
1640842508.401710,-1.205867770,0.415268960,8.643998150,-0.277847080,0.252282680,0.334756140
1640842508.404420,-0.552472770,0.738233270,7.475982670,-0.293512670,0.258120890,0.356659320
1640842508.406800,-0.481816380,0.710103990,8.192884450,-0.367112460,0.258661810,0.358969060
1640842508.410200,0.223186580,0.756711960,7.988202570,-0.380042230,0.357241930,0.374159250
1640842508.411760,0.466334970,0.317045030,8.666646960,-0.338526160,0.271908940,0.381939170
1640842508.414410,0.570697250,0.037335250,8.468732830,-0.256574240,0.304436740,0.381562200
1640842508.416820,0.571133320,-0.117671530,7.845744610,-0.284567510,0.221963270,0.360025530
1640842508.419430,-0.105690280,-0.305207850,8.122687340,-0.352607700,0.267720220,0.369666550
1640842508.421910,-0.209779220,-0.308376790,7.575952050,-0.374230830,0.254982710,0.335188270
1640842508.424490,-0.946518600,-0.046502460,8.455956460,-0.325664880,0.244522140,0.339105730
1640842508.427060,-0.629669010,0.446537490,7.712502000,-0.297357140,0.281003180,0.340160820
1640842508.431020,-0.731793340,0.616804000,8.453017230,-0.338025450,0.280748340,0.353120330
1640842508.431760,-0.425406780,0.726666030,8.442518230,-0.321379330,0.326530640,0.391444620
1640842508.434470,-0.343143550,0.590697880,8.511532780,-0.328294990,0.191886770,0.381660520
1640842508.436760,0.009880090,0.588555930,7.688368800,-0.327386050,0.235733430,0.397929610
1640842508.439450,0.330360350,0.227802220,7.438953880,-0.360232680,0.275638700,0.373853830
1640842508.442160,0.263404040,0.013478470,8.014896390,-0.338840540,0.348597850,0.380803730
1640842508.444730,0.350083260,-0.234130070,8.136497500,-0.311256970,0.283345580,0.380101830
1640842508.446790,-0.021892650,-0.476142760,8.421799660,-0.294599000,0.238327710,0.393627670
1640842508.449430,-0.125630320,-0.367125420,7.823890690,-0.291885440,0.217542100,0.395101370
1640842508.451730,-0.582214360,-0.458948880,8.031812670,-0.341402080,0.247488950,0.379763600
1640842508.454440,-0.631658550,-0.392027110,7.945693970,-0.261688290,0.299179640,0.352475110
1640842508.456820,-0.811557350,-0.112229700,8.233329770,-0.218433170,0.236617060,0.316254820
1640842508.459460,-0.681885360,0.492832630,7.931980610,-0.249399240,0.243084150,0.348411500
1640842508.461840,-0.586636300,0.611827550,7.971131800,-0.331610500,0.201395200,0.380328390
1640842508.465060,-0.431455190,0.560848830,8.026182170,-0.294824000,0.225484420,0.401440320
1640842508.466800,-0.089766850,0.536732080,7.946566580,-0.229957710,0.222416240,0.411087270
1640842508.469740,0.034630510,0.322827550,8.458992960,-0.222063090,0.273978740,0.425881150
1640842508.471780,0.194958670,0.064667140,8.574783330,-0.233373080,0.246921230,0.414273230
1640842508.474560,0.038237860,-0.048375980,8.576412200,-0.308677550,0.181299490,0.401142300
1640842508.477100,0.049406060,-0.231265560,7.689732550,-0.281760160,0.185014340,0.378766750
1640842508.479390,-0.344993110,-0.268794180,7.819472790,-0.253304930,0.193078850,0.330931040
1640842508.481740,-0.530391990,0.183366720,7.761586670,-0.217609150,0.223946600,0.335115250
1640842508.484390,-0.621786060,0.294742260,8.017660140,-0.264337720,0.199571300,0.367184040
1640842508.486840,-0.730195880,0.257018720,8.495193480,-0.272537860,0.224599290,0.401857550
1640842508.489450,-0.509466530,0.322316740,8.336857800,-0.229021910,0.156219320,0.411157370
1640842508.491970,-0.331601440,0.290284070,8.249585150,-0.229503240,0.169603570,0.402352300
1640842508.494640,0.197933730,0.253293810,7.479959010,-0.225292190,0.235083730,0.376033870
1640842508.496760,0.270160590,0.304138750,8.088246350,-0.272004340,0.243459660,0.352095070
1640842508.499410,0.401076590,0.278990450,7.941214560,-0.259451600,0.243771110,0.384247390
1640842508.501760,0.149217400,0.055889510,8.139540670,-0.271196660,0.138258950,0.386995170
1640842508.504500,-0.267937120,-0.212801160,7.963153840,-0.207200680,0.171126470,0.393691720
1640842508.507470,-0.545635820,-0.364107160,7.683249000,-0.185549270,0.151088850,0.372141600
1640842508.509520,-0.896223430,-0.352086130,8.298562050,-0.195305090,0.217288760,0.340263630
1640842508.511960,-0.630715550,0.025224050,7.938671110,-0.234504040,0.199845480,0.344090190
1640842508.514420,-0.676794050,0.195202410,8.571548460,-0.262034000,0.178957030,0.351819460
1640842508.516820,-0.336488070,0.453721550,7.871943000,-0.218343730,0.183993580,0.382742380
1640842508.519440,-0.351657240,0.554222700,8.134651180,-0.181393300,0.096864990,0.373934150
1640842508.521970,-0.119334180,0.718481720,7.644466880,-0.183585320,0.151209580,0.380255370
1640842508.524460,0.067802860,0.917435710,7.733749390,-0.278650250,0.153313580,0.380176340
1640842508.527000,0.178202030,0.623313310,8.352023120,-0.314097200,0.231042550,0.398230610
1640842508.529380,0.316561700,0.527501230,8.468329430,-0.284129440,0.192993920,0.380592110
1640842508.531770,0.013829470,0.266184690,8.804944040,-0.220200430,0.121282060,0.382533670
1640842508.534390,0.006486190,0.132154060,7.583603860,-0.235193950,0.112573800,0.359708040
1640842508.536790,-0.568008540,-0.040752090,7.837842940,-0.294756890,0.127041340,0.336293910
1640842508.539460,-0.802385690,-0.088529500,7.768824580,-0.308476450,0.183169590,0.364540580
1640842508.541820,-0.992972490,-0.153825550,8.263364790,-0.282275680,0.097124300,0.355066450
1640842508.545110,-0.702718020,0.060705330,7.997725010,-0.250276950,0.166140500,0.371453200
1640842508.547430,-0.318394120,0.357096730,8.015293120,-0.256031750,0.154441600,0.388258730
1640842508.549450,-0.137622830,0.351381390,8.599286080,-0.265646010,0.180777940,0.388692350
1640842508.551800,0.461476860,0.559242670,7.777128220,-0.286816120,0.123283290,0.382071760
1640842508.555140,0.367419360,0.315564930,8.195336340,-0.268554750,0.139598590,0.393693210
1640842508.556830,0.488958780,0.200592100,7.428484920,-0.249525930,0.174135000,0.378117050
1640842508.559620,0.027149290,0.071304070,8.006102560,-0.259080530,0.096809890,0.354272190
1640842508.561780,-0.204541130,-0.241608080,7.711663720,-0.265492560,0.175347970,0.360299740
1640842508.564400,-0.548733120,-0.494255210,8.091703410,-0.239488480,0.094626850,0.324580070
1640842508.566820,-0.871979180,-0.462879480,8.425208090,-0.205485520,0.153134760,0.344860580
1640842508.569420,-0.610032980,-0.292432990,7.806485180,-0.205110000,0.129766760,0.366228850
1640842508.571810,-0.903610890,-0.423680840,8.782668110,-0.196442050,0.164608660,0.374981760
1640842508.574390,-0.509518680,0.019049370,7.875479220,-0.178591910,0.104555500,0.383937360
1640842508.576820,-0.582956850,0.052648920,8.132690430,-0.171546650,0.036439300,0.369064510
1640842508.579460,-0.209378590,0.429647360,7.394159790,-0.180090960,0.140576080,0.370804970
1640842508.581800,-0.159771810,0.677232330,8.153803830,-0.198873880,0.078964240,0.357295600
1640842508.584530,0.067557950,0.822929500,8.323715210,-0.237529020,0.153145190,0.384129670
1640842508.587000,0.293292490,0.709167900,8.334937100,-0.216327610,0.088365380,0.365990430
1640842508.589670,-0.098572670,0.414943750,8.960752490,-0.187370180,0.093850500,0.371475520
1640842508.591880,-0.038192220,0.371955720,7.733796600,-0.187768060,0.030672550,0.369362530
1640842508.594450,-0.635378600,-0.128339200,8.211920740,-0.233791770,0.029340380,0.354856190
1640842508.596810,-0.459950570,-0.112420070,7.118578910,-0.246471200,0.119243560,0.342685010
1640842508.599370,-0.826497550,-0.333901970,8.253855710,-0.226412680,0.053067510,0.327335240
1640842508.601940,-0.702378690,-0.165746260,8.082227710,-0.191842030,0.118088720,0.352752210
1640842508.604410,-0.622605980,-0.209043040,8.427890780,-0.164848550,-0.013980270,0.348912210
1640842508.606760,-0.582997500,-0.024418260,8.573431970,-0.179418920,0.057624280,0.370426510
1640842508.609420,-0.028977470,0.227818880,7.648176190,-0.200077910,0.012846290,0.369441480
1640842508.611780,-0.121921100,0.181136150,8.457762720,-0.216871500,0.087144980,0.353302090
1640842508.614400,0.370469090,0.485152690,7.392042160,-0.172023520,0.081458700,0.337639540
1640842508.616880,-0.021338930,0.208371460,8.439310070,-0.159360510,-0.012014810,0.333628060
1640842508.619500,0.029396380,0.200967580,7.516715050,-0.138863940,0.056836010,0.354559750
1640842508.621900,-0.393263640,-0.016323040,8.299213410,-0.174579020,-0.055578360,0.352004200
1640842508.624480,-0.483527180,-0.077920540,8.223999020,-0.198961840,0.101326420,0.372649820
1640842508.626900,-0.550745370,-0.300313350,8.483123780,-0.171734410,0.010518730,0.345720350
1640842508.629500,-0.931584300,-0.214808690,9.037578580,-0.126224760,0.035353020,0.344553650
1640842508.631830,-0.526152490,0.048711170,7.577113630,-0.110852730,-0.065612800,0.324390860
1640842508.634490,-0.839441060,0.121482820,8.202433590,-0.171197950,-0.042895980,0.321926180
1640842508.636810,-0.180661340,0.617182370,7.044376370,-0.185634230,0.038881610,0.323411910
1640842508.639430,-0.295919660,0.580990730,8.719272610,-0.213202860,-0.008672480,0.336048010
1640842508.641800,0.256727550,0.638295770,8.223222730,-0.151196120,0.086803740,0.373014840
1640842508.644660,0.175126240,0.346426930,9.066812520,-0.122509910,-0.085121400,0.360482930
1640842508.646780,0.082260960,0.222768170,8.451487540,-0.138828140,0.005346540,0.393912140
1640842508.649500,0.192414630,-0.175567310,7.443731310,-0.180988000,-0.085653360,0.351218850
1640842508.651800,-0.396024050,-0.280759250,8.168630600,-0.198569920,0.042498120,0.318089160
1640842508.654460,-0.107094420,-0.174400490,7.107261660,-0.159090760,0.017537180,0.305700300
1640842508.656810,-0.902567150,-0.431921900,9.034111980,-0.136111680,-0.037185850,0.296501850
1640842508.659390,-0.643874650,-0.133864550,7.881222720,-0.075365600,-0.014473500,0.323517620
1640842508.661890,-1.024791840,-0.124578990,8.792859080,-0.125819470,-0.149661320,0.337114960
1640842508.664610,-0.551021640,0.152219040,7.906816960,-0.163444880,0.037907070,0.351367890
1640842508.666900,-0.181512480,0.072726910,8.249750140,-0.149972740,-0.021462140,0.321179660
1640842508.669560,-0.086100780,0.176807300,8.686429020,-0.074163080,0.044532120,0.321316720
1640842508.671830,0.482345790,0.347775010,7.586400990,-0.045466430,-0.087735060,0.328671870
1640842508.674430,0.025424240,0.195873480,8.337198260,-0.113891090,-0.065636630,0.350333780
1640842508.677300,0.243661370,0.088864070,7.329915520,-0.138850530,-0.044409940,0.345067740
1640842508.679420,-0.425403300,-0.229558270,8.815030100,-0.133568060,-0.063803790,0.320984450
1640842508.682180,-0.337187110,-0.245282620,8.338759420,-0.039346520,0.022186340,0.311565430
1640842508.684410,-0.755493400,-0.065029200,9.009501460,-0.042936210,-0.103241190,0.290393860
1640842508.686870,-0.852525120,0.300507690,8.466709140,-0.111940530,-0.036022070,0.325191020
1640842508.689490,-0.694969000,0.199866090,7.854677200,-0.156793000,-0.139966620,0.337216260
1640842508.691830,-0.872772630,0.212478070,8.229361530,-0.089710960,-0.075651710,0.323535440
1640842508.694530,-0.313019600,0.530718150,7.587401390,-0.033836070,-0.078125310,0.329600270
1640842508.696800,-0.474544790,0.536526560,8.919387820,-0.096440320,-0.060910000,0.336001810
1640842508.699440,0.060126130,0.465479820,8.531821250,-0.136376920,-0.064285110,0.339262190
1640842508.701830,0.039964040,0.171200660,8.928735730,-0.144991290,-0.142301620,0.330218670
1640842508.704470,0.274195020,-0.034418890,8.239175800,-0.072747480,-0.057829920,0.323566820
1640842508.706860,0.201046630,-0.063768980,7.946374420,-0.059632960,-0.108277810,0.296889280
1640842508.709440,-0.086040320,-0.024408340,8.098372460,-0.105898100,-0.066821290,0.320726720
1640842508.711860,-0.150685520,-0.171265720,7.775877480,-0.136005890,-0.085793440,0.345650320
1640842508.714590,-0.794340490,-0.377021100,8.758990290,-0.101816670,-0.125196590,0.336857140
1640842508.717010,-0.749976160,-0.298880730,8.281785010,-0.030964610,-0.123250480,0.329105500
1640842508.719420,-0.916482030,-0.073128390,8.468753810,-0.046955050,-0.139297520,0.293174360
1640842508.721780,-0.606016280,0.138605070,8.447079660,-0.087827450,-0.061389810,0.287809970
1640842508.724430,-0.223534060,0.349576680,8.165640830,-0.111067320,-0.083358600,0.304043380
1640842508.727060,-0.089159910,0.210746660,8.676769260,-0.063242000,-0.100846590,0.332012740
1640842508.729520,0.172428650,0.099856000,7.970661160,-0.000996890,-0.124964130,0.356792000
1640842508.731800,0.071692070,-0.170661570,8.273134230,0.006067750,-0.166590540,0.351125060
1640842508.734400,0.024572740,-0.353788730,8.281157490,-0.031220920,-0.083170840,0.345772500
1640842508.736820,-0.104477230,-0.434255870,8.563329700,-0.052183870,-0.109609980,0.302659000
1640842508.739410,-0.514504970,-0.353521820,9.254640580,-0.028404590,-0.116775940,0.282600520
1640842508.741840,-0.490721490,0.040136980,8.216090200,-0.004278120,-0.145600770,0.288730920
1640842508.744520,-0.971201900,0.066322530,8.801614760,0.004346670,-0.195914510,0.293992490
1640842508.747260,-0.785813390,0.431753930,7.654704090,0.000540910,-0.140222890,0.310569940
1640842508.749570,-0.850293990,0.505494360,8.439545630,-0.034660100,-0.188949730,0.323180880
1640842508.755040,-0.639287710,0.470194400,8.688188550,-0.045911970,-0.070904200,0.349427790
1640842508.755690,-0.079248280,0.385397820,8.691231730,-0.025279830,-0.193789630,0.327120810
1640842508.756830,-0.012167840,0.215810140,9.234607700,-0.003357230,-0.129674390,0.334818660
1640842508.759760,0.718241930,0.108228880,7.756332400,-0.005732480,-0.135008990,0.324454930
1640842508.761850,0.211771830,-0.164225800,9.157218930,-0.030863290,-0.154773890,0.306214390
1640842508.764390,0.401726870,0.079416220,7.616624830,-0.055359310,-0.108157120,0.329159200
1640842508.766820,-0.260122210,-0.433430140,8.784576420,-0.041386490,-0.245904890,0.326505330
1640842508.769430,-0.793718990,-0.396170080,8.369607930,0.035344060,-0.105623890,0.334851380
1640842508.771760,-0.761452440,-0.258973300,8.237507820,0.036017600,-0.264491140,0.315299570
1640842508.774420,-1.237594720,-0.184629200,9.193994520,-0.004528460,-0.086049720,0.319208230
1640842508.776820,-0.426960500,0.232999350,7.954055790,-0.024947530,-0.154118240,0.283888010
1640842508.779720,-0.736087860,0.275137480,9.651050570,-0.017772620,-0.189526410,0.301381980
1640842508.782720,0.237306580,0.576024470,7.448447700,0.031468270,-0.103807450,0.327639220
1640842508.784530,-0.038569340,0.184360860,9.054713250,0.043909250,-0.252288580,0.337061320
1640842508.786920,0.178242280,0.211772720,8.039302830,0.034537920,-0.090453050,0.361737670
1640842508.789540,0.273032010,-0.167715390,8.406313900,-0.000914930,-0.269140300,0.324183670
1640842508.791800,-0.144470740,-0.352252930,9.197260860,0.007300080,-0.071135170,0.321902420
1640842508.794780,0.373137800,-0.186048300,8.209059720,0.033140180,-0.159768780,0.268442930
1640842508.796880,-0.648869450,-0.163692680,10.165666580,0.034908950,-0.163702680,0.293335320
1640842508.799440,-0.112854360,0.045445810,7.780508520,0.053521990,-0.141674300,0.310502950
1640842508.801780,-0.954119210,-0.046534910,9.313524250,0.038436050,-0.274750620,0.297856360
1640842508.804410,-0.838992360,0.424959900,8.032975200,0.038468850,-0.097484900,0.331539010
1640842508.806830,-0.779580530,0.284933420,8.631275180,0.015962120,-0.258059800,0.317241280
1640842508.809650,-0.984746580,0.424886020,9.445837970,0.024478140,-0.102007390,0.319312540
1640842508.812120,0.137832490,0.551468130,8.184227940,0.029732290,-0.185586510,0.317405160
1640842508.814400,-0.214825120,0.190813290,9.881509780,0.027413670,-0.149925050,0.324937730
1640842508.816820,0.779536430,0.366279100,7.975858690,0.033475450,-0.109498210,0.320261660
1640842508.819460,0.268837840,0.017390360,9.234294890,-0.004673000,-0.246854130,0.325220850
1640842508.823390,0.110018830,-0.162644880,8.409702300,0.008849800,-0.122551620,0.339661540
1640842508.827060,-0.089431090,-0.515913010,8.349677090,0.048258900,-0.259917910,0.315320460
1640842508.830280,-0.966662170,-0.573829710,9.149985310,0.076636670,-0.150966640,0.320765410
1640842508.831040,-0.515162410,-0.327573180,8.089602470,0.065241780,-0.171320170,0.313614400
1640842508.831780,-1.039400340,-0.265962150,9.653553010,0.020979350,-0.170378390,0.297673050
1640842508.834450,-0.499051000,0.175378100,8.769056320,0.053602460,-0.125969960,0.311611590
1640842508.836860,-0.424626140,0.128781990,9.018541340,0.084172190,-0.238731530,0.327162470
1640842508.839380,-0.277393370,0.063624830,8.735711100,0.136630240,-0.142264380,0.340658430
1640842508.842480,-0.032642250,0.097975160,8.391559600,0.120915470,-0.210502760,0.336264100
1640842508.844730,-0.326073290,-0.042234070,9.011983870,0.075286630,-0.215417150,0.346398380
1640842508.846880,0.047736720,-0.110265320,8.551081660,0.066551590,-0.184513670,0.319735770
1640842508.849400,-0.020891240,-0.079853780,9.109648700,0.072714690,-0.179629030,0.304491850
1640842508.851770,-0.093105990,-0.027367190,9.602619170,0.136470790,-0.140866650,0.324340190
1640842508.854410,-0.218529510,-0.210811760,9.237108230,0.151193140,-0.197099160,0.322817270
1640842508.856820,-0.609386860,-0.178093180,9.142673490,0.142385070,-0.278021400,0.334484910
1640842508.859570,-0.762225150,-0.084882860,8.473727230,0.113792740,-0.225937400,0.335502710
1640842508.862730,-0.873969610,0.117677880,8.424548150,0.071889160,-0.223278980,0.313018230
1640842508.864680,-0.868014630,0.315055610,9.428353310,0.104200850,-0.197516400,0.313629210
1640842508.866840,-0.242856260,0.507691440,8.884707450,0.117409220,-0.160306710,0.311237570
1640842508.869900,0.027691340,0.516036810,9.733403210,0.128358620,-0.201417510,0.326913630
1640842508.871810,0.332579820,0.502417390,9.271531110,0.120238940,-0.145278860,0.345721870
1640842508.874600,0.469237150,0.257593040,8.787506100,0.071069610,-0.268203020,0.337579880
1640842508.877030,0.023860190,-0.076838600,9.131729130,0.087930270,-0.214496300,0.351408120
1640842508.879410,0.201988890,-0.473449230,7.848967080,0.111867490,-0.180661690,0.319775940
1640842508.881760,-0.597234730,-0.667843520,9.647842410,0.152663890,-0.209155690,0.305020780
1640842508.884390,-0.604333700,-0.369018790,8.854530330,0.143474360,-0.127360220,0.291666420
1640842508.887000,-0.751815200,-0.416176200,9.681393620,0.104020520,-0.306419970,0.267744090
1640842508.889490,-0.878822800,0.135320400,9.445990560,0.109419230,-0.177462400,0.301727680
1640842508.891890,-0.168398690,0.182178440,8.308645250,0.126186010,-0.206694050,0.317551230
1640842508.894400,-0.642818270,-0.066950970,10.210558890,0.209611650,-0.163958980,0.346852840
1640842508.896800,-0.021366820,0.289243130,8.424028400,0.224682700,-0.173051670,0.314106050
1640842508.899390,-0.276026960,0.091029380,9.595593450,0.139337790,-0.344240670,0.318342540
1640842508.901830,-0.037265320,0.314084770,8.574899670,0.084631170,-0.146055250,0.324443040
1640842508.904640,0.345817180,0.152328630,8.976197240,0.080682340,-0.222241890,0.279630720
1640842508.907030,-0.237404300,0.013591320,10.634529110,0.180074570,-0.107979770,0.329761240
1640842508.909490,0.382512000,-0.052143760,8.944744110,0.235517340,-0.184151530,0.306226340
1640842508.914710,-0.572066550,-0.296683250,10.445613860,0.201308760,-0.293907550,0.314110550
1640842508.915180,-0.544584100,0.132430400,8.195593830,0.121139000,-0.201696160,0.338985060
1640842508.916850,-0.775043550,-0.268592770,8.883732800,0.068229430,-0.313483210,0.307473540
1640842508.919460,-1.035035130,0.013381380,9.301117900,0.156429420,-0.110846770,0.323867830
1640842508.922050,-0.152865590,0.182441460,8.703485490,0.230920330,-0.199329850,0.301621850
1640842508.924420,-0.462985370,0.157216530,10.781092640,0.221774030,-0.157199800,0.326569410
1640842508.926870,0.429912660,0.701480810,8.920029640,0.141136350,-0.173021850,0.340639080
1640842508.929400,0.231739390,0.220938740,10.009467120,0.064198680,-0.295449790,0.346720310
1640842508.931800,0.309455960,0.030017010,8.738682750,0.131686030,-0.122183570,0.353236530
1640842508.934430,0.326637270,-0.291642610,8.601161000,0.248844970,-0.237876210,0.295958010
1640842508.936900,-0.540718850,-0.419885010,9.805877690,0.247141720,-0.142350790,0.310103570
1640842508.939480,-0.208375360,-0.282957610,8.477766990,0.171947480,-0.199458050,0.308097900
1640842508.941910,-0.816001950,-0.460114930,10.242470740,0.103479620,-0.248970060,0.294002830
1640842508.944580,-0.419582190,-0.154539610,9.105459210,0.145168630,-0.096726440,0.329575000
1640842508.947400,-0.432570760,-0.354538920,9.956424710,0.273017640,-0.190985230,0.318780630
1640842508.949660,-0.780409400,-0.196677650,10.194037440,0.321817490,-0.144475730,0.304813710
1640842508.951820,-0.177582280,0.292165190,8.417805670,0.258183540,-0.271558850,0.311802420
1640842508.955130,-0.680556770,0.229395270,9.421782490,0.129920210,-0.234322230,0.309562680
1640842508.956860,-0.028599400,0.598191080,8.482147220,0.105683490,-0.129580470,0.302720040
1640842508.959480,-0.219150330,0.604525510,10.082129480,0.200444470,-0.197201970,0.300022990
1640842508.961840,-0.240537030,0.422941830,10.322963710,0.255693440,-0.117450950,0.312785770
1640842508.964410,-0.036706810,0.231983390,9.937989230,0.284999640,-0.255215170,0.321468740
1640842508.966880,-0.856254880,-0.187013240,10.324290280,0.197750340,-0.273712010,0.338591640
1640842508.969520,-0.458827020,-0.251812960,8.402145390,0.130239130,-0.244124250,0.345379110
1640842508.971870,-0.862708330,-0.392120150,9.285661700,0.168555970,-0.255179440,0.315950840
1640842508.974410,-0.485057320,-0.190605460,8.977305410,0.202591750,-0.119739790,0.308321420
1640842508.976880,-0.109751090,-0.041059090,9.760424610,0.268383350,-0.181409760,0.313465360
1640842508.979440,-0.429114010,0.051573310,10.754144670,0.253291430,-0.206413910,0.326107500
1640842508.981870,0.080350440,0.428250700,9.561226840,0.176630940,-0.298847350,0.336185130
1640842508.984420,-0.232429220,0.315557090,9.706110000,0.148083300,-0.267703920,0.342178400
1640842508.987130,-0.066026640,0.185968970,8.878836630,0.169812110,-0.161412330,0.316840380
1640842508.990350,-0.255592020,0.025573750,9.611876490,0.276917310,-0.193437960,0.315886830
1640842508.991880,-0.601354480,-0.159764160,9.587773320,0.293766020,-0.217986150,0.322535720
1640842508.994820,-0.441835970,-0.237105760,9.406917570,0.226731630,-0.311383690,0.340983330
1640842508.996870,-0.713510930,-0.346386550,9.780354500,0.178328170,-0.226862770,0.347773730
1640842508.999390,-0.335537910,-0.439240960,9.569111820,0.169973090,-0.199657680,0.341655340
1640842509.001840,-0.370157330,-0.601486560,10.704833980,0.309245290,-0.176629440,0.319299130
1640842509.004420,-0.198356670,-0.257916480,9.705851550,0.367645980,-0.192555830,0.287029150
1640842509.006870,-0.364634750,0.184209240,9.882175450,0.281722870,-0.338663190,0.313369930
1640842509.009420,-0.597229060,0.531032980,9.105411530,0.172777490,-0.280962880,0.336240320
1640842509.011830,-0.325037030,0.653754650,8.572945590,0.132177800,-0.302963050,0.316035840
1640842509.014420,-0.613913240,0.630910340,10.533082960,0.248196750,-0.172743220,0.350669090
1640842509.016900,-0.259248440,0.524431940,10.125141140,0.338205700,-0.143192740,0.335596530
1640842509.019450,-0.520308380,0.475964930,11.442314150,0.295604830,-0.356383710,0.335645680
1640842509.021890,-0.538692410,0.500351490,10.048328400,0.154817100,-0.295409650,0.384771850
1640842509.024780,-0.206245150,-0.223309730,8.662195210,0.079062600,-0.347748460,0.336144890
1640842509.026950,-0.612565990,-0.322030630,9.862373350,0.216379790,-0.248259340,0.326056870
1640842509.029570,-0.089437450,-0.094462970,8.622893330,0.294654100,-0.168333980,0.315518770
1640842509.032160,-0.251472680,-0.282510100,10.618675230,0.256884100,-0.311163100,0.341349870
1640842509.034580,-0.359181200,0.129475670,10.657711030,0.181275620,-0.229612020,0.375658360
1640842509.036880,-0.070021850,-0.067026080,9.845315930,0.109872240,-0.374518330,0.357388050
1640842509.039410,-0.479187010,-0.073097680,10.590860370,0.206808750,-0.310708610,0.358124080
1640842509.041790,-0.094293540,0.311533060,8.668581010,0.277790490,-0.188130190,0.310267600
1640842509.044430,-0.317246290,0.255452450,10.057972910,0.241828010,-0.284126400,0.324147970
1640842509.046830,-0.631656830,0.363866090,9.984101300,0.194211350,-0.208894950,0.388269190
1640842509.049510,-0.393951090,-0.089992430,9.516019820,0.172345380,-0.397199450,0.370274570
1640842509.051850,-0.836115360,-0.357440650,10.770397190,0.232493910,-0.359357920,0.397503470
1640842509.054450,-0.330356090,-0.346670540,9.156317710,0.278742640,-0.218196240,0.364470510
1640842509.056840,-0.247766910,-0.685712400,10.708378790,0.277504320,-0.281244520,0.333823290
1640842509.060400,-0.375281040,-0.354406300,10.748603820,0.263862370,-0.170427610,0.359742400
1640842509.061820,-0.100727300,-0.208153070,9.634425160,0.242082800,-0.405776590,0.349526200
1640842509.064420,-0.746345040,-0.022460370,10.536544800,0.252215620,-0.428105980,0.346194270
1640842509.067040,-0.529796780,0.717363360,8.552891730,0.231070820,-0.310285390,0.356134800
1640842509.069650,-0.665924250,0.556934600,10.266901970,0.232380660,-0.353334930,0.357079570
1640842509.071850,-0.802245440,0.685041130,11.268006320,0.259044800,-0.185604420,0.368776980
1640842509.074400,-0.144221950,1.010971550,10.260079380,0.222975060,-0.349870380,0.356932070
1640842509.077120,-0.478578450,0.551734690,11.494052890,0.177529500,-0.409165110,0.387916030
1640842509.079400,-0.088835020,0.439828720,9.153054240,0.169083480,-0.310030670,0.357844000
1640842509.081910,-0.053427750,0.162330930,9.319886210,0.185486670,-0.416183560,0.348812430
1640842509.084420,-0.608647940,-0.224398050,10.539307590,0.201869060,-0.262010100,0.381438520
1640842509.086940,-0.041960400,-0.207736090,9.377307890,0.203236950,-0.327186320,0.381712620
1640842509.089460,-0.523141210,-0.443294790,11.431715010,0.176419360,-0.417895670,0.385883540
1640842509.091840,-0.415988210,-0.262307110,10.559224130,0.163339080,-0.271548360,0.368203250
1640842509.094480,0.005561020,0.045326120,9.818838120,0.179822770,-0.387556940,0.326201380
1640842509.096890,-0.578995350,0.319404360,10.720752720,0.187587780,-0.334221210,0.337719980
1640842509.099600,-0.068129900,0.723916590,8.975140570,0.167936130,-0.285662770,0.361006050
1640842509.101870,-0.492356630,0.474734780,10.461347580,0.163772700,-0.388716190,0.376933840
1640842509.104450,-0.799710390,0.306420060,10.657423970,0.173388470,-0.352802930,0.399221570
1640842509.106850,-0.171227350,0.167778100,9.771009450,0.180119280,-0.379975200,0.397372280
1640842509.109500,-0.407599810,-0.207984330,11.135801320,0.172367690,-0.280764730,0.376431700
1640842509.111940,-0.048462930,-0.178326610,10.705755230,0.152443390,-0.243872430,0.380536970
1640842509.114720,0.018262980,-0.414592030,10.816633220,0.198398580,-0.376072530,0.372198310
1640842509.116840,-0.416381570,-0.452436330,10.290975570,0.207962110,-0.393639530,0.357523560
1640842509.119410,-0.251146170,0.042725310,9.278443340,0.193595890,-0.427730410,0.360424820
1640842509.121860,-0.754319430,0.325080190,10.293175700,0.146919530,-0.327806230,0.361816640
1640842509.124430,-0.579890070,0.634828150,10.427050590,0.094759470,-0.277580320,0.363765750
1640842509.127100,-0.433268400,0.950872600,11.556259160,0.133805020,-0.336393800,0.377222960
1640842509.129430,-0.374500360,0.904226960,11.317114830,0.170423090,-0.310805470,0.377975400
1640842509.131960,0.005537290,0.872221290,10.225593570,0.142569850,-0.387188850,0.373499160
1640842509.134410,-0.146387560,0.917359530,10.218162540,0.092464700,-0.374171230,0.394564930
1640842509.136850,0.097212020,0.322203960,9.274853710,0.005188590,-0.277213840,0.414861800
1640842509.139440,0.068279010,-0.350218530,10.478801730,0.072011370,-0.312081070,0.423148330
1640842509.141890,-0.264789700,-0.519739930,11.195690160,0.185971010,-0.288108050,0.398010080
1640842509.144950,-0.151528480,-0.734053080,10.648955350,0.141662400,-0.359986780,0.376112850
1640842509.147500,-0.351908300,-0.392514200,10.994121550,0.069840250,-0.369373020,0.367488000
1640842509.149440,-0.356387820,-0.063379910,10.058576580,0.022126740,-0.262901190,0.339835910
1640842509.151900,-0.177888440,0.052849990,10.250744820,0.050464270,-0.295922190,0.364638890
1640842509.154560,-0.549621280,0.433191390,10.745946880,0.192455960,-0.273238180,0.400707220
1640842509.156940,-0.495855570,0.463420240,10.189041140,0.189103200,-0.375817750,0.399284060
1640842509.159480,-0.443472030,0.651439190,10.524385450,0.079086420,-0.374376800,0.437039200
1640842509.161910,-0.424755040,0.515218200,10.367520330,0.001278520,-0.247377160,0.427007730
1640842509.164560,0.132225560,-0.039366090,10.942641260,0.034859780,-0.256468360,0.380189810
1640842509.166830,0.092625840,0.019404410,11.615525250,0.169307020,-0.214354720,0.381717180
1640842509.169410,0.163222630,-0.132120460,10.596162800,0.192892580,-0.296709030,0.380308990
1640842509.171830,-0.127016540,-0.220734720,10.750725750,0.087861730,-0.400640160,0.390780060
1640842509.174380,-0.570190190,0.046195070,9.988720890,-0.006230180,-0.325080810,0.416609730
1640842509.177140,-0.537387310,-0.249341880,9.852359770,0.012882060,-0.297148560,0.406093960
1640842509.179810,-0.839783070,0.033192700,11.660189630,0.142599640,-0.246566520,0.382828710
1640842509.181880,-0.640304980,0.634266730,11.304970740,0.182195050,-0.231631130,0.390262960
1640842509.184550,-0.279886990,0.709137260,11.196363450,0.059372190,-0.341716440,0.390629530
1640842509.186990,-0.290293480,0.862649740,11.302976610,-0.031676890,-0.312627850,0.386072730
1640842509.189410,0.064397850,0.614593330,9.853511810,0.004839900,-0.266282260,0.406007560
1640842509.191890,0.092598030,0.177417520,10.351773260,0.099302850,-0.302098690,0.415426490
1640842509.194740,-0.125620070,0.056465910,10.932826040,0.150579230,-0.245508580,0.423595400
1640842509.197220,0.243931960,-0.211021350,10.324870110,0.049833960,-0.254020090,0.429003030
1640842509.199450,0.111412010,-0.562747300,11.252420430,-0.029747190,-0.245821520,0.417043330
1640842509.201830,-0.097404870,-0.573552850,11.422122000,0.035491590,-0.210733730,0.375433300
1640842509.204410,0.054082400,-0.236652120,10.522408490,0.101262350,-0.270769000,0.355626730
1640842509.206840,-0.386365260,0.011331660,10.654829030,0.115843130,-0.271235470,0.381757410
1640842509.209460,-0.743158280,0.076201980,10.671821590,0.081068300,-0.230279590,0.414393930
1640842509.211960,-0.665251020,0.255641940,10.415287020,0.055857010,-0.261481110,0.422804060
1640842509.214440,-0.824146090,0.274427830,10.971432690,0.064031790,-0.248633350,0.411041170
1640842509.216860,-0.423450920,0.425638020,11.334217070,0.073774170,-0.202691600,0.394074680
1640842509.219400,0.087668280,0.684899630,11.060654640,0.069572020,-0.163270500,0.382922620
1640842509.222740,0.338921070,0.371925590,11.341991420,0.055050860,-0.198303210,0.405466650
1640842509.224420,0.396957730,0.114204590,11.472101210,0.072048610,-0.176759090,0.419157830
1640842509.227220,0.327610700,0.135645510,10.453859330,0.088894390,-0.244167490,0.413391050
1640842509.229440,-0.181499990,-0.170355320,10.721773150,0.027570130,-0.295504960,0.426170290
1640842509.232160,-0.448101520,-0.119005080,10.692279820,0.018735230,-0.159284520,0.424958850
1640842509.234920,-0.586637260,-0.028430710,10.891296390,0.045551360,-0.161868330,0.392898950
1640842509.236900,-0.738555730,0.065552090,11.947195050,0.044387580,-0.186806930,0.400033590
1640842509.239410,-0.376009260,0.518963040,11.302160260,0.058491520,-0.155714170,0.404867470
1640842509.242020,-0.243412450,0.489657430,11.103423120,0.032319130,-0.203140080,0.390574280
1640842509.244440,-0.097400500,0.585147320,10.959354400,-0.010389090,-0.174137960,0.409221650
1640842509.246900,0.091028360,0.506314520,10.542466160,0.027030710,-0.156830280,0.431346980
1640842509.249490,0.119998350,-0.011150020,10.994379040,0.053322320,-0.149314120,0.435654880
1640842509.251890,0.301400570,-0.136387150,10.790936470,0.033566360,-0.111715510,0.436289670
1640842509.254430,0.224796060,-0.313665570,11.249860760,0.042314830,-0.117157420,0.427220820
1640842509.256930,0.161960860,-0.471752940,11.549679760,0.024151800,-0.100091100,0.400796560
1640842509.259920,0.177428710,-0.134099920,10.915669440,0.013571980,-0.123795850,0.411874030
1640842509.261960,-0.283789100,-0.212072580,11.411380770,0.045378500,-0.134405490,0.416786970
1640842509.264640,-0.438237940,-0.299410940,10.948468210,0.075079510,-0.070296230,0.404036130
1640842509.268840,-0.725674330,-0.038171790,10.697888370,0.100740800,-0.142559420,0.395904480
1640842509.269540,-1.105356810,0.193628490,11.396522520,0.078624490,-0.154125710,0.399598480
1640842509.272210,-0.603523020,0.526057720,10.665411950,-0.003921990,-0.076952580,0.391760470
1640842509.274620,-0.140739920,0.615064560,11.206621170,-0.017747280,-0.080060980,0.404730500
1640842509.277000,0.094402830,0.405057370,12.296140670,0.066187980,0.014075640,0.429298010
1640842509.279430,0.598225120,0.233432950,11.471711160,0.139914480,-0.033493340,0.425511660
1640842509.281870,0.302775470,0.122860990,11.589823720,0.107026120,-0.171481120,0.425775440
1640842509.284440,-0.133534010,0.128317980,10.906542780,-0.021526220,-0.127945890,0.434383810
1640842509.287000,-0.090784040,-0.145143970,9.882745740,-0.062698130,-0.089207290,0.409622520
1640842509.289790,-0.440301150,-0.171819300,11.434420590,0.028909740,-0.035415590,0.388725130
1640842509.292010,-0.525028940,0.262691590,11.994054790,0.104039910,0.063711410,0.404547180
1640842509.294600,-0.218932660,0.318517240,11.793483730,0.091920790,-0.061939670,0.397048950
1640842509.296870,-0.497874200,0.504492100,12.342296600,0.000561770,-0.123631960,0.423528250
1640842509.299420,-0.238699230,0.530289350,10.624876980,-0.053535410,-0.048111390,0.451400970
1640842509.302200,0.011684780,0.129462320,10.416162490,0.014436250,-0.059229140,0.417108830
1640842509.304500,-0.138900400,0.218131840,11.233297350,0.076714170,0.023263700,0.395457540
1640842509.307370,0.254466380,0.296830530,10.631953240,0.032329560,0.056117770,0.423142310
1640842509.311340,0.180672620,-0.145519350,12.057065010,-0.006270410,-0.018610060,0.414617450
1640842509.312230,-0.090979750,-0.276615500,12.194555280,-0.003427270,-0.012552740,0.423006770
1640842509.315840,0.127167330,-0.360470530,10.805015560,0.046072900,-0.054703650,0.427784060
1640842509.316880,-0.208851370,-0.652221740,11.553556440,0.099863120,0.023783750,0.405527650
1640842509.317170,-0.332040520,-0.456702440,11.078719140,0.093002620,0.123396540,0.389122960
1640842509.322960,-0.317975280,-0.089806190,10.983417510,0.057946150,-0.010456150,0.382843700
1640842509.324710,-0.765974340,0.211216230,11.810826300,0.024887930,-0.019080940,0.388607470
1640842509.326900,-0.508214650,0.597312450,10.672135350,0.003123280,-0.000070040,0.377063450
1640842509.329440,-0.354279730,0.779568140,11.407375340,0.055988130,-0.008645650,0.396104160
1640842509.331820,-0.304767100,0.678538080,12.228671070,0.092417020,0.158017900,0.415793120
1640842509.334390,0.134700510,0.430947480,11.792352680,0.073674320,0.103108610,0.410264730
1640842509.337170,-0.013864620,0.330311810,12.254569050,0.040756170,-0.038762390,0.431495960
1640842509.337910,-0.211637380,0.141838820,11.285040860,-0.009778140,-0.003115830,0.426587460
1640842509.341960,0.018933910,-0.140588760,10.190690040,-0.029672690,0.003029410,0.382088180
1640842509.350820,-0.249186320,0.090435070,11.331041340,0.020150840,0.086332860,0.391435710
1640842509.351590,-0.156868220,0.188957100,11.759350780,0.037544970,0.190450250,0.395299520
1640842509.351920,0.000898940,0.069251880,12.496551510,0.022871800,0.079454500,0.390103520
1640842509.352820,-0.375318800,0.432910110,12.808923720,0.008524950,0.008870660,0.422221450
1640842509.354760,-0.347033230,0.390635790,11.057438850,-0.029481950,0.001041590,0.422745940
1640842509.359280,-0.196505290,0.206099790,10.506501200,-0.033304100,0.043892860,0.396171240
1640842509.359880,-0.300142230,0.401172040,10.990222930,0.001423060,0.185355570,0.391931920
1640842509.361940,-0.172050190,0.305789620,11.335524560,0.016312300,0.175666850,0.413422380
1640842509.364510,-0.100407660,0.000040290,12.160476680,-0.001482670,0.055997080,0.414827470
1640842509.367230,-0.227515070,-0.055050130,12.063160900,-0.009658930,0.042295450,0.420311060
1640842509.369120,-0.092611830,-0.470099090,11.398613930,-0.005137920,0.095786150,0.419661430
1640842509.371950,-0.026369140,-0.721845450,11.696280480,0.045779340,0.153589230,0.384545300
1640842509.375370,-0.170740590,-0.492382050,11.768668170,0.084318230,0.190149250,0.366637200
1640842509.376930,-0.212413530,-0.230328650,11.364894870,0.047464670,0.105270760,0.384581120
1640842509.377300,-0.368968130,-0.039320790,11.410717010,0.004926320,0.054341550,0.391702320
1640842509.381920,-0.530400750,0.243390930,11.234922410,0.018116830,0.080075870,0.391142100
1640842509.384600,-0.369535240,0.420371170,11.444020270,0.061312320,0.155763300,0.397639010
1640842509.388710,-0.270746140,0.551524880,12.303512570,0.087799150,0.238350080,0.387270810
1640842509.389660,-0.283933220,0.573850450,12.792078970,0.058609250,0.157847970,0.378081170
1640842509.391970,-0.261163440,0.402066260,12.273887630,0.022806230,0.070022050,0.394955310
1640842509.394600,-0.300861750,0.329848020,11.015173910,0.022292140,0.066724440,0.383935930
1640842509.398610,-0.325104560,0.265371080,10.787625310,0.013867020,0.098204630,0.376387030
1640842509.399060,-0.179651570,0.225536020,11.419045450,-0.001819430,0.232398540,0.396970000
1640842509.401920,-0.036311960,0.167458850,12.014155390,0.021487470,0.261205460,0.415244730
1640842509.404480,-0.113074320,-0.151905100,13.182905200,0.044441220,0.111563510,0.403702260
1640842509.406860,-0.185093660,-0.067381560,12.473198890,0.033670670,0.095199040,0.403879580
1640842509.407200,-0.129756090,0.027694310,10.885261540,0.002121930,0.091749440,0.383025410
1640842509.411850,-0.289893210,0.091546760,11.120471000,-0.021296740,0.168837650,0.350938830
1640842509.414380,-0.306600480,0.347495110,11.225935940,-0.022819640,0.272980330,0.365608960
1640842509.417040,-0.261260480,0.297734620,11.623267170,0.037933890,0.179314610,0.392881070
1640842509.417980,-0.564967630,0.157195480,12.736254690,0.063924480,0.111944960,0.400173630
1640842509.421940,-0.350749550,0.190645010,11.739171980,0.009867550,0.141859070,0.419329140
1640842509.425370,-0.230785970,-0.156308000,11.651156430,-0.000688430,0.159528850,0.409576330
1640842509.428160,-0.187670310,-0.349648450,12.166779520,0.030499700,0.266555010,0.364829690
1640842509.429190,0.022142760,-0.239352380,11.650022510,0.056910520,0.251159070,0.345513250
1640842509.431860,-0.204247850,-0.264555990,11.855947490,0.096276420,0.104215760,0.366214010
1640842509.434650,-0.571198340,-0.032091720,11.820410730,0.070504840,0.091974440,0.369662050
1640842509.436880,-0.478493750,0.347056060,10.802409170,-0.016552210,0.134739280,0.381727550
1640842509.437120,-0.607712390,0.191775590,11.961958890,0.004982950,0.187897650,0.392539830
1640842509.442150,-0.508031550,0.160528640,12.950801850,0.098574170,0.289474430,0.358870690
1640842509.444460,-0.152251570,0.469225970,12.364242550,0.118659440,0.219936640,0.346979530
1640842509.446900,-0.304709400,0.600016420,12.458775520,0.063931940,0.073733930,0.376398890
1640842509.447190,-0.427778330,0.655840220,11.449240680,-0.033091010,0.101268290,0.377965000
1640842509.451920,-0.132764730,0.533610700,10.257427220,-0.072605920,0.153033440,0.370995700
1640842509.454440,-0.218033760,0.218203590,11.730282780,0.027298930,0.227774720,0.401559530
1640842509.456890,-0.399792370,0.005209840,12.910948750,0.124989460,0.283369420,0.393378820
1640842509.457200,-0.220252160,0.089078620,12.595144270,0.073869530,0.135372580,0.378951460
1640842509.462010,-0.272703320,-0.060659120,12.631240840,-0.046648090,0.048096480,0.405332450
1640842509.462590,-0.214050040,-0.263025550,11.507101060,-0.060105330,0.204490170,0.369817080
1640842509.467320,0.088926320,-0.125233830,10.656566620,0.039325650,0.235934560,0.324064520
1640842509.468010,-0.202302800,0.044679860,11.994877820,0.120909530,0.217087600,0.356158640
1640842509.471910,-0.430157040,0.303309800,12.034215930,0.079333790,0.203025340,0.382235650
1640842509.474450,-0.406029640,0.319153220,11.762105940,-0.019347670,0.090909010,0.403296950
1640842509.476880,-0.553198280,0.030295000,12.264159200,-0.035271050,0.142407420,0.411443500
1640842509.477240,-0.504325750,-0.106031130,12.030477520,0.068046170,0.260484310,0.364819230
1640842509.481980,-0.243106660,0.115774080,12.109664920,0.140689310,0.234818470,0.339132580
1640842509.482550,-0.180039450,0.323595550,12.355591770,0.068780790,0.205616650,0.362029700
1640842509.487040,-0.237059300,0.175161930,11.745667460,-0.013677780,0.160321590,0.392790170
1640842509.487600,-0.350278440,0.096827540,11.519845960,0.000810620,0.107160230,0.389982790
1640842509.492140,-0.524353150,0.184716790,11.717476840,0.059856480,0.144962940,0.384174230
1640842509.493050,-0.504534660,0.209848930,11.982524870,0.076431040,0.229166490,0.364761050
1640842509.496880,-0.425103310,0.342526140,12.854738240,0.048589710,0.239972800,0.358551770
1640842509.497170,-0.413885800,0.487546440,12.994705200,0.008206070,0.193452850,0.371287700
1640842509.502010,-0.318465020,0.378813830,12.154024120,0.002022090,0.096514840,0.361676570
1640842509.502540,-0.258726480,0.468060790,11.347498890,0.011622910,0.104759660,0.354284050
1640842509.506940,-0.309260550,0.641040680,11.122101780,0.006900730,0.210030380,0.370115070
1640842509.507380,-0.393385290,0.311470360,11.901495930,0.007332860,0.227510960,0.387750660
1640842509.511930,-0.431344150,-0.003327280,12.852445600,0.020253660,0.167679800,0.387086000
1640842509.512330,-0.298081990,0.000310180,12.415184020,0.012169780,0.149761160,0.392328200
1640842509.516890,-0.165804920,-0.255397980,12.141836170,0.007168950,0.154262780,0.362341140
1640842509.517290,-0.155618380,-0.224201220,12.091658590,0.005978350,0.200842350,0.327675130
1640842509.521920,-0.048887600,0.149886130,11.440653800,0.013788050,0.203873220,0.339634660
1640842509.522260,-0.209325050,-0.087291640,11.958304410,0.041998930,0.180868800,0.372062650
1640842509.526910,-0.525429730,-0.074553780,12.180056570,0.058105600,0.170023750,0.374427440
1640842509.527240,-0.679890690,0.097288970,11.861590390,0.051565480,0.099155320,0.385968420
1640842509.531960,-0.785686430,-0.006741490,12.482664110,0.035361950,0.136023760,0.355464220
1640842509.532460,-0.449441050,0.026749160,12.309740070,0.032947950,0.249895420,0.324502560
1640842509.536920,-0.182922070,0.254626630,12.387476920,0.058273970,0.212056930,0.324805110
1640842509.537250,-0.312958090,0.204912230,13.081415180,0.095137950,0.170804550,0.357887090
1640842509.542330,-0.257189010,0.141491530,12.210330960,0.082367660,0.118096200,0.368665250
1640842509.542940,-0.370079460,0.271608440,11.336225510,0.038951640,0.041720270,0.381420580
1640842509.547500,-0.733722450,0.214082050,12.259840970,0.019715730,0.127007080,0.389711620
1640842509.548470,-0.571667430,0.133984520,12.671942710,0.034450000,0.248870250,0.355961890
1640842509.551910,-0.305162910,0.369901540,12.781779290,0.062219810,0.179857020,0.351668890
1640842509.552220,-0.359711260,0.576048020,13.621279720,0.060305010,0.106887530,0.361380070
1640842509.556940,-0.228704270,0.696488740,12.721136090,0.003378090,0.142955790,0.351125000
1640842509.557420,-0.088389360,0.661690060,11.445101740,-0.044290730,0.104878860,0.349865940
1640842509.562050,-0.505820570,0.437554810,12.223310470,-0.001212950,0.095272070,0.386209820
1640842509.563140,-0.711214600,0.121017480,12.590196610,0.058199470,0.174964960,0.376971100
1640842509.566920,-0.537332890,0.025864870,12.241759300,0.035195050,0.130566940,0.372724180
1640842509.567370,-0.432447520,-0.113608500,12.913532260,-0.015923380,0.110261130,0.387042790
1640842509.571910,-0.433544490,-0.201483530,13.461701390,-0.023157900,0.179864480,0.356891840
1640842509.572270,-0.069488610,-0.019235940,12.471483230,0.003694000,0.152084230,0.334736680
1640842509.576920,-0.128235700,-0.056561660,12.407396320,0.060027850,0.072003920,0.359065920
1640842509.577300,-0.503618840,0.035110510,12.693820950,0.079704820,0.095686320,0.371317570
1640842509.581950,-0.626828370,0.098279480,12.136317250,0.043047960,0.118336070,0.367806820
1640842509.582530,-0.663348260,0.131503330,12.488194470,0.000916420,0.067000110,0.355622230
1640842509.586990,-0.835349500,0.269257690,13.432532310,0.016035140,0.109381990,0.344917270
1640842509.587510,-0.536758900,0.559167680,13.173987390,0.036430360,0.161597100,0.323387950
1640842509.592160,-0.187735960,0.617229640,12.964862820,0.039893390,0.124211610,0.346440080
1640842509.592620,-0.402890240,0.354871930,13.464562420,0.052906580,0.067102910,0.378704160
1640842509.597000,-0.454135600,0.344206960,12.676370620,0.056678060,0.030653180,0.372983520
1640842509.597490,-0.466350940,0.332627710,12.150326730,0.000290570,0.033089520,0.379578770
1640842509.601880,-0.535430550,0.167810770,12.757088660,-0.041423740,0.101608040,0.373442470
1640842509.602210,-0.437998830,0.245940610,13.337391850,-0.005368890,0.117741550,0.355435910
1640842509.606900,-0.130522590,0.259456400,13.597166060,0.033825640,0.119160140,0.345666770
1640842509.607180,0.054861620,0.341039330,13.519923210,0.032095610,0.101321950,0.341787960
1640842509.612050,-0.069680900,0.499719440,13.074358940,0.000372530,0.047506400,0.343549250
1640842509.612530,-0.319054990,0.457834600,12.528287890,-0.041025890,0.021356350,0.362415700
1640842509.616940,-0.522383270,0.197216780,12.507399560,-0.030925880,0.068946190,0.378252630
1640842509.617230,-0.678469480,0.053018770,12.670803070,0.021217770,0.100387650,0.374442370
1640842509.622040,-0.716558870,0.028163710,13.227659230,0.036449730,0.082324450,0.359553130
1640842509.622630,-0.558004800,-0.003361510,13.673487660,-0.000503660,0.104817760,0.351150420
1640842509.627290,-0.239749820,0.117913400,13.255347250,-0.030587610,0.092370810,0.326639440
1640842509.629230,-0.049305030,0.086343790,12.907044410,0.002427400,0.057519980,0.342017410
1640842509.631970,-0.184215430,-0.134471540,13.086975100,0.064153970,0.075104840,0.368560940
1640842509.632450,-0.368586060,-0.061643350,12.973505020,0.084292890,0.067041820,0.365164880
1640842509.636870,-0.571259860,0.037564030,12.789016720,0.044795870,0.018478930,0.367067750
1640842509.637250,-0.781657930,-0.078109570,13.162119870,-0.000280140,0.020450360,0.350734590
1640842509.642110,-0.712992190,0.296087240,13.298193930,0.002937020,0.079211590,0.310915710
1640842509.643000,-0.434355110,0.589499470,13.376008030,0.043460740,0.113417220,0.318433370
1640842509.646950,-0.345136850,0.447929260,13.860858920,0.074730800,0.081609170,0.336930190
1640842509.647340,-0.369308740,0.555976030,13.636636730,0.075137620,0.022055210,0.358665020
1640842509.651920,-0.465044320,0.574956420,12.932476040,0.023606420,-0.036227710,0.381876560
1640842509.652200,-0.589504120,0.337637360,12.819284440,-0.014662740,-0.011470910,0.387994950
1640842509.656980,-0.556922380,0.246133120,12.891372680,-0.005601350,0.059558450,0.358331230
1640842509.657830,-0.342283250,0.426519010,13.299870490,0.011633340,0.068828460,0.343175260
1640842509.661990,-0.184443280,0.273332480,14.187681200,0.026202200,0.089350330,0.334326920
1640842509.662470,0.018816840,0.289862660,13.778071400,0.021010640,0.066463650,0.304967190
1640842509.666910,0.014174780,0.583313110,12.837062840,-0.012893980,-0.034740570,0.335372920
1640842509.667280,-0.339310680,0.412238720,12.835258480,-0.034937270,-0.027763840,0.373502110
1640842509.671950,-0.475250540,0.075960740,12.711985590,-0.012388830,0.076276070,0.372928410
1640842509.672300,-0.531199750,0.025759480,12.798534390,0.026220090,0.080363450,0.368799300
1640842509.677040,-0.590899710,-0.047210990,13.635868070,0.049601500,0.016979870,0.365845950
1640842509.677520,-0.351834890,0.021655540,13.734166150,0.017626580,0.060582170,0.323900580
1640842509.681930,0.101508240,0.190012500,12.716989520,-0.045984980,0.098711260,0.322064790
1640842509.682270,0.154464300,-0.012645910,12.696639060,-0.013187530,0.056034320,0.343806980
1640842509.686920,-0.215883140,-0.249662650,13.407775880,0.105203700,0.027006870,0.353617970
1640842509.687410,-0.305911960,-0.220308530,12.757950780,0.128592550,0.024123490,0.368907990
1640842509.692220,-0.310932960,-0.115956800,12.102374080,0.054319200,0.024226310,0.345104900
1640842509.693420,-0.588407280,0.060640600,13.295666690,-0.013174120,0.051724910,0.317603350
1640842509.696880,-0.527473630,0.125200640,13.775594710,-0.000377000,0.130791950,0.292149130
1640842509.697320,-0.294600870,0.148719760,13.096536640,0.103704650,0.098225470,0.287823410
1640842509.702000,-0.397063230,0.244636760,13.161441800,0.188149530,-0.009831790,0.321578980
1640842509.702580,-0.706712420,0.519371090,13.155152320,0.111310190,-0.011533500,0.353459980
1640842509.707040,-0.506912050,0.553120020,12.160919190,-0.028873980,0.052300090,0.388018790
1640842509.709470,-0.339386460,0.152098690,12.509293560,-0.012537840,0.067164010,0.357283650
1640842509.712160,-0.413059030,0.292832640,13.842558860,0.113140050,0.070805860,0.314089690
1640842509.712610,-0.298714040,0.574713950,13.802390100,0.138750690,0.095617770,0.302669440
1640842509.716920,-0.025378680,0.679173950,12.974199300,0.044909120,0.028690690,0.292710930
1640842509.717250,-0.084324960,0.724068580,12.749986650,-0.036266450,-0.027798120,0.322325560
1640842509.722110,-0.180994780,0.604412440,12.306264880,-0.040730840,0.059188900,0.341391560
1640842509.723390,-0.175317180,0.315743510,12.270483970,0.040110950,0.110878060,0.350418690
1640842509.727340,-0.316056070,0.103580930,13.143962860,0.104455660,0.063601150,0.356693660
1640842509.727730,-0.473355320,0.108129440,13.418133740,0.046402220,0.043043490,0.342780380
1640842509.731870,-0.387269050,0.037187150,13.036635400,-0.039623680,0.054700670,0.324746970
1640842509.732180,-0.203991560,-0.074598820,12.771850590,-0.035391750,0.067386040,0.293567840
1640842509.736910,0.008091580,0.117610780,12.271986010,0.035560130,0.129523890,0.289855900
1640842509.737300,-0.093734620,0.142607820,12.432919500,0.093033920,0.121811050,0.323593650
1640842509.742010,-0.191319440,-0.021607780,12.882201190,0.099453340,0.065256660,0.356532630
1640842509.742550,-0.297073510,0.012445740,12.599454880,0.052793330,0.050413620,0.362567690
1640842509.747610,-0.256085810,-0.066519240,12.293442730,0.003124770,0.060841430,0.334671110
1640842509.748040,-0.243426830,-0.187355730,12.855392460,0.041975080,0.141268980,0.272877510
1640842509.751960,-0.249804510,0.085982910,13.015261650,0.123420370,0.184038300,0.239421470
1640842509.752330,-0.186080930,0.109946910,12.508541110,0.146590190,0.106056030,0.270764560
1640842509.756890,-0.449195240,0.088939770,12.568192480,0.107429940,0.026477880,0.304406880
1640842509.757200,-0.600296740,0.252251180,12.231573100,0.053621830,0.043426460,0.348357860
1640842509.761930,-0.485012590,-0.050193010,11.858993530,0.065565120,0.135537980,0.344979760
1640842509.762380,-0.380761060,-0.180440530,12.901982310,0.132456470,0.163120060,0.292064340
1640842509.766900,-0.400401650,0.198017600,13.727763180,0.175078230,0.162850340,0.274339320
1640842509.767240,-0.214897330,0.427583280,13.007699010,0.125665960,0.086054210,0.278541390
1640842509.771990,-0.108726750,0.554412600,12.089492800,0.050634150,0.023446980,0.290998850
1640842509.772390,-0.107625410,0.668837900,11.627923970,0.028622150,0.108516220,0.309269160
1640842509.777240,-0.170803620,0.618337390,11.990763660,0.099584460,0.181849300,0.311127330
1640842509.778070,-0.183707310,0.364391570,12.834319110,0.150848930,0.183242570,0.312584640
1640842509.781930,-0.317238960,0.408328000,13.167097090,0.105701390,0.125452890,0.304809240
1640842509.782370,-0.398654340,0.478379520,12.909565930,0.022543970,0.051672750,0.297778840
1640842509.787560,-0.405590470,0.163756310,12.445402150,-0.004766880,0.124925370,0.281327990
1640842509.788550,-0.112507740,0.269753690,11.531915660,0.034640740,0.183403520,0.251737330
1640842509.792140,-0.110075560,0.325149150,11.850159650,0.106483720,0.188703860,0.282301010
1640842509.792710,-0.144642550,-0.091301720,12.598550800,0.133180630,0.205364790,0.326426360
1640842509.796910,-0.071275960,-0.191694570,12.278437610,0.094607490,0.158193710,0.338581290
1640842509.797320,-0.184371110,-0.171906200,12.228676800,0.037761030,0.080238290,0.328733030
1640842509.802240,-0.196791510,-0.372389440,12.590972900,0.051750250,0.186249610,0.284537670
1640842509.803360,0.036173780,-0.139514820,12.017261510,0.106358540,0.276127460,0.223974900
1640842509.806910,0.077090240,0.311107960,11.928939820,0.148028170,0.215391840,0.249145970
1640842509.807240,-0.292895410,0.187875540,12.686384200,0.137689710,0.181940210,0.301036240
1640842509.811950,-0.403603320,0.185875520,11.846812250,0.107562540,0.174233300,0.328481230
1640842509.812390,-0.494724780,0.136760520,11.280441280,0.103299330,0.116340830,0.342576240
1640842509.816980,-0.736026350,-0.190538350,12.395388600,0.141239170,0.202214750,0.301455050
1640842509.817520,-0.573910590,-0.062449460,12.541605950,0.167369860,0.310321090,0.248390450
1640842509.822020,-0.253322660,0.159537720,12.390263560,0.152760740,0.214986550,0.239409550
1640842509.822660,-0.336248730,0.123483610,12.922183990,0.135807690,0.156807910,0.250270960
1640842509.826920,-0.255831960,0.310580460,11.829812050,0.131596620,0.184522600,0.271137150
1640842509.827360,-0.046241020,0.467967900,10.781454090,0.129438950,0.145086650,0.302442940
1640842509.832040,-0.187677470,0.231960460,11.836217880,0.142836570,0.233955730,0.315614070
1640842509.833040,-0.192305730,0.113880020,12.599247930,0.162352670,0.317750930,0.291884030
1640842509.836910,-0.098695560,0.182183470,12.692564960,0.179974700,0.213460620,0.279638200
1640842509.837340,-0.261497970,0.252718120,12.743638040,0.132985380,0.137194980,0.268800500
1640842509.841930,-0.100598960,0.397309600,11.442929270,0.071489810,0.219570150,0.253477720
1640842509.842380,-0.039000400,0.588733020,10.833412170,0.080801550,0.260333720,0.258643950
1640842509.846900,-0.269562040,0.266623350,11.737550740,0.143551830,0.284394620,0.307564530
1640842509.847220,-0.309399460,-0.054838510,11.935041430,0.199702410,0.273680780,0.311778490
1640842509.851920,-0.372316960,0.042552620,11.931358340,0.187741230,0.174592440,0.319911540
1640842509.852380,-0.460256700,-0.205949160,12.250544550,0.105313980,0.208012790,0.314766260
1640842509.856910,-0.221782100,-0.332888280,11.536228180,0.066310170,0.299648970,0.249643620
1640842509.857300,-0.037344550,-0.147628310,11.593246460,0.162059070,0.301580160,0.221359730
1640842509.862030,-0.079443250,-0.052053080,12.009538650,0.253319830,0.308395920,0.252685010
1640842509.862720,-0.119441580,0.013567930,11.351233480,0.231441900,0.242854680,0.296180040
1640842509.867040,-0.367749010,0.114545680,11.189197540,0.169533490,0.156685710,0.325618710
1640842509.868360,-0.631248890,0.045830600,11.579318050,0.127296150,0.221566870,0.333485010
1640842509.872010,-0.404914620,-0.081738050,11.396636010,0.163699700,0.360383150,0.275060590
1640842509.872540,-0.462952580,0.102632020,12.414557460,0.256133080,0.302669440,0.229306520
1640842509.877150,-0.553388770,0.405949440,12.694832800,0.268474310,0.269307290,0.253830910
1640842509.878050,-0.414499820,0.503137770,11.156910900,0.178320740,0.193320260,0.272226390
1640842509.881960,-0.380175440,0.560032370,10.496940610,0.126491500,0.118547690,0.307852030
1640842509.882970,-0.456082340,0.304515060,11.049032210,0.154109340,0.285902680,0.331851930
1640842509.886890,-0.199911070,0.104959090,11.189864160,0.216621160,0.389343500,0.300547450
1640842509.887330,-0.224439460,-0.018371390,12.624077800,0.262965350,0.241191720,0.274527160
1640842509.891940,-0.295081230,0.184093480,12.898463250,0.214573760,0.219920280,0.269041960
1640842509.892320,-0.007490440,0.371794610,10.881567960,0.105007020,0.223308800,0.273667310
1640842509.896900,-0.121674910,0.273000630,10.700252530,0.106754910,0.185836840,0.275540350
1640842509.897240,-0.327593680,0.443780150,11.060083390,0.184591160,0.321731030,0.299616250
1640842509.902600,-0.073033450,0.363744230,10.302627560,0.236648350,0.357325400,0.331366090
1640842509.903200,-0.360357610,0.030487830,11.871234890,0.240586730,0.210838060,0.340907340
1640842509.906950,-0.589165810,0.081347100,12.177890780,0.168389080,0.254426900,0.332667020
1640842509.907440,-0.189311890,-0.116469320,10.671579360,0.111320610,0.271978970,0.300763580
1640842509.912220,-0.213061440,-0.225411220,11.394136430,0.175358400,0.250189010,0.241652160
1640842509.913760,-0.274784150,0.050456040,11.187253000,0.241798190,0.374674890,0.252272250
1640842509.916940,0.087878260,0.081032870,10.118521690,0.248120770,0.322046970,0.284422930
1640842509.917360,-0.364603310,-0.138584270,11.388021470,0.224475590,0.206758130,0.331053140
1640842509.921960,-0.586733820,-0.159265700,11.046974180,0.205786530,0.258347420,0.360387590
1640842509.922320,-0.214811280,-0.220781560,10.213713650,0.207598520,0.257240240,0.334422320
1640842509.927290,-0.458941040,-0.331372920,11.760376930,0.267370070,0.333413570,0.283628760
1640842509.927840,-0.390137880,0.082430360,11.599397660,0.280605290,0.388404730,0.256137580
1640842509.932040,-0.119075860,0.433646290,10.889009480,0.261516900,0.249211520,0.274962190
1640842509.932450,-0.545973240,0.429947610,11.151597980,0.226748000,0.203919410,0.305706290
1640842509.936900,-0.464657520,0.653613090,9.833211900,0.199015440,0.245444510,0.321292910
1640842509.937180,-0.375225780,0.509957610,10.132409100,0.233137640,0.283417140,0.338989560
1640842509.942030,-0.579499240,0.203482180,11.678428650,0.268364040,0.370995760,0.328379930
1640842509.942530,-0.315878690,0.255646260,11.648360250,0.266295670,0.323022990,0.308503210
1640842509.947080,-0.236834510,0.176476700,11.645108220,0.236892720,0.210936380,0.303953890
1640842509.948520,-0.324356020,0.130372790,10.660184860,0.186294330,0.233446060,0.296500360
1640842509.952000,-0.070441230,0.241121530,9.391110420,0.167784110,0.254000720,0.303277370
1640842509.952380,-0.325424700,0.048644600,10.205011370,0.235901800,0.331631390,0.330048860
1640842509.956920,-0.425420370,-0.186504190,10.673657420,0.283959600,0.347179260,0.343036710
1640842509.957330,-0.468712960,-0.095323020,11.255988120,0.294859770,0.218588160,0.334775510
1640842509.961910,-0.576726680,-0.058139980,11.308127400,0.237280160,0.224171620,0.325498010
1640842509.962480,-0.177596660,-0.019481100,10.115007400,0.171037020,0.288778570,0.287538770
1640842509.966930,-0.021253720,0.262362990,10.473741530,0.214248940,0.315499400,0.277574420
1640842509.967280,-0.036817190,0.260684160,10.471037860,0.297471970,0.400041100,0.306849270
1640842509.971930,0.048964710,0.214196880,10.044987680,0.321681890,0.257872100,0.321966470
1640842509.972280,-0.377078210,0.297193200,10.637079240,0.300201830,0.186999190,0.358639720
1640842509.977300,-0.503798780,0.121317540,9.866846080,0.197269050,0.295640530,0.363664420
1640842509.978810,-0.401504930,-0.186282900,10.236740110,0.186470200,0.299413560,0.325490620
1640842509.982070,-0.642993510,-0.117829870,11.703024860,0.313893020,0.374905850,0.294034210
1640842509.983720,-0.273203760,0.098179130,10.538525580,0.347304430,0.355099140,0.271266730
1640842509.987000,-0.249335590,0.285357330,10.543032650,0.298425640,0.186200480,0.312164490
1640842509.987550,-0.467656970,0.546580610,10.026925090,0.220193000,0.261861180,0.348620180
1640842509.992000,0.009084950,0.489687230,8.600316050,0.155158370,0.311382200,0.353904160
1640842509.992620,-0.344188480,0.164983500,10.782985690,0.265307750,0.310467240,0.383503820
1640842509.997400,-0.399358630,0.241435500,11.087727550,0.368005130,0.420643480,0.343397320
1640842509.998800,-0.108988670,0.467520210,10.515085220,0.290389420,0.246045040,0.318279920
1640842510.001920,-0.520792840,0.487466720,11.052575110,0.177975000,0.213116450,0.346422280
1640842510.002300,-0.224976940,0.511972490,8.885956760,0.131647300,0.341971220,0.302203030
1640842510.006920,-0.112652550,0.187195390,9.111937520,0.212572540,0.286473390,0.321345060
1640842510.007260,-0.602981750,-0.104521130,10.494469640,0.365446510,0.390096040,0.357507170
1640842510.012500,-0.218592510,-0.127362980,9.598707200,0.345161560,0.310166270,0.326454730
1640842510.013690,-0.390211520,-0.307730320,10.816920280,0.218468930,0.198172080,0.364591240
1640842510.016920,-0.337989360,-0.419590060,10.156442640,0.164046910,0.377905370,0.341080160
1640842510.017430,0.166601850,-0.344060030,9.503206250,0.247867440,0.356242150,0.274282750
1640842510.022070,-0.223977040,-0.013443140,10.709571840,0.362663000,0.355480610,0.299625100
1640842510.022680,-0.097358450,0.455209110,9.189431190,0.359287800,0.363154680,0.320933700
1640842510.029060,-0.193235230,0.609351810,9.480400090,0.254331560,0.213486000,0.335957110
1640842510.029910,-0.621802330,0.591129180,9.819629670,0.172606130,0.331276660,0.386109980
1640842510.032030,-0.185484190,0.430376020,9.221739770,0.227509480,0.393433870,0.343984370
1640842510.032420,-0.439095260,0.158901170,11.174023630,0.346332880,0.376337770,0.307640520
1640842510.036860,-0.439621870,0.281706090,10.379041670,0.363755320,0.392392370,0.300893250
