timestamp,accel_x,accel_y,accel_z,gyro_x,gyro_y,gyro_z
1640834852823719936,-0.387881250,0.172240480,10.508829120,0.030516090,0.035409630,-0.008296970
1640834852828219904,-0.233581750,0.334535420,9.367198940,-0.023908920,0.112259410,-0.003346800
1640834852828739840,-0.066551390,0.001685060,9.795381550,-0.008463860,-0.043457750,-0.018475950
1640834852833159936,-0.614309310,0.297060190,10.653822900,0.055515770,0.047373770,-0.002515320
1640834852833509888,0.136066320,0.267324450,8.944086070,0.053234410,0.045333800,0.001846250
1640834852838579968,-0.183089700,-0.052257550,10.543637280,0.046758350,0.017662350,0.011171400
1640834852839830016,-0.164393310,0.133178760,9.949646950,0.040395560,0.117106760,0.001588460
1640834852843249920,0.203173240,0.058531770,9.396729470,0.033508240,-0.042392320,-0.010998550
1640834852843760128,-0.389864890,0.061260280,10.300628660,0.050555170,-0.018039350,-0.016194580
1640834852848219904,0.095855680,0.413103640,8.802319530,0.051406040,0.052194300,-0.036914650
1640834852848649984,-0.017167550,0.646668140,10.112354280,0.020264090,0.011630350,-0.007037820
1640834852853390080,-0.227632330,0.639028370,10.651819230,-0.001281500,0.112377110,-0.001116100
1640834852854189824,0.227391110,0.560993250,9.905962940,0.035882000,0.003778930,-0.010201340
1640834852858359808,-0.420486930,0.705275120,10.608166690,0.057530410,-0.045789780,-0.002473590
1640834852858819840,-0.212262390,0.628523410,9.056773190,-0.024984780,0.001752380,-0.004035230
1640834852863239936,-0.135299500,0.468995030,9.294644360,-0.040829170,-0.009562070,-0.008969010
1640834852863930112,-0.353742060,0.483052370,9.927645680,-0.023010370,0.082634410,-0.009778140
1640834852870400000,0.156850790,0.308539330,9.858137130,-0.026306510,0.038366020,-0.001305340
1640834852871759872,-0.007900790,0.247167840,10.599598880,0.013239680,0.007919970,0.006534160
1640834852873279744,0.027402400,0.207144530,9.956037520,-0.022740660,0.002221760,-0.004169350
1640834852875459840,0.161055610,0.223079230,9.758808140,-0.067970160,-0.032547120,0.004556780
1640834852878559744,-0.005437960,0.220090730,9.497111320,-0.053435580,0.054967410,-0.025737290
1640834852879899904,0.290906250,0.194098980,9.311646460,-0.028052930,0.038847330,-0.040666760
1640834852883360000,0.116112130,0.557952400,9.860393520,-0.004087390,0.071775910,-0.016108160
1640834852884470016,-0.060496090,0.387574490,9.746215820,-0.046117600,0.030298530,-0.010465090
1640834852888290048,-0.119537470,0.156160820,10.126765250,-0.049518050,-0.038760890,0.035022190
1640834852888839936,-0.330464630,0.127598450,9.694894790,-0.013244150,0.038224450,0.031231340
1640834852893209856,-0.100695970,-0.331657410,9.622899060,-0.021721430,0.037081550,-0.004942720
1640834852893839872,-0.095354170,-0.232743730,10.112951280,0.025975710,0.092773140,-0.027987360
1640834852898469888,0.063949620,-0.107484910,9.414978030,0.028687710,0.083293010,-0.063809740
1640834852899619840,0.045442960,-0.155863870,9.931212430,-0.021670760,-0.029723350,-0.034506620
1640834852903419904,-0.154154090,0.062798870,9.434467320,0.007157030,0.026431680,-0.006476040
1640834852904659968,-0.066133890,-0.217203330,9.242155080,0.051993140,-0.017763680,-0.007827580
1640834852908239872,-0.428760320,-0.016442820,10.500064850,0.080516940,0.045162430,0.020891420
1640834852908599808,-0.208157260,0.117713980,9.673433300,0.071159010,0.088784100,0.004766880
1640834852913609984,-0.074440780,-0.062648350,10.296190260,0.046345600,-0.026452540,-0.025297700
1640834852914199808,-0.180258070,0.474268260,10.038548470,0.051426880,0.064660620,-0.020301340
1640834852918190080,0.181065630,0.466414060,8.888622280,0.044058260,-0.000810620,-0.026872760
1640834852918599936,-0.221393020,0.422269020,10.219991680,0.062915690,-0.022101400,-0.007529560
1640834852923189760,-0.216384840,0.723158000,9.344429020,0.067572300,0.050465770,-0.011745100
1640834852923569920,-0.130918060,0.356034130,9.933381080,0.023908910,-0.043578440,0.000204150
1640834852928259840,-0.432191970,0.272747430,10.673932080,0.031340120,0.048638880,0.017201900
1640834852928829952,-0.002739150,0.362856330,9.508648870,0.043174630,0.023107230,-0.002612170
1640834852933349888,-0.126339500,0.205885250,10.486945150,0.020964440,-0.040644400,0.011283160
1640834852933949952,-0.007356580,0.272250530,9.447022440,0.021472570,0.048246980,-0.009264050
1640834852939030016,0.389388680,0.237034010,9.005758290,0.025919090,-0.017927590,-0.041657690
1640834852939639808,-0.123291650,0.421079900,10.285181050,0.018301610,0.032982230,-0.009205940
1640834852943169792,0.092209670,0.514791130,9.334294320,-0.012408200,0.026732690,-0.005199020
1640834852943500032,-0.069983910,0.328398670,10.223327640,-0.007891650,-0.055894250,-0.000181790
1640834852948429824,-0.312797370,0.336334790,10.062426570,0.018417840,0.041888660,0.021986670
1640834852949649920,0.216856930,0.168517650,9.214184760,0.025206810,0.017163160,-0.001686810
1640834852953590016,-0.006816710,0.148767460,10.149956700,0.028908250,0.054472690,-0.012090800
1640834852954599936,0.166865560,0.324766640,9.449293140,-0.018322470,0.066053870,-0.005958970
1640834852958190080,0.237572100,0.043945420,9.690980910,-0.018504260,-0.016236310,-0.000311430
1640834852958469888,-0.271700740,-0.240140270,9.914141650,0.042454900,0.002232190,0.005351010
1640834852963980032,-0.177778300,-0.219810290,9.331914900,0.080950570,-0.014215710,-0.011967120
1640834852966209792,-0.437933860,-0.045209710,9.964186670,0.046421590,0.026470430,-0.026915970
1640834852968279808,-0.294530900,0.112510180,9.827275280,-0.025700040,0.064332790,-0.040495400
1640834852968760064,0.071238800,0.229305800,10.036845210,0.006936490,0.032815330,-0.030866270
1640834852973260032,0.093076270,0.390314010,9.858558650,0.076173240,0.057044630,-0.021524720
1640834852973600000,0.157148900,0.411682580,9.678339960,0.088800490,-0.012226400,0.009173150
1640834852978289920,-0.073755790,0.437232020,9.731001850,0.072886060,-0.015361610,0.028043990
1640834852979099904,-0.196651320,0.269241840,9.273357390,-0.002719460,-0.010851030,0.010465090
1640834852983239936,-0.289048730,0.198340700,10.075916290,-0.011248890,0.005291400,-0.011649730
1640834852983739904,-0.325662050,0.333937910,10.074998860,0.049763920,0.071480860,-0.042641160
1640834852988250112,-0.226172360,0.419252280,10.256272320,0.046740480,-0.012633200,-0.044249000
1640834852988750080,-0.132809180,0.709754050,10.265115740,0.014895200,-0.002123420,-0.002774600
1640834852993219840,0.099347650,0.399431230,9.153922080,-0.008805100,0.018025940,-0.006073710
1640834852993600000,-0.037630540,0.323086470,9.884064670,0.003325940,-0.022095450,0.007700920
1640834852998449920,-0.132318210,0.455448780,9.689442630,0.038060540,0.035566090,0.016918780
1640834853000619776,-0.065733430,0.102303590,9.607262610,0.006105010,-0.051027540,0.003300610
1640834853005779968,-0.162758920,0.326850500,10.343708040,-0.014127790,-0.002804400,0.024905800
1640834853006469888,0.139583450,0.265198500,9.403164860,-0.031851230,0.061777240,0.007762020
1640834853008189952,0.102885400,-0.000784120,10.315169330,-0.004038220,-0.020179150,0.001914800
1640834853008479744,0.101479630,0.321987720,9.963025090,0.044514230,0.054991250,-0.012949110
1640834853013289984,0.316106050,0.284604040,8.983873370,0.000964110,-0.015524030,-0.022634860
1640834853016339968,-0.160816040,0.120497390,10.252425190,-0.029267380,-0.015829500,0.029076640
1640834853018189824,-0.147839640,0.062526360,9.158142090,0.017769630,0.054499510,-0.001220410
1640834853018550016,-0.242270810,-0.069494460,9.692651750,0.029797850,-0.079351660,-0.003668670
1640834853023180032,-0.456291710,0.156057210,10.273222920,0.028610240,0.059020530,0.004054610
1640834853023549952,0.036488720,0.079012610,9.190936090,0.014919040,0.045634800,-0.038968030
1640834853028549888,-0.166235790,0.257207870,10.757985120,0.010393560,-0.049233430,-0.008252260
1640834853029339904,0.157885770,0.432914320,9.522188190,0.018200280,0.080834330,0.025792430
1640834853033179904,0.343987440,0.033276510,9.341661450,0.034420200,-0.039410590,0.006888810
1640834853033609984,-0.356326910,0.094928760,10.516864780,0.075121230,-0.000560280,0.020314750
1640834853038230016,0.023518310,0.102170500,8.692890170,0.049699850,0.008942190,-0.015895070
1640834853038759936,-0.378058050,-0.038760920,10.180341720,0.017765160,-0.080512470,-0.036856530
1640834853043350016,-0.403975040,0.426842210,10.125860210,0.008316340,0.077317680,-0.030101840
1640834853044580096,0.214022350,0.544085560,9.438554760,-0.007990000,0.009807940,-0.022688500
1640834853048659968,-0.246982720,0.411078510,11.213610650,0.047479560,0.011588630,0.021393600
1640834853049229824,0.008287500,0.425212830,9.612021450,0.082333390,0.033919510,0.017765170
1640834853053560064,-0.099833170,0.415395470,9.618107800,0.049817570,-0.157743690,0.019611420
1640834853054159872,-0.499994160,0.509998020,9.713522910,-0.049996380,-0.013896820,0.024600330
1640834853058169856,0.058508950,0.450687050,8.785865780,-0.073176630,0.034406780,-0.016035140
1640834853058539776,-0.250250430,0.534316780,10.819091800,0.002712010,0.001136960,-0.017403070
1640834853064189952,0.090096140,0.754079400,10.271307950,0.017216800,0.053250800,-0.009381770
1640834853064719872,0.443761530,0.616228580,9.888545040,-0.020219380,-0.057107210,0.011502200
1640834853068179968,-0.058311230,0.459573980,10.432990070,-0.052045290,-0.009436910,0.019189720
1640834853068559872,0.102509950,0.303807260,9.238787650,-0.084602840,-0.009560590,0.017748770
1640834853073240064,-0.154748190,0.076183080,9.702475550,-0.044740730,-0.058564540,0.007244950
1640834853073639936,-0.304009110,0.044642460,9.564806940,-0.010590260,0.030162930,-0.013756750
1640834853078309888,0.090106330,0.250541360,9.449384690,-0.050768270,0.010964270,-0.002001230
1640834853078899968,-0.142888700,0.187212560,10.425545690,-0.072845810,0.059425820,0.026722250
1640834853083190016,0.013348540,0.065825660,10.160819050,-0.052137680,0.012652580,0.015643240
1640834853083510016,0.091441890,0.307307390,10.099809650,-0.007192790,-0.082696980,0.023925300
1640834853088259840,0.057314290,0.179622080,9.354400630,-0.017346440,0.032208860,0.014768540
1640834853088659968,0.244075340,-0.030742740,9.368411060,-0.028790530,0.047081710,-0.003437700
1640834853093269760,-0.062653570,0.200921090,10.034530640,0.006733830,0.061134990,-0.014497340
1640834853093779968,0.084747600,0.133427630,9.451840400,-0.040408970,-0.011929870,-0.017935040
1640834853098330112,-0.039117440,0.070112360,9.916861530,-0.026740130,-0.023791190,0.007605550
1640834853098759936,-0.273639140,0.030413470,9.648357390,0.032427910,0.041997440,-0.006075200
1640834853103239936,-0.086433380,-0.202098620,9.879989620,0.034695860,-0.009776650,0.019186740
1640834853104290048,-0.336328060,-0.176228240,10.429461480,0.057116140,0.071871270,0.028119980
1640834853108489984,-0.142788080,-0.360880080,9.609070780,0.046366450,0.026468930,-0.025174020
1640834853109120000,-0.335011180,-0.124250260,10.087808610,0.042544310,-0.079837450,-0.012369460
1640834853113929984,-0.282715080,0.206543880,8.888369560,0.038369000,0.014753640,-0.031457850
1640834853114390016,0.063810180,0.151277230,9.139396670,0.038705770,-0.009995700,-0.027558210
1640834853118240000,-0.207840350,0.665727380,10.635005000,0.083091860,0.059771540,0.010038910
1640834853118779904,0.226159110,0.623425540,9.882429120,0.056187800,0.033299620,0.004711750
1640834853123309824,0.155191060,0.263514340,10.834773060,0.053283560,-0.044828650,0.027379400
1640834853125270016,-0.137901010,0.469932530,10.006258960,0.090435150,0.043867530,0.000824030
1640834853128300032,-0.063397240,0.379351680,9.114052770,0.033013530,-0.091028210,-0.020554660
1640834853129070080,-0.555602850,0.531445380,9.765426640,-0.000730160,-0.036509340,-0.005464260
1640834853133339904,-0.288050200,0.666718300,8.835249900,0.005608800,0.037205220,-0.049816070
1640834853133859840,-0.191908790,0.630561890,10.362828250,0.002102550,-0.020396710,-0.017419460
1640834853138309888,-0.193156540,0.844102920,10.773667340,0.007666650,0.083440550,0.016278030
1640834853139089920,0.218780850,0.521884320,10.246385570,0.010260940,-0.027149920,-0.006157160
1640834853143229952,-0.099379960,0.588125530,10.751711850,-0.017729400,-0.080664460,0.024516880
1640834853143589888,0.169488300,0.668905020,8.848850250,-0.063700980,-0.001803040,-0.000970070
1640834853149309952,0.368383200,0.317600910,9.101001740,-0.087215010,0.006914140,-0.016207990
1640834853149789696,-0.031540610,0.515296520,10.067406650,-0.025404990,0.081558550,-0.024276980
1640834853153240064,0.341740850,0.650189640,9.400690080,-0.050279510,0.008331240,-0.027659540
1640834853153779968,0.092132970,0.331919970,10.486461640,-0.105947270,-0.012521450,0.001959500
1640834853158259968,-0.219604460,0.254618640,10.254430770,-0.067941840,0.047162180,0.012391810
1640834853158749696,-0.064950380,0.091766410,9.725854870,-0.055456160,-0.051242110,0.002597270
1640834853163810048,-0.287739340,0.010291720,10.022346500,-0.055184960,0.029419360,0.005348030
1640834853164300032,0.048520810,0.058337570,9.107119560,-0.055068730,0.093889240,-0.037202240
1640834853168189952,0.120499980,0.092013700,9.716711040,-0.066941980,0.019335750,-0.042599440
1640834853168579840,-0.055045880,0.057658650,9.877821920,-0.060904030,0.045618410,-0.006796420
1640834853173830144,0.294125970,-0.130917370,9.284196850,-0.012832880,0.019557780,-0.005532800
1640834853175139840,-0.054844450,-0.162506310,10.239997860,0.022514170,0.004327300,0.011518600
1640834853178239744,0.030960990,-0.152964800,9.860120770,-0.019589070,0.078232590,0.016647580
1640834853178880000,0.220736890,-0.379043220,9.864291190,-0.011573730,0.076831880,-0.021313130
1640834853183229952,-0.212960970,-0.257924560,10.240388870,0.060911480,0.040100520,-0.058200970
1640834853183579904,-0.064580180,0.167337210,9.170658110,0.043898830,-0.005115570,-0.049065060
1640834853188279808,-0.277402730,0.189478890,9.092049600,0.016480690,0.015833970,-0.013449790
1640834853188969728,-0.489940670,0.105619470,9.512671470,0.034371010,0.058349970,0.009104610
1640834853193270016,-0.308187160,0.173677670,10.088441850,0.082544970,0.025974210,0.023211540
1640834853193670144,-0.293488440,0.072414090,10.230423930,0.092522790,0.053939220,0.008603930
1640834853198210048,-0.114506130,-0.073421630,10.343744280,0.084887470,0.027012830,-0.008112190
1640834853198589952,-0.126279530,0.211944890,10.068291660,0.088796030,0.002990660,-0.028935080
1640834853203259904,-0.065170080,0.384587650,9.164296150,0.026577710,-0.037844480,-0.038410730
1640834853205070080,0.098120330,0.487171380,9.221134190,0.022536520,0.004652140,-0.015421210
1640834853208609792,-0.084319290,0.705307480,9.484786030,0.070020560,0.068208580,-0.017192960
1640834853209719808,-0.087578920,0.678589580,10.236882210,0.052772470,-0.023745000,-0.004422670
1640834853214399744,-0.132953300,0.651654780,10.467243190,0.045597560,0.009897350,0.024129450
1640834853214850048,-0.233325820,0.427931820,9.984211920,0.031054020,-0.002646450,-0.020438430
1640834853218179840,-0.266601230,0.589229640,10.265361790,-0.019568200,-0.047074260,-0.003810230
1640834853218540032,-0.172112000,0.692808630,9.321932790,-0.037270780,0.028502940,-0.003986060
1640834853223490048,-0.160275310,0.341720520,9.517623900,-0.018902120,-0.023867190,-0.034947700
1640834853224890112,-0.122880970,0.788847150,9.915071490,-0.011110310,-0.004002450,-0.023117660
1640834853228279808,0.126568510,0.713333960,9.192434310,-0.066441300,0.011439620,-0.014099480
1640834853228999936,0.045068590,0.202508230,10.431819920,-0.081285830,0.005990270,0.005435940
1640834853233219840,-0.020828690,0.459052440,10.406295780,-0.026540460,0.029098990,0.007958710
1640834853233619968,0.136736990,0.331201880,9.717346190,-0.061988840,-0.079719740,-0.001855190
1640834853238289920,0.140265270,0.261540380,9.859498020,-0.093519710,0.016811490,0.001160800
1640834853239109888,0.277256130,0.382062520,8.995526310,-0.072389840,0.096002230,-0.030681490
1640834853243219968,0.066327820,0.204345140,9.908446310,-0.071504710,-0.027863690,-0.021360820
1640834853243640064,-0.051121270,0.171646860,9.707885740,-0.049753490,0.022406880,0.007045270
1640834853248229888,-0.032632790,-0.065265990,9.154511450,-0.037947300,-0.011174380,-0.008133050
1640834853248580096,-0.458886300,-0.144437130,10.624070170,-0.056149070,-0.023756920,0.003485380
1640834853253239808,-0.250056950,-0.066486940,9.659135820,-0.061789150,0.088533740,-0.003127750
1640834853253679872,-0.061492020,-0.372528760,9.869634630,-0.027236340,-0.011126700,-0.046700230
1640834853258289920,-0.200408910,0.008879450,10.213160510,0.021435320,0.046432020,-0.036960840
1640834853258819840,0.212218240,0.199476330,8.614267350,-0.008338690,0.029087060,-0.019072000
1640834853264109824,-0.044245610,-0.109173110,9.860548020,-0.022111830,-0.031287970,0.012770300
1640834853264679936,-0.231684980,-0.004661910,9.716478350,0.025695570,0.046926740,0.022099910
1640834853268689920,0.036824030,-0.019844990,9.358117100,0.035509470,-0.051958860,-0.012236830
1640834853269440000,-0.262297120,-0.022644890,10.657066350,0.022767490,0.030276180,-0.017753250
1640834853273239808,0.028293260,0.261273290,9.649218560,0.025163590,0.099900380,-0.044441230
1640834853274700032,-0.088209210,0.418633070,10.268322940,0.009478630,-0.067485880,-0.049564240
1640834853278289920,-0.353356780,0.507909540,9.774263380,-0.004374980,-0.008669500,0.000137090
1640834853278899968,-0.006234490,0.370653000,8.608633040,0.032477080,-0.041174890,-0.004148480
1640834853283170048,-0.437146690,0.423036280,10.082736020,0.049756470,-0.011752550,0.007027390
1640834853283889920,-0.292619260,0.450196680,9.766855240,-0.021065770,0.062139340,0.006277860
1640834853288270080,-0.083618260,0.202146290,10.372320180,-0.018574300,-0.031445920,-0.019095840
1640834853288640000,-0.328385560,0.390824910,10.754816060,0.015287100,-0.009334090,-0.024779140
1640834853293210112,0.259655980,0.659226420,9.310317040,-0.031870600,-0.043360890,-0.011850890
1640834853293530112,0.192046000,0.481951240,9.661744120,-0.048393010,-0.000679490,-0.013750790
1640834853298179840,0.160364340,0.411350340,9.388165470,-0.027988850,0.060418260,-0.019820040
1640834853298599936,0.232692440,0.443428520,9.713067050,-0.006654860,-0.042061510,-0.010989610
1640834853303279872,-0.190961610,0.361462270,9.954591750,-0.029045340,-0.023891030,-0.005230310
1640834853303949824,-0.134508550,0.187286290,9.468253140,-0.085717450,-0.027307870,-0.002963840
1640834853308239872,-0.306691140,0.237922770,10.129159930,-0.058494520,-0.016598410,0.002524260
1640834853308600064,-0.161204980,0.019531870,9.751120570,-0.042431060,0.055871900,-0.023113190
1640834853313550080,0.115708700,0.116462300,9.895412450,-0.007367140,0.008572640,-0.035172700
1640834853314119936,-0.014763820,0.435067300,9.855001450,-0.022180380,0.021027030,-0.022147600
1640834853318189824,0.164228410,0.150478050,9.164134030,-0.099161270,-0.040876870,-0.002555550
1640834853318639872,-0.107492130,-0.037839200,9.660061840,-0.040709970,-0.025919090,0.012844800
1640834853323249920,-0.213212120,-0.160969080,9.265227320,0.029239060,0.019142030,-0.019666550
1640834853324199936,-0.196373510,-0.073234710,9.974293710,-0.002592800,-0.021821260,-0.023019320
1640834853328259840,-0.282983270,0.181343170,10.251650810,-0.040052830,0.045698880,-0.029051300
1640834853328790016,0.063434860,0.016370110,9.659517290,-0.056479880,-0.012575090,-0.048109900
1640834853333329920,-0.080347520,0.294373570,10.284665110,-0.004719200,-0.025905670,0.001390280
1640834853333910016,0.028447710,0.238654260,9.159317970,0.039736930,0.036762650,0.009669360
1640834853338299904,-0.123746820,-0.000842250,9.683968540,0.035093720,-0.081671780,0.002902750
1640834853338759936,-0.498008070,0.443651910,9.960287090,0.000584130,-0.018934910,-0.000026820
1640834853343229952,-0.130579220,0.098530290,9.029801370,-0.064592060,-0.026603040,-0.031466790
1640834853343559936,-0.374790610,0.106743260,10.683062550,-0.004394350,-0.027146940,-0.023899980
1640834853348729856,-0.081263230,0.619980690,9.965996740,0.043000280,0.061497100,-0.037127740
1640834853349939712,0.234960110,0.500579660,10.006287570,-0.011737640,-0.070977200,0.004164880
1640834853353199872,-0.008941250,0.549762900,10.318608280,-0.031246250,0.001244250,0.035938610
1640834853353720064,0.330212380,0.247742280,8.673914910,-0.021396580,-0.027078390,-0.000710790
1640834853358219776,-0.217102710,0.135641100,10.040629390,-0.007495290,-0.105425720,0.003975630
1640834853358619904,-0.282801090,0.289841920,9.346324920,0.000680980,0.032110520,-0.002272430
1640834853365229824,-0.082047200,0.022429160,9.445235250,-0.033117830,-0.066131360,-0.023330750
1640834853365829888,-0.428956660,0.415390160,10.903276440,-0.048571830,0.001950560,0.016848740
1640834853368209920,0.273672340,0.333036840,9.249349590,-0.043566530,0.054703650,0.005880000
1640834853368599808,0.153544200,0.103533210,10.361316680,-0.002007190,-0.071159010,0.004494190
1640834853373609984,0.018143290,0.487585370,9.711280820,0.017757720,0.043234230,0.009986760
1640834853374769920,0.349187580,0.126368790,8.582786560,-0.034636250,-0.063028920,0.001005830
1640834853378299904,-0.310406540,-0.077890300,10.228775980,-0.029587750,-0.044800340,0.023889540
1640834853378909952,-0.048153590,-0.034632850,8.943981170,-0.000083450,0.053291030,-0.005753340
1640834853383379968,-0.062766020,-0.225609290,10.034744260,0.011239950,-0.062410540,-0.009822850
1640834853383980032,-0.403866740,0.121840710,10.586890220,0.013810400,0.064486270,-0.005012750
1640834853388189952,0.278486370,0.243278030,9.084383960,-0.012934210,-0.004068020,-0.021968780
1640834853388489984,-0.236342560,0.117810360,10.639290810,0.001516940,-0.059729810,0.015372040
1640834853393169920,-0.048995790,0.113986520,9.042083740,0.036862490,0.061711680,-0.001794100
1640834853393529856,0.053400160,-0.037724680,9.242203710,0.079078980,-0.076058510,-0.013728440
1640834853399549952,-0.630197880,0.198710050,10.444331170,0.053404280,0.009369850,-0.007304550
1640834853400480000,0.070915040,0.398074750,8.929382320,-0.027816000,0.002570450,-0.034731630
1640834853403249920,-0.164661720,0.311159190,10.691161160,-0.016406180,-0.043781110,-0.022791330
1640834853403909888,-0.044059590,0.568271400,10.214100840,0.028599800,0.085313620,-0.023002920
1640834853408269824,0.507297400,0.532308880,9.649385450,0.060604520,-0.029850010,-0.010955330
1640834853408589824,-0.180242960,0.489924760,10.666568760,0.038591030,-0.016552210,0.000959630
1640834853413379840,0.141128910,0.545776720,8.958832740,-0.031191110,-0.007401410,-0.005720560
1640834853414089984,-0.173037650,0.328172120,9.771678920,-0.041641290,-0.083313890,-0.002624090
1640834853418259968,-0.436663450,0.345983710,9.933190350,-0.018441680,0.043156750,-0.014938420
1640834853418759936,0.070355210,0.384333040,9.620071410,0.006733840,0.006246570,-0.007133190
1640834853423779840,-0.263695480,0.377554060,10.895427700,0.019299990,0.022414330,0.016897920
1640834853424359936,0.187652750,0.364213410,9.817716600,-0.033351780,0.030265750,0.010044870
1640834853428560128,0.280842930,0.379493450,9.912260060,-0.040385130,-0.045152010,0.005677340
1640834853432430080,-0.123348670,0.309934140,9.825782780,-0.039570030,0.026564300,0.007711350
1640834853433159936,0.159337820,0.260378990,9.235607150,-0.025807320,-0.030875210,-0.019691890
1640834853433459968,-0.119614690,0.487090290,9.762075420,-0.009611250,0.010293720,-0.009140370
1640834853438230016,0.076429580,0.435483720,9.431846620,-0.064769390,0.076521940,-0.008340180
1640834853438659840,0.099150000,0.237077240,10.438665390,-0.049293040,0.034239890,0.005212430
1640834853443460096,-0.191005270,0.216466470,10.335113530,-0.002457200,0.011539460,-0.003777440
1640834853444800000,0.196402850,-0.044848940,9.491346360,-0.004358590,-0.040987130,0.012795630
1640834853449319936,-0.099529090,-0.188989530,9.877263070,0.012823940,0.080594430,0.016650560
1640834853450189824,-0.109025250,-0.308094470,9.429043770,-0.006417930,0.070062280,-0.028523810
1640834853453179904,-0.210257860,-0.123653460,10.064920430,-0.012600420,-0.012971460,-0.016050040
1640834853453489920,-0.397471160,0.092411410,9.563909530,-0.001427530,0.025960800,-0.037288670
1640834853458240000,-0.140674010,0.138380450,9.496028900,0.012207030,-0.034895540,-0.054606800
1640834853458659840,-0.326308670,0.638985630,10.410783770,0.035086270,0.050179660,-0.001452860
1640834853463330048,-0.018205090,0.568275810,9.713029860,0.010268390,0.080075870,0.003847480
1640834853464489984,-0.050255100,0.243647100,10.806278230,0.025793910,-0.015713280,0.013449790
1640834853468209920,-0.210034150,0.462158680,9.998167990,0.056098410,0.021733340,0.001320240
1640834853468600064,-0.041674720,0.181324820,9.007350920,0.023190680,-0.082491320,-0.019828970
1640834853473579776,-0.404208540,0.343428910,9.905198100,-0.008445980,-0.013518330,-0.000602010
1640834853474629888,-0.095804850,0.494920520,8.998688700,-0.028376280,0.063860420,-0.025793910
1640834853478339840,0.061744100,0.228872900,10.551815030,-0.008964540,-0.004650650,-0.006662310
1640834853479009792,-0.094362680,0.455152810,10.922849660,0.046230860,0.110067430,0.004360080
1640834853483229952,0.134884980,0.350501360,9.975536350,0.032508380,-0.072149940,-0.006361310
1640834853483650048,-0.263133560,0.437369590,10.482640270,-0.023454430,-0.089675190,0.023098300
1640834853488250112,-0.088121730,0.541527270,8.623462680,-0.069577990,0.046850740,-0.004027780
1640834853488780032,-0.045303420,0.298355970,9.427740100,-0.030055640,-0.026921930,-0.016836820
1640834853493209856,-0.201784950,0.616537810,10.160446170,0.019347670,0.096258530,0.005094710
1640834853493700096,0.386724050,0.564896110,9.327702520,-0.010520220,0.037811700,0.006170570
1640834853498370048,-0.049986880,0.131806460,11.390669820,-0.029584760,-0.025430320,0.037825110
1640834853498809856,0.022542500,0.232936810,9.894744870,-0.026378040,0.028468670,0.022004550
1640834853503259904,0.241976930,-0.114211090,9.326323510,-0.015634300,-0.087583070,0.012716650
1640834853503739904,-0.172008540,-0.221302450,10.077028270,0.008799130,0.097405900,0.005881490
1640834853508319744,0.163874100,0.108427140,8.773311610,0.017695130,0.094991930,-0.042614340
1640834853509689856,-0.220667750,0.016405940,10.329135890,0.016185640,-0.047811870,-0.007134680
1640834853513280000,-0.325533390,0.175187720,9.639224050,-0.003629920,0.049255790,0.009520350
1640834853514060032,-0.073206480,0.111607720,9.236136440,0.026239460,-0.056263800,0.000616910
1640834853518240000,-0.563816910,-0.030758090,10.790846820,0.059476490,0.033701960,0.018866360
1640834853518869760,0.014894670,0.143137170,9.505187990,0.060290100,0.105710330,-0.010822710
1640834853523320064,-0.001344880,0.082469010,10.440031050,0.073996170,-0.013056400,-0.023552780
1640834853527180032,-0.106318850,0.357297330,10.056078910,0.025357310,0.047886370,-0.009140370
1640834853528489728,0.284050260,0.414677560,8.759696960,0.018306080,-0.038586560,-0.017544630
1640834853529100032,-0.218608100,0.155915560,10.007137300,0.066587340,-0.013530250,-0.002190470
1640834853538990080,-0.058811320,0.515742300,9.288802150,0.079402330,0.061725080,-0.006571410
1640834853540049920,-0.012826300,0.493167070,10.124442100,0.050558150,0.000749530,0.001388790
1640834853541580032,-0.336154880,0.317140460,10.956939700,0.001192090,0.080129500,0.006155670
1640834853542320128,-0.153733280,0.475617970,10.059386250,0.027750430,-0.022460520,-0.009684270
1640834853543409920,-0.434397910,0.420483290,10.110698700,0.057804580,-0.110551710,-0.003995000
1640834853544509952,-0.149583410,0.584621850,8.665649410,-0.001423060,0.023892530,-0.024855140
1640834853548229888,0.082462460,0.679893910,9.128273010,-0.006115440,0.064663590,-0.019349160
1640834853548869888,-0.197445690,0.505885720,10.559218410,-0.012148920,0.081013130,0.004279610
1640834853553380096,0.129347260,0.382133510,10.101241110,0.002980230,-0.029289720,0.004848840
1640834853553979904,0.037682120,0.273427220,10.225502970,0.044016540,-0.081548090,0.019732120
1640834853562219776,-0.006232510,0.144965710,9.446660040,-0.010815260,0.032855570,0.025294730
1640834853563319808,0.130881620,0.067217580,9.591014860,-0.029672680,0.025205320,-0.010982150
1640834853564029952,0.028925210,0.129349720,9.908362390,-0.008444490,0.069183110,-0.030180810
1640834853564369920,0.199506430,0.240363670,9.412611010,0.001531840,0.014291710,-0.039234760
1640834853568329728,-0.036338930,0.313819680,9.870075230,0.017718970,-0.013196470,-0.009821350
1640834853569059840,-0.266842780,0.104903300,9.444804190,0.001312790,0.015968090,-0.012038650
1640834853574380032,-0.375649750,-0.101020280,9.839599610,0.031118100,-0.048157580,0.007499750
1640834853574990080,-0.431083470,-0.112179580,9.926273350,0.050941120,0.062267490,-0.009401140
1640834853579919872,-0.036104690,-0.234545770,9.629906650,0.038428610,0.040960310,-0.031244750
1640834853580529920,-0.061049050,-0.023334980,10.417633060,0.080208470,0.042912360,-0.016927720
1640834853583309824,0.261310940,0.183622600,9.417777060,0.052490840,0.043116510,-0.012895470
1640834853583909888,0.217031550,-0.014784200,9.762051580,0.069691250,-0.055678190,0.019045180
1640834853588559872,-0.081444460,0.179991740,9.733113290,0.106672950,0.045411290,0.003647800
1640834853589609984,-0.023361220,0.296231960,9.268519400,0.085553550,-0.005170700,-0.011821090
1640834853593169920,-0.475452660,0.390267250,10.607475280,0.066608200,-0.003911560,-0.006866460
1640834853593769984,-0.181835380,0.638890450,9.634311680,0.047968330,0.078694520,-0.037024920
1640834853598379776,-0.220082580,0.655645790,10.240170480,0.051589310,-0.029483440,-0.015872720
1640834853598860032,-0.344591320,0.681431890,10.334197040,0.070267940,0.038580600,0.018908090
1640834853603479808,0.211249620,0.435975100,8.829797740,0.066359330,-0.008174780,-0.008049610
1640834853605469952,-0.153109950,0.213990410,10.127021790,0.069142880,-0.008498130,0.014722350
1640834853608700160,-0.016607440,0.269177910,9.582418440,0.030723220,0.077751280,0.010897220
1640834853609949952,0.057807720,0.023563860,9.764237400,0.021532180,-0.065828860,-0.007353720
1640834853613299968,-0.292743620,0.231748030,10.438838010,0.041915480,0.004862250,0.010940430
1640834853613999872,0.293858200,0.377806190,8.984240530,0.022442640,0.056801730,0.001734500
1640834853618249984,-0.004805630,0.217523380,10.305044170,0.050055980,0.002560020,0.008943680
1640834853618979840,0.112243890,0.622466030,9.769866940,0.051371750,0.085137780,0.001057980
1640834853623270144,0.345649510,0.581336980,9.178564070,0.011157990,-0.012913350,-0.001421570
1640834853623819776,-0.282990430,0.268483040,10.277038570,0.014702980,0.011456010,0.021967290
1640834853628389888,-0.001610940,0.237697530,8.920821190,0.045442580,0.056219110,-0.009229780
1640834853629040128,-0.273686080,0.034451930,9.750266080,0.073395660,-0.028419490,-0.009405610
1640834853633280000,-0.379755740,0.113079610,9.990899090,0.022797290,0.095564130,0.000491740
1640834853634019840,0.089030210,0.090107900,9.243789670,0.016081340,0.026553870,-0.033301130
1640834853638809856,-0.239962910,-0.033239420,10.344387050,0.043804950,-0.004827980,0.002904240
1640834853639510016,0.161296900,0.088726330,9.256067280,0.069898370,0.085818770,0.008195640
1640834853644110080,-0.054744600,-0.139527630,9.702857020,0.112558920,-0.025446720,0.003013010
1640834853646119936,-0.429510060,-0.001590540,9.988016130,0.072979930,0.006161630,0.013425950
1640834853648599808,-0.028263810,0.165669590,8.853747370,0.024764250,0.010395050,-0.018423800
1640834853650779904,-0.468244140,-0.001181940,10.194708820,0.053507080,-0.006699560,-0.046283000
1640834853653519872,-0.221019580,0.628749430,9.875832560,0.087338680,0.055332490,-0.044590230
1640834853657120000,0.052770960,0.809931760,9.663154600,0.069947550,0.002644960,-0.022931400
1640834853658149888,-0.186269920,0.505114790,10.503343580,0.020919740,0.037172430,0.013478100
1640834853658599936,0.058453650,0.475577350,9.568701740,0.068543860,0.019134580,0.018526610
1640834853663879936,-0.340215270,0.251257960,9.780497550,0.086857380,-0.107510390,0.012487170
1640834853664739840,-0.372472760,0.311843040,9.384452820,0.017954410,-0.021512810,0.005806980
1640834853668329984,-0.109367560,0.393707690,8.977519040,-0.004257260,0.020989770,-0.016942620
1640834853669879808,-0.282995460,0.255812790,10.388615610,-0.004841390,0.034695860,-0.005412100
1640834853673349888,0.161192890,0.527190980,10.084789280,0.023609400,0.060273710,-0.001673400
1640834853674759936,0.141739550,0.383437900,10.020237920,0.066812330,-0.056405370,-0.006929040
1640834853678789888,-0.107628620,0.440838750,9.994931220,0.012023750,-0.052876770,0.001339610
1640834853681179904,0.059216500,0.528714540,8.940967560,-0.034227970,-0.007280710,0.002603230
1640834853683339776,-0.139831300,0.058589790,9.488829610,-0.018574300,-0.016418100,-0.005798040
1640834853685319936,-0.082072620,0.161643920,9.656331060,0.029055780,0.074279310,-0.009709600
1640834853689209856,0.056098580,0.284833880,9.598894120,0.046667460,0.027734050,-0.013087690
1640834853689869824,-0.178378120,0.056674790,10.447665210,-0.006987150,-0.042395290,0.014230610
1640834853693149952,-0.029568730,0.163193550,9.594723700,-0.003692510,-0.015933810,0.015591080
1640834853693659904,0.052964100,-0.011911830,9.390168190,0.004200640,-0.016987320,0.000834470
1640834853698289920,-0.165653230,-0.118469550,10.134510990,0.037494300,0.060977050,-0.003910070
1640834853699110144,0.031988660,0.076682080,9.288626670,0.082510720,0.039951500,-0.048659750
1640834853705629952,-0.256485640,0.164924030,9.738026620,0.024004280,-0.069604810,-0.049878660
1640834853706599936,-0.291245370,0.278433020,9.445416450,-0.009495020,-0.006328520,-0.025112930
1640834853708179968,-0.161167820,0.201721610,9.113929750,0.026524070,-0.015741590,-0.031343100
1640834853708580096,-0.397775650,0.248203340,10.563497540,0.065980860,-0.003054740,0.007614490
1640834853718649856,-0.048353690,0.315650170,9.958006860,0.086177890,0.073713070,0.018762050
1640834853719059968,-0.020073050,0.084100480,10.204277040,0.053922840,-0.045229490,-0.008037690
1640834853719259904,-0.311876770,0.185994240,10.261581420,0.039632610,-0.028373300,0.008220970
1640834853719480064,-0.062352460,0.297040640,8.651915550,0.028851630,-0.078417370,-0.020676850
1640834853723209984,-0.326388750,0.368555900,9.533784870,0.014841560,-0.079925370,-0.035889450
1640834853723549952,-0.132033320,0.813486700,9.458827970,0.014211240,0.076524910,-0.017337500
1640834853728289792,0.168820750,0.732402500,10.047656060,0.004848840,0.006464120,-0.004345180
1640834853728930048,-0.315959750,0.627906740,11.418288230,0.018453600,-0.027561190,0.014282760
1640834853733520128,0.066670390,0.783037780,9.464905740,0.013181570,-0.074216720,0.014629960
1640834853734169856,-0.115532180,0.418363270,9.591700550,-0.038334730,-0.118945530,0.019308920
1640834853738339840,-0.265848130,0.361146540,9.317189220,-0.041380520,0.047077240,0.000408290
1640834853738919936,0.224390700,0.315145490,8.751295090,-0.030542910,-0.003097950,-0.029201810
1640834853743239936,-0.200151190,0.220757220,10.533344270,-0.016322730,-0.017920140,0.000329320
1640834853744599808,0.132364500,0.349475500,9.623920440,-0.029593710,0.014042860,0.005182620
1640834853749100032,0.093677420,0.129775200,10.178847310,-0.044669210,-0.106008350,0.016112630
1640834853750540032,-0.197613890,0.080814600,10.341751100,-0.038267660,0.014318530,0.029374660
1640834853753139968,0.392292440,0.093803710,8.883964540,-0.021165610,0.024530290,-0.021371250
1640834853753440000,-0.024916050,0.123961060,10.130447390,-0.000363590,-0.006349390,-0.023020800
1640834853758189824,0.006605770,0.279230510,9.250257490,-0.021378700,0.056685520,-0.015404820
1640834853758550016,-0.014556670,0.114122290,9.295925140,-0.020109110,-0.094674520,-0.007085500
1640834853766919936,-0.588788210,0.032321230,10.094867710,0.005878510,-0.043387700,0.002884860
1640834853767649792,-0.052724960,0.071612680,9.033588410,-0.000394880,0.017136340,0.004939740
1640834853768169984,-0.310368180,-0.128746290,10.735091210,0.014838580,0.032664840,0.001099710
1640834853768440064,-0.195205910,-0.122234450,10.359287260,0.023803120,0.076261160,-0.024089220
1640834853773190144,0.183977020,0.068871900,9.522422790,0.038883090,-0.093930950,-0.032484530
1640834853773559808,-0.298276630,0.114092150,9.525936130,0.038605930,-0.037235020,-0.006090110
1640834853778279936,0.016398850,0.219772010,8.475546840,0.010296700,-0.024639070,-0.003467500
1640834853779259904,-0.227407690,0.313368080,9.912750240,0.031131510,-0.036548080,0.010439750
1640834853783340032,-0.151328830,0.308276090,10.166345600,0.040924550,0.078110400,0.010098520
1640834853783859968,0.124172270,0.432542620,10.564680100,0.048050300,-0.022356210,-0.013314190
1640834853788199936,-0.362802150,0.673578980,10.920420650,0.029367210,-0.031673910,-0.011262300
1640834853788579840,0.031197890,0.568772730,9.056996350,-0.028689210,-0.070600210,-0.016993290
1640834853793530112,-0.157637450,0.580229100,9.235056880,0.003914540,-0.065571090,-0.012998280
1640834853795439872,-0.255219310,0.616693140,8.977322580,0.007705390,0.050373380,-0.019432600
1640834853798269952,0.008413720,0.575180350,9.559486390,-0.015641750,-0.010845070,0.008718670
1640834853799190016,-0.446506200,0.523665430,10.884100910,-0.025582310,-0.018368660,0.017432870
1640834853803259904,0.015202640,0.243160050,9.946432110,-0.055003170,-0.060334810,0.008533900
1640834853803920128,0.044559840,0.205071900,10.212744710,-0.023630260,-0.045734640,0.023160880
1640834853808189952,0.023024240,0.165167850,9.618247990,-0.009575490,0.055478520,-0.019657610
1640834853808489984,0.414092690,0.365084710,9.243261340,-0.049115720,-0.020681320,-0.025711960
1640834853813309952,0.047248700,0.613811970,9.694825170,-0.067481400,0.013919170,0.002388660
1640834853813949696,0.074420620,0.226959410,9.189811710,-0.075976560,-0.020934650,-0.010287760
1640834853818169856,-0.175450550,0.312837900,10.075816150,-0.012466310,-0.077004720,0.029352300
1640834853818670080,-0.303429960,0.334006130,9.781907080,-0.023993850,0.035786630,0.026552380
1640834853823159808,0.018107490,0.033178760,10.029544830,-0.077873480,0.023998320,-0.007937850
1640834853823469824,-0.241826100,0.208967670,10.601835250,-0.052103400,0.056110320,-0.013391670
1640834853830739968,0.036947620,0.017737580,9.218668940,-0.031510000,-0.022275750,-0.046086320
1640834853834129920,-0.088799790,-0.012447470,9.467519760,0.003182890,-0.083322850,0.000599030
1640834853834800128,-0.287920300,0.125320610,8.782126430,-0.006362800,0.025729840,0.014486910
1640834853835340032,-0.042515310,-0.214455740,9.283915520,-0.044964250,-0.028513370,0.021354850
1640834853838209792,-0.356815160,-0.129486550,10.772965430,-0.006274880,0.066508360,0.020845240
1640834853838670080,0.059902970,-0.222219870,9.957498550,0.037769980,0.018785890,-0.037568810
1640834853843760128,-0.045641200,0.027267480,10.568451880,0.054168700,-0.080288950,-0.020003320
1640834853845789952,-0.149973450,0.526226760,9.301800730,0.010384620,0.040048360,-0.005105140
1640834853850139904,0.005824350,0.159960900,8.910809520,-0.027561190,-0.060452520,0.003354250
1640834853850589952,-0.528312210,0.385813830,10.041161540,0.036066760,-0.014391540,0.026707350
1640834853853159936,-0.179567980,0.412971710,8.903869630,0.060836970,-0.000426170,-0.000572200
1640834853853459712,-0.361380310,0.249277920,10.566210750,0.031355020,-0.068099800,0.006139280
1640834853858199808,-0.348434030,0.608700160,10.367562290,-0.007982550,0.060693930,-0.002369280
1640834853858959872,0.196706920,0.349448060,9.800873760,-0.037111350,-0.056514150,-0.002574920
1640834853863379968,-0.164218830,0.303690200,10.695290570,0.026649230,-0.035981830,0.017620620
1640834853864039936,0.192562570,0.476479290,8.693244930,0.046575070,-0.015607480,-0.026421250
1640834853869880064,-0.088567780,0.382307440,9.718434330,0.008103250,-0.107109550,0.013683740
1640834853870550016,-0.393817340,0.571536660,9.812322620,-0.055058310,0.022131200,0.039567060
1640834853873199872,0.042618750,0.331671740,9.272581100,-0.060516590,-0.069546710,0.019796190
1640834853874419968,-0.288413760,0.364620270,10.970900540,-0.011448560,-0.016325710,0.039696690
1640834853878330112,0.212843430,0.533149840,9.552960400,0.006856020,0.070308160,0.008575620
1640834853879170048,0.230739770,0.349528610,10.402171130,-0.012639170,-0.083595510,-0.013729930
1640834853883509760,-0.051640470,0.648495320,9.968853000,-0.067162510,0.016342100,0.012840330
1640834853884089856,0.323189800,0.370195000,8.522206310,-0.078898670,-0.061436000,0.004167850
1640834853888179968,-0.298804610,0.110022930,10.186009410,-0.035475200,-0.048141180,0.026664140
1640834853888509952,-0.097866510,0.312704350,8.995403290,-0.021202860,0.063022980,0.026713320
1640834853893250048,-0.037165170,-0.093423140,10.004300120,-0.020504000,-0.044398010,0.014847520
1640834853893789952,-0.403625430,-0.017172450,10.868397710,-0.028386710,0.049142540,0.013864040
1640834853902720000,0.219624360,0.179958180,9.186306950,-0.039009750,-0.027012830,-0.003014510
1640834853903559936,-0.170628220,-0.122933570,10.487607000,-0.020316250,-0.050112610,0.021393600
1640834853904089856,-0.030363250,0.060986350,9.111631390,0.011408330,0.064773860,0.017125910
1640834853905099776,0.009855300,0.033053270,9.168608670,0.037805740,-0.066195440,-0.008526440
1640834853908339968,-0.538362090,0.192998140,10.181612010,-0.004112720,0.001636150,0.010085110
1640834853908789760,-0.089725800,0.409370010,9.061232570,-0.047184520,-0.011852380,-0.020563600
1640834853913309696,-0.282963190,0.319757520,10.553531650,-0.028510390,-0.057688360,-0.020049510
1640834853914719744,-0.167438340,0.550646130,10.139201160,-0.002662840,0.084152820,0.005979840
1640834853918169856,0.131994530,0.400949180,9.886370660,0.051370260,-0.013333560,-0.001679360
1640834853918530048,-0.405586930,0.332581640,10.595916750,0.027708710,-0.057084860,0.022272770
1640834853923599872,-0.115756410,0.460132810,8.695888520,-0.038175280,-0.071711840,0.034894050
1640834853924169984,-0.282107080,0.092220670,9.359783170,-0.040332980,-0.088007750,0.020210450
1640834853928640000,-0.412028760,0.280269950,9.812889100,-0.025798380,0.048603110,-0.007678570
1640834853929519872,0.083717870,0.554824170,9.895404820,-0.006155670,0.000609460,-0.016941130
1640834853933229824,-0.044203710,0.459531130,11.140389440,-0.021909180,0.004111230,-0.004883110
1640834853933659904,0.158513230,0.738036930,10.096608160,-0.053974990,-0.015434620,0.005625190
1640834853938200064,0.128240670,0.636047840,9.814549450,-0.047338010,-0.118353960,0.018773970
1640834853938679808,-0.162656310,0.527739170,9.363323210,-0.075072050,-0.019367040,0.025899710
1640834853943229952,0.095145320,0.542848590,8.763660430,-0.059233610,-0.008571150,0.009781120
1640834853943679744,-0.172866050,0.327447120,10.028388020,-0.053517520,0.015518070,0.008466840
1640834853948329984,-0.066838660,0.275711060,9.935721400,-0.083431610,0.042961540,0.011795760
1640834853950219776,-0.060005340,0.081632170,10.383053780,-0.055255000,-0.057509550,0.009341540
1640834853953159936,-0.302301970,0.037729470,10.276479720,-0.072751940,-0.046186150,0.004206600
1640834853953509888,-0.010018580,0.117549050,9.295908930,-0.070430340,-0.039099160,0.014384090
1640834853958240000,-0.080694090,-0.112806630,9.567632680,-0.039321200,0.025230650,-0.000593070
1640834853958679808,0.001632950,0.050204600,9.435200690,-0.048284230,0.037069610,-0.015808640
1640834853963310080,0.024555450,0.157728660,9.686597820,-0.026448070,-0.028614700,0.006996100
1640834853964009984,-0.131752270,0.095172610,9.767985340,-0.051213800,-0.034546850,0.002478060
1640834853968209920,-0.087355780,0.153529570,9.742856980,-0.051586340,-0.049798200,-0.005654990
1640834853968619776,-0.153190780,0.094833940,10.010867120,-0.003832580,0.021556020,0.009144840
1640834853973319936,0.005579680,-0.126045420,9.945405960,0.004090370,0.035104170,-0.010357800
1640834853973799936,-0.128501790,-0.022698510,10.228126530,0.040800870,-0.007444620,-0.003962220
1640834853978200064,-0.069800060,0.100312550,9.322600360,-0.000846390,-0.025203820,-0.001332160
1640834853978659840,-0.310174380,-0.126553220,9.359259610,-0.019969040,-0.086228540,0.002172590
1640834853983300096,-0.418777110,0.045837810,9.441096310,0.046959520,-0.023214520,-0.003677610
1640834853985159936,-0.165806840,0.284190120,9.507682800,0.036098070,0.003123280,-0.011052190
1640834853988369920,-0.319186540,0.300214110,10.861950870,0.033406920,0.013822320,0.002828240
1640834853988950016,0.046548880,0.502556320,10.332156180,0.025558470,0.028914220,-0.009925660
1640834853993180160,0.030229660,0.600856240,10.190205570,0.004148480,-0.096899290,-0.017701090
1640834853993690112,-0.155658720,0.730159820,9.693142890,0.007563830,-0.057883570,0.011330840
1640834853999589888,0.173502490,0.696125750,8.522322650,-0.017748770,-0.038258730,-0.013245640
1640834853999980032,-0.195368750,0.694073260,9.758820530,-0.016701230,-0.007003550,0.006525220
1640834854003889920,-0.028286950,0.660132830,9.961767200,-0.032849610,0.073863570,0.013923650
1640834854008129792,-0.069328490,0.295926270,10.613961220,-0.028912720,-0.057734550,-0.003321470
1640834854008669952,-0.345099210,0.356579750,10.704593660,-0.011210140,-0.085389630,0.017157200
1640834854009179904,0.100089610,0.318039150,9.058820720,-0.058524310,-0.018319490,0.012314320
1640834854013179904,-0.154448700,0.017698870,9.790193560,-0.054842240,-0.006784500,-0.006540120
1640834854013579776,-0.079733830,0.323254200,9.564702030,-0.033974650,0.055451690,-0.019599500
1640834854018179840,0.181297080,0.419488370,9.272273060,-0.047416990,-0.041045250,-0.011518600
1640834854018579968,-0.154734860,0.322897110,10.227868080,-0.051982700,-0.038091840,0.017587840
1640834854023200000,0.079224410,0.451447340,9.536530490,-0.061045590,-0.008407230,0.015926360
1640834854023559936,-0.015286750,0.230086060,10.139095310,-0.048011550,-0.027333200,0.031732030
1640834854029179904,-0.046403560,0.149008010,10.183638570,-0.031840790,0.048351280,0.020739430
1640834854029939968,0.330629800,0.172949460,9.263978000,-0.021775070,0.022417310,-0.019560760
1640834854033169920,-0.160199370,0.102733780,9.876982690,-0.033098460,-0.004589560,-0.000222030
1640834854033969920,-0.126422230,0.064549640,9.169248580,-0.051534180,-0.002975760,0.015583630
1640834854038259968,-0.348236080,-0.175251720,9.338335990,-0.006878380,-0.077480080,-0.002847610
1640834854038949888,-0.507300970,-0.153506340,9.786945340,0.015920400,0.005091730,0.016728050
1640834854043180032,-0.114389970,-0.035066040,9.764727590,0.007100400,0.077280420,-0.003904100
1640834854043670016,-0.294304460,-0.224213930,10.709662440,0.017265980,0.013066830,-0.027646120
1640834854049229824,-0.006812990,0.114411610,9.915432930,0.029610100,-0.020420550,-0.019982460
1640834854049649920,0.080888740,0.251423630,9.067041400,0.039860610,-0.048851980,-0.008597970
1640834854053210112,-0.320106330,0.156093000,9.367041590,0.026787820,-0.040896240,0.006054340
1640834854053609728,-0.152572780,0.507768810,9.173366550,0.026933850,-0.018464030,-0.002388660
1640834854058240000,-0.286134150,0.358616080,9.931205750,0.026229030,0.001144410,-0.003837050
1640834854058629888,-0.133678970,0.361998740,10.640890120,0.017061830,0.023376940,-0.014992060
1640834854063259904,0.009796290,0.523785590,10.354681020,0.039966400,0.006183980,-0.016389780
1640834854063969792,-0.167896780,0.368505060,10.147075650,0.016021730,-0.060443570,-0.004212560
1640834854068539904,-0.061077860,0.397169590,9.361091610,0.004351140,-0.051781540,-0.002846120
1640834854069200128,-0.207555530,0.387977660,8.842553140,0.009222330,-0.043809410,-0.015527010
1640834854073230080,-0.302357880,0.353571500,9.561506270,-0.015001000,-0.017218290,0.004804130
1640834854073710080,-0.204468610,0.569153370,10.027778630,-0.012050570,0.034603480,-0.002504890
1640834854078349824,-0.282918660,0.561135050,10.604428290,-0.033670680,-0.049655150,-0.020094220
1640834854079170048,-0.057121090,0.704892100,10.542537690,-0.050893430,-0.049476330,0.013159220
1640834854083289856,0.102136540,0.569779040,9.432090760,-0.032295290,-0.009426470,-0.019338720
1640834854084519936,0.098441240,0.507112440,9.505896570,-0.050918750,-0.046341120,-0.033175950
1640834854088179712,0.186102960,0.669529740,9.172527310,-0.050853190,0.032685690,-0.001260640
1640834854088569856,0.093129210,0.347997840,9.319879530,-0.083081420,-0.026328870,-0.002951920
1640834854093209856,-0.069102500,0.305202340,10.339115140,-0.098058600,-0.043915210,0.023975970
1640834854093629952,0.098016310,0.229632140,9.678138730,-0.077867520,0.020205970,0.025159120
1640834854099549952,0.073241990,-0.135212210,10.233958240,-0.061543290,-0.006608670,-0.010640920
1640834854100069888,0.012492730,0.188274230,10.272823330,-0.030618910,0.063040850,-0.018219650
1640834854103209984,0.151448260,0.226695510,9.009499550,-0.076788670,-0.016768280,-0.037308040
1640834854103780096,-0.156975580,0.021767180,9.643726350,-0.091765820,-0.059545050,0.001630190
1640834854108249856,-0.217110160,0.174077590,8.872678760,-0.038251290,0.048267850,0.007954240
1640834854108669952,-0.262912960,-0.064542110,9.525271420,-0.030346220,-0.037668650,-0.001189110
1640834854113250048,-0.450210930,0.056894330,10.739010810,-0.024120510,0.045476850,-0.000378490
1640834854113910016,0.051529630,0.112439740,9.584500310,-0.041459500,0.057651100,-0.042299930
1640834854118249984,-0.053631450,-0.020137290,10.629745480,-0.048841550,-0.038102270,-0.031726060
1640834854118809856,-0.021271700,0.147814150,9.438379290,0.002814830,0.071354200,-0.005273520
1640834854123200000,0.195792690,-0.062226520,8.673587800,0.030362610,-0.075687480,-0.008112190
1640834854123589888,-0.460853280,0.134618280,10.135096550,0.017394120,-0.026306510,0.032345940
1640834854128800000,-0.042114030,0.208477260,8.743706700,-0.040508810,0.051747270,0.013871490
1640834854129720064,-0.224018440,-0.084974530,10.677713390,-0.022059680,-0.038930770,-0.016616280
1640834854133459968,-0.351124080,0.346349480,10.767311100,0.037994980,0.103653990,-0.032611190
1640834854135180032,0.139745500,0.512581590,9.426190380,0.018739700,-0.048513710,-0.048398980
1640834854138680064,-0.514221310,0.563082810,10.601268770,-0.008082390,-0.063972180,-0.002004210
1640834854139089920,-0.149773540,0.736500140,8.331208230,-0.033468010,0.006803870,-0.013121960
1640834854143169792,-0.190923800,0.541347680,9.317461010,-0.037278250,-0.099326690,0.009392200
1640834854143610112,-0.471398410,0.586073940,10.338706020,-0.010544060,0.089135770,0.028458240
1640834854148399872,0.237996710,0.530172530,9.569597240,-0.025656820,0.002777580,-0.011810660
1640834854149390080,-0.294405040,0.542582450,11.613430020,-0.058147320,-0.064533950,0.011776390
1640834854153199872,0.148872480,0.550441440,9.524022100,-0.090004490,0.032366800,-0.004528460
1640834854153709824,0.377179210,0.306552950,9.213943480,-0.070828210,-0.106066470,-0.036683680
1640834854158190080,-0.287173600,0.516885400,9.949886320,-0.053252280,0.047042960,-0.006520750
1640834854158649856,0.264733610,0.433587280,8.359406470,-0.077217820,0.023874640,0.003525610
1640834854163409920,-0.395647940,0.275234010,10.756293300,-0.082911550,-0.085054320,0.022052230
1640834854164280064,-0.280392110,0.456865700,9.985978130,-0.109694880,0.050044060,0.023950630
1640834854168470016,0.197208630,0.098944850,9.708079340,-0.112639380,-0.050599870,0.001916290
1640834854169369856,-0.368240740,0.072889860,11.017817500,-0.057117640,0.057326260,-0.020492080
1640834854173240064,0.331269470,0.368598160,8.741303440,-0.053739560,0.050714620,-0.046937170
1640834854173719808,0.058350110,0.195008440,9.757794380,-0.076486180,-0.084200500,-0.001010300
1640834854179040000,-0.172304930,0.185942040,9.340058330,-0.105081510,0.049179800,0.021542610
1640834854179950080,0.374842110,-0.054003560,8.815227510,-0.074613100,-0.028623640,0.034508110
1640834854184120064,-0.281225170,-0.280753080,11.045742030,-0.012914840,0.046075880,0.036415460
1640834854184859904,0.257025180,-0.150299120,9.774151800,-0.008574130,0.112833090,-0.019733610
1640834854188199936,0.125011760,-0.079615210,10.420907970,-0.021274390,-0.040578850,-0.033923990
1640834854188570112,-0.305911630,0.073225800,9.763065340,-0.052262850,0.039511920,-0.021362310
1640834854193250048,0.087208050,0.043749060,8.308715820,-0.026021900,-0.033965710,-0.015339260
1640834854193619968,-0.669683640,0.023456970,9.817459110,0.044865910,-0.013275440,0.005982820
1640834854198299904,-0.354586150,0.179336670,9.164863590,0.040483470,0.080314280,0.014026460
1640834854199129856,-0.153845250,0.006424580,10.257622720,0.021803380,0.007194280,0.000935790
1640834854204150016,-0.334103880,-0.003474900,10.777401920,0.005282460,0.100290780,-0.013402110
1640834854204679936,0.154213350,0.003187530,9.738647460,0.034067030,0.000309940,-0.025132290
1640834854208209920,-0.341070290,0.011961690,9.993319510,0.097028920,-0.066305680,-0.005975370
1640834854208719872,-0.208630590,0.177493050,8.493080140,0.061583520,-0.033523150,-0.011201200
1640834854213399808,-0.184458060,0.192130600,9.013528820,0.039546200,-0.017032030,0.008489190
1640834854214279936,-0.405423340,0.135618050,10.166861530,0.028686230,0.095355510,-0.002329050
1640834854218230016,-0.065844920,0.180252820,10.471237180,0.072057540,0.014123320,-0.038735560
1640834854218889984,-0.242099050,0.493584420,10.912392620,0.102014840,-0.039972370,-0.031182170
1640834854223170048,-0.103603070,0.615070820,9.636751170,0.033377110,-0.027975440,-0.026318430
1640834854223579904,-0.063378520,0.591948270,9.294668200,0.024315720,-0.060325870,-0.013419990
1640834854228289792,-0.291491120,0.707664250,9.195420270,0.022417310,0.015147030,-0.009001790
1640834854228879872,-0.012265080,0.593773070,9.320963860,0.023417180,0.002601740,0.009769200
1640834854233289984,-0.176223650,0.587879480,10.465844150,0.045615440,0.019449000,0.007922950
1640834854234829824,-0.194865540,0.671927750,10.453663830,-0.013984740,-0.008702280,-0.011236960
1640834854238720000,-0.082637850,0.571503400,10.391547200,-0.042165820,-0.060504670,0.003993510
1640834854239300096,-0.207081900,0.530449930,9.851873400,-0.034223500,-0.014448170,-0.032693150
1640834854243660032,0.009307090,0.574975550,9.147826190,-0.031609840,-0.024615230,-0.045479830
1640834854244410112,-0.079966930,0.617638110,9.492980000,-0.029422340,0.027993320,-0.010672210
1640834854252979968,-0.151353610,0.428654610,9.635068890,-0.060808660,0.010696050,-0.014968220
1640834854253520128,-0.067692130,0.354836430,10.149467470,-0.060944270,-0.070369240,0.003920500
1640834854253999872,-0.061561030,0.372978240,9.995973590,-0.072063510,0.005069380,0.019299980
1640834854254349824,0.086788950,0.024560380,10.051568980,-0.073534250,0.020888450,-0.015433130
1640834854258189824,0.024085480,0.153483300,10.272663120,-0.024154780,0.034177300,-0.028963390
1640834854258720000,0.170390460,0.333252910,9.178568840,-0.056064120,-0.006099050,-0.033596160
1640834854263660032,0.051890170,0.135557860,9.340355870,-0.074075170,-0.028797990,-0.001630190
1640834854265009920,-0.185739710,0.162058890,9.323251720,-0.057525940,0.024490060,0.011889640
1640834854268179968,-0.159464700,0.017183110,9.615767480,-0.029714400,-0.028339030,-0.004632770
1640834854271539968,-0.258887170,-0.065826860,10.499238970,-0.013621150,0.043667860,-0.008586050
1640834854273219840,-0.050427290,-0.004343180,10.043653490,-0.018626460,0.071071090,-0.057707740
1640834854273599744,-0.253077450,-0.065467120,10.377849580,-0.011670590,-0.024160740,-0.054204470
1640834854278189824,-0.209501100,0.136492910,9.367927550,-0.012297930,-0.007845460,-0.022388990
1640834854278779904,-0.131735070,0.004244250,8.765806200,0.009775160,-0.039044030,-0.015740100
1640834854283869952,-0.293923410,0.011632940,9.500484470,0.040660800,0.007846950,0.021576880
1640834854284339968,0.033036090,0.188765630,9.533134460,0.029967730,0.065179180,0.014619530
1640834854288179968,-0.072508770,-0.075155780,10.799880030,0.021736330,0.015339260,-0.016766790
1640834854288630016,-0.026672330,0.185133010,10.602274890,0.028258560,0.017623600,-0.045205660
1640834854293239808,-0.098019000,0.507596250,9.869495390,0.017195940,-0.077980760,-0.064203150
1640834854293609984,-0.347600070,0.500758110,9.485362050,0.006335970,-0.040805340,-0.047448270
1640834854301240064,-0.137614530,0.936951280,8.697307590,-0.003989040,0.007551910,-0.036489960
1640834854301689856,-0.287639530,0.809553270,9.710638050,-0.015412270,0.028888880,0.002241130
1640834854304270080,-0.118109400,0.484662260,10.265801430,0.004300480,0.072674450,0.026835500
1640834854304940032,-0.046099080,0.476745520,10.505501750,0.028291350,-0.026610490,-0.001986320
1640834854308329728,-0.268975230,0.342664090,10.641424180,-0.007022920,-0.067645300,-0.010262430
1640834854309129984,0.090974670,0.381880820,9.226517680,-0.081381220,-0.031219430,-0.023648140
1640834854313299968,-0.056380420,0.392446490,9.372234340,-0.066854070,0.001725550,-0.068400800
1640834854314009856,-0.014493450,0.556440110,9.397668840,-0.045061110,0.054153800,-0.039133430
1640834854318179840,0.146438430,0.668480990,9.451755520,-0.036646430,0.002059340,-0.012630230
1640834854318579968,-0.186756240,0.381967010,10.321636200,-0.035530330,-0.019168850,0.003224610
1640834854323459840,0.076095760,0.378577170,9.886607170,-0.072510560,-0.002339480,0.019161400
1640834854324569856,-0.030969340,0.105602500,10.119245530,-0.062404570,0.002326070,0.001806020
1640834854328480000,0.032159350,-0.058906810,9.938523290,-0.052151100,0.061266130,-0.034017860
1640834854330200064,0.216077890,0.188849110,9.391472820,-0.031726060,0.047729910,-0.039544700
1640834854333420032,-0.222813580,0.050495200,9.570075990,-0.031487640,0.004297490,-0.031262640
1640834854333989888,-0.055665070,0.042714700,8.997241970,-0.052808230,-0.029213720,-0.016106670
1640834854338219776,-0.333096770,0.045736960,9.423984530,-0.029419360,-0.004725160,-0.002324580
1640834854338869760,-0.253244010,-0.181448950,9.915584560,-0.024585430,0.086843970,0.001588460
1640834854343190016,-0.116612850,-0.203295310,10.622461320,0.026664140,0.081993640,-0.022491810
1640834854343719936,-0.257336620,-0.131731350,10.356734280,0.065942110,0.018107890,-0.049170860
1640834854348259840,-0.016942560,0.064311440,9.341812130,0.014787910,-0.058318670,-0.037011500
1640834854349509888,-0.274553570,0.290935550,8.956971170,-0.004568700,-0.007322430,0.000381470
1640834854353109760,-0.254557610,0.073324130,8.812518120,0.015148520,0.021189450,-0.011672080
1640834854353529856,-0.260733540,0.210810170,10.017190930,0.087529430,0.014062230,0.002916160
1640834854358240000,-0.267992320,0.277782860,10.278332710,0.102005920,0.062887370,-0.004702810
1640834854358719744,-0.015636940,0.153142510,10.507252690,0.041577220,-0.020724530,-0.027775770
1640834854363309824,-0.261413480,0.521828710,10.457672120,0.017975270,-0.002306700,-0.013834240
1640834854363950080,-0.105147400,0.362794160,9.065320970,0.009274480,-0.044019520,-0.034065550
1640834854371320064,-0.212296340,0.473583400,9.301898960,0.065261130,-0.064829000,-0.016856200
1640834854372750080,-0.353511960,0.891468110,8.989617350,0.058731440,0.037831070,-0.012904410
1640834854373869824,-0.147357140,0.667379020,9.782258030,-0.026535990,-0.015427170,0.008127090
1640834854374320128,-0.338589070,0.635365660,10.918832780,-0.024917720,0.025337930,0.019568210
1640834854378209792,-0.053327860,0.449335310,10.156579020,0.012290480,-0.025704500,-0.018203260
1640834854380659712,-0.074831020,0.411533470,10.481734280,0.021645420,-0.060065090,-0.009450310
1640834854383159808,-0.056912790,0.664484620,9.310203550,-0.016985830,0.028108060,-0.027334690
1640834854383620096,0.178694680,0.549476330,8.957311630,-0.088858590,-0.052228570,-0.035630170
1640834854388609792,-0.049483620,0.646875500,9.594863890,-0.076451900,0.035503510,0.018052760
1640834854389609728,0.070192610,0.360860910,9.268356320,-0.030566760,0.015532970,-0.008261210
1640834854393169920,-0.142460240,0.348943500,10.753967290,-0.007863340,-0.066730390,0.007857380
1640834854393609984,-0.079750110,0.513196410,10.004832270,-0.058715050,0.039516380,0.013810400
1640834854398229760,0.198974460,-0.059207990,9.806661610,-0.113010430,-0.016698240,-0.028595330
1640834854399589888,-0.099694130,-0.007517640,10.380162240,-0.048993540,0.061777240,-0.022783880
1640834854403399936,0.221813190,0.080874500,8.655748370,-0.003735720,0.025840110,-0.032763180
1640834854405009920,-0.136975870,-0.048672480,9.636455540,-0.004711750,-0.068859770,0.002701580
1640834854408229888,-0.257357300,0.262718650,9.203841210,-0.067771970,0.048947340,0.023201110
1640834854408699904,0.001348040,-0.179707390,9.426157000,-0.083440540,-0.026415290,0.016985830
1640834854413319936,-0.346882550,-0.262517660,11.180026050,0.010237100,0.083245320,-0.001111630
1640834854414039808,0.104672500,0.067657340,9.797670360,0.056518620,0.091038640,-0.062216820
1640834854418180096,-0.069789740,0.021712310,10.405264850,0.027708710,-0.067958240,-0.040751700
1640834854418690048,-0.175761970,0.330213870,9.186947820,-0.024603310,0.045679510,-0.006839630
1640834854423219968,-0.007202300,0.052546870,8.297970770,-0.010371210,-0.053346160,-0.000591580
1640834854423669760,-0.524920940,-0.114558700,10.073219300,0.072705750,0.008474290,0.027514990
1640834854428259840,-0.032633490,0.148968550,9.310017590,0.091874600,0.108344880,0.001369420
1640834854429319936,-0.162299070,-0.130202900,11.033140180,0.067754090,0.001305340,-0.014096500
1640834854433260032,-0.324920620,0.205340680,10.970558170,0.020731990,0.058844700,-0.021694600
1640834854434789888,-0.095274450,0.324753790,9.204748150,0.024913250,-0.102253270,-0.038026270
1640834854438210048,-0.580527420,0.274989160,9.593174930,0.076097250,-0.092673290,-0.010892750
1640834854438629888,-0.136906040,0.806861940,8.130320550,0.055624560,0.065028670,-0.012612340
1640834854443159808,-0.249503090,0.657342550,9.906784060,0.032274420,0.013253090,0.015975530
1640834854443569920,-0.299916800,0.515788910,11.117835040,0.023277110,0.062918690,0.035661460
1640834854448219904,0.167574260,0.598324000,10.237053870,0.026501720,-0.052165990,-0.018711380
1640834854449729792,-0.270198110,0.492361750,10.874902730,0.026801230,-0.091703240,-0.014555450
1640834854454649856,-0.007021130,0.637445150,9.067124370,-0.007732210,0.010433790,-0.015968090
1640834854455079936,-0.002598200,0.663087130,8.998835560,-0.018121300,-0.069533290,-0.033608080
1640834854458179840,-0.159546050,0.690698500,9.630287170,-0.045201180,0.058703140,0.023211540
1640834854458519808,0.195812310,0.565420510,9.399623870,-0.026480850,0.035578020,0.021575390
1640834854463269888,-0.399914650,0.329313580,11.168050770,0.004741550,-0.081256040,0.020429490
1640834854463939840,-0.107406350,0.584727590,9.921433450,-0.057639190,-0.023669000,0.019183760
1640834854469299968,0.024183590,0.382787260,9.553322790,-0.087629260,-0.049917400,-0.016665460
1640834854469750016,-0.221814140,0.347842960,10.198901180,-0.078701980,0.050389770,-0.032016640
1640834854473179904,0.319394830,0.602560640,8.997376440,-0.053091350,0.050693760,-0.024238230
1640834854473699840,-0.052200170,0.229100060,9.974600790,-0.031910840,-0.058268020,0.005112590
1640834854478159872,0.056031910,0.340461730,9.547473910,-0.058235220,-0.003181400,0.033925470
1640834854478749952,0.151116790,0.163283010,9.411217690,-0.076907870,-0.015942750,0.032807890
1640834854486619904,-0.137144700,-0.305675330,10.611094470,-0.066173080,0.056451560,0.029841070
1640834854487089920,0.146429170,-0.137006280,9.960174560,-0.005583470,0.069332120,-0.024034080
1640834854488139776,-0.087861190,-0.144158050,9.836912160,0.019140540,-0.049346690,-0.045230980
1640834854488569856,-0.224114490,0.065964360,9.307792660,-0.032301250,-0.005736950,-0.020359460
1640834854493169920,-0.248051480,0.157449140,8.842062000,-0.043538220,-0.009027120,-0.009141860
1640834854493589760,-0.428188200,0.018447490,9.762003900,-0.021828710,-0.013168160,0.001958010
1640834854498169856,-0.179537860,0.117689250,10.128232000,0.041440140,0.074873880,0.012511020
1640834854498620160,-0.208970860,-0.043791670,10.489329340,0.078231090,0.044721360,-0.013782080
1640834854503170048,-0.177642690,0.029739650,10.613621710,0.037805740,-0.023730100,-0.010898710
1640834854503539968,-0.026633030,0.157492350,9.312817570,0.010444220,-0.022658710,0.003209710
1640834854508219904,0.038383610,-0.045074210,8.755206110,0.023098290,-0.036415460,0.001232330
1640834854508669952,0.222060380,0.097582520,9.243241310,0.081673270,0.050458320,0.053639720
1640834854513149952,0.520762440,0.024124370,9.237740520,0.126652430,0.137150300,0.088204440
1640834854513779968,0.480013820,-0.348045200,10.905771260,0.125648080,0.067536540,0.089398010
1640834854518419968,0.202918540,-0.089093270,10.931303980,0.128249850,0.066682700,0.109767940
1640834854519699712,0.000623050,0.005528790,9.517412190,0.080305340,-0.068728630,0.090420250
1640834854523209728,-0.487128590,0.293361930,9.556515690,0.067557390,-0.041086970,0.103525840
1640834854524379904,-0.363977850,0.865835430,8.086669920,0.071632870,0.130739810,0.099502510
1640834854528299776,-0.373787310,0.881780390,9.664997100,0.089019540,0.073799490,0.130121410
1640834854528950016,-0.356757970,0.952570500,10.625128750,0.122717040,0.162355650,0.174261630
1640834854533239808,0.077093580,0.721959950,9.979545590,0.098352130,-0.004856290,0.151599960
1640834854535810048,-0.158361570,0.483728590,10.641322140,0.063054260,-0.022301080,0.191590180
1640834854542419968,0.280520230,0.233767750,8.824832920,0.025284300,0.117021810,0.159598890
1640834854543539968,0.299387570,-0.294484380,9.260005950,0.078773510,0.052562360,0.144879530
1640834854544160000,0.147324230,-0.082756220,9.464973450,0.130659340,0.151012840,0.158154980
1640834854544559872,0.225412500,-0.062716770,9.131177900,0.092841680,0.042797620,0.155152370
1640834854548229888,-0.324567200,0.077500600,10.047809600,0.062754740,-0.006586310,0.183384110
1640834854549339904,-0.250127230,0.438695250,9.433107380,0.019674000,0.051821770,0.172098000
1640834854553249792,-0.633306260,0.269966960,10.254634860,0.065465260,0.072945650,0.182342500
1640834854554829824,-0.598561350,0.485297350,9.992700580,0.147056590,0.100329520,0.155770790
1640834854558379776,-0.553578140,0.739246190,9.909585000,0.121687360,0.007583200,0.147072970
1640834854559539968,-0.497953090,0.786901350,9.118315700,0.045956670,0.034166870,0.203155030
1640834854563539968,-0.077589160,0.553910670,8.888537410,0.011096900,-0.023901460,0.196278130
1640834854564209920,-0.051154900,0.332605360,9.627333640,0.059016050,0.093846030,0.219696760
1640834854568539904,0.578614710,0.044299640,9.421789170,0.121673950,0.144448880,0.236560400
1640834854569509888,0.003679690,-0.295070920,11.598582270,0.138683620,0.033718350,0.197575990
1640834854574739968,-0.052276560,0.145664390,9.760818480,0.067207220,0.010369720,0.195917500
1640834854575549952,-0.255464820,0.175582770,9.203648570,-0.008198620,-0.162799670,0.171834230
1640834854578279936,-0.822694960,0.578218160,9.130241390,-0.006486480,0.060784810,0.179126840
1640834854579109888,-0.171893270,0.996922080,8.137944220,0.040954340,0.071923440,0.180868800
1640834854584199936,-0.665129180,0.881705340,11.187245370,0.101172920,0.068783760,0.239996630
1640834854585409792,-0.051296570,1.137290600,9.951973920,0.059263420,0.122177620,0.253531370
1640834854588409856,0.030990930,0.632067800,10.540613170,-0.007101890,-0.133197010,0.266052780
1640834854589239808,-0.239379610,0.400888860,10.210292820,-0.029306120,0.030365590,0.284105540
1640834854593269760,0.531865950,0.076249480,7.988903520,0.000280140,0.016479200,0.234824420
1640834854593939968,-0.017259520,-0.107845490,9.838110920,0.052994500,0.020073360,0.260074440
1640834854598219776,0.441603690,0.082610680,8.795941350,0.028778620,0.172987580,0.260184710
1640834854598909952,0.199966010,-0.269071310,10.067014690,0.011029840,-0.028827790,0.265666870
1640834854603289856,-0.305995260,0.132113220,10.593521120,-0.004562740,0.009927160,0.282090990
1640834854603950080,0.005747550,0.174626010,9.121559140,0.004704300,-0.004529950,0.258778040
1640834854608229888,-0.555550340,0.201106650,9.949974060,0.044560440,0.049829480,0.262612100
1640834854608709888,-0.290545340,0.719718810,9.298670770,0.045593090,0.099173190,0.246596380
1640834854613189888,-0.379332300,0.563080910,9.399102210,0.018492340,0.018207730,0.272774670
1640834854613669888,-0.216406330,0.517639220,9.290875430,0.017650430,0.010545550,0.304786860
1640834854618229760,-0.069842880,0.296156940,9.487792970,0.039954490,0.009894370,0.303889810
1640834854618700032,0.108206480,-0.040268610,9.671732900,0.039927660,0.088104610,0.325573980
1640834854623350016,0.366124990,-0.303178430,10.172348020,0.082939850,0.093998000,0.316500630
1640834854624039936,0.110619220,-0.429203090,10.426999090,0.083255780,0.072349610,0.286822050
1640834854628219904,0.253224790,-0.220641120,9.066426280,0.063154110,-0.010205810,0.288133320
1640834854628939776,-0.332853470,-0.088974370,9.293870930,0.057035680,-0.047975780,0.280661880
1640834854633359872,-0.443771480,0.393710200,8.539270400,0.048896680,0.048840050,0.287632670
1640834854633929984,-0.350153800,0.714035750,9.305870060,0.062951440,0.028170650,0.303833160
1640834854639170048,-0.625406620,0.732794520,10.887994770,0.072124600,0.135256390,0.325435490
1640834854640149760,-0.239237100,0.897234680,10.362245560,0.089228150,0.049984470,0.311134760
1640834854643759872,-0.501426940,0.843685330,10.653585430,0.056475400,-0.090478360,0.334478880
1640834854644209920,-0.207693800,0.866628350,8.936018940,-0.009503960,0.002977250,0.340904360
1640834854648239872,0.116542680,0.628917690,8.247468950,-0.008964540,0.006766620,0.329826770
1640834854648989952,-0.041262110,0.472453650,9.602611540,0.002118950,0.090932850,0.356359810
1640834854653289984,0.509076890,0.336833300,9.376830100,0.037997960,0.128480810,0.369888540
1640834854654259968,0.156120140,0.022894130,10.866210940,0.034423180,-0.028778610,0.365784790
1640834854658289920,-0.081413510,0.356672500,10.522077560,-0.024025140,-0.009149310,0.372037380
1640834854659639808,-0.120549160,0.245611700,9.051116940,-0.070539120,-0.044104460,0.346219570
1640834854663190016,-0.565072360,0.234904930,9.569227220,-0.041262800,-0.000666080,0.333753260
1640834854663810048,-0.414007960,0.749553920,8.736899380,0.012625760,0.118009760,0.329172640
1640834854668289792,-0.352348030,0.702203930,9.298961640,-0.019526480,0.006313620,0.361333820
1640834854668849920,-0.485806910,0.735714910,10.223441120,-0.043720010,0.012949110,0.406998430
1640834854673369856,-0.130976870,0.514309940,9.460808750,-0.072245300,-0.013415520,0.391090010
1640834854674199808,-0.064021420,0.090565160,10.187742230,-0.046542280,-0.030696390,0.413910980
1640834854678229760,0.101714620,-0.124627180,9.838988300,0.018523630,0.103044520,0.379712910
1640834854678860032,0.419594850,-0.280785830,9.248378750,0.018186870,0.029429790,0.343899460
1640834854683229952,0.111332350,-0.126450140,9.799852370,-0.013290350,0.005580480,0.388950140
1640834854684559872,0.065902790,-0.228108580,8.795019150,-0.049670050,0.002096590,0.362692770
1640834854688249856,-0.184415150,-0.229601770,9.181205750,0.008080900,-0.075405840,0.374674860
1640834854688779776,-0.483394000,0.244605450,9.660947800,0.047519810,0.048899660,0.382253530
1640834854693199872,-0.295891610,0.258720370,9.896049500,0.022517150,0.078856960,0.368583290
1640834854693689856,-0.563429420,0.469793740,10.748985290,0.022847950,0.029276310,0.382180540
1640834854698329856,-0.534015480,0.616810320,9.891133310,0.002321600,-0.042526430,0.369915400
1640834854699349760,-0.503802840,0.497077080,8.985043530,0.029622020,-0.095336140,0.392031700
1640834854706119936,-0.303011150,0.665010690,8.535315510,0.027529900,-0.039489560,0.390277800
1640834854706709760,-0.076396910,0.558945120,9.326722150,-0.018717340,0.063779960,0.397530200
1640834854708179968,0.211770120,0.257104520,10.188489910,0.000099840,0.101350250,0.419320170
1640834854708649984,0.256200490,0.093702820,11.016691210,0.032556060,-0.041998920,0.389079780
1640834854713209856,0.069044830,0.205379770,10.395403860,0.035884980,-0.056514150,0.400067870
1640834854713600000,0.135354470,0.324727650,8.787963870,-0.029994550,-0.092774630,0.394187900
1640834854718579968,-0.427257690,0.392999920,9.391944890,-0.061166290,-0.038389870,0.386682180
1640834854719189760,-0.171345520,0.684897480,8.377184870,-0.038790710,0.082939860,0.391134650
1640834854723160064,-0.369208870,0.662208800,10.126428600,-0.005185600,-0.028637050,0.401148200
1640834854723670016,-0.659809530,0.826358140,10.709961890,0.005838280,0.033392020,0.425256880
1640834854728160000,-0.131177540,0.833845850,9.506462100,-0.076289490,-0.125630240,0.400298920
1640834854728639744,-0.449796260,0.527768490,10.547961240,-0.112906110,-0.060816120,0.435546100
1640834854733359872,0.349866600,0.268083210,8.487000470,-0.068347170,0.100629050,0.399650720
1640834854735229952,0.416760950,-0.042040230,9.748611450,-0.002257530,-0.024627150,0.388979910
1640834854738620160,0.223637070,0.127553250,9.652244570,-0.003223120,0.092694160,0.435766580
1640834854740249856,0.697136940,-0.296439530,8.684782980,-0.063481910,-0.075869250,0.421248320
1640834854743180032,-0.250315900,-0.379866090,10.668617250,-0.062222790,-0.067640860,0.450947970
1640834854743629824,0.066481410,-0.233645950,8.866209030,-0.039684770,0.066341470,0.414733530
1640834854748229888,-0.246762410,-0.481271240,10.323652270,0.038447980,-0.036583840,0.382286340
1640834854748999936,-0.646011230,0.297995390,10.190643310,0.048397480,0.116997960,0.364173920
1640834854753299968,-0.154424090,0.535363670,8.793939590,-0.020375850,-0.056293620,0.357501270
1640834854753949952,-0.831792710,0.482108500,10.062369350,-0.040858980,-0.063540050,0.426058470
1640834854758240000,-0.263853580,0.658917670,8.327210430,-0.000494720,0.026223070,0.413654800
1640834854758779904,-0.168143590,0.221820040,9.827108380,0.064213580,-0.045339760,0.445705740
1640834854763170048,-0.086459730,0.168977350,10.534084320,0.067101420,0.116695480,0.454877410
1640834854763549952,0.540981230,-0.097634310,9.870796200,0.038139530,0.023324790,0.410592590
1640834854768620032,0.035085830,-0.271459790,10.822610860,0.007215140,-0.061897930,0.426276030
1640834854769349888,0.165307340,0.029747690,8.866533280,0.018966200,-0.020167230,0.400082770
1640834854773259776,-0.143444030,0.038405550,8.760411260,0.043705120,-0.111344480,0.375619530
1640834854775569920,-0.382101270,0.743085270,9.173575400,0.010201330,0.043644010,0.404341580
1640834854778199808,-0.201629440,0.854059930,9.595971110,-0.014173990,0.084656500,0.410088990
1640834854778769920,-0.639055850,0.709123550,11.313770290,0.009794530,-0.003179910,0.427700670
1640834854783299840,-0.407044860,1.082259650,10.401264190,0.018306080,-0.069697190,0.421206680
1640834854783959808,-0.406854030,0.787411150,9.531135560,-0.023691350,-0.095696740,0.422792140
1640834854788309760,-0.154948250,0.629241820,8.900284770,-0.055418910,0.009690230,0.432227580
1640834854788839936,0.094430700,0.584308680,9.013538360,-0.036391620,0.047157700,0.420458700
1640834854793409792,0.194260030,0.150886450,9.800316810,-0.042800610,0.029927500,0.447605610
1640834854794029824,0.430895980,0.031126430,10.009696960,-0.022603580,-0.027011340,0.448286620
1640834854798720000,0.068648340,-0.105395660,10.312201500,-0.023217500,-0.058469190,0.422401820
1640834854799199744,0.225393650,-0.052443380,9.567955020,-0.066146250,-0.021171570,0.424484970
1640834854803209984,-0.033672750,0.047664440,9.721396450,-0.051216780,0.021198390,0.399382440
1640834854804109824,-0.124151030,0.168090390,9.413711550,-0.031630690,0.045084950,0.381205920
1640834854809449984,-0.115496230,0.445390250,9.295864110,-0.007715820,-0.014722350,0.415068860
1640834854809939968,-0.583347680,0.421493650,9.533539770,-0.012241300,-0.009591880,0.436511670
1640834854814259968,-0.263824610,0.307566520,9.205383300,-0.036996610,-0.039219860,0.450301260
1640834854815990016,-0.375294540,0.217796950,10.137701030,-0.023666020,0.026652220,0.463402330
1640834854818129920,-0.054440670,-0.195665630,10.009645460,0.000306960,0.094752010,0.424289700
1640834854818439936,0.206127550,-0.289050340,10.221834180,0.058075790,0.002650920,0.388196140
1640834854823599872,0.000458740,-0.085770730,9.638549800,0.040601190,-0.000698860,0.383117820
1640834854824299776,0.259322080,-0.180910350,8.596210480,-0.008806590,-0.051590810,0.395746560
1640834854828249856,-0.190326500,-0.016394470,9.250204090,0.014151630,-0.034908950,0.419518350
1640834854828829952,-0.102315610,0.015960440,9.168984410,0.041750070,0.053687400,0.425638260
1640834854833179904,-0.119213680,0.045181620,10.490596770,0.100994130,0.038816050,0.438514410
1640834854833669888,-0.448880850,0.233993230,10.892952920,0.102156410,0.055931510,0.408574970
1640834854838309888,-0.321926150,0.412266110,10.004105570,0.047661360,-0.079414260,0.397025080
1640834854838909952,-0.543897810,0.594348670,9.309259410,0.022067130,-0.101068630,0.415343140
1640834854843299840,-0.373773250,0.612203600,8.313563350,0.017581880,-0.012467800,0.384897080
1640834854844760064,-0.111938330,0.892281830,9.075160980,0.051784530,0.046002860,0.403678450
1640834854848229888,-0.032559330,0.847808060,10.217599870,0.037290160,0.080059480,0.432066710
1640834854850200064,0.162715520,0.553458990,10.747659680,0.024984780,-0.027610360,0.420935480
1640834854853179904,0.147104530,0.516389190,10.408538820,0.005525350,-0.077781070,0.431592700
1640834854853570048,0.053406430,0.362458770,9.502858160,-0.028431420,-0.055122380,0.416667790
1640834854858219776,0.022055490,0.219102980,9.069984440,-0.017867980,0.003179910,0.395649700
1640834854858739968,-0.025814880,0.465772390,9.070878980,-0.022199750,0.036177040,0.381769240
1640834854863449856,-0.145930930,0.490939440,9.684057240,-0.026398900,0.019688900,0.411728110
1640834854864579840,-0.175532240,0.438894480,9.898929600,-0.028023120,-0.022436680,0.414872170
1640834854868239872,-0.317831520,0.601205710,10.131656650,-0.047993660,-0.060439110,0.407686830
1640834854868669952,-0.184619350,0.474984290,9.876757620,-0.049710270,0.011621420,0.426958500
1640834854873659904,0.095963460,0.361397210,9.519445420,-0.047795470,0.043901800,0.390452180
1640834854874519808,0.080422210,0.328138410,9.801275250,-0.021056840,0.039170690,0.382107590
1640834854878429952,0.430439080,0.299003540,8.888576510,-0.026120250,0.040811300,0.404858590
1640834854880539904,0.149117340,0.036692010,9.435956000,-0.044809280,-0.030137600,0.412896340
1640834854883169792,-0.067916580,-0.157174650,9.563266750,-0.023123620,0.020228330,0.431036980
1640834854883659776,0.019146400,-0.329785350,9.447997090,-0.006455180,-0.007455050,0.399965080
1640834854888229888,-0.401887950,-0.420348910,10.537883760,0.023025280,0.056554380,0.388842820
1640834854888769792,-0.141093540,-0.192386750,9.624870300,0.035505000,0.094442080,0.349892680
1640834854893219840,-0.486848560,0.041890160,9.975856780,0.003542010,-0.050039590,0.343245300
1640834854894059776,-0.561055840,0.226579490,8.945402150,0.020807980,-0.009201470,0.389352470
1640834854898289920,-0.185649660,0.247257230,8.258767130,0.035338100,-0.047862530,0.389915670
1640834854898919936,-0.574539240,0.394109220,9.996647830,0.065891440,0.046107170,0.416432290
1640834854903409920,0.132064610,0.350752410,9.494128230,0.058770180,0.107757740,0.421315370
1640834854904099840,0.056312780,-0.046749800,11.012950900,0.068588550,-0.028468670,0.389406140
1640834854908239872,-0.068125750,0.142033820,10.122296330,0.078575310,0.028236210,0.376683500
1640834854908769792,0.224922670,0.108195270,8.726952550,0.058344010,-0.104962300,0.366668400
1640834854913159936,-0.575247820,0.207780580,9.465966220,0.054106120,-0.059887770,0.376533060
1640834854913590016,-0.003766720,0.554732740,7.910035610,0.026564310,0.039626660,0.372031360
1640834854918190080,-0.301495550,0.321713330,10.266070370,0.050984320,0.010401010,0.395442520
1640834854918649856,-0.543943460,0.483176290,10.716786380,0.099703670,0.093401980,0.392450390
1640834854923559936,-0.156555650,0.671652500,10.076742170,0.055532160,-0.140322740,0.374029610
1640834854925779712,-0.797892150,0.831413630,10.340925220,-0.002832710,-0.105912990,0.394584240
1640834854928169984,0.036772750,0.910934090,7.848156450,-0.053229940,-0.008389360,0.355289940
1640834854928649984,-0.079616700,0.908501330,9.384985920,-0.023886560,-0.016406180,0.364555420
1640834854933219840,-0.033882820,0.972090780,9.599822040,0.018674140,0.102970000,0.402358200
1640834854935319808,0.522960600,0.568070710,9.604764940,0.003327430,-0.095979870,0.388406250
1640834854938279936,-0.171963720,0.504718480,10.789457320,-0.044865910,-0.071498760,0.423347980
1640834854939360000,0.300511450,0.148509640,8.870542530,-0.096976740,-0.016750390,0.400252640
1640834854945439744,-0.114780060,-0.327924250,10.051408770,-0.053259730,-0.062638520,0.371298220
1640834854945920000,-0.232560900,0.052101240,9.126372340,0.001785160,0.069212910,0.352829780
1640834854948359936,0.185696020,0.072084810,8.620979310,-0.018438700,-0.043109060,0.354075430
1640834854948829952,-0.661467490,0.222639710,10.147355080,-0.049769880,-0.007493790,0.398445160
1640834854953199872,-0.158096510,0.466033670,8.761662480,-0.078821180,-0.050601370,0.377173750
1640834854956310016,-0.379541370,0.149956630,10.178122520,-0.040160120,-0.101025410,0.400525330
1640834854958230016,-0.298216160,0.242192370,9.576480870,0.022105880,0.086158530,0.371703570
1640834854959450112,0.273388360,0.213362110,9.297813420,0.034247340,-0.015968090,0.343336160
1640834854963259904,-0.264144840,0.176564430,10.211139680,-0.020581490,0.003907080,0.385744870
1640834854964640000,0.294031440,0.022685990,8.254764560,-0.038792200,-0.062583390,0.370676850
1640834854968229888,-0.063673210,-0.364990030,9.335279460,0.016473230,-0.132651640,0.378574460
1640834854968879872,-0.154601870,-0.168867360,8.970541950,0.058953460,0.062826270,0.386658250
1640834854976300032,0.121161570,-0.370035950,9.543798450,0.076654580,0.000168380,0.365032320
1640834854978909952,-0.571491660,-0.236363250,10.955008510,0.063031920,0.002695620,0.351375430
1640834854979279872,-0.169866190,0.169223790,9.069222450,0.033813730,-0.074936460,0.340859650
1640834854979660032,-0.583999040,0.038120140,9.401438710,0.064572700,-0.154656170,0.345422360
1640834854983259904,-0.624811410,0.542328060,8.527870180,0.087203090,-0.026521090,0.353212650
1640834854983779840,-0.089284050,0.637794080,8.601316450,0.090624400,-0.038947170,0.374840230
1640834854988320000,-0.367872150,0.478563610,10.445361140,0.067605080,0.040301680,0.398740260
1640834854989359872,0.167026850,0.646998640,9.885499950,0.067737700,-0.027140980,0.379714370
1640834854993579776,-0.018803550,0.359237760,10.347399710,0.057539350,-0.151246800,0.384899970
1640834854995469824,-0.104005700,0.493781690,9.115895270,0.045688450,-0.066155200,0.366388350
1640834854998200064,0.067907570,0.580777170,8.539159770,0.034527480,-0.118571520,0.338150500
1640834854998639872,-0.282728820,0.614200470,9.248188020,-0.001165270,-0.009575490,0.364324450
1640834855003259904,0.074715670,0.680353220,9.036195760,0.011500720,0.008068980,0.360274400
1640834855003849984,-0.282221440,0.470516650,10.549758910,0.027708710,-0.097075120,0.352801470
1640834855008299776,-0.327050300,0.714620710,9.798458100,0.005388260,-0.081409510,0.365415280
1640834855009579776,-0.151011660,0.534270170,9.211204530,-0.022554400,-0.148522900,0.355260130
1640834855013239808,-0.350793480,0.458967860,9.284343720,-0.050848730,-0.024457280,0.360046360
1640834855013870080,0.173605680,0.692919610,8.520957950,-0.045011950,-0.007861850,0.364796910
1640834855018299904,0.042989560,0.301248580,9.700893400,-0.029733780,-0.045306970,0.388149920
1640834855018999808,0.170166510,0.393709270,9.379650120,-0.012640660,-0.040319570,0.390891790
1640834855023289856,0.214583470,0.337039500,9.475606920,-0.029319520,-0.135070090,0.376676050
1640834855024359936,-0.029265370,0.035491660,9.581819530,-0.082914530,-0.039632620,0.379566850
1640834855028440064,0.184903900,-0.007438240,8.998912810,-0.037731220,0.013065340,0.328752370
1640834855029079808,-0.120419080,0.031334010,9.672877310,-0.011843440,-0.031515960,0.316248830
1640834855033229824,-0.129594520,0.202952700,8.977070810,-0.018788870,-0.034704800,0.340157780
1640834855033799936,-0.138443750,0.153315290,8.890470500,-0.022651250,-0.101785370,0.333015620
1640834855038599936,-0.426220720,0.200447980,9.253214840,-0.054618720,-0.052091480,0.366164710
1640834855040089856,-0.166440340,0.048840080,9.109338760,0.003001090,-0.006328520,0.379933480
1640834855043219968,-0.207972110,-0.188272000,9.927966120,0.038370500,-0.005230310,0.337278840
1640834855043840000,-0.242205990,0.121647760,9.889912610,0.040526690,-0.021360810,0.334225620
1640834855048379904,-0.140213560,0.069065330,9.183279040,0.006224220,-0.112727300,0.341360330
1640834855049139968,-0.312977880,0.019159530,8.957809450,-0.022873280,-0.119601180,0.329001220
1640834855053249792,-0.128938760,0.317029680,8.523851390,0.029672690,-0.035519900,0.343900920
1640834855054230016,-0.006922870,0.248534690,9.349258420,0.036756710,-0.009533760,0.357005090
1640834855058299904,-0.045341590,0.268837810,10.202073100,0.070752210,0.001358990,0.353804290
1640834855058919936,0.101168630,0.392892870,9.755289080,0.050261620,-0.084729500,0.337854030
1640834855063170048,-0.241351430,0.397142170,9.717714310,0.006133320,-0.139156000,0.346958640
1640834855065229824,-0.318593560,0.557523010,8.641166690,0.000548360,-0.106629750,0.326816800
1640834855068189952,-0.320172940,0.675046620,8.560610770,-0.019533930,-0.101180380,0.312855870
1640834855071139840,-0.399847690,0.820863720,9.279926300,0.008749960,0.010617080,0.345775510
1640834855074409984,-0.125158030,0.811367510,9.740672110,-0.000907480,-0.029252480,0.333401560
1640834855075179776,-0.230398280,0.783267440,10.493293760,-0.032790010,-0.120854380,0.367191460
1640834855078779904,-0.053440600,0.634420220,9.324085240,-0.050234800,-0.106847290,0.369082390
1640834855079379968,0.088791650,0.220912580,9.012527470,-0.059996550,-0.117132090,0.333419500
1640834855083259904,0.100591560,0.331330980,8.779743190,-0.019396840,-0.008341670,0.343294470
1640834855083859968,0.406871170,0.245358380,8.635921480,-0.048296160,-0.009970370,0.344480540
1640834855088229888,0.103568960,0.115445750,9.969429020,-0.057671980,-0.046336660,0.353597160
1640834855088819968,0.079922270,0.284537080,9.369953160,-0.053764890,-0.097645830,0.342592690
1640834855093240064,-0.044656260,0.145177560,9.485935210,-0.068590050,-0.142762080,0.341658350
1640834855093659904,-0.316961680,0.233039600,9.173279760,-0.030383470,0.015546380,0.342017410
1640834855098179840,-0.137530880,0.259813760,8.924237250,-0.032335520,-0.035017730,0.303153720
1640834855098739968,-0.450939420,0.274745050,9.612182620,-0.043432420,-0.041307520,0.341463150
1640834855103669760,-0.113682360,0.273456900,8.446937560,-0.045324870,-0.057548290,0.334072140
1640834855104559872,-0.204179730,0.045698990,9.412372590,-0.040571400,-0.121839340,0.326825710
1640834855110649856,-0.123763290,0.199929450,9.159841540,-0.018261380,0.005294380,0.361135690
1640834855111099904,0.334487970,-0.246963520,9.388337140,-0.006070730,-0.032061330,0.333122910
1640834855113129728,-0.055761270,-0.358488200,10.420858380,0.041860350,0.001259150,0.329913290
1640834855113519872,0.271588330,-0.103638110,8.733140950,0.036193430,-0.066295270,0.318271010
1640834855118369792,-0.190756110,-0.240781130,9.249644280,0.004304950,-0.151535910,0.321254220
1640834855119579904,-0.321838770,0.199568440,8.254993440,0.005050000,-0.040680170,0.329479600
1640834855123180032,-0.128810820,0.290805280,8.703830720,0.015585120,-0.080198030,0.314712550
1640834855123620096,-0.569892470,0.482204080,10.263424870,0.048181420,0.042335690,0.347515970
1640834855128179968,-0.038529100,0.658144120,9.580762860,0.065428030,-0.034391880,0.325289370
1640834855128589824,-0.491493020,0.608509000,10.622274400,0.029703980,-0.147590090,0.335772400
1640834855133230080,-0.280538560,0.778080460,8.536953930,-0.005364420,-0.079797200,0.342327300
1640834855134299904,-0.120884720,0.373302970,8.572909360,-0.010299680,-0.155337150,0.327958200
1640834855138319872,-0.285789460,0.498984690,9.012015340,0.023983420,0.023002930,0.351181630
1640834855139099904,0.473598390,0.462371800,8.738134380,0.019381940,-0.022724270,0.347265570
1640834855143460096,-0.026348530,0.086548680,10.980183600,0.008550290,-0.049597040,0.359632130
1640834855144499968,0.289985600,0.419172230,9.345743180,-0.017918650,-0.063909590,0.340934130
1640834855148239872,0.000090380,0.185401070,9.830571170,-0.039583440,-0.201283410,0.336352020
1640834855148979968,-0.323639270,0.350301180,8.764796260,-0.023253260,-0.016984350,0.325857100
1640834855153379840,0.131991180,0.640696640,7.895810130,-0.021110480,-0.080339610,0.291568070
1640834855154099968,-0.425361930,0.624451640,9.766537670,-0.031800580,0.027400260,0.352484080
1640834855158249728,0.053951050,0.726127800,8.789461140,-0.042390830,-0.005534290,0.341518280
1640834855158710016,-0.302490120,0.415506690,10.478659630,-0.043912230,-0.185577540,0.355152760
1640834855163169792,-0.122667390,0.400764820,9.166013720,-0.042411690,-0.015120210,0.372608100
1640834855163640064,0.389504050,-0.110077310,8.798252110,-0.029276310,-0.067237010,0.330328880
1640834855168269824,-0.069012870,-0.139130370,9.931726460,-0.010927020,0.067079050,0.326006050
1640834855168800000,0.527462010,0.011620710,8.238474850,-0.019745530,-0.015005470,0.317129520
1640834855173289984,-0.113597050,-0.305267360,9.754279140,-0.026904050,-0.146926940,0.324700800
1640834855173849856,-0.100840140,0.025447590,8.402915000,-0.020124010,-0.025309620,0.337707940
1640834855178479872,-0.062577950,-0.181896700,8.999464990,0.013542170,-0.099346050,0.325199990
1640834855178989824,-0.541531440,-0.095236560,10.265877720,0.045803190,0.075347720,0.334052770
1640834855183179776,0.083740010,0.214828130,9.185550690,0.058884920,-0.003342330,0.304645300
1640834855183640064,-0.494158540,0.230063530,10.332310680,0.027902420,-0.091767320,0.314410030
1640834855188310016,-0.169458480,0.596332970,8.273646350,-0.002478060,-0.054942080,0.331555340
1640834855188750080,-0.212361200,0.309785070,8.510312080,0.036372250,-0.145703600,0.328473810
1640834855193440000,-0.360543340,0.433770180,9.031634330,0.057882080,0.037480900,0.346066150
1640834855194979840,0.187887070,0.484555960,9.156566620,0.061064950,-0.006714460,0.337152210
1640834855198489856,-0.223861550,0.110800110,11.001993180,0.042203070,-0.033448640,0.344541670
1640834855199089920,0.157986300,0.388256940,9.452251430,0.013056400,-0.045724210,0.334306090
1640834855203239936,-0.073890640,0.197527300,9.434580800,0.020693240,-0.152976830,0.336679820
1640834855203789824,-0.334829630,0.267004160,8.764589310,0.026287140,-0.036276880,0.335823030
1640834855208240128,-0.059993470,0.616072300,8.006731030,0.029692060,-0.085876890,0.315052300
1640834855208879872,-0.473617910,0.600470480,9.588050840,-0.012081860,-0.020736460,0.356218280
1640834855213340160,-0.093640370,0.680288020,9.322959900,-0.015985970,0.012578070,0.353673160
1640834855213819904,-0.291067480,0.565981030,10.526382450,-0.000736120,-0.136506590,0.342488380
1640834855218129920,-0.209887300,0.729171570,9.740825650,-0.016666950,-0.061157360,0.359256600
1640834855218569984,0.206965000,0.585388420,8.552597050,-0.030595060,-0.089266890,0.328636110
1640834855223259904,-0.016567970,0.425702900,9.266137120,-0.054344540,-0.020758810,0.322553520
1640834855223789824,0.424994530,0.449046310,8.297367100,-0.036042930,0.020186600,0.331452520
1640834855228719872,0.090415070,-0.013315090,9.452808380,-0.013254580,-0.098857290,0.329910250
1640834855229979904,-0.096019370,0.015420170,9.542953490,-0.010542570,-0.051799420,0.352101120
1640834855233149952,0.066105050,-0.190614880,9.005847930,-0.020881000,-0.105880220,0.330138300
1640834855233530112,-0.248740940,-0.304657190,9.972455020,-0.036944450,-0.012429060,0.311732320
1640834855238249984,0.114185360,0.055656030,9.024511340,-0.001330670,0.059017550,0.278832050
1640834855238829824,-0.075177810,0.103991630,9.476148610,0.000594560,-0.064553330,0.267963110
1640834855243219968,-0.212701370,0.363116800,8.998801230,0.012077390,-0.046071410,0.293931370
1640834855243779840,-0.096364070,0.360204880,8.117799760,0.012941660,-0.115859510,0.300024420
1640834855248279808,-0.381261050,0.171391410,9.400859830,0.003187360,-0.055673720,0.312980950
1640834855248849920,-0.008270910,0.159945410,9.121562960,0.035676360,0.072322790,0.284983220
1640834855253139968,0.086218420,-0.030990700,10.202118870,0.042563680,-0.026682020,0.236251950
1640834855253540096,0.013912940,0.044038040,10.082601550,0.051251060,-0.003518160,0.237646730
1640834855258159872,0.260528500,-0.035189890,8.459866520,0.046424580,-0.105066620,0.226211590
1640834855258579968,-0.247617930,-0.239724250,8.916347500,0.059933950,-0.104163590,0.247327980
1640834855263549952,-0.103506920,0.046663250,7.941088680,0.081361830,-0.004996360,0.248612480
1640834855264269824,-0.244480820,0.057445140,9.312026980,0.051119930,-0.031837820,0.234007850
1640834855268209920,-0.406643690,0.183995500,10.362395290,0.070090590,0.036647920,0.244662180
1640834855268709888,-0.051913340,0.395072340,9.624745370,0.090120730,-0.060437620,0.196102280
1640834855273169920,-0.362666960,0.650705400,10.105443950,0.062584880,-0.100280340,0.196422650
1640834855273619968,-0.049812940,0.882203220,8.477655410,0.040718920,-0.033740700,0.207655150
1640834855278210048,0.059999180,0.784380260,8.530012130,0.016358500,-0.074516220,0.175091590
1640834855279219968,-0.069103610,0.865302620,9.072166440,0.027081370,0.037461520,0.195376590
1640834855283139840,0.236863270,0.633655970,9.068853380,0.036601720,-0.009250640,0.195321460
1640834855283569920,-0.038589900,0.273867220,10.235593800,0.040547540,-0.081174070,0.193625660
1640834855288169984,0.161193270,0.390007700,9.311305050,0.001853700,-0.026036800,0.189879540
1640834855288579840,0.290900620,0.028321730,9.126962660,-0.037743150,-0.016994770,0.163340580
1640834855293249792,0.054436760,-0.046207480,9.581224440,0.010123850,0.024007260,0.131306020
1640834855293890048,0.197445300,0.372510050,8.611998560,0.024943060,0.005728010,0.112146150
1640834855298310144,-0.133744050,0.289377660,9.048510550,0.003549460,-0.067493320,0.142693520
1640834855300429824,-0.377831460,0.432594870,9.055503850,-0.025181470,-0.018887220,0.157848000
1640834855303569920,-0.119785570,0.421070640,8.751585010,-0.028823320,-0.012297930,0.153756160
1640834855304309760,-0.202388270,0.171838310,9.906609540,0.013378260,0.042900450,0.154669580
1640834855308179968,0.062910830,0.348374400,9.548829080,0.033277270,0.101687040,0.102426120
1640834855308800000,0.297203240,0.264492300,9.377388950,0.017070770,-0.050060450,0.085972250
1640834855313910016,0.057987690,0.230261150,9.085221290,-0.013065340,-0.003300610,0.115291770
1640834855316789760,0.288774490,0.024342550,7.844565870,-0.004817550,-0.001937150,0.092037020
1640834855318179840,-0.303426650,-0.267482490,9.395120620,0.035053480,-0.028826290,0.107957420
1640834855318670080,-0.199567020,-0.108308030,8.899714470,0.064106290,0.088447320,0.079587090
1640834855323109888,-0.053859040,-0.156256420,9.595340730,0.051592290,-0.021499400,0.039085750
1640834855323510016,-0.467245970,0.176045520,10.273343090,0.008930270,0.053064530,0.051389640
1640834855328460032,0.155362490,0.252248290,8.491831780,0.016282500,-0.003099440,0.042182210
1640834855329499904,-0.497548460,0.101320410,9.763990400,0.078597660,-0.057587030,0.056760020
1640834855334739968,-0.225249650,0.528315900,8.132678990,0.096672800,0.038266190,0.062900780
1640834855335350016,-0.202307610,0.341317620,8.836853030,0.064681470,-0.087757400,0.056982040
1640834855338579968,-0.492565240,0.369241300,9.718585970,0.018550460,0.073064870,0.052346300
1640834855339299840,0.346651940,0.453974460,8.952146530,0.022630400,0.022816660,0.011646750
1640834855343219968,-0.252177480,0.370272670,10.843742370,0.054271520,-0.005000830,0.005793570
1640834855344019968,0.282093020,0.591731430,8.843914990,0.058884930,0.036527220,0.011479860
1640834855348219904,0.110166030,0.440777240,9.046553610,0.046528880,-0.118148330,-0.013582410
1640834855348839936,-0.377501790,0.527912740,8.860389710,0.000953670,0.037512190,0.009569530
1640834855353209856,0.017272530,0.440097510,8.262683870,-0.019007920,-0.023543840,0.001387300
1640834855353920000,-0.721135380,0.329071160,10.212084770,0.014993550,-0.024987760,-0.010703500
1640834855358449920,-0.118988100,0.567616340,9.060387610,-0.005033610,0.028091670,-0.013168160
1640834855359589888,-0.165309000,0.384940800,9.947578430,-0.000058110,-0.025171040,-0.020261110
1640834855363149824,-0.240186740,0.335211370,9.725841520,0.008542840,0.024184580,-0.056865820
1640834855363510016,0.211556760,0.534028230,8.615219120,-0.022444130,-0.067368130,-0.058476620
1640834855369459968,-0.120336750,0.335796950,8.902066230,-0.006143750,-0.021299720,-0.033244490
1640834855370289920,0.101026890,0.237725960,8.480851170,-0.038714710,-0.001700220,-0.035522880
1640834855373420032,0.044540170,0.259433000,9.243054390,-0.003032390,-0.009772180,-0.020976360
1640834855373969920,-0.006292920,-0.026707540,9.596883770,-0.007370120,0.027649110,-0.046296420
1640834855378929920,0.096786410,0.137142150,9.620655060,-0.017166140,-0.022208690,-0.096410510
1640834855379680000,-0.051649850,0.212337000,9.367493630,-0.004433100,-0.007694960,-0.108227140
1640834855383200000,-0.139171670,0.130363720,8.886192320,-0.024847690,-0.025615100,-0.102327760
1640834855383569920,-0.319656880,0.198283840,8.729442600,0.029747190,-0.023800130,-0.092396150
1640834855388310016,-0.480294820,0.138800840,8.716005330,0.025665760,-0.061485180,-0.083838400
1640834855389079808,-0.390580950,0.106258780,8.917851450,0.003264840,-0.020101660,-0.085090090
1640834855393990144,-0.153753300,0.068618870,9.296327590,0.009143350,0.028020140,-0.113706290
1640834855394589952,-0.095820120,0.125183120,9.971661570,-0.000983480,-0.001776220,-0.140465810
1640834855398190080,0.273937460,0.189206590,9.339587210,0.045298040,-0.005063420,-0.123216220
1640834855398690048,0.082485300,0.070567560,9.218626020,0.064645720,-0.066576900,-0.125931190
1640834855403229952,-0.070955020,0.129385370,8.712873460,0.043512890,-0.070178510,-0.124676550
1640834855403950080,-0.095321310,0.189387320,8.369870190,0.026148560,-0.063051290,-0.121131540
1640834855409379840,-0.342359010,0.122792770,9.072577480,0.014603140,0.001226370,-0.148749350
1640834855410109952,-0.095355660,0.423534780,9.611057280,0.036741800,0.011661650,-0.169140120
1640834855413619968,-0.296412740,0.660547140,10.063274380,0.034315880,-0.007319450,-0.172272290
1640834855414409984,-0.159675390,0.513178230,9.603219030,0.016492610,-0.067126760,-0.169463460
1640834855418159872,-0.297609510,0.622424960,9.195261000,0.037553910,-0.093522670,-0.169762970
1640834855418729984,-0.278052630,0.590043490,8.248952870,0.005632640,-0.053808100,-0.176425280
1640834855423489792,-0.169190140,0.395944390,8.848021510,-0.019820040,-0.035113100,-0.154699400
1640834855424589824,-0.249045100,0.410006700,9.481872560,0.012187660,0.024032590,-0.170196590
1640834855428140032,0.147889050,0.276708130,9.657114980,-0.021030010,-0.068773330,-0.179931520
1640834855428560128,0.001842020,0.358887370,10.142178540,-0.008647140,-0.043770670,-0.173726690
1640834855433129984,0.243096080,0.249980760,9.020335200,-0.023195150,-0.030937790,-0.231452320
1640834855433809920,0.044496650,0.404431820,9.350941660,-0.037913030,-0.086814170,-0.224906240
1640834855439020032,-0.163055240,0.511221830,8.747841840,-0.021602210,0.005003810,-0.204037170
1640834855439980032,-0.107812050,0.276562600,8.749758720,-0.040753190,-0.093308090,-0.217704490
1640834855443290112,-0.449797510,0.569508550,9.412069320,-0.029742720,-0.043161220,-0.179480020
1640834855443879936,-0.045809820,0.256747840,8.794077870,-0.060649210,0.004130600,-0.216521340
1640834855448310016,-0.176756650,0.108442840,10.084999080,-0.043973330,-0.028796500,-0.232966290
1640834855448900096,-0.018837390,0.397192180,9.500460620,-0.012117620,0.002384190,-0.245347620
1640834855453289984,0.205314000,0.098230010,8.912614820,-0.047461680,-0.096829220,-0.241434560
1640834855454129920,-0.155420330,0.049406280,9.169328690,-0.036802890,-0.054711110,-0.220964850
1640834855458279936,0.195000920,-0.052878690,8.066581730,-0.031787160,-0.014364720,-0.232176530
1640834855458939904,-0.129455310,-0.282642100,9.387358670,-0.000047680,-0.045280150,-0.225368130
1640834855463849984,-0.075195320,-0.016047780,9.474396710,0.017613180,0.032335530,-0.266505870
1640834855464329984,0.169659640,0.192882420,9.232589720,-0.032182040,-0.056314470,-0.295032560
1640834855468179968,-0.231481180,0.145788830,10.157897950,-0.029197340,-0.018894670,-0.270618500
1640834855468649984,-0.031160390,0.186240490,8.811942100,0.016966460,0.005525350,-0.287327170
1640834855473179904,-0.319151370,0.145001950,9.047517780,0.060181320,-0.128832460,-0.290723120
1640834855473739776,-0.510815740,0.324381620,8.776632310,0.027842820,-0.025278330,-0.262624030
1640834855478329856,-0.178057450,0.254370780,8.248991970,-0.034046180,-0.021439790,-0.292584300
1640834855479140096,-0.388409640,0.149539800,10.193447110,-0.022427740,-0.037656720,-0.291235770
1640834855483510016,0.016736140,0.346569120,9.539233210,0.017870960,0.039267540,-0.296211240
1640834855484390144,0.179629430,0.107494650,9.844894410,0.065766280,-0.088194010,-0.320987430
1640834855488199936,-0.151754680,0.308616580,9.943103790,0.040708480,-0.040830670,-0.305549830
1640834855488659968,0.225868120,0.461715790,8.069313050,-0.015987460,-0.074221200,-0.319181380
1640834855493270016,-0.249445070,0.242512850,9.291712760,-0.030215090,-0.093510750,-0.307826730
1640834855493850112,-0.193739970,0.634122550,8.681321140,-0.007623430,0.023283070,-0.309726660
1640834855498370048,0.107527150,0.522159040,9.198893550,-0.001688300,-0.067052250,-0.318010150
1640834855499079936,-0.334752590,0.447837410,10.484292980,-0.000596050,0.024086240,-0.304725800
1640834855503320064,0.159695610,0.569940390,9.177874570,-0.016203520,-0.031660500,-0.336240260
1640834855504160000,-0.315007030,0.386387770,10.044600490,-0.045552860,-0.136567700,-0.331187310
1640834855508199936,-0.232062790,0.459579710,8.501007080,-0.062564010,-0.023356080,-0.320850310
1640834855508739840,0.118894050,0.052364190,8.263975140,-0.022646790,-0.070267920,-0.337921110
1640834855513149952,-0.364198120,0.057926200,9.478573800,0.024680790,0.022570790,-0.312627850
1640834855513799936,0.335161120,0.157314690,8.705740930,-0.014667210,0.000648200,-0.317083300
1640834855518589952,0.094581970,-0.118595720,10.157192230,-0.044110420,-0.065727540,-0.327238470
1640834855519800064,0.192120160,0.098051520,9.511319160,-0.045003000,-0.001175700,-0.345510240
1640834855523239936,0.417468040,0.068359910,9.003754620,-0.000704820,-0.043801970,-0.346200200
1640834855523639808,-0.222054820,-0.029368400,9.509847640,0.057072940,-0.001491610,-0.352627070
1640834855528290048,-0.011096030,0.350631270,8.410442350,0.014996530,-0.028473140,-0.367659330
1640834855529169920,-0.383852150,0.332270380,8.970161440,-0.040303170,-0.059665740,-0.345160100
1640834855533469952,-0.524277030,0.174001310,9.178156850,-0.047236690,-0.003059210,-0.366477760
1640834855534319872,-0.140611010,0.384930850,9.172988890,0.017093120,-0.029239060,-0.391000540
1640834855538400000,-0.249594120,0.255273340,9.912616730,0.050461300,0.011561810,-0.363838760
1640834855539180032,0.098275420,0.193064240,9.615218160,0.012385850,0.026552380,-0.358943700
1640834855543170048,-0.038754630,0.128615300,9.442575450,0.013117490,-0.069482620,-0.355079800
1640834855543569920,-0.191140950,-0.046849870,8.926385880,-0.000761450,-0.085201860,-0.350625840
1640834855548290048,-0.005055220,0.165831740,8.356883050,0.013366340,-0.053313390,-0.388452440
1640834855549059840,-0.245279890,0.320346330,9.177407260,0.007253880,-0.011189280,-0.395922390
1640834855553339904,-0.017210710,0.546172560,9.707420350,-0.026960670,0.034330790,-0.386945990
1640834855553949952,0.041665700,0.598904790,10.008716580,0.002557040,-0.013102590,-0.388807150
1640834855558199808,-0.047593560,0.580419000,10.007641790,-0.005760790,-0.061650580,-0.380526540
1640834855558789888,0.056010280,0.738321360,8.891330720,-0.010177500,-0.065909340,-0.373992410
1640834855563239936,-0.214655440,0.536018070,8.773259160,-0.036005680,-0.060772900,-0.372570840
1640834855563750144,-0.155386150,0.410917670,8.712668420,-0.061415140,-0.008259720,-0.368671180
1640834855569079808,0.071544080,0.330744480,8.880327220,-0.030992930,0.014364720,-0.370104700
1640834855569809920,0.000547810,0.143353570,9.904347420,-0.047759720,0.021334000,-0.372123810
1640834855573299968,0.225508290,0.151553570,9.745759010,-0.028003760,-0.006654860,-0.379991620
1640834855573799936,0.110164410,0.126319330,9.677776340,-0.036974250,-0.075468420,-0.391645760
1640834855578169856,0.139045910,0.148218070,9.065135960,-0.071130710,-0.019191210,-0.383123840
1640834855579840000,0.196309630,0.060198340,8.633448600,-0.025989120,0.018769500,-0.384712280
1640834855583389952,-0.000225940,0.081293720,9.047358510,-0.027722120,0.029626490,-0.393861560
1640834855584169984,0.045952310,0.254432110,9.064402580,-0.018604100,0.018940870,-0.378960430
1640834855588239872,-0.170403790,0.225622420,9.432209010,-0.020217900,-0.019185250,-0.389486640
1640834855588719872,-0.154255150,0.273684740,9.469978330,-0.055228180,-0.038857760,-0.400234790
1640834855593929984,-0.092488140,0.257534920,9.363605500,-0.032901770,0.029796360,-0.378137830
1640834855594459904,0.007880130,-0.102714910,9.383096690,0.005304810,0.075638300,-0.388425590
1640834855598240000,-0.202276890,-0.141767490,9.706204410,0.067380080,-0.000582640,-0.388167800
1640834855599129856,-0.216357780,0.088067070,8.869657520,0.018496820,-0.057850790,-0.380334350
1640834855603249920,-0.151321190,-0.156808510,8.517034530,-0.051149740,-0.068998340,-0.382088120
1640834855603999744,-0.245039090,-0.025284370,9.154097560,-0.017094610,0.040593740,-0.393600790
1640834855608269824,0.017332430,0.195847870,9.462048530,0.040735300,0.079496210,-0.410133630
1640834855608950016,-0.219040710,0.241372020,10.739957810,0.081926590,-0.003595650,-0.397984770
1640834855613250048,-0.071924370,0.600517330,9.647742270,0.033907590,-0.036802890,-0.400579010
1640834855613949952,-0.135118770,0.510502400,8.938950540,-0.029836600,-0.113241380,-0.386106970
1640834855618170112,-0.409869940,0.498947410,8.870215420,-0.016993280,-0.003118810,-0.374220340
1640834855618619904,-0.082369160,0.582146410,8.419748310,0.013566020,0.008288030,-0.405471090
1640834855623270144,-0.224154310,0.644947890,9.966669080,0.022087990,-0.008608400,-0.372847940
1640834855623669760,0.120334890,0.677334010,9.668188100,-0.029791900,0.066904720,-0.365382460
1640834855628219904,0.090464080,0.267702010,10.144356730,-0.034618380,-0.085550570,-0.379289780
1640834855628809984,-0.213524400,0.323784830,9.935038570,-0.008177760,-0.054296860,-0.365793760
1640834855633549824,0.253735990,0.280783980,8.180335040,-0.020645560,-0.038734080,-0.390994640
1640834855634269952,-0.211263370,0.114070650,9.473944660,-0.026109820,-0.011453030,-0.387750600
1640834855638309888,0.102881570,0.474632140,8.732743260,-0.047004230,0.090542440,-0.394947830
1640834855639139840,0.083012120,0.286790460,9.529065130,-0.043968860,-0.068086390,-0.381787180
1640834855643219968,-0.266189930,0.428982880,10.122560500,-0.039926180,-0.006943940,-0.359314740
1640834855643940096,0.251014470,0.423321810,8.773822780,-0.035183140,-0.049176820,-0.381244810
1640834855648189952,-0.193793540,0.162466150,10.104754450,-0.024889410,-0.011178850,-0.359249090
1640834855648759808,0.173434030,0.219751970,8.999666210,-0.019510090,0.115107000,-0.380574200
1640834855653149952,0.212738570,-0.061803040,9.346115110,-0.005643070,-0.045819580,-0.385345520
1640834855653590016,-0.135860200,0.042417970,9.427378650,-0.020793080,0.025336450,-0.355783100
1640834855658739968,0.322781060,-0.121778100,8.065886500,-0.022375580,-0.011505190,-0.367480550
1640834855659399936,-0.321972730,-0.329297210,9.962951660,0.007379060,-0.015355650,-0.353184340
1640834855663439872,0.010924840,0.050374010,9.259355550,0.026386980,0.101028400,-0.369396900
1640834855664460032,0.077614890,-0.154646710,9.921326640,0.042749940,-0.007733700,-0.390705470
1640834855668459776,-0.193591100,0.079667440,10.118443490,0.037860870,0.057296450,-0.391982500
1640834855668920064,0.226471540,0.182376130,8.337849620,0.054444380,0.000776350,-0.402362700
1640834855673289984,-0.463251680,-0.000227990,9.349093440,0.071029370,-0.049255800,-0.363810420
1640834855673819904,-0.246993270,0.323325130,8.352695470,0.070171070,0.037196280,-0.356723460
1640834855678350080,-0.179680170,0.144933160,9.067814830,0.053384900,-0.027757890,-0.361591580
1640834855679950080,-0.289475230,0.073093230,10.269490240,0.054307290,0.111687210,-0.355233250
1640834855683310080,0.184326830,0.070604570,9.777810100,0.109718750,0.069418560,-0.392790140
1640834855684150016,-0.171021390,0.054179660,10.453205110,0.114436450,-0.065742440,-0.400862100
1640834855688150016,0.100044560,0.389555360,8.605436330,0.068856780,-0.004388390,-0.381140470
1640834855688549888,0.017587540,0.165396110,8.293982510,0.049179800,-0.027322770,-0.381021230
1640834855693229824,-0.429670420,0.372380670,9.402940750,0.053805110,0.043685730,-0.361755520
1640834855693909760,-0.094514090,0.566229640,9.057408330,0.097195820,0.026184320,-0.372748080
1640834855698200064,-0.381623060,0.499699210,10.455273630,0.077800450,-0.026160480,-0.384472250
1640834855698749952,-0.234925400,0.947484490,9.973122600,0.039915750,0.038556750,-0.381773800
1640834855705449728,-0.108795380,0.798507510,9.492211340,-0.003805760,-0.058859600,-0.382666290
1640834855705949952,-0.225412470,0.697472210,9.527269360,0.002674760,-0.005856160,-0.383953750
1640834855708139776,0.198914770,0.848853710,8.338419910,0.046600400,0.027221450,-0.394722850
1640834855709080064,-0.120722940,0.728184340,9.450198170,-0.008262700,-0.014609100,-0.359606800
1640834855714360064,-0.053629770,0.656902490,9.455336570,-0.051355370,0.032287830,-0.331900950
1640834855715079936,0.020711990,0.401713970,9.674771310,-0.070612130,-0.060322890,-0.348766150
1640834855718679808,-0.177302440,0.307894530,10.201382640,-0.051622090,-0.006800890,-0.336143400
1640834855720979968,0.270056460,0.235296490,9.120686530,-0.004446510,0.050026190,-0.371676740
1640834855723179776,0.004331400,0.269262160,9.753978730,-0.037163500,-0.001013280,-0.392988350
1640834855723599872,0.047335250,0.634678180,9.008351330,-0.074920070,0.020651520,-0.369292560
1640834855728299776,0.080461880,0.333472610,8.605437280,-0.114743410,-0.047312680,-0.374044510
1640834855728940032,-0.373262940,0.310509230,9.540765760,-0.059968230,-0.001984830,-0.352792440
1640834855733189888,-0.057157700,0.389863940,9.068006520,-0.016433000,0.033938890,-0.344659390
1640834855734180096,-0.071773150,0.180805580,10.084752080,-0.058886410,0.022728740,-0.359725950
1640834855738230016,0.046089120,0.186365410,10.010363580,-0.070296250,0.098741070,-0.355941120
1640834855738649856,0.342805420,-0.079356630,9.219944000,-0.056457530,0.005453830,-0.372022390
1640834855743199744,-0.083314400,-0.177319900,9.503282550,-0.011532010,-0.032863020,-0.352254510
1640834855743670016,0.151550550,-0.127069640,8.037261960,0.010776520,0.021186470,-0.344543190
1640834855748199936,-0.168903770,-0.225788520,9.082062720,-0.018690530,-0.012479720,-0.350065590
1640834855748770048,-0.415112910,-0.118321950,9.827109340,-0.028733910,0.086702420,-0.343677490
1640834855754370048,0.084226380,-0.121346210,9.506938930,-0.002896790,0.024658440,-0.396238210
1640834855755040000,-0.428377840,0.091836520,10.695765500,0.051172070,0.007297100,-0.395025250
1640834855758269952,-0.028373650,0.440127580,8.879618640,0.053538390,0.035493080,-0.364060760
1640834855759169792,-0.207023740,0.245277760,9.122677800,0.018581740,-0.072595480,-0.336456300
1640834855763209728,-0.449197590,0.234024200,9.039834020,0.035353000,0.047999610,-0.304546920
1640834855763719936,0.126744390,0.098577850,8.469195370,0.050307810,-0.012180210,-0.318370760
1640834855769319936,-0.439935510,-0.051846550,10.553072930,0.086227060,0.015677510,-0.336548720
1640834855770339840,0.153133410,0.265204610,9.351472850,0.060372060,0.055065760,-0.374120530
1640834855773440000,0.090570290,0.282829200,10.225334170,0.016762320,-0.066010650,-0.370681290
1640834855775509760,-0.258169140,0.376808580,9.858584400,0.030617420,0.055517260,-0.348441330
1640834855778159872,0.168910920,0.503883900,8.537117960,0.060509160,-0.078281760,-0.368441640
1640834855778649856,-0.608017560,0.700205680,9.731213570,0.060702860,-0.050307810,-0.339920850
1640834855783279872,-0.139368610,0.858289180,8.352422710,-0.010468070,0.047861040,-0.331893560
1640834855784509952,-0.345545260,0.632876160,10.200260160,-0.029385090,-0.055469570,-0.339505110
1640834855788280064,-0.384264920,0.855515120,10.329348560,-0.011645260,0.074064730,-0.323365690
1640834855788839936,0.391405170,0.752536830,9.382592200,-0.013689700,-0.044672200,-0.345027540
1640834855793689856,-0.167498190,0.601826310,10.486856460,-0.013205410,-0.008082390,-0.344863560
1640834855794240000,0.346569270,0.717122550,8.323602680,-0.056539480,0.018806760,-0.354409280
1640834855798159872,-0.042703710,0.357314170,9.317715640,-0.070489940,-0.089539590,-0.335679980
1640834855798609920,-0.323109950,0.313437670,9.258672710,-0.055277340,0.034973030,-0.334198770
1640834855803609856,0.242464200,0.377674040,8.927258490,-0.072574620,-0.029842560,-0.333951410
1640834855804659968,-0.347679850,0.240453380,10.835421560,-0.075489280,0.043347480,-0.306014720
1640834855808379904,0.249689740,0.245525930,9.503178600,-0.069540750,0.063486400,-0.348214810
1640834855809120000,0.071748250,0.294802930,9.950571060,-0.045214600,-0.084301840,-0.351028230
1640834855813289984,-0.063667240,0.474775020,8.923196790,-0.069026650,0.028762220,-0.325576990
1640834855813890048,0.295205270,0.281572700,8.247177120,-0.089365230,-0.029978160,-0.324761810
1640834855820539904,-0.432199150,0.127146680,9.700951580,-0.063118340,0.013965370,-0.300836650
1640834855821349888,0.114114580,0.160948140,8.938301090,-0.044094020,0.043140360,-0.310443340
1640834855824110080,-0.097079920,-0.015586780,10.281047820,-0.040841110,-0.000125170,-0.341686610
1640834855824920064,-0.192980170,0.181738420,9.956869130,-0.049936770,0.052528090,-0.357212130
1640834855828300032,0.191550210,0.139216810,9.141644480,-0.052393980,-0.034084920,-0.356560950
1640834855828989952,-0.363613370,-0.128612470,9.473867420,-0.007568300,0.001268090,-0.331203610
1640834855833119744,-0.111335210,-0.157728930,8.438714980,0.032067310,-0.006993120,-0.321386750
1640834855834739968,-0.382184030,-0.245373250,9.247591020,0.033962730,-0.048144160,-0.314730410
1640834855839340032,-0.319887580,-0.149429620,9.328475950,-0.012701750,0.049461430,-0.324237350
1640834855840989952,0.010276080,-0.040918140,9.825609210,-0.004722180,0.002197920,-0.355851650
1640834855843209984,-0.169396090,0.178064380,10.230248450,0.027672950,0.027062000,-0.359755840
1640834855843719936,0.199330570,0.443470810,9.431280140,0.047428910,-0.022381550,-0.352199410
1640834855848219904,-0.048404910,0.516687810,9.408779140,0.063250960,-0.060701380,-0.330601660
1640834855848659968,-0.157626610,0.631919150,8.681145670,0.017616150,-0.033915040,-0.312651720
1640834855853329920,-0.184533340,0.492787930,9.011607170,0.006034970,-0.038012860,-0.305971530
1640834855854409984,-0.379664720,0.343792800,9.542208670,0.015845890,0.022076080,-0.317810540
1640834855858299904,-0.180136310,0.335188270,9.986527440,0.038270660,-0.010667740,-0.331453980
1640834855859089920,-0.239121090,0.349993410,10.240792270,0.031876560,-0.007463990,-0.326770540
1640834855863289856,-0.086333380,0.369349240,9.531354900,-0.008021300,-0.055146220,-0.340700180
1640834855863869952,-0.033554360,0.462309030,9.252326010,-0.014621020,-0.063648810,-0.327298020
1640834855868169984,-0.060743970,0.541804670,8.792159080,-0.023052100,-0.007478890,-0.324267180
1640834855868640000,0.016229160,0.549012060,9.341670990,-0.015334790,-0.035989280,-0.300470020
1640834855873969920,-0.002417080,0.696754570,9.558467860,-0.013144320,-0.006289780,-0.286465940
1640834855874699776,0.176103760,0.657279730,9.616260530,-0.059336420,-0.030004980,-0.292466580
1640834855878219776,0.145517470,0.515315710,10.072283740,-0.059369210,0.005896390,-0.301752980
1640834855879020032,0.122274760,0.559349600,9.332908630,-0.047537680,-0.018082560,-0.338494780
1640834855884089856,-0.030223040,0.483128670,9.394732480,-0.048810240,-0.070597230,-0.319227550
1640834855884829952,-0.135082040,0.427300240,8.741929050,-0.066031520,0.008368490,-0.296972690
1640834855888199936,-0.133309420,0.146752510,8.990894320,-0.085221240,-0.045019380,-0.296576320
1640834855888819968,-0.179651380,0.010887020,9.707933430,-0.064849850,0.030002000,-0.271347170
1640834855893230080,0.141998990,-0.139406140,9.261057850,-0.041854380,0.036087630,-0.319983040
1640834855893829888,0.041290920,-0.062836300,10.368260380,-0.030559300,-0.032131380,-0.333519220
1640834855898180096,0.148833510,0.264212130,9.207781790,-0.061799580,0.039154290,-0.321021650
1640834855898659840,0.142424720,-0.000096400,9.024217610,-0.064341730,-0.075554850,-0.309231910
1640834855903429888,-0.169993060,0.100818230,9.237886430,-0.008973480,0.004330280,-0.290969010
1640834855904569856,0.103553500,0.133342880,8.301921840,-0.002686680,0.005497040,-0.312286620
1640834855908310016,-0.303475830,-0.054553260,10.131100650,-0.005337600,-0.012767320,-0.304937390
1640834855908869888,-0.007385010,0.287013020,9.289398190,-0.029845540,0.066362320,-0.335480300
1640834855913199872,0.098115350,0.071983840,9.716752050,-0.032109020,-0.054281950,-0.336156820
1640834855913869824,-0.222728310,0.088801960,10.047430040,0.007200240,0.059577820,-0.309875640
1640834855918329856,0.021864200,0.047107190,8.646687510,0.055521730,-0.049233440,-0.325547190
1640834855919809792,-0.517513630,-0.071008940,9.699424740,0.048543520,-0.106117140,-0.297817680
1640834855923120128,-0.174616320,0.264187370,8.246208190,-0.013369320,0.044994060,-0.307866930
1640834855923549952,-0.167022850,-0.020761150,9.596183780,-0.025348370,-0.043080750,-0.328967010
1640834855928259840,-0.343750420,0.361585380,10.541270260,0.016167760,0.074110920,-0.323708330
1640834855928769792,0.296862420,0.583738630,9.294548990,0.038397320,-0.039926170,-0.332750410
1640834855933250048,-0.227847980,0.496316790,10.553792000,0.033921000,-0.090250370,-0.312712820
1640834855934360064,0.123909370,0.905031620,8.461759570,-0.024819380,0.007164480,-0.310859110
1640834855938880000,-0.026511900,0.528764550,9.073920250,-0.035637620,-0.108389560,-0.294993820
1640834855939469824,-0.425784890,0.429076940,9.703164100,-0.007112320,0.030839440,-0.279615760
1640834855943159808,0.216411830,0.536957030,8.668233870,-0.000777840,-0.043351960,-0.300794900
1640834855943869952,-0.243461500,0.301644650,10.791937830,-0.024317200,-0.026528540,-0.277400020
1640834855948320000,0.235752050,0.330920790,9.355587960,-0.059388580,0.078971680,-0.305515530
1640834855949070080,0.167567340,0.171960130,9.884240150,-0.037796800,-0.133840750,-0.342129230
1640834855954469888,-0.307765250,0.311170820,9.707949640,-0.027281050,-0.012072920,-0.310662420
1640834855955479808,0.256415720,0.385705230,7.789911270,-0.035309800,-0.060491260,-0.316450030
