timestamp,accel_x,accel_y,accel_z,gyro_x,gyro_y,gyro_z
1640837313649939968,-0.084552540,0.316132130,10.541176800,0.059354310,0.032879410,0.021223730
1640837313651969792,0.248100980,0.220992330,9.332551000,0.014862420,-0.080424550,0.017546120
1640837313653019904,0.021720480,-0.033461040,9.521158220,-0.023734570,-0.048370660,0.005389750
1640837313653420032,0.098569650,-0.051084080,9.025444030,-0.019139050,0.066107520,-0.023165350
1640837313657559808,0.277799730,-0.015731380,9.626213070,0.011423230,0.047357380,-0.039322680
1640837313662099712,-0.176861420,0.103559300,10.335845950,0.041063130,0.068153450,-0.022347270
1640837313662690048,-0.167850270,0.191154940,9.860235210,0.013720990,-0.057959560,-0.003798310
1640837313663059968,-0.444075730,0.073786580,9.780168530,0.011913480,-0.093862420,0.013208390
1640837313667480064,-0.567393960,0.010199160,9.065961840,0.031390790,-0.000019370,0.003235040
1640837313669349888,-0.377145980,-0.033894570,9.634368900,0.046825410,0.037014490,0.001361970
1640837313673489920,-0.424739390,-0.079486790,10.484227180,0.093166530,0.060920430,-0.013285880
1640837313676590080,0.062582200,0.269287020,9.930671690,0.061519440,-0.030788780,-0.023892520
1640837313677229824,0.300954850,0.408989670,9.692907330,-0.017744300,-0.023470820,0.014095010
1640837313677629952,0.282553400,0.137172150,9.453594210,-0.007809700,0.028507420,0.028374790
1640837313682429952,0.256801810,0.099316780,9.844262120,0.088235750,-0.021143260,-0.002454220
1640837313682889984,-0.145534170,0.179982010,10.001037600,0.118143870,-0.009338560,-0.010059770
1640837313687470080,-0.245390920,0.289884690,9.623602870,0.054854150,-0.051787500,0.001603370
1640837313692979712,-0.442524820,0.389590440,10.096380230,-0.030653180,-0.024165210,-0.004124640
1640837313694209792,-0.570383970,0.424112950,9.893231390,-0.032965840,0.012806060,0.008927290
1640837313696529920,-0.274619280,0.476401060,9.886590000,0.021798910,-0.041791800,0.021207330
1640837313697280000,-0.191000150,0.289062140,9.923357960,0.096823280,0.012588500,0.007331370
1640837313698079744,0.172451660,0.362282660,9.442085270,0.075919930,-0.007367130,-0.003883240
1640837313704239872,0.273382430,0.391666110,9.928796770,-0.022262340,-0.000153480,0.014115870
1640837313705009920,0.193860260,0.030616100,9.795533180,-0.074708470,0.009466710,0.018800800
1640837313707360000,0.316674320,-0.088019420,9.623034480,0.018928950,-0.056882210,0.012122090
1640837313708889856,-0.015971350,-0.139507830,9.834989550,0.107264530,-0.003254410,-0.000466410
1640837313715139840,-0.066622440,-0.036722190,9.334506990,0.065593420,0.023053590,0.008262690
1640837313715600128,-0.238087160,-0.000428370,9.967437740,0.007541480,-0.024065380,0.026038290
1640837313717190144,-0.412459020,-0.126153590,9.969171520,-0.003498790,0.008049610,0.009067360
1640837313718459904,-0.049305990,0.129048880,9.432593350,0.039835270,-0.040008120,0.010058280
1640837313722970112,-0.257866980,0.124176100,10.210636140,0.091797120,0.026145580,0.001430510
1640837313724549888,0.004103400,0.156364370,9.710117340,0.087794680,0.048549480,-0.012819470
1640837313727579904,0.072746590,0.402832300,9.951943400,0.062054400,-0.047668810,-0.000740590
1640837313729719808,-0.184540760,0.316507220,9.876001360,0.010947880,0.007677080,0.022602080
1640837313732239872,0.175428720,0.373230280,9.185375210,0.010879340,-0.028385220,0.017219780
1640837313732829696,-0.236552450,0.546570600,10.150378230,0.062990200,-0.053489220,0.001578030
1640837313737360128,-0.015971710,0.536884490,9.423835750,0.020281970,0.045348700,0.016163290
1640837313737829888,0.198017630,0.297208280,9.895324710,0.022667650,0.033093990,0.033654280
1640837313742220032,-0.256761100,0.001530200,11.072653770,0.073796500,0.046803050,0.018593670
1640837313743010048,0.032349960,0.041472370,9.678973200,0.054003310,-0.058379780,0.024530290
1640837313747299840,-0.203179480,-0.014971390,9.590549470,0.030843920,-0.106970970,0.025029480
1640837313749080064,-0.140912740,-0.121107390,9.136438370,-0.010088090,0.076176230,-0.013421480
1640837313752499712,0.193883480,0.084640460,9.229157450,0.030787290,0.058966880,-0.013901290
1640837313754889984,-0.219421790,0.189526140,10.595804210,0.085634000,0.023782250,-0.014862420
1640837313757139968,0.213492960,0.275614530,9.604969980,0.043357910,0.015984480,0.013661390
1640837313757499904,-0.117746110,0.225361270,10.003876690,0.056059650,-0.085906680,0.042711200
1640837313762599936,-0.504617690,-0.069502380,9.886010170,0.048199300,-0.013020640,0.026348230
1640837313763259904,-0.011857040,0.012307100,8.860002520,0.047558550,0.001704690,0.010931490
1640837313767949824,-0.304887060,-0.054642030,10.319182400,0.104367730,0.031095740,-0.001043080
1640837313769159936,0.161584230,0.173443820,9.881202700,0.073160240,0.105145570,-0.012253230
1640837313772270080,0.243078870,0.475386620,10.026817320,0.029635430,-0.040639940,0.009819860
1640837313772849920,-0.013552610,0.274185030,10.265885350,0.029362740,-0.014778970,0.031472740
1640837313777659904,0.341823670,0.252109230,8.910864830,0.058755280,0.001142920,-0.002190470
1640837313779640064,-0.290035720,0.297450540,9.976845740,0.114607810,-0.037458540,-0.005429980
1640837313782279936,-0.338227810,0.257695530,9.827593800,0.072327240,0.067736200,-0.000017880
1640837313783889920,-0.240638610,0.389010640,9.746683120,0.015012920,-0.034463410,-0.002159180
1640837313787859968,-0.627156560,0.377534780,10.550626750,0.004629790,-0.034976000,0.024071340
1640837313789440000,0.039763960,0.393657540,9.089727400,-0.006991630,0.051228710,0.033879280
1640837313792589824,0.000973140,0.274131180,9.954659460,0.054746870,-0.011022390,0.019566710
1640837313794710016,0.121495380,0.152382870,10.125459670,0.091141460,0.058403610,0.009098650
1640837313797259776,0.663009760,0.212721570,9.060178760,0.055225190,-0.001290440,0.007554890
1640837313802259968,0.117377710,-0.084387560,10.355045320,0.003692510,0.004288550,0.018696490
1640837313804000000,0.254996720,-0.147872630,9.489231110,0.004589560,0.070092080,0.010959800
1640837313804559872,-0.119002790,-0.077218700,9.689089780,0.060395900,-0.092339520,-0.011749570
1640837313807129856,-0.526996310,0.017006480,9.746779440,0.061692310,0.023782260,-0.013536210
1640837313807610112,-0.212149990,0.332778540,8.917503360,0.048942880,0.038921830,-0.023563210
1640837313812280064,-0.812081630,0.390163240,10.810966490,0.034363570,-0.031176210,-0.012588500
1640837313813019904,-0.259417560,0.646981060,9.665139200,0.012533370,0.048607590,0.014752150
1640837313817679872,0.052652790,0.586526870,9.751619340,0.018428270,-0.010518730,0.022970140
1640837313821760000,-0.212256330,0.339707760,10.794324870,0.047947470,0.067584220,0.016038120
1640837313822160128,0.368367940,0.479548040,9.189081190,0.056570770,-0.010792910,0.001409650
1640837313822939904,-0.010983940,0.271693050,10.020338060,0.007277730,-0.095753380,-0.010845070
1640837313827559936,0.132573200,0.218317120,9.234025000,-0.033055250,0.074099010,-0.010015070
1640837313829339904,0.268572390,0.280288550,9.363372800,-0.010508300,-0.008895990,-0.016735490
1640837313833210112,-0.276539390,0.159313160,10.633635520,-0.002639000,0.036917630,0.000713770
1640837313835990016,0.245270370,0.261671330,9.211354260,0.001358990,0.059205300,0.029927490
1640837313837209856,-0.211667510,0.025522920,10.563254360,0.021407010,-0.057516980,0.024591390
1640837313839160064,-0.353103040,0.023161770,9.864703180,0.010533630,0.036980210,0.015656650
1640837313842159872,0.035286350,0.014815760,8.914247510,0.005823370,-0.032636530,0.006823240
1640837313842850048,-0.406683330,-0.100068550,10.355746270,0.014099480,0.039397180,-0.023232400
1640837313848329984,0.105371410,0.173306550,9.003746030,0.015121700,0.089801840,-0.020371370
1640837313850800128,0.007857890,0.268980290,10.116517070,0.009512900,-0.039771200,-0.012604890
1640837313853509888,-0.165554310,0.194711060,10.019316670,0.001537800,0.063809750,0.009189550
1640837313854699776,0.221017820,0.253523080,9.289508820,0.035628680,-0.046665970,0.007621950
1640837313857489920,-0.197943430,0.138292800,10.391846660,0.034363570,0.006890300,0.010934470
1640837313857990144,0.081348220,0.115314390,9.355320930,0.007632380,0.110499580,0.011551380
1640837313862949888,-0.010154700,0.117060540,10.434284210,0.033473970,-0.008063020,0.000749530
1640837313868059904,-0.262540220,0.227052900,10.265382770,0.031661990,0.013855100,0.007545950
1640837313868999936,0.184893370,0.460334690,8.842353820,-0.013767180,-0.012940170,0.020548700
1640837313869349888,-0.174429510,0.357408970,10.109117510,-0.012764330,0.033310060,0.005503000
1640837313873910016,-0.104261330,0.460134120,9.481191640,0.007748600,0.083781780,-0.025771560
1640837313874519808,0.084003430,0.574701010,9.649599080,0.010712450,-0.013749300,-0.013324620
1640837313877789952,-0.223710810,0.372880940,10.219581600,-0.007997450,0.063917040,0.003407900
1640837313880139776,0.006269870,0.251715510,9.443885800,-0.019708270,0.020258130,0.029845530
1640837313882569984,-0.184971530,0.007784930,10.158425330,0.011527540,-0.039394200,0.025443730
1640837313883549952,-0.122337330,-0.090646690,9.389003750,-0.001513960,0.067311530,0.019061570
1640837313887559936,0.270704980,-0.124715930,9.412449840,0.002266470,0.061519450,0.007107850
1640837313888089856,-0.021993880,-0.047856600,10.401759150,0.019289550,0.088781110,-0.018604100
1640837313892089856,0.250247180,0.181454580,9.398046490,-0.009092690,0.027801100,0.001260640
1640837313892459776,0.074742380,0.096353230,9.785021780,0.002329050,-0.020825860,0.005401670
1640837313897459968,-0.332163720,0.082816770,9.568941120,0.039274990,0.048586730,0.005166230
1640837313899729920,-0.305610420,0.133443970,9.370847700,0.046092270,-0.014884770,-0.007627910
1640837313902749952,-0.587759080,0.187918680,10.054481510,0.036464630,0.037451080,-0.021331010
1640837313903419904,-0.409744680,0.363109140,9.744451520,0.001600380,0.058971350,-0.011283160
1640837313909609984,-0.209798290,0.566972790,10.242457390,-0.018458070,-0.007425250,-0.005099180
1640837313910189824,-0.024009440,0.607936260,9.881769180,-0.016750400,0.055825710,0.020642580
1640837313912349952,0.427605960,0.415265080,9.494273190,-0.005568560,0.031998750,0.021754210
1640837313915459840,0.232657330,0.119384880,10.099797250,0.063374650,0.039795040,0.000061090
1640837313918279936,0.170271830,0.049984190,9.529152870,0.045397880,0.021262470,-0.007101890
1640837313920549888,0.131587060,-0.077030520,9.630808830,-0.010047850,-0.019219520,-0.000225010
1640837313922060032,-0.288092290,-0.203250050,9.866574290,-0.017161670,0.041331350,-0.013895330
1640837313922439936,-0.229230940,0.046877890,9.512603760,-0.010626020,0.012935700,0.002095100
1640837313927209728,-0.370662060,0.105665770,9.789637570,0.020730500,0.028623640,0.017076730
1640837313928719872,-0.262953730,0.160160960,9.656779290,0.038965050,0.060921910,0.006604200
1640837313934010112,-0.097224980,0.318987190,9.884011270,0.042353570,0.010746720,0.014282760
1640837313938739968,-0.092019220,0.212087350,9.940918920,0.036975730,0.031100220,0.004637240
1640837313939409920,0.214977610,0.214862210,9.528041840,0.016886000,0.029107930,0.006483500
1640837313939889920,0.123070230,0.146904070,9.864498140,0.030937790,0.040546050,-0.007890170
1640837313942739968,0.040385470,0.207697270,9.592901230,0.032214820,0.031168760,-0.011885170
1640837313943399936,-0.002720200,0.310842540,9.559891700,0.001926720,-0.004634260,0.000333790
1640837313947689984,-0.353359250,0.200260850,9.844264030,0.019152460,0.014130770,-0.005951520
1640837313950039808,-0.313398660,0.359297720,9.633843420,0.031702220,-0.018404430,0.000436600
1640837313952620032,-0.393511860,0.420762780,9.925991060,0.013387200,0.010563430,0.009346010
1640837313953389824,-0.282058720,0.327010780,10.031303410,-0.006334480,0.062438850,0.008074940
1640837313957079808,-0.035966920,0.411716850,10.082181930,0.006952880,0.028093160,0.014778970
1640837313957379840,-0.139934330,0.421318140,10.190089230,0.016956040,-0.021520260,-0.000351670
1640837313962720000,0.132221070,0.450678350,9.191383360,-0.019684440,-0.007420780,-0.003135200
1640837313965319936,0.172671270,0.434430300,9.318149570,-0.028935070,-0.003835560,-0.019522010
1640837313967399936,-0.031048970,0.316477810,9.777721410,-0.031574070,0.056201220,-0.027590990
1640837313969229824,0.213999480,0.273804580,9.455683710,-0.023497640,0.031739470,0.000301000
1640837313972149760,-0.184209480,-0.009029390,10.385796550,-0.000815090,-0.006854530,0.021612640
1640837313972669952,-0.251910840,-0.208183800,9.895728110,-0.002226230,0.000076000,0.026503210
1640837313978870016,-0.313775660,-0.314045640,9.457576750,0.016528370,-0.074745710,0.017617640
1640837313980059904,-0.633005920,-0.424988720,9.856201170,0.002034010,0.019411740,-0.025175510
1640837313983069952,-0.034811050,-0.096985160,9.073267940,0.011074550,0.051476070,-0.038598480
1640837313983779840,-0.158709000,0.220078100,10.206344600,0.025352840,0.002665820,-0.038430100
1640837313987539968,0.197721360,0.524012860,9.742532730,-0.022387500,0.068812070,-0.003054740
1640837313988719872,0.403763710,0.590316180,9.553459170,0.008818510,-0.043021150,0.027935210
1640837313992229888,-0.205741030,0.331257970,10.470575330,0.036568940,-0.023306910,0.014588240
1640837313992930048,0.099331510,0.399250720,8.828553200,0.029243530,-0.014190380,0.003090500
1640837313997280000,-0.398370890,0.227680880,10.010635380,0.028303260,-0.063163030,-0.007916990
1640837313998649856,-0.467524020,0.153485720,10.045533180,-0.028754770,0.076767800,-0.016424060
1640837314002449920,-0.103262870,0.431306390,9.384872440,-0.030697890,-0.040699540,0.000876190
1640837314004400128,-0.466088270,0.327153440,10.626588820,-0.041198730,-0.030592090,0.014644860
1640837314007180032,0.323524860,0.260212000,8.964069370,-0.031422080,0.063984090,0.018586220
1640837314008309760,0.171664820,0.148429510,10.054103850,0.045418740,-0.063380580,-0.011278690
1640837314012219904,-0.023053940,0.018948210,10.184302330,0.017809870,0.050269070,-0.010044870
1640837314012790016,0.456000860,0.025629290,8.793981550,-0.019289550,-0.042089810,-0.000159440
1640837314017169920,-0.292629150,-0.150660560,10.373328210,-0.011095400,-0.052236020,-0.011171400
1640837314018800128,-0.025260920,0.101689740,8.891045570,-0.037588180,0.064511600,-0.011757020
1640837314022150144,-0.258559580,0.227345820,9.544004440,0.003001090,-0.069327660,-0.006580350
1640837314022709760,-0.699683900,0.212228210,10.596470830,0.010435280,0.021633510,-0.015001000
1640837314027399936,-0.102805840,0.458445010,9.023516650,-0.002239640,-0.031974920,-0.005061920
1640837314027949824,-0.398479670,0.261107120,10.535432820,0.010511280,-0.073967870,0.012296440
1640837314033769728,-0.040414080,-0.003924800,9.608025550,0.005826350,0.111256540,0.002977250
1640837314036300032,0.178241700,0.084721740,9.649233820,0.043258080,-0.062119970,-0.011749570
1640837314037109760,-0.201806990,0.106788240,10.455999370,0.019446020,-0.040476030,-0.002221760
1640837314037489920,0.364811120,0.213228910,8.483717920,-0.040745730,-0.013276930,-0.012172760
1640837314043259904,-0.142858590,0.373881250,10.100721360,-0.012370940,-0.101538010,-0.011900070
1640837314044260096,-0.240005050,0.456349190,9.822217940,-0.007599590,0.047373780,-0.000001490
1640837314047309824,0.168790460,0.535563650,9.336620330,-0.022624430,-0.028388200,-0.003691020
1640837314048489728,-0.410195260,0.402205820,11.120496750,-0.005389750,0.007365640,0.017857550
1640837314052610048,-0.123817350,0.228476430,9.588067050,-0.015917420,-0.006191430,-0.000034270
1640837314053880064,-0.199835180,0.182555030,9.695805550,-0.019176310,-0.164394080,-0.004269180
1640837314057629696,-0.301996050,0.040898770,9.373378750,-0.036236640,0.021505360,0.001098220
1640837314059709952,0.298136770,-0.041595530,8.674419400,-0.032654410,0.020998720,-0.025850540
1640837314062189824,0.010311030,0.008841770,10.450625420,0.010588770,0.010746720,0.002655390
1640837314063559936,0.311678650,-0.018062530,9.567483900,-0.003364680,0.050061940,0.014416870
1640837314067669760,0.207586910,-0.103394790,10.118807790,-0.014574830,-0.094190250,0.010479990
1640837314069819904,-0.346346800,-0.042819660,10.295695300,0.002898280,-0.054149330,0.010566410
1640837314072109824,0.010982330,-0.114302550,8.676758770,-0.004081430,-0.054337090,-0.016275050
1640837314072559872,-0.291891900,-0.109856880,9.996642110,0.042857240,0.006459650,-0.037749110
1640837314077119744,-0.243759160,0.177726920,9.786521910,0.064308930,0.099778160,-0.032839180
1640837314077570048,0.007249120,0.392029370,9.952206610,0.003492830,-0.067669150,-0.013798480
1640837314082700032,-0.289518300,0.497471930,10.183990480,-0.029030440,-0.032436840,0.015972550
1640837314084790016,0.068559910,0.453450260,9.018605230,-0.021477040,-0.040318080,0.015415250
1640837314090819840,-0.214847590,0.334927770,9.989233970,0.028756260,-0.059537590,0.000734630
1640837314091630080,-0.188377320,0.367531660,9.637524600,0.057324780,0.049521030,-0.001890960
1640837314092880128,0.097551780,0.173142880,9.959575650,0.012533370,-0.011928380,-0.004899500
1640837314093279744,-0.259690400,0.320965710,10.649401660,-0.019267210,-0.023500620,0.001548230
1640837314098459904,0.068085640,0.407284650,9.294797900,-0.077594800,-0.075405820,0.016966460
1640837314101169920,0.095600630,0.202058510,9.478274350,-0.062829260,-0.044856960,-0.014165040
1640837314105009920,-0.038810230,0.295900140,9.564188000,0.013278420,0.052270300,-0.028961900
1640837314110569984,0.180301230,0.254831610,9.655265810,0.034320370,-0.018738210,-0.022067140
1640837314111169792,-0.093576160,0.136592550,10.147239690,-0.007821620,-0.020661950,-0.007180870
1640837314112499968,-0.074634350,0.091146560,9.495381360,-0.043211880,-0.028942530,0.030305990
1640837314113549824,-0.250289980,-0.063819640,9.738485340,-0.046344100,-0.076347600,0.020302830
1640837314114400000,-0.378640230,-0.054319310,9.448768620,-0.009164220,-0.009265540,0.000314410
1640837314120369920,-0.050986330,0.108706060,9.408819200,0.022073090,0.005710130,-0.012145940
1640837314121529856,-0.081176800,0.205913310,10.172483440,0.017452250,0.032065810,-0.027745970
1640837314123839744,0.106793600,0.330767720,9.944644930,-0.018237530,-0.000005960,0.006988650
1640837314124379904,0.240298360,0.199751050,9.975795750,-0.026883180,-0.044891240,0.018414850
1640837314127279872,-0.093756500,-0.015808140,9.802134510,0.009213390,-0.030954180,-0.001135470
1640837314128320000,-0.065816400,0.086263630,9.244155880,0.045593080,-0.059068210,-0.005078320
1640837314133479936,-0.236875890,0.125007030,9.648237230,0.027129050,-0.021101540,-0.010919570
1640837314135869952,-0.329826590,0.245963070,9.770340920,-0.023379930,0.016263130,-0.010366740
1640837314137920000,-0.169525740,0.490504560,10.144415860,-0.041881200,-0.039438910,0.016956030
1640837314139539968,-0.213020370,0.464587930,10.196148870,-0.035130980,-0.023011860,0.024098160
1640837314142190080,0.182263310,0.388280390,9.567779540,-0.004933770,0.004141030,0.020435450
1640837314145799936,0.040340940,0.310168360,10.155569080,0.044736270,-0.029240550,-0.003585220
1640837314147109888,-0.049377580,0.087725860,9.577616690,0.008435550,-0.032036010,0.003357230
1640837314147539968,0.193251550,0.009938860,9.143842700,-0.020886960,-0.072540340,0.005319720
1640837314152529920,-0.110232870,-0.142722010,9.637224200,-0.018531080,0.019258260,0.002756710
1640837314154619904,0.025475850,-0.020653910,9.412360190,-0.017464160,0.014361740,0.019146500
1640837314157209856,-0.068575430,0.031070020,10.024072650,0.022119290,-0.020608310,0.023750960
1640837314157779968,-0.240407930,-0.044854660,10.052458760,0.018827620,-0.003907080,0.012438000
1640837314162230016,-0.039796780,0.176472460,9.759241100,0.024451320,-0.045895580,0.004638730
1640837314162999808,-0.331579090,0.005586570,10.145099640,0.046798590,-0.031085310,-0.006213780
1640837314167539712,0.004273580,-0.038668100,9.236565590,0.031629200,0.009375810,-0.018993020
1640837314168579840,-0.018248100,0.167900920,9.696338650,0.062529740,-0.011637810,-0.026445090
1640837314174000128,-0.137771100,0.211001560,9.726251600,0.036004190,0.010696050,0.005416570
1640837314174739712,0.184540790,0.339247230,9.210395810,-0.001612310,-0.055907670,0.019870700
1640837314177189888,-0.108615100,0.272213430,10.118406300,0.029954310,-0.029839580,0.015558300
1640837314177829888,-0.021522430,0.254923820,9.883562090,0.033047790,0.009962920,0.013451280
1640837314182359808,-0.035920900,0.238032920,10.131958010,0.060762480,-0.036463140,0.005202000
1640837314184649984,-0.354516660,0.192378010,10.395462040,0.054538250,0.004120170,-0.000824030
1640837314188009984,-0.056823400,0.463177830,9.375009540,-0.008319320,-0.045800210,0.002679230
1640837314191589888,-0.262309040,0.465463760,9.733112340,-0.015670060,-0.074502830,-0.001554190
1640837314192549888,-0.065433830,0.516212110,9.270535470,-0.021694600,0.032930080,-0.022768980
1640837314192969984,0.119984500,0.693096760,9.440514560,0.007408860,-0.006009640,-0.019741060
1640837314197360128,-0.114769770,0.487114580,10.463691710,0.027626750,0.002792480,0.000399350
1640837314199280128,0.233218100,0.413883390,9.656964300,-0.020794570,-0.008836390,0.027142460
1640837314202359808,-0.018361890,0.141837050,10.001876830,-0.011201200,-0.086823110,0.036185980
1640837314203029760,-0.144789550,-0.189094330,9.686069490,-0.019294030,-0.004541870,0.026623910
1640837314207170048,0.102143820,-0.198261950,9.023623470,-0.004516540,-0.017011170,-0.006109480
1640837314207969792,-0.223274530,-0.281340960,10.221970560,0.029963250,0.004099310,-0.028191510
1640837314213189888,0.106147770,-0.042601140,9.416161540,0.004218520,0.039950010,-0.023551290
1640837314213749760,-0.012122540,0.084657620,9.809125900,0.006368760,-0.074191400,-0.001885000
1640837314217509888,-0.213521210,0.032147090,10.073502540,0.006994610,0.008292500,0.009316210
1640837314219169792,-0.057841550,0.241298560,9.317154880,0.037819150,-0.043557580,0.015637280
1640837314222469888,-0.494663770,0.179065510,10.316519740,0.058126450,-0.063623490,-0.001487140
1640837314223579904,-0.111135470,0.314753030,9.358035090,0.031934680,0.043277440,-0.011920930
1640837314228049920,-0.087600100,0.545199750,9.953054430,0.014364720,-0.047437850,-0.017024580
1640837314228529920,-0.150878890,0.501116100,10.427629470,-0.017195940,0.026303530,0.008396800
1640837314232739840,0.388534550,0.508854990,9.157048230,-0.004929300,-0.020535290,0.020661950
1640837314233409792,-0.046547690,0.260100220,10.339997290,0.031195580,-0.063185400,0.014358760
1640837314237469952,0.120653300,0.265770910,9.303956030,0.021882360,0.023494660,0.008520490
1640837314239310080,0.112661120,0.214022740,9.345713620,0.001958010,-0.068172800,0.013026600
1640837314242199808,-0.319638700,-0.052408080,10.322091100,-0.025610630,0.030015410,0.024355950
1640837314242919936,0.105319750,0.068694580,9.165306090,-0.004090370,0.004704300,0.027979910
1640837314247139840,-0.304832760,-0.005908570,10.390588760,0.026591120,-0.080904350,0.014178450
1640837314247500032,-0.019794240,0.103294150,9.465943340,0.015819070,0.072878580,0.009900330
1640837314252709888,0.180431410,0.252506850,9.411123280,0.015014410,-0.025805830,-0.004702810
1640837314255019776,-0.236884550,0.157417800,10.530262950,0.002732870,0.008785730,0.002567470
1640837314257540096,0.329388530,0.193711000,8.806161880,0.021086640,0.018326940,0.011381510
1640837314260470016,-0.107938010,0.075775430,10.025794980,0.055873390,-0.065627700,0.001157820
1640837314262089984,-0.253924280,0.111310440,9.641325000,0.022546950,0.057435040,-0.003607570
1640837314262639872,0.075001840,0.264390950,9.080884930,0.004856290,-0.059075650,0.001925230
1640837314267319808,-0.465644330,0.143852590,10.713969230,0.001509490,0.006245080,-0.001651050
1640837314268689920,0.134407760,0.376871910,9.153533940,0.002203880,0.060036780,0.015021860
1640837314274469888,-0.098453130,0.286118630,10.446362500,0.025545060,-0.067549950,0.019447510
1640837314275069952,-0.198532780,0.140251890,10.154685020,0.023558740,0.073418020,0.024409590
1640837314277179904,0.192103730,0.194347350,9.096930500,0.038452460,-0.064213580,0.007988510
1640837314277869824,-0.449558260,0.126106040,10.430637360,0.025682160,-0.056850920,-0.001443920
1640837314282419968,0.005619950,0.351060330,8.700480460,-0.014485420,0.045181810,-0.001689790
1640837314284610048,0.071025380,0.602275310,9.715387340,-0.024820860,-0.056576730,-0.005792080
1640837314287269888,-0.173266770,0.587363000,10.355411530,-0.035941600,0.083500150,0.017572940
1640837314289100032,0.483709930,0.535296740,9.190265660,-0.013087690,0.008843840,0.022956730
1640837314292169728,-0.085101450,0.224824250,10.807509420,0.046624250,-0.038824980,0.025011600
1640837314292859904,-0.018424370,-0.017967780,9.422326090,0.025382640,0.028061870,0.025621060
1640837314297099776,0.108454090,-0.221803670,9.221689220,-0.004938240,-0.084893420,0.008380410
1640837314297459968,-0.305710410,-0.475925360,9.874285700,-0.005795060,0.059226170,-0.007992980
1640837314302850048,0.146777760,-0.316051190,8.894763950,0.001211460,0.073930630,-0.030478840
1640837314303719936,-0.127099190,-0.043549900,10.451110840,0.032499430,-0.018928950,-0.017271940
1640837314307229952,-0.182825570,0.081897510,9.854442600,0.025106970,0.039859120,-0.008516010
1640837314307760128,0.057225480,0.337658970,9.420229910,0.020138920,-0.078982110,-0.008660560
1640837314312960000,-0.452821220,0.375331040,10.187077520,0.037743150,-0.005349520,0.014933940
1640837314314050048,0.021019540,0.183471350,9.082250600,0.037109850,0.068609420,-0.001916290
1640837314317240064,0.063830290,0.230766330,10.248719220,0.074401500,0.038583580,-0.012421610
1640837314318400000,-0.197106270,0.372255590,10.342282300,0.058332090,0.060653690,0.001065430
1640837314323479808,0.262542130,0.380026040,9.275783540,-0.024993710,-0.071018940,-0.000286100
1640837314324049920,-0.131823420,0.403082730,9.792380330,-0.022073090,-0.034226480,-0.005172190
1640837314328110080,-0.102797070,0.430053950,9.084850310,-0.018431250,0.052645810,-0.015960630
1640837314329189888,0.053273220,0.342301220,9.683971410,0.018796320,0.020308790,-0.012168290
1640837314333289984,-0.245964150,0.225748240,10.455091480,0.060510640,0.069046020,0.008937720
1640837314334669824,0.024541960,0.102010970,10.039236070,0.015845900,0.006897750,0.011758510
1640837314337479936,-0.245386320,0.084864240,10.210569380,-0.010378660,-0.067764530,0.022315980
1640837314338789888,-0.159562990,-0.083874790,9.158969880,-0.032903260,-0.004701320,0.008137530
1640837314342269952,0.255995750,0.018383190,8.917585370,0.000748040,0.070795420,-0.031471250
1640837314345459968,-0.102225630,0.277953510,10.068126680,0.047741830,0.097219650,-0.017759200
1640837314347610112,0.064896640,0.233933750,9.859442710,0.014410910,0.016018750,0.000959630
1640837314348919808,-0.032147410,0.300123540,9.805633540,-0.011587140,-0.063525140,0.002332030
1640837314352640000,-0.379343330,0.151533810,9.685207370,-0.009842220,-0.021685660,0.025981670
1640837314355389952,-0.074701260,-0.065563830,9.326112750,0.007739660,0.036518280,-0.001950560
1640837314357169920,-0.248154920,-0.053788800,10.013370510,0.068685420,0.065022710,-0.026375060
1640837314357729792,0.030727890,0.051813500,9.906504630,0.063009550,0.066816800,-0.003984570
1640837314362259968,0.252043130,0.189922410,9.714834210,-0.003096460,0.014650820,0.006516280
1640837314364699904,-0.001058250,0.149136290,9.851095200,-0.023499130,0.000229480,0.022383030
1640837314367669760,0.075352810,0.115233660,9.452999110,0.016978380,-0.008732080,0.010003150
1640837314369920000,-0.207543880,0.183950570,9.677598000,0.077958410,-0.004497170,-0.030510130
1640837314372399872,-0.237630130,0.343555060,9.846984860,0.065469750,0.045086440,-0.024396180
1640837314373149952,-0.143700630,0.610297620,10.021837230,-0.007915500,0.044879320,-0.012949110
1640837314379909888,-0.279241590,0.688355740,10.339417460,-0.064517560,0.011576710,0.014664230
1640837314380489728,0.093854990,0.679450930,9.670865060,-0.057353080,0.010329480,0.035585470
1640837314382380032,0.189957500,0.384910140,9.495154380,0.018256900,0.031252210,0.018872320
1640837314382899968,0.089200480,0.187497840,9.821525570,0.053867710,0.072489690,-0.000321870
1640837314387599872,0.195264580,0.107209820,9.720412250,0.015892080,0.026741620,-0.000384450
1640837314389959936,-0.094721960,-0.287104670,9.967448230,-0.048406430,-0.003083050,0.004956130
1640837314392150016,0.031692390,-0.270580380,9.386500360,-0.044116380,0.035429000,0.012497600
1640837314392699904,-0.154037000,-0.156530410,9.677813530,0.000321870,0.035935640,0.003889200
1640837314397209856,-0.286782800,-0.071837440,9.885108950,0.023558740,0.063896190,0.008340180
1640837314397659904,-0.055182930,0.229470190,9.652002330,0.037510690,0.010508300,-0.006429850
1640837314402279936,-0.298410510,0.332146820,10.154222490,0.013333560,0.010351840,-0.006386640
1640837314402909952,0.001393270,0.344629470,9.525129320,-0.003443660,0.051517790,0.017790500
1640837314407179776,-0.082866410,0.257003810,9.928464890,0.039739910,0.024113060,-0.011736150
1640837314407789824,-0.110799830,0.215074210,9.779165270,0.028075280,0.059188910,-0.015021860
1640837314412160000,0.128386510,0.291639750,9.227239610,0.023750960,-0.001788140,-0.001959500
1640837314412709888,-0.203780260,0.101514720,9.953656200,0.012509520,0.001250210,-0.010345880
1640837314417169920,0.025530230,0.190074770,9.393427850,-0.001972910,0.053185230,-0.002434850
1640837314418249728,-0.150116790,0.274260940,10.124160770,0.019918380,-0.010168550,0.012218950
1640837314422679808,-0.297217400,0.014041360,10.449142460,0.002595780,0.062477590,0.002992150
1640837314424689920,-0.051363740,0.153540420,9.764801030,0.032436850,0.008612870,-0.002048910
1640837314427289856,-0.505353150,0.114867380,10.549418450,0.052417830,-0.048042840,-0.015953180
1640837314427949824,-0.290141910,0.256341810,9.196740150,-0.001789630,0.010374190,-0.025278330
1640837314432240128,-0.097217700,0.571316480,9.149456020,-0.016745920,-0.047136850,-0.017997620
1640837314432740096,-0.172641160,0.481889900,9.978340150,-0.036214290,0.076301400,-0.010097030
1640837314437629952,0.367648150,0.661848070,9.327854160,-0.019279120,0.070361790,0.012268130
1640837314439810048,0.054362820,0.499944150,10.818868640,0.028492510,-0.045865770,0.025959310
1640837314443049984,0.119412200,0.206746830,10.065670010,-0.001294910,0.024864080,0.023244320
1640837314444529920,0.183994350,0.036369420,9.339326860,-0.007173420,-0.066605220,0.014629960
1640837314447199744,-0.265184850,-0.392272410,10.122759820,0.005339090,0.024074320,-0.009571020
1640837314447699968,0.136982370,-0.374950620,8.749524120,0.019648670,0.093616550,-0.027860700
1640837314452459776,-0.186132340,-0.143753600,9.971058850,0.050611800,-0.013628600,-0.019451980
1640837314454049792,-0.339553180,-0.024511080,10.002697940,-0.007799270,0.047560040,0.003127750
1640837314457259776,-0.014380930,0.170156490,9.097708700,-0.012993810,-0.056633360,0.016459820
1640837314457769984,-0.526681660,0.076741880,10.637291910,0.053465370,-0.023143000,0.007286670
1640837314462099968,-0.057832010,0.151128610,9.415958400,0.082395960,0.078743700,-0.009801980
1640837314462599936,0.066125480,0.254457590,10.077168460,0.095155840,-0.026908520,-0.025591260
1640837314467379712,0.035801980,0.319057350,10.325862880,0.045391910,0.087375930,-0.022460520
1640837314469449984,0.497679050,0.542788510,8.953007700,-0.008243320,0.007420780,0.015595550
1640837314472129792,-0.024761740,0.369358420,10.291387560,0.001806020,-0.041443110,0.024405120
1640837314473319936,0.013809410,0.344901110,9.219484330,0.031508500,0.051487980,0.006468590
1640837314477169920,-0.095094490,0.386322710,9.493541720,0.052101910,-0.058731440,-0.006614630
1640837314477929728,-0.545892660,0.171614170,10.795248030,0.047160690,0.072319810,-0.002002720
1640837314482109952,-0.178633420,0.235746710,9.797624590,0.013530260,0.054889920,-0.011630360
1640837314482509824,-0.527185080,0.335507900,10.899032590,0.006814300,-0.086526570,0.003305080
1640837314487119872,-0.273672610,0.414868180,9.494357110,-0.019353630,0.011996930,0.012226400
1640837314487579904,0.175884660,0.469008560,8.635933880,-0.018060210,-0.031352040,-0.000053640
1640837314493499904,-0.102037170,0.402873840,10.189901350,0.022298100,0.057530410,-0.006587800
1640837314494499840,0.335543220,0.466233400,9.362294200,0.018879770,0.085316610,-0.005978350
1640837314497059840,0.254816230,0.209603580,10.363733290,-0.008594990,-0.071872780,0.018745660
1640837314497380096,-0.043888990,-0.025086370,10.304299350,-0.001658500,0.031961500,0.020416080
1640837314502099968,0.069618310,-0.026122010,9.140068050,-0.008957090,-0.034716720,0.007192790
1640837314502439936,-0.440303240,-0.175937010,10.171549800,-0.008462370,-0.023834410,0.004170840
1640837314507170048,-0.215615840,-0.075755710,9.106188770,0.008924310,0.080724050,-0.030927360
1640837314507709952,-0.143449140,0.129663540,9.756751060,0.023850800,-0.026325880,-0.027759370
1640837314512480000,-0.394893170,0.227815780,10.384571080,0.019651650,0.044170020,0.003327430
1640837314512879872,0.110861700,0.277534220,9.320765500,-0.009562080,-0.000062580,0.002248590
1640837314517410048,-0.252614830,0.123758870,10.498161320,0.020603840,-0.048260390,0.014770030
1640837314517939968,-0.103147630,0.147530970,9.477545740,0.060148540,0.023287530,-0.011867290
1640837314522089984,0.110829530,0.289880540,9.436609270,0.042968990,-0.052613020,-0.017571450
1640837314522449920,-0.242691770,0.315732840,10.325594900,0.008833410,0.033368170,-0.010614100
1640837314527170048,0.197354700,0.555794060,9.409150120,-0.039404630,0.014843050,-0.003415350
1640837314527609856,0.091123570,0.527563330,10.347208020,-0.048615040,-0.033779440,0.015336280
1640837314532389888,0.064433400,0.298372630,10.021492960,0.011144580,0.067779420,0.008238850
1640837314533479936,0.172146920,0.283143130,9.716794970,0.050738450,-0.032959880,-0.024189050
1640837314537159936,-0.395113050,0.168888110,10.274210930,0.035612300,-0.042377420,-0.022551420
1640837314537600000,-0.205728070,0.057675670,8.997694020,-0.030305980,0.002142790,-0.014586750
1640837314542469888,-0.209174870,0.058514450,9.574028970,-0.043013700,-0.027723610,-0.002032520
1640837314543229696,-0.374844820,0.040052350,9.941601750,-0.015796720,0.046423070,0.003424290
1640837314547099904,0.252078530,0.229232190,9.280989650,0.004023310,0.010800360,0.008316340
1640837314547369984,-0.007865330,0.187110280,10.465201380,0.031186640,-0.001211460,0.001257660
1640837314552199936,0.108881810,0.235444020,9.920674320,0.007654730,0.014045840,-0.002199410
1640837314553220096,0.331745980,0.142697560,9.551109310,-0.002762680,-0.050225860,0.009034570
1640837314557099776,-0.157815040,-0.175879340,9.916402820,0.026795270,0.027939680,-0.016745930
1640837314557400064,0.042690880,0.026777450,9.134751320,0.034463410,0.025153160,-0.025932490
1640837314562080000,-0.276645750,0.122725810,9.828467370,0.027711690,-0.040778520,-0.010865930
1640837314562439936,-0.512305380,0.089012380,9.836262700,-0.009162720,0.006055830,-0.015813110
1640837314567180032,-0.132189900,0.385183450,9.507650380,-0.006526710,-0.035581000,-0.016555190
1640837314567719936,-0.449749830,0.324400600,10.513440130,0.027111170,0.003939870,-0.000889600
1640837314572089856,0.088679280,0.355894180,9.835982320,0.023823980,0.067310040,0.004041200
1640837314572439808,0.146811860,0.362175430,10.286449430,0.053480270,-0.016795100,-0.003419820
1640837314578209792,-0.218446840,0.249159160,10.215080260,0.026877220,-0.040358300,-0.002048910
1640837314578739968,0.277584460,0.429405360,8.546095850,-0.035713620,-0.065112110,-0.002457200
1640837314582139904,-0.186358650,0.302932470,9.682083130,-0.033243000,-0.022514170,-0.017464160
1640837314583579904,-0.123459560,0.354918390,9.778235440,-0.018331410,0.076542790,-0.007723270
1640837314587119872,0.191556750,0.460487340,9.888874050,0.020118060,-0.015844400,0.006076690
1640837314587520000,-0.276485000,0.250886080,10.756730080,0.008404260,-0.007292630,0.015385450
1640837314592179968,0.243785410,0.290345280,9.380295750,-0.042514500,0.011904540,0.018356740
1640837314592669952,-0.096812170,0.036967120,9.993544580,-0.026971110,-0.073856120,0.002564490
1640837314597080064,-0.206629010,-0.198835850,9.670957570,-0.005809960,0.022217640,-0.006362800
1640837314597389824,0.240300270,-0.148664860,8.872519490,0.042857230,0.000528990,-0.026661160
1640837314602589952,-0.364224020,-0.195314900,10.415369030,0.050587960,0.014883280,-0.028781590
1640837314603229952,-0.081714060,0.113907150,9.587608340,-0.028198960,0.017687680,-0.004492700
1640837314607200000,-0.091387740,0.200985000,9.731663700,-0.032153730,-0.098441540,-0.001600380
1640837314607679744,-0.394342360,0.279494050,10.214490890,-0.018401440,-0.006517770,-0.005094710
1640837314612229888,0.197232560,0.609372680,9.244628910,0.002667310,0.025162100,-0.005097690
1640837314612659968,-0.116729740,0.358481440,10.668453220,0.044393550,-0.001871590,-0.009159750
1640837314617240064,0.004596560,0.232560050,10.200163840,0.026430190,0.049963590,-0.010968740
1640837314617959936,0.119882890,0.349684540,9.607000350,0.012032690,-0.100150710,0.003121790
1640837314622079744,-0.382967950,0.109538980,10.089811330,-0.028353930,-0.057061020,0.003629920
1640837314622419712,0.093488740,0.320445810,8.667963980,-0.065688800,0.028817360,-0.018003580
1640837314627109888,-0.058402390,0.461408730,9.898294450,-0.034412730,-0.022000070,-0.023905930
1640837314627419904,-0.041788730,0.390554280,10.343147280,-0.016316770,0.093634430,-0.004741550
1640837314632129792,0.314206300,0.475079480,9.846570970,-0.001196560,-0.021339950,-0.000308450
1640837314632839936,-0.215907110,0.248153920,10.861185070,-0.007027390,-0.084134940,0.014659760
1640837314637069824,0.026544950,0.184773000,9.181327820,-0.053502630,-0.000551340,0.017759210
1640837314637430016,0.103523980,0.072197860,9.190453530,-0.040788950,-0.046554210,-0.000555810
1640837314642220032,-0.160294640,-0.104855870,9.975213050,-0.005099180,0.103014730,-0.023357570
1640837314642959872,0.216891330,0.150356770,9.294878010,-0.007876750,0.046867120,-0.015209610
1640837314647119872,-0.168611850,-0.001673520,10.590950010,-0.008900460,-0.063624990,0.010800360
1640837314647500032,-0.143577400,-0.064949620,9.696186070,-0.017753240,0.008380410,0.007691980
1640837314652279808,-0.140334730,0.042105220,9.584863660,-0.005549190,-0.071619450,-0.010268390
1640837314652709888,-0.421451780,-0.046052270,10.265287400,0.015430150,0.032995640,-0.009763240
1640837314657059840,0.113551010,0.180839970,9.277230260,0.019948190,0.073567040,-0.026924910
1640837314657329920,-0.044115760,0.406306980,10.499465940,0.011649730,-0.000520050,-0.015762450
1640837314662109952,-0.063283960,0.520664270,9.961275100,-0.029066210,0.025044380,0.015325840
1640837314662429696,0.071820820,0.492986470,9.296433450,-0.027823450,-0.104306650,0.003965200
1640837314667470080,-0.239932820,0.384793430,9.809499740,0.001578030,-0.011846420,0.001320240
1640837314668699904,-0.081464150,0.380088660,9.207399370,0.010280310,0.060716270,-0.012162330
1640837314672029952,-0.214726020,0.255589600,10.604387280,-0.013098120,0.005833800,-0.010259450
1640837314672359936,-0.263844250,0.301038980,10.505657200,-0.032502420,0.030426680,0.010667740
1640837314678710016,-0.043504200,0.270472230,9.632574080,-0.052544470,-0.096338990,-0.000187750
1640837314679219968,-0.157143850,0.178508130,9.772314070,-0.053435580,-0.032195450,-0.004291530
1640837314682259968,0.116546510,0.161344860,8.910181050,-0.010517240,0.050058960,-0.009737910
1640837314682669824,0.094095560,0.116494630,9.963647840,0.012063980,0.007413330,-0.028781590
1640837314687049984,-0.002248060,0.095614720,10.169102670,-0.009264050,0.049759450,0.001819430
1640837314687470080,0.140785130,-0.009664660,9.661684990,-0.031082330,-0.054763260,0.025559960
1640837314692169984,-0.233734640,-0.155223650,10.187494280,-0.032669310,-0.041130190,0.014106930
1640837314692569856,-0.221325220,-0.089609810,9.156403540,0.003613530,0.005513430,0.000989440
1640837314697169920,-0.280351130,0.009705330,9.719309810,0.025366250,-0.039997700,-0.043487550
1640837314697600000,-0.179223600,0.270305310,9.900999070,0.002288820,0.064411760,-0.037427250
1640837314702050048,0.212814380,0.463868200,9.601370810,-0.010626020,0.019055610,0.000368060
1640837314702509824,-0.056249700,0.260889530,10.740515710,-0.021123880,-0.009125470,0.006906690
1640837314707129856,0.098858860,0.139255110,9.607860570,0.021113460,-0.007550420,0.022955240
1640837314707670016,-0.068166280,0.039319870,9.675267220,0.057527430,-0.094726690,0.011275710
1640837314712169984,-0.327192600,0.000970440,9.745955470,0.024054950,0.022704900,-0.011074540
1640837314712600064,-0.075745630,0.140876290,9.217870710,-0.004464390,0.006687640,-0.019495190
1640837314717360128,-0.244618240,0.413081970,10.567319870,-0.035637620,-0.018326940,-0.013566020
1640837314718030080,-0.039481640,0.642370880,9.859679220,-0.061427060,0.043714050,-0.000534950
1640837314722050048,0.236193810,0.624209940,9.751035690,-0.023642180,-0.050468740,0.012715160
1640837314722380032,-0.116802150,0.487338750,10.366015430,0.019526480,0.026465950,-0.000377000
1640837314727150080,0.113053630,0.309101820,9.239901540,0.019383430,-0.005950030,0.009213390
1640837314727510016,-0.099151560,-0.007118150,9.964116100,0.009408600,-0.073975350,0.010754170
1640837314732059904,-0.225512220,-0.208409700,9.486800190,-0.028400120,0.047260520,0.007040800
1640837314732549888,0.016906320,-0.077255430,9.163856510,-0.052890190,-0.026150050,0.003105400
1640837314737049856,-0.299814850,-0.049796610,10.397371290,-0.031538310,-0.000289080,-0.007528070
1640837314737419776,-0.035265850,0.054145110,9.548173900,-0.008149450,0.038485240,-0.022119290
1640837314742269952,0.047757090,0.288379310,10.137366290,0.029526650,-0.081191960,-0.024104120
1640837314743140096,-0.202669950,0.194100020,10.174378400,0.022169940,0.032663340,-0.012135500
1640837314747160064,0.202204000,0.098037260,9.177555080,0.001348560,0.004398820,0.003188850
1640837314747739904,-0.320115450,0.123338100,10.406342510,0.026492780,-0.036917630,0.007930400
1640837314752069888,-0.318114700,0.157132220,9.373795510,-0.006692110,-0.010515750,-0.002063810
1640837314752539904,-0.041633400,0.384224980,9.122191430,-0.024713580,-0.094304990,-0.010840590
1640837314757139968,-0.431595740,0.446200970,10.287668230,-0.008079410,0.029325480,-0.027842820
1640837314757540096,0.088121830,0.644293250,9.715443610,-0.042207540,0.042010840,-0.012634700
1640837314762949888,0.069308260,0.573813080,10.721375470,-0.014865400,-0.045260790,0.010235610
1640837314763680000,-0.026103070,0.285360310,10.405561450,-0.006285310,0.031337150,-0.005006790
1640837314767439872,0.282365500,0.364942460,9.411027910,-0.026613470,-0.063681600,-0.001959500
1640837314768349952,-0.355729250,0.153159420,10.038232800,-0.018496810,-0.093761090,0.011828540
1640837314772039936,-0.085725950,0.029593460,8.826891900,-0.055186450,-0.002114470,-0.020235780
1640837314772329728,0.111100430,0.241953270,9.231383320,-0.052382060,-0.003975630,-0.018046800
1640837314779670016,-0.309021830,0.174953670,10.586393360,-0.037732720,0.075040770,-0.000786780
1640837314780320000,0.274737000,0.286357370,9.857384680,-0.061841320,0.011689960,0.004510580
1640837314782060032,-0.102057000,0.241814840,10.598373410,-0.013518330,-0.113958110,0.020651520
1640837314782419968,-0.195175280,0.103128820,9.727578160,-0.028765200,-0.031195580,-0.005999210
1640837314787079936,0.169136610,0.025111580,8.891442300,-0.036959350,-0.026652220,0.002005700
1640837314787459840,-0.368194610,-0.293844970,10.313216210,0.022089480,0.040420880,-0.016592440
1640837314792140032,0.012589110,-0.060153790,9.586736680,0.006894770,0.054104640,-0.025944420
1640837314792649984,-0.082026650,0.213930060,9.966092110,-0.014744700,-0.100202860,0.003977120
1640837314797099776,-0.330224480,0.235543270,10.024356840,-0.058418520,-0.030769410,0.001598890
1640837314797550080,0.153280840,0.554883780,8.987939830,-0.069104140,-0.017847120,-0.008682910
1640837314802070016,-0.308453710,0.487368290,10.557998660,0.005927680,-0.019130110,-0.003206730
1640837314802520064,0.059017410,0.348146650,10.161190990,0.032134350,0.066964320,-0.014567380
1640837314807169792,0.147103070,0.518620730,10.095747950,0.018587710,-0.041630880,-0.006838140
1640837314807659776,-0.353186340,0.448056730,10.623727800,-0.048284230,-0.078402450,0.030903520
1640837314813839872,0.143960740,0.313271080,8.782161710,-0.122945030,-0.030541420,0.015977030
1640837314814569984,-0.163056600,0.284138860,9.602421760,-0.060178350,-0.055482990,-0.015191740
1640837314817260032,-0.144053740,0.301784900,9.895391460,-0.015012920,0.081670280,-0.009769200
1640837314818419968,0.312934990,0.255857970,9.512460710,-0.012432040,0.013794010,-0.010998550
1640837314822119936,-0.237688600,0.024346020,11.074118610,-0.025364760,-0.055184960,0.013992190
1640837314822459904,0.017116470,-0.081726770,9.766648290,-0.064273190,-0.013561550,0.026127700
1640837314827280128,-0.105270000,-0.155039370,9.497670170,-0.054949520,-0.119866450,0.013546650
1640837314829339904,-0.264497010,-0.233562380,9.747836110,-0.015117230,0.018715860,-0.013178590
1640837314832089856,0.330783610,0.072277660,8.722117420,0.002160670,0.082553920,-0.023528930
1640837314832499968,-0.189198340,0.141039760,10.701663970,0.004045670,-0.019213560,-0.007733700
1640837314837060096,0.099236400,0.151237550,9.963729860,-0.019115210,0.005961950,0.016021730
1640837314837469696,0.111520990,0.169024650,9.473962780,-0.009675320,-0.118587900,-0.001600380
1640837314845829888,-0.414441170,0.138922010,10.221177100,0.000080470,-0.028617680,-0.006321070
1640837314846789888,0.099663880,0.257963420,9.066811560,-0.001892450,0.056134170,-0.006507340
1640837314847290112,-0.202844660,0.318213140,10.575231550,0.007098910,-0.016495590,-0.013880430
1640837314847539968,-0.137326120,0.437884450,10.349257470,-0.020077830,0.043454770,0.017027560
1640837314852089856,0.289420660,0.458186630,9.359655380,-0.044591730,-0.073869530,0.024631620
1640837314852489984,-0.197773610,0.143277840,10.323545460,-0.019873680,-0.027091800,0.013099610
1640837314857580032,0.166830020,0.288578780,9.074998860,0.021578380,0.037559880,-0.004987420
1640837314858129920,-0.098758940,0.206243960,9.999601360,0.018228590,-0.056016450,-0.010898710
1640837314862089984,-0.238903480,0.110597710,10.158948900,-0.034607950,0.038176780,0.006814300
1640837314862439936,0.182917270,0.188804340,9.313257220,-0.037892170,-0.008837880,0.011357660
1640837314867399936,-0.328218430,-0.045388870,10.675203320,-0.022192300,-0.032891340,0.009986760
1640837314868839936,0.054629900,0.128620190,9.292672160,-0.000752510,0.033105910,0.007651750
1640837314872169984,0.151532770,0.130208630,9.609032630,0.015640260,-0.047956410,-0.005497040
1640837314873060096,-0.104563890,0.064954790,10.165253640,-0.012771790,0.062376270,0.001367930
1640837314877199872,0.340881200,0.161320150,9.177192690,-0.011451540,0.025336450,0.013235210
1640837314877939968,-0.211711270,-0.080063830,10.643914220,0.014060740,-0.034052130,0.008392330
1640837314882079744,-0.216188860,-0.012129970,9.509641650,0.022360680,0.010386110,0.008162860
1640837314882479872,-0.167723640,0.114156720,9.395421980,0.015950210,-0.083996380,-0.007584690
1640837314887089920,-0.534074010,0.106666800,10.213156700,-0.003191830,0.039596860,-0.025065250
1640837314887419904,-0.044713670,0.503827810,9.407160760,-0.002661350,0.040592250,-0.012046100
1640837314892160000,-0.191485420,0.565973040,10.758701320,-0.008913880,-0.044514240,-0.003334880
1640837314892659968,0.045064170,0.514257910,9.835227010,-0.014725330,0.052499770,0.005023180
1640837314897059840,0.279522210,0.443367750,9.603804590,0.018899140,-0.038599980,0.003030900
1640837314897319936,-0.256809590,0.237245950,10.483123780,0.025247040,-0.016888980,0.002402070
1640837314902109952,-0.007463710,0.220552250,8.973638530,-0.007042290,-0.029701000,0.010892750
1640837314902550016,-0.049247850,0.179825320,9.730013850,-0.034430620,-0.048486890,0.009332600
1640837314907239936,-0.114412170,0.153054710,9.873907090,-0.057782240,0.101904590,0.013175610
1640837314907709952,0.253863960,0.253182200,9.751306530,-0.023956600,0.021706520,0.019602480
1640837314914609920,-0.094538040,0.197138470,10.870261190,0.013713540,-0.012175740,-0.004430120
1640837314915010048,0.044582230,0.388610090,9.375774380,-0.013744830,-0.007553400,-0.000281630
1640837314917289984,-0.006167820,0.311586560,9.546028140,-0.042824450,-0.062870990,0.003688040
1640837314918239744,-0.323483170,0.008600740,9.768273350,-0.029693540,0.057224930,-0.002790990
1640837314922210048,-0.005599960,0.058405810,9.155951500,0.009863080,0.023287530,-0.003567340
1640837314922689792,-0.227813840,0.105503410,10.340295790,0.024318700,0.002378230,0.011108820
1640837314927150080,-0.140779670,0.140086580,9.654890060,-0.033268330,0.038340690,0.022922450
1640837314927549952,0.038311380,0.225951820,9.817690850,-0.064432610,-0.065822890,0.016157330
1640837314932080128,-0.174896090,0.177477150,10.223060610,-0.027348100,0.027216970,0.013525780
1640837314932459776,0.180275870,0.027374090,9.403509140,0.023612380,0.043521830,-0.006344910
1640837314937199872,0.014630620,0.114705060,10.495603560,0.062744330,0.017853080,-0.016675890
1640837314937799936,-0.161669780,0.240549860,10.043180470,0.013205410,0.039787590,-0.000861290
1640837314942230016,-0.010895170,0.334531160,9.428908350,-0.062958900,-0.090028350,0.000378490
1640837314943509760,-0.255126000,0.586720350,9.607849120,-0.075893130,-0.017586350,-0.007729230
1640837314947099904,-0.046495740,0.714000050,8.897106170,-0.073407590,0.061860680,0.013861060
1640837314947439872,0.010834900,0.588284190,10.233242990,-0.016587970,0.049492720,0.017108020
1640837314952260096,-0.115541140,0.424229200,10.725842480,0.024676330,0.079061090,0.017374750
1640837314953699840,0.114670220,0.212857840,10.101996420,-0.023025270,-0.046010310,0.017000730
1640837314957079808,-0.105967850,-0.001775920,10.053456310,-0.069417060,-0.047798450,0.017075240
1640837314957860096,0.091572080,-0.229576300,8.874259950,-0.083449490,0.046478210,-0.002531710
1640837314962070016,0.164701670,-0.206878220,9.319166180,-0.036665800,0.055269900,-0.027607380
1640837314962419968,-0.022648070,0.041210010,9.880180360,0.003127750,0.090149050,-0.007784370
1640837314967379712,0.199368730,0.053313150,9.616986270,-0.018239020,0.012825430,0.011554360
1640837314968080128,-0.183072280,0.067183040,10.446056370,-0.027653570,-0.020992760,0.020848210
1640837314972039936,-0.323511300,0.082562820,9.864775660,-0.022116300,-0.000540910,0.016576050
1640837314972349952,-0.175861730,0.111837010,9.606117250,-0.011132660,-0.006279350,-0.000093880
1640837314977200128,-0.244072790,0.287327020,9.937559130,0.016577540,0.107610230,-0.025688110
1640837314978799872,0.097420770,0.489484430,9.692602160,-0.015582150,0.087939190,-0.004881620
1640837314982060032,0.004330290,0.516114950,10.254030230,-0.044935940,-0.004810090,0.008375940
1640837314982419968,-0.027874120,0.393834050,9.581215860,-0.041726240,-0.019283590,0.006073710
1640837314987180032,0.110121860,0.329041630,9.163236620,-0.029134750,-0.019872190,0.000058110
1640837314988090112,-0.253078610,0.186831380,10.030819890,-0.004912910,0.067654240,-0.011585650
1640837314992130048,-0.065024840,0.173709840,9.951909070,-0.031898920,0.076633700,-0.006546080
1640837314992600064,-0.147200290,0.246676430,10.424098010,-0.055487460,0.003242490,0.000631810
1640837314997129984,-0.212568820,0.209113390,10.121469500,-0.073592360,0.009407100,0.009223820
1640837314997469952,0.117533860,0.285267770,9.259387970,-0.060537460,0.005625190,-0.002031030
1640837315002259968,-0.136128900,0.283215220,9.723644260,-0.023616850,0.033701960,-0.018432740
1640837315003299840,-0.030145780,0.252233710,9.607334140,-0.019398330,0.071793790,-0.003045800
1640837315007149824,0.124232680,0.234256820,9.709912300,-0.031749910,0.015458470,0.017698110
1640837315007569920,-0.238434940,-0.023274590,10.206006050,-0.050614780,0.006674230,0.018395480
1640837315012140032,0.078176080,-0.023027910,9.308894160,-0.058387230,0.023843350,0.014397500
1640837315012470016,-0.175799130,-0.050959400,9.835882190,-0.020766260,0.004231930,-0.012190640
1640837315017370112,-0.184001760,0.032632140,9.864073750,-0.024007260,0.070101020,-0.024865570
1640837315019589888,0.169175330,0.285398630,9.499170300,-0.021027030,0.012095270,-0.024202460
1640837315022039808,-0.249384670,0.166855140,10.369841580,-0.025546550,0.028121470,0.007264320
1640837315022359808,0.006997640,0.057064110,9.545222280,-0.016281010,0.061784680,0.015290080
1640837315027219968,-0.276147340,-0.011209660,9.964827540,0.026991970,-0.047189000,0.013074280
1640837315027619840,-0.497193900,-0.048330580,9.833026890,0.006310640,0.014850500,0.002147260
1640837315032209920,0.087541040,0.175839740,8.834993360,-0.019323830,0.015328830,-0.016903880
1640837315033380096,-0.304635170,0.267366020,10.461051940,-0.013606250,0.033736230,-0.029197340
1640837315037129984,0.163727120,0.540411770,9.922783850,-0.045894090,0.095784660,-0.015416740
1640837315037609728,0.324908880,0.650957050,10.089848520,-0.025655330,-0.031840800,0.007012490
1640837315042160128,-0.061156650,0.324992690,10.567687990,-0.013923650,0.040780010,0.017391150
1640837315042879744,0.347838280,0.313313990,8.971093180,0.004948680,0.043438380,0.015412270
1640837315047129856,-0.343723090,0.084325570,10.263997080,0.018391010,-0.046113130,0.009056930
1640837315047629824,-0.251474710,-0.018082890,9.346529960,-0.043834750,0.059059270,-0.009158250
1640837315052489984,0.137311460,0.129915240,8.833273890,-0.060716270,0.004009900,-0.001904370
1640837315053489920,-0.323250650,-0.069320640,10.599693300,-0.027124590,0.108271860,0.003822150
1640837315057099776,0.234894950,0.092932040,9.658872600,-0.002242620,0.112646830,0.005073850
1640837315057519872,0.007034160,0.212577190,10.565725330,0.035326190,-0.086289640,0.008273130
1640837315062059776,-0.101288410,0.073725850,9.976896290,-0.016817450,0.045824050,0.012315810
1640837315062409984,0.349855900,0.050916250,8.574069980,-0.024770210,0.032216310,-0.002780560
1640837315067159808,-0.297412460,-0.179943190,10.459768300,0.034342710,0.053663560,-0.025120380
1640837315067559936,0.018499060,0.068216920,9.220115660,0.036136810,0.119426850,-0.018458070
1640837315072059904,0.001083640,0.187859650,9.706112860,0.032331050,-0.056211650,-0.000442560
1640837315072389888,-0.442959370,0.164655830,10.487858770,-0.023068490,0.047807400,0.000749530
1640837315078320128,0.111316260,0.422520190,8.977951050,-0.040738290,0.040628020,0.009916720
1640837315078939904,-0.406013610,0.224112440,10.815802570,0.027476250,-0.000688430,0.001047550
1640837315082209792,-0.229524640,0.249867710,10.085324290,0.050805510,0.123777990,-0.021575390
1640837315082749952,0.109404530,0.431234300,9.529127120,0.046388800,-0.032727420,-0.015328830
1640837315087059968,-0.362616030,0.286924840,10.561839100,0.003343820,0.019870700,0.001245740
1640837315087630080,0.163515000,0.431872160,8.718243600,-0.049728160,0.049169370,0.000350180
1640837315092109824,0.017780230,0.489534910,9.766921040,-0.028744350,-0.054506960,-0.011007490
1640837315092550144,-0.159047040,0.560506880,9.942247390,-0.029625000,0.118368870,-0.000239910
1640837315097139712,0.251966210,0.489342780,9.338967320,-0.014260410,0.036025050,0.009840730
1640837315097679872,-0.432883020,0.157568900,11.258079530,0.021469590,-0.004753470,0.012649600
1640837315102419968,-0.255838360,0.170252730,9.631726260,-0.023099780,0.011770430,-0.000096860
1640837315103319808,-0.049628310,-0.129472000,9.286807060,-0.038450950,-0.082586710,-0.001157820
1640837315107120128,-0.312331050,-0.230600310,9.971269610,-0.009667870,0.109289590,-0.037437680
1640837315107589888,0.267939750,0.037239470,8.980414390,0.000745060,0.093124810,-0.026053190
1640837315112140032,0.024603790,-0.013905970,10.471487050,0.024810440,-0.017265980,0.000311430
1640837315112740096,0.011043250,0.194466290,9.725603100,-0.002442300,0.043971840,0.001479690
1640837315117070080,0.098839840,0.115028290,9.406869890,-0.013114510,-0.069884950,0.017344950
1640837315117509888,-0.514661130,-0.060672700,10.385659220,0.025171050,0.005544720,-0.013144310
1640837315122119936,-0.119581330,0.224891390,9.208510400,0.037302070,0.054267050,-0.051204860
1640837315122510080,-0.141349200,0.324910310,10.371251110,0.030893090,0.007992980,-0.041820110
1640837315127089920,-0.237533490,0.558512870,10.375100140,-0.008510050,0.091461840,-0.010670720
1640837315127490048,0.234637650,0.635294440,9.509693150,-0.057521460,-0.035695730,0.008580090
1640837315132129792,-0.172430620,0.334119530,10.296077730,0.000743570,-0.029769550,0.024129450
1640837315132439808,-0.022039370,0.356817720,9.183370590,0.032235680,0.033289200,-0.009153780
1640837315137069824,-0.006266220,0.209035810,9.754997250,0.011587140,-0.009101630,-0.006131830
1640837315137399808,-0.304384380,0.144681620,10.392289160,-0.008754430,0.075967620,-0.018025930
1640837315142669824,0.036405970,0.317996890,9.820712090,-0.053703780,-0.003637370,-0.015527010
1640837315143409920,-0.049275520,0.302141760,10.282904620,-0.051528210,-0.029353800,0.010524690
1640837315147209984,0.027303540,0.354359210,9.516651150,-0.024142860,0.048226120,0.001829860
1640837315147790080,0.192966940,0.320624800,9.644256590,-0.007572770,0.007897610,-0.019139050
1640837315152449792,-0.166299970,0.242725520,10.188277240,0.012640660,0.037178400,-0.006185470
1640837315152849920,0.020580090,0.128755020,9.553705220,-0.014112890,0.004458430,-0.006817280
1640837315157100032,-0.087283460,-0.092306770,9.903759000,-0.033143170,-0.007809700,0.004589560
1640837315157469952,-0.290846590,-0.144550400,9.690930370,-0.002354380,0.029630960,-0.007902090
1640837315162560000,-0.068981070,0.032343030,9.489601140,-0.006093090,0.005997720,-0.016903880
1640837315163079936,-0.250818970,0.028622950,10.108478550,-0.007258360,0.035896900,-0.019907950
1640837315167069952,-0.084184920,0.201324300,9.855729100,0.003248450,0.020785630,-0.023250280
1640837315167439872,0.061413390,0.255075420,9.976698880,0.005343560,-0.007712840,-0.007653240
1640837315172049920,-0.145937670,0.014336760,10.007540700,0.034230950,0.033649800,-0.006131830
1640837315172379904,-0.054294490,0.193011630,9.713249210,0.040547550,-0.002369280,-0.009351970
1640837315177299968,-0.332197700,0.200272520,9.852583890,0.016613310,-0.026953230,-0.010789930
1640837315178200064,-0.254931240,0.228064100,9.305334090,-0.004290040,-0.013789530,-0.022895640
1640837315182939904,-0.137689830,0.550748290,9.628110890,-0.019776820,0.009618700,-0.033208730
1640837315183389952,-0.356775050,0.636926170,10.352060320,-0.018022950,0.021438300,-0.021819770
1640837315187079936,-0.016895260,0.711318190,10.024393080,-0.027033690,-0.014211240,0.005674360
1640837315187429888,-0.071017850,0.548064050,10.318559650,-0.019873680,-0.018465520,-0.003203750
1640837315192109824,-0.176703690,0.334425930,10.113245010,-0.011055170,-0.019229950,0.003354250
1640837315192549888,0.109412500,0.325319980,9.513446810,-0.017361340,-0.039371850,0.001971420
1640837315197110016,-0.070942350,0.083766470,9.710231780,-0.047501930,0.004452470,-0.028742850
1640837315197499904,0.162310060,0.209730610,9.327344890,-0.074608630,0.017766650,-0.026981530
1640837315202319872,0.212897060,0.298253390,9.729240420,-0.061805550,0.000891090,-0.009290870
1640837315203079936,-0.046378740,0.166268570,10.202941890,-0.055827200,0.018830600,0.007469950
1640837315207129856,0.023599200,0.305642870,9.869564060,-0.041431190,-0.032769140,0.012758380
1640837315207429888,-0.438437520,0.099047320,10.232297900,-0.032952430,-0.066742310,-0.001055000
1640837315214819840,-0.299334050,-0.047455920,9.480553630,-0.054465240,-0.008694830,-0.025518240
1640837315215569920,-0.061113070,0.043026070,9.464477540,-0.019431110,0.017420950,-0.050409140
1640837315217110016,-0.159069330,0.059660450,9.954700470,-0.021994110,0.058999660,-0.042250750
1640837315217509888,0.225443720,0.174826980,9.566968920,-0.039523840,0.011228020,0.003197790
1640837315222070016,-0.009252630,0.070087460,10.078340530,-0.028467180,-0.063928960,0.014488400
1640837315222479872,-0.104550880,-0.119712910,9.669323920,-0.013680760,-0.024263560,0.022517140
1640837315227099904,-0.073789660,-0.097119260,9.540902140,0.033783920,-0.040735310,-0.003325940
1640837315227559936,-0.386448890,-0.135854750,10.256488800,0.031299890,0.021672250,-0.032678250
1640837315232029952,-0.028532850,0.186874880,9.760596280,-0.018128750,0.024794050,-0.032037500
1640837315232270080,-0.154960600,0.494536670,10.299235340,-0.019675500,-0.044851010,-0.023232400
1640837315237049856,-0.148352850,0.394527880,9.876106260,-0.048984590,-0.009487570,-0.004689400
1640837315237390080,0.043660040,0.510449830,9.316088680,0.004668530,-0.046154860,-0.001908840
1640837315242259968,-0.379014490,0.420634930,10.178520200,0.036118940,-0.041095920,-0.008670990
1640837315243150080,-0.155113400,0.330701650,9.559186940,-0.018689040,0.002382700,-0.008311870
1640837315247119872,-0.212837930,0.317574230,10.105021480,-0.023579590,-0.067158030,0.000585620
1640837315247500032,-0.204366860,0.141939890,10.221656800,-0.041377540,-0.000992420,0.011219080
1640837315252089856,0.305676610,0.212844920,9.286296840,-0.046789640,-0.000698860,0.025770070
1640837315252480000,0.087867960,0.135632780,10.279047010,0.001634660,-0.027324260,0.017455220
1640837315257239808,0.292941840,0.008569800,9.638777730,-0.002492960,0.027839840,0.009329620
1640837315257900032,0.152635160,0.082534720,9.681415560,0.009684260,-0.073330110,0.004664060
1640837315262049792,-0.267029400,-0.090489430,10.242197040,-0.003840030,-0.032556060,-0.000986460
1640837315262359808,0.018204190,-0.048091040,9.014603610,-0.027617820,0.006364290,-0.010995570
1640837315267170048,-0.386361510,0.088529730,9.996228220,0.007046760,-0.036473570,-0.016772750
1640837315267680000,-0.279795770,0.171331470,9.767136570,-0.001706180,0.037766990,-0.003087520
1640837315272079872,-0.005131820,0.369081500,9.431717870,-0.003390010,-0.045233960,0.006978210
1640837315272460032,-0.288194000,0.266188830,10.554469110,0.003951790,-0.029523670,0.021304200
1640837315277149952,0.133986990,0.091211680,9.502904890,0.009600820,0.021506840,0.026428700
1640837315277979904,-0.033399080,-0.130185780,10.072311400,0.063034880,-0.073887400,0.010600680
1640837315282039808,-0.165612090,-0.240795140,10.103212360,0.067201250,0.014351310,-0.007106360
1640837315282459904,0.123895910,-0.003511150,9.072905540,0.026810170,-0.037908560,-0.017407540
1640837315287099904,-0.312627970,0.123922490,10.188605310,0.013338030,-0.067631890,-0.024773180
1640837315287409920,-0.014684960,0.531353180,9.301045420,-0.020670890,0.015723710,-0.015194710
1640837315292320000,0.001832760,0.805662570,9.727369310,-0.010849530,-0.065387770,0.002092120
1640837315292889856,-0.244526590,0.603662370,10.830093380,0.028046970,0.037656720,0.013047460
1640837315297189888,0.038652830,0.606871840,9.782390590,0.048346820,-0.002710520,0.010803340
1640837315297720064,-0.422532620,0.467283040,10.626841550,0.033491850,-0.134317590,0.015811620
1640837315302209792,-0.287268130,0.279621750,9.439595220,-0.037178400,-0.023871660,0.016099210
1640837315302889728,0.037325170,0.335436050,8.784036640,-0.082579250,-0.062103570,-0.004841390
1640837315307200000,-0.059223490,0.059733410,10.135717390,-0.057595980,0.049050160,0.018575790
1640837315307680000,0.861931320,-0.297470090,9.274372100,0.030630830,0.124073040,0.034123660
1640837315312140032,1.001917000,-0.762837170,10.637097360,0.140918810,0.009106100,0.029861930
1640837315313319936,1.133724090,-1.159394860,10.370468140,0.143677000,0.090616950,0.031796100
1640837315317189888,1.364969610,-1.556634070,9.294019700,0.114075840,0.042691830,0.013226270
1640837315317890048,0.673825860,-1.893134000,10.201585770,0.153444690,0.089523180,-0.025510790
1640837315322789888,0.519927260,-1.338747500,9.098776820,0.246730490,0.149072740,-0.059002650
1640837315323479808,-0.201695860,-0.492519710,9.613049510,0.265681770,0.046774750,-0.051186990
1640837315328359936,-0.736113790,0.357822150,9.649394040,0.164656330,0.141327100,-0.002671780
1640837315328919808,-0.720202620,1.042622920,9.518568990,0.137650980,0.079141560,0.018367170
1640837315332209920,-1.141920690,1.112798210,10.949201580,0.205452760,0.106950100,0.027193130
1640837315332790016,-0.174277200,1.059228780,9.552459720,0.292167100,0.187894700,0.020292400
1640837315337230080,0.189659000,0.595679640,10.456856730,0.346364140,0.140815970,0.008551780
1640837315338349824,0.525629160,0.012517470,10.186347960,0.276805460,0.265230270,0.024965410
1640837315342419968,1.052814130,-0.381225050,9.193861010,0.216792520,0.100012150,0.033760070
1640837315344319744,0.412464500,-0.881042360,10.129961970,0.220032070,0.058606270,0.018692020
1640837315347269888,0.470092830,-0.726349000,8.559132580,0.251886250,0.157715410,-0.028380760
1640837315348049920,-0.184478540,-0.216199110,9.940155030,0.285856430,0.089547050,-0.064797700
1640837315352119808,-1.010413050,0.298013600,11.271689410,0.254100590,0.200702250,-0.059051820
1640837315352679936,-0.716265800,1.028187270,10.163085940,0.209702550,0.096026060,-0.049106780
1640837315357189888,-1.008719560,1.471029280,11.039079670,0.190107540,0.036449730,0.005994740
1640837315357719808,-0.451669370,1.505134110,9.317688940,0.167213380,0.204920780,0.048109890
1640837315362079744,0.240471540,1.209083200,9.226239200,0.206285720,0.153863440,0.047150250
1640837315362439936,0.152684760,0.576975700,10.698431970,0.246146310,0.206150110,0.047016150
1640837315367049984,0.791252850,-0.040145420,9.421908380,0.222422210,0.162278120,0.027783220
1640837315367360000,0.525010820,-0.528985740,10.423388480,0.190557540,0.036501890,0.018937890
1640837315372049920,0.099847260,-0.771237130,9.983596800,0.166769340,0.155234340,0.010444220
1640837315372359936,0.091513920,-0.568135380,9.212499620,0.155432570,0.103600340,-0.028437380
1640837315377280000,-0.480283740,-0.017696390,10.297600750,0.175830740,0.132785750,-0.031898920
1640837315377859840,-0.499563010,0.386481460,9.614967350,0.195018990,0.190152260,-0.036719450
1640837315382249728,-0.513521670,0.834192160,10.248332020,0.197811440,0.088444350,-0.032888350
1640837315382680064,-0.793273630,0.980159100,10.668408390,0.199693440,0.117596990,0.014567380
1640837315387140096,-0.261873900,0.681055960,9.436166760,0.202740770,0.110787160,0.025734310
1640837315387490048,-0.095751900,0.447351570,10.120035170,0.211088360,0.110457850,0.028724970
1640837315392039936,0.203581990,0.113870990,9.657559390,0.200431050,0.222955630,0.075092900
1640837315392349952,0.702119350,-0.401130740,9.750580790,0.191739220,0.150744620,0.049830980
1640837315397179904,0.447672370,-0.457065170,10.630469320,0.219364510,0.136135530,0.036557030
1640837315397569792,0.484440540,-0.549653530,9.605943680,0.225912050,0.106933710,0.028215350
1640837315402259712,0.052930400,-0.551314410,10.234139440,0.235229750,0.092142810,-0.003300610
1640837315402919936,-0.683861080,-0.122557020,10.240939140,0.254119930,0.153671190,-0.004211070
1640837315407150080,-0.897293810,0.363544020,9.890036580,0.238221900,0.047656900,-0.001679360
1640837315408499968,-1.210423710,0.937996510,10.185880660,0.195255880,0.067026920,0.004953150
1640837315412119808,-0.951680180,1.416201470,9.404565810,0.167503970,0.108242030,0.026184320
1640837315412580096,-0.525041820,1.519779440,10.099494930,0.153416400,0.101035840,0.035488610
1640837315417120000,-0.071645580,1.289876820,10.477979660,0.177197130,0.171196460,0.057882070
1640837315417709824,0.630882140,0.753661450,10.331460000,0.211691860,0.113816580,0.075158480
1640837315422019840,0.769953190,0.298260300,10.827868460,0.180900100,0.088030090,0.076630700
1640837315422329856,0.797330800,-0.138199880,9.753623010,0.121220950,0.105518100,0.092548140
1640837315427059968,0.735679030,-0.614613000,9.515339850,0.094527030,0.067518670,0.062190000
1640837315427429888,0.169926840,-0.598943710,9.833053590,0.139871250,0.160807340,0.026994940
1640837315432119808,-0.242621170,-0.392281950,9.558942790,0.199165930,0.132876600,0.044345860
1640837315432469760,-0.872734490,-0.054280110,10.597803120,0.205367820,0.037220120,0.047662860
1640837315437059840,-1.213504550,0.423601030,10.031009670,0.155392300,0.086928910,0.076058510
1640837315437509888,-1.017695430,0.729675170,9.777114870,0.113128140,0.038403280,0.080293420
1640837315442060032,-0.871351000,0.895238460,10.523443220,0.120028840,0.136914830,0.055688620
1640837315442629888,0.055363840,1.092501640,9.529534340,0.169990970,0.175602730,0.044618550
1640837315447199744,0.628294830,1.043506860,10.231805800,0.166012360,0.097365680,0.053212050
1640837315447820032,0.933585290,0.544310450,10.018725400,0.133733470,0.190052390,0.106523950
1640837315452100096,1.191406010,-0.091538590,9.528916360,0.134742270,0.071537490,0.136277080
1640837315452529920,0.465488370,-0.710713570,10.441292760,0.168672200,0.045627360,0.131046770
1640837315457029888,0.328411310,-0.986592170,9.058429720,0.171606230,0.145754200,0.120511650
1640837315457389824,-0.210301980,-0.867526110,10.138023380,0.182747810,0.106799610,0.070434790
1640837315462339840,-1.052510140,-0.391131730,11.009150510,0.169417260,0.179106010,0.053742530
1640837315463179776,-0.853092430,0.356418910,9.736364360,0.144358020,0.051809850,0.063344840
1640837315467150080,-1.258740660,0.819040180,10.543112750,0.156478600,0.012299420,0.078028440
1640837315467510016,-0.989379170,1.187969680,9.388731000,0.177322330,0.157398000,0.091563150
1640837315472059904,-0.442964430,1.381735210,9.712266920,0.193953510,0.052356720,0.110937660
1640837315472329728,-0.396401760,1.254469750,10.861568450,0.168031450,0.108355280,0.130340430
1640837315477069824,0.744726960,1.034134980,9.257546420,0.102245820,0.127713370,0.153148170
1640837315477449984,0.962149440,0.681275490,10.602150920,0.072112680,0.080168240,0.145082180
1640837315482169856,0.941900130,0.274080370,10.361274720,0.065086790,0.186811390,0.161071120
1640837315482820096,1.163035270,-0.228481740,9.599827770,0.119026030,0.058464710,0.151866690
1640837315487109888,0.073293990,-0.481874880,10.753281590,0.165534020,0.058661400,0.121811050
1640837315487609856,-0.358180790,-0.388590990,9.351465230,0.122091190,0.096249590,0.136020780
1640837315492019968,-0.815092380,-0.293608400,9.907533650,0.085625060,0.023908910,0.125427540
1640837315492319744,-1.383206960,0.046873320,10.210604670,0.071886190,0.152438880,0.115938490
1640837315497139968,-0.860069330,0.674255430,9.303254130,0.093235100,0.101254900,0.129018750
1640837315497969920,-0.780076920,1.036455750,10.557023050,0.116251420,0.085631000,0.152032090
1640837315502019840,-0.208920870,1.186675310,9.804445270,0.090445590,0.148999720,0.174227360
1640837315502359808,0.400050640,0.997713330,9.998255730,0.094284120,0.020632150,0.183947400
1640837315507020032,0.474688080,0.442699580,10.341112140,0.089253500,0.117434580,0.182542250
1640837315507399936,1.138590690,0.004188550,9.161143300,0.092375290,0.133880970,0.176115350
1640837315512409856,0.792844120,-0.394174520,10.601322170,0.120237460,0.134684120,0.168442730
1640837315513139968,0.444536570,-0.515004690,9.966145520,0.095939640,0.149860980,0.178818420
1640837315517109760,0.115948660,-0.480918170,9.629767420,0.085540120,-0.006473060,0.188910960
1640837315517580032,-0.747675240,-0.374308290,10.137308120,0.096034990,0.073811400,0.172933910
1640837315522080000,-0.927075920,0.074453780,9.278141980,0.102265170,0.112989540,0.168162580
1640837315522469888,-1.319278240,0.480113030,10.790747640,0.141479090,0.060456990,0.146949310
1640837315527119872,-1.058977130,0.940992470,10.352654460,0.113327810,0.148993750,0.144875050
1640837315527529984,-0.335095670,1.474952460,9.878395080,0.059182950,0.054012240,0.176393990
1640837315532029952,-0.141954910,1.363313910,10.774573330,0.019125640,0.111755730,0.215090810
1640837315532429824,0.674231290,1.115193720,9.226029400,0.029797850,0.134162600,0.214684020
1640837315536989952,0.724992870,0.698360920,10.037968640,0.090348720,0.010645390,0.210030390
1640837315537259776,0.546421470,0.215754360,10.010950090,0.067661700,0.130249570,0.224184990
1640837315542080000,0.734357660,-0.246501550,9.244259830,0.030346210,0.069072850,0.235956920
1640837315542409984,-0.136826650,-0.613291980,10.933675770,0.025142730,0.070473560,0.235129890
1640837315547089920,-0.197483940,-0.478057320,9.653344150,0.007787350,0.122630600,0.228299200
1640837315547600128,-0.339301790,-0.336437230,9.828729630,0.045467910,0.029544530,0.209364280
1640837315552039936,-0.856522020,0.123880480,10.605091090,0.076988320,0.147843380,0.176429730
1640837315552280064,-0.498152580,0.745353760,9.556059840,0.048440710,0.086006540,0.193975880
1640837315557099776,-0.719790940,0.782746790,10.384635930,0.043502450,-0.004513560,0.223983840
1640837315557449728,-0.263796900,0.903264520,9.383955000,0.031962990,0.131523580,0.234736490
1640837315562439936,0.216355010,0.913109540,9.405816080,0.028863550,0.101490330,0.257889930
1640837315563699968,0.081012170,0.545303820,10.629049300,0.034101310,0.134859980,0.266101990
1640837315567339776,0.623404860,0.384409820,9.626018520,0.020934640,0.096853090,0.260615380
1640837315568349952,0.424709590,0.008026110,10.282889370,0.020101670,0.026296080,0.258812340
1640837315572029952,0.228324670,-0.302259450,10.055432320,0.019976500,0.135068600,0.258691610
1640837315572389888,-0.008514340,-0.460316810,9.910782810,0.044961270,0.070872910,0.242413580
1640837315577329920,-0.599473000,-0.497124940,10.563338280,0.082069620,0.059673190,0.241594030
1640837315577869824,-0.596844430,-0.061281060,9.536080360,0.058291860,0.070671720,0.238388790
1640837315582269952,-0.853400230,0.353822170,10.088116650,0.005826350,0.036197900,0.231570010
1640837315583319808,-0.682219740,0.944088940,10.001157760,-0.015641750,0.091870140,0.239636000
1640837315587089920,-0.254196260,1.462968950,9.818157200,-0.023227930,0.053252280,0.254584880
1640837315587379968,-0.042176870,1.484771010,10.482956890,-0.016541780,0.109240430,0.287728040
1640837315592140032,0.406541820,1.436044930,10.130816460,-0.012458860,0.103521350,0.314177570
1640837315592849920,0.260018080,0.932558420,10.505307200,-0.023831430,0.008910890,0.327268270
1640837315597019904,0.376829120,0.298155400,9.763497350,-0.067107380,0.049519540,0.328612360
1640837315597400064,0.364230900,-0.228518490,9.339210510,-0.076116640,0.063622000,0.293134240
1640837315602119936,-0.141250890,-0.599951740,10.195519450,-0.051613160,0.111402570,0.264829400
1640837315602759936,-0.002491010,-0.545596900,9.629993440,-0.038148460,0.107713040,0.270530520
1640837315607099904,-0.432378380,-0.476033900,10.322637560,-0.032332540,0.023850800,0.274595620
1640837315611630080,-0.654748860,-0.215962040,10.201508520,-0.036844610,0.063219670,0.288914170
1640837315612480000,-0.643369200,0.175572590,9.806317330,-0.022363660,-0.012323260,0.297018890
1640837315612819968,-0.826903880,0.363227220,10.209420200,-0.007736680,0.045272710,0.278520580
1640837315617149952,-0.028037470,0.817308190,9.354928970,-0.011852380,0.125884980,0.274260310
1640837315617529856,0.110392480,1.057396890,10.301115990,-0.019732120,0.083656620,0.300321070
1640837315622020096,0.365943910,0.873295310,10.197811130,-0.058904300,0.112842040,0.340513940
1640837315622329856,0.743757720,0.654449220,9.656992910,-0.052389500,0.026722250,0.360384580
1640837315627120128,0.062920920,0.113444630,10.290243150,-0.022485860,0.015762450,0.343915820
1640837315627650048,0.125766690,-0.145299200,9.380887030,-0.019004940,0.058689710,0.327596100
1640837315632369920,-0.360624160,-0.323659510,10.236274720,-0.014498830,0.038683420,0.299248130
1640837315633570048,-0.773130660,-0.327280880,10.487680440,-0.032649940,0.091055040,0.293441150
1640837315637029888,-0.488379660,0.088042180,10.074725150,-0.055885320,0.016708670,0.298784670
1640837315637399808,-0.827756230,0.241665620,10.556576730,-0.045147530,0.016184150,0.307263400
1640837315642210048,-0.387418870,0.536374030,9.546748160,-0.032770640,0.052946810,0.319479410
1640837315642969856,-0.246652140,0.867295620,10.036905290,-0.008854270,0.016415120,0.312657650
1640837315647199744,-0.167030170,0.914934280,10.017205240,-0.041821600,0.068560240,0.346516100
1640837315647709952,0.594671370,0.918567300,9.637475010,-0.078803300,0.030964620,0.366696720
1640837315652509952,0.462446540,0.658717870,10.401893620,-0.089241570,0.079897050,0.376480820
1640837315653090048,0.792620900,0.394103680,9.592005730,-0.092791020,0.117340690,0.390616000
1640837315657199872,0.567837720,0.094629230,10.357919690,-0.046625740,0.036861000,0.362023800
1640837315657840128,0.027012900,-0.150210860,10.164072040,-0.056572270,0.072124600,0.343091820
1640837315662070016,-0.006767080,-0.248611060,9.402023320,-0.077341500,0.004439060,0.354416700
1640837315662380032,-0.796435770,-0.476882610,10.335265160,-0.048904120,0.066444260,0.318838690
1640837315667099904,-0.752016370,-0.299370590,9.300158500,-0.047470630,0.099140410,0.308412310
1640837315667599872,-0.805288730,0.092042460,10.102560040,-0.028894840,0.013299290,0.318621100
1640837315672049920,-0.818875790,0.286230300,10.121239660,-0.049912940,0.098074990,0.339254770
1640837315672659968,-0.001091260,0.558997690,9.421103480,-0.051599750,0.035120550,0.356584790
1640837315677090048,-0.113121900,0.635523260,10.878495220,-0.003395980,0.046014790,0.372347240
1640837315677419776,0.492424850,0.525340970,9.748398780,-0.019548830,0.124128160,0.388640140
1640837315682149888,0.716919780,0.363905850,10.279943470,-0.011751060,0.008881090,0.382690130
1640837315682689792,0.235434500,0.265376960,10.542590140,-0.029221180,0.110866150,0.381916760
1640837315687099904,0.525309560,0.144876570,9.110844610,-0.066150730,0.036488480,0.371731820
1640837315692529920,-0.265700790,0.093654870,10.380860330,-0.033746660,-0.003020470,0.346389500
1640837315693080064,-0.535249410,0.343252210,9.486789700,-0.056937340,0.088216360,0.333401560
1640837315693329920,-0.549830380,0.382499810,9.774448390,-0.063620520,-0.001612310,0.349575340
1640837315697059840,-1.104875800,0.453936370,10.990799900,-0.036688150,0.098684450,0.375874430
1640837315697360128,-0.623232360,0.514953970,10.029025080,-0.054904830,0.056034330,0.382386150
1640837315701999872,-0.512244340,0.433339030,10.645218850,-0.036954880,-0.040645900,0.391444560
1640837315702339840,-0.132385080,0.392382830,9.659751890,-0.062562550,0.068956630,0.369107810
1640837315707049728,0.761395990,0.287654160,9.039165500,-0.077402590,0.067912040,0.351004330
1640837315707749888,0.539845820,0.260110880,10.436686520,-0.056436670,0.129590930,0.350470930
1640837315712069888,0.769383850,0.238370310,9.753426550,-0.076113650,0.077094140,0.373713670
1640837315712389888,0.512509170,-0.082608480,10.240383150,-0.060507660,-0.040996070,0.388881590
1640837315717039872,-0.185608920,-0.168951470,9.955558780,-0.037743150,0.046065450,0.377014280
1640837315717349888,-0.330184760,-0.186614390,9.456530570,-0.050939620,0.023329250,0.349457530
1640837315723059968,-0.828495920,-0.265197100,10.390411380,-0.023746490,0.075815630,0.325042040
1640837315724059904,-0.744148430,0.147698910,9.851187710,-0.007583200,0.103507940,0.295568940
1640837315727150080,-0.541740830,0.465438900,10.191858290,-0.037120280,0.017103560,0.322949980
1640837315727650048,-0.534447190,0.473838690,10.094161030,-0.043560570,0.064471360,0.349968700
1640837315733659904,-0.112897890,0.578552480,9.420185090,-0.033843520,0.003184380,0.331364600
1640837315734139904,-0.129870950,0.456460330,10.134323120,-0.007621940,0.020375850,0.344069300
1640837315737049856,0.089839060,0.341025050,9.717292790,0.006619100,0.063657770,0.328242780
1640837315738169856,0.366989250,0.390394210,10.161446570,-0.039033590,0.023882100,0.301043690
1640837315742209792,0.291593820,0.446342260,10.390813830,-0.087347630,0.098000480,0.321903820
1640837315742650112,0.482615320,0.407795520,9.893192290,-0.099624690,0.055557490,0.320136550
1640837315747079936,0.156322750,0.282202120,10.425708770,-0.063554940,0.020201500,0.311183960
1640837315747389952,-0.151884500,0.149803730,9.654914860,-0.005902350,0.046326220,0.296087560
1640837315752019968,-0.413706960,0.188808320,9.750993730,-0.013186040,-0.012777750,0.280562040
1640837315752379904,-0.704536440,0.168494480,9.950247760,-0.068122150,0.055180500,0.277690590
1640837315757050112,-0.453884330,0.250251110,9.435952190,-0.107772660,0.059083100,0.271946220
1640837315757459968,-0.343737570,0.458314540,10.245447160,-0.106658060,0.081340990,0.269477070
1640837315762140160,-0.118056580,0.495055470,10.098132130,-0.068846350,0.097094460,0.267459450
1640837315762670080,0.271558050,0.609955250,10.036881450,-0.036002690,0.000637770,0.271706280
1640837315767429888,0.264224050,0.390635100,10.139558790,-0.061410660,0.051991640,0.271293550
1640837315768019968,0.481645850,-0.018390140,9.459384920,-0.065705190,0.078728800,0.255252450
1640837315772059904,0.397322270,-0.159611960,10.023001670,-0.043435400,0.063718860,0.232593720
1640837315772689920,0.144612430,-0.224786160,9.828497890,-0.037397450,0.113290560,0.223621770
1640837315777060096,0.029639880,-0.116456720,9.597610470,-0.072398780,0.040417900,0.217601670
1640837315777319936,-0.360476290,0.019061540,10.067021370,-0.059857960,0.049881640,0.210301580
1640837315782639872,-0.497318630,0.098445800,9.787305830,-0.052951290,0.074729320,0.205741820
1640837315783079936,-0.397997440,0.300053980,10.054007530,-0.015306470,0.062313690,0.205564530
1640837315787049984,-0.547735100,0.340534120,10.647724150,0.012558700,0.107061870,0.192257760
1640837315787379968,-0.159111200,0.554637790,9.960320470,-0.040531160,0.088919700,0.197765250
1640837315791999744,0.060354950,0.700841960,9.930581090,-0.071033840,0.047990680,0.209863480
1640837315792300032,0.034366700,0.530776080,9.938561440,-0.075028830,0.087361020,0.188061580
1640837315797089792,0.407954990,0.674364690,9.140748020,-0.065921250,0.073245190,0.167056920
1640837315797410048,0.275181980,0.683006290,9.942203520,-0.048725310,0.061902400,0.167436910
1640837315802199808,0.147090940,0.407639830,10.331322670,-0.085264450,0.171947450,0.174142420
1640837315804620032,0.191897050,0.294796020,10.207973480,-0.089938940,0.083623830,0.177383420
1640837315807119872,-0.340495940,0.020513860,10.990715980,-0.065404180,0.022630390,0.176312040
1640837315807719936,-0.223312870,-0.078715050,9.287575720,-0.075279180,0.105096400,0.161631420
1640837315812049920,-0.122918980,-0.027474600,9.165890690,-0.068525970,0.073893380,0.116623960
1640837315812429824,-0.472681580,0.065478820,10.362003330,-0.077304250,0.159551200,0.093734270
1640837315817109760,-0.027735140,0.301066550,9.283730510,-0.086937850,0.128400340,0.100933020
1640837315817720064,-0.176266040,0.259880630,10.404680250,-0.070489930,0.023354590,0.113230940
1640837315822080000,-0.342756810,0.342655630,10.285578730,-0.053709740,0.110091260,0.124241420
1640837315822419968,0.018887230,0.362442460,9.275338170,-0.066928570,0.050228850,0.106075420
1640837315827059968,-0.186803450,0.222414490,10.244123460,-0.069335100,0.082549450,0.088322150
1640837315827339776,0.034521450,0.196107940,9.545510290,-0.053060060,0.171892360,0.071960690
1640837315832429824,0.318782090,0.117018300,9.750643730,-0.056952250,0.088773680,0.057137020
1640837315832819968,-0.126171560,0.051156920,10.567114830,-0.032164150,0.089083600,0.081355870
1640837315837019904,-0.036485420,-0.123159070,9.581141470,-0.039723510,0.079102800,0.065173200
1640837315837389824,-0.203030320,-0.155365560,9.765882490,-0.043565030,0.036427380,0.040408970
1640837315842129920,-0.652928350,-0.117393960,10.253387450,-0.014542050,0.092592840,0.040608650
1640837315842889984,-0.250345200,0.043379270,9.663367270,-0.022266810,0.117230440,0.010381640
1640837315847239936,-0.312971590,0.542845490,10.272060390,-0.025232140,0.052805240,0.015734140
1640837315847839744,-0.277203260,0.662961070,10.332297330,-0.059773030,0.100773580,0.038506090
1640837315852449792,0.330339040,0.824027240,9.374548910,-0.079131130,0.102318830,0.028941040
1640837315853309952,-0.085358980,0.694272880,10.579952240,-0.026631360,0.033955280,0.023402280
1640837315857019904,0.004717440,0.455482390,9.971954350,-0.011165440,0.112038870,0.005556640
1640837315857369856,0.241871830,0.401292000,9.308033940,-0.028461220,0.032214820,-0.017052890
1640837315862040064,-0.290443690,0.065168120,10.541317940,-0.083072500,0.085736820,-0.010779500
1640837315862309888,0.142275470,-0.061751500,9.233192440,-0.100678220,0.154011000,-0.011740630
1640837315867089920,-0.077568900,-0.172767390,10.204863550,-0.050714620,0.039714580,-0.015053150
1640837315867739904,-0.261925010,-0.201607580,10.364628790,-0.010263920,0.127826630,-0.023178760
1640837315872029952,-0.043940290,-0.077078080,9.532445910,-0.009238720,0.041282180,-0.033973160
1640837315872339968,-0.555185680,-0.175953580,10.671481130,-0.025191900,0.050191580,-0.040219720
1640837315877049856,-0.226387800,-0.167359740,9.358479500,-0.011628870,0.113503630,-0.070574890
1640837315877459968,-0.269958700,0.114717910,9.779475210,0.016200540,0.047618140,-0.088326630
1640837315883649792,-0.257540640,0.380239960,9.902974130,0.002233680,0.122039020,-0.089360760
1640837315884209920,0.105468800,0.517306750,9.382857320,-0.026857850,0.054585940,-0.075767920
1640837315887419904,0.066312070,0.521090450,10.312335010,-0.020477180,0.076521940,-0.071802740
1640837315887970048,0.155996200,0.276268480,10.138241770,0.030085450,0.111882410,-0.064150990
1640837315892060160,0.028444930,-0.056231580,10.394557000,0.061915830,0.065052510,-0.078706440
1640837315892459776,-0.171098410,-0.173583720,10.124327660,0.065156820,0.059090550,-0.100798910
1640837315897129984,-0.471628370,-0.356824370,9.773393630,0.025849050,0.031389290,-0.117178260
1640837315897699840,-0.491689410,-0.223881140,9.345449450,0.004717710,0.048820670,-0.133590390
1640837315902030080,-0.562794150,0.044441120,9.815362930,0.038084390,0.018760560,-0.160226230
1640837315902439936,-0.471660850,0.414259910,10.166213040,0.035674870,0.117331750,-0.151281060
1640837315907099904,0.088107850,0.811596040,10.000471120,0.024080280,0.107394170,-0.139562830
1640837315907409920,-0.133632900,0.798418580,11.537645340,0.037421290,0.029963250,-0.119167570
1640837315912129792,0.170783010,0.816634600,9.944380760,0.016053020,0.069879000,-0.119438780
1640837315912559872,0.430503130,0.721191760,9.167225840,-0.000473860,-0.043153770,-0.137110050
1640837315917539840,-0.080263530,0.419583260,10.022388460,0.010465090,0.100463640,-0.168620090
1640837315921779968,0.297174600,0.506470980,8.737470630,-0.025907160,0.134202840,-0.204946090
1640837315922269696,-0.045776350,0.331610710,10.377847670,-0.039428470,0.016474730,-0.174334660
1640837315922540032,-0.423733530,0.026582750,10.703606610,-0.018766520,0.101287680,-0.174440460
1640837315927320064,-0.216673240,-0.033505650,9.802562710,-0.010347370,0.026591120,-0.184828060
1640837315928099840,-0.651132170,-0.127920330,10.596699710,0.015780330,-0.016197560,-0.170597430
1640837315932039936,-0.415804060,-0.172637640,9.680171010,0.003907080,0.098237380,-0.228001150
1640837315932369920,0.133116590,-0.013115300,9.029588700,-0.016161800,0.103260580,-0.245507080
1640837315937059840,0.006275610,0.165998590,10.255720140,0.013051930,0.107152760,-0.247341380
1640837315937369856,0.169230790,0.231714040,10.149247170,0.014752150,0.107726470,-0.228677730
1640837315942050048,0.299013350,0.343838600,9.574103360,0.028434400,-0.014011560,-0.202338430
1640837315942409984,-0.238160010,0.199693840,10.447996140,0.033169980,0.011819600,-0.213289260
1640837315947089920,-0.139341740,0.156958950,9.647916790,0.014060740,0.123652820,-0.217217240
1640837315947469824,-0.106700520,0.101220030,9.982492450,0.037066640,0.065830360,-0.254304710
1640837315952039936,-0.370612830,0.194068490,11.002456670,0.038994850,0.109036290,-0.262688130
1640837315952339968,-0.149407490,0.394357380,9.670950890,0.017997620,0.072340660,-0.253929140
1640837315957009920,-0.248231570,0.295035000,9.930637360,-0.006985660,-0.026413800,-0.261418520
1640837315957379840,-0.554637730,0.266421380,10.054554940,0.029537090,0.057333720,-0.277529660
1640837315963470080,-0.363242450,0.409146460,9.549017910,0.046467780,0.043427950,-0.274352760
1640837315964089856,-0.334730240,0.290604350,10.352336880,0.028024620,0.047257540,-0.281007620
1640837315967170048,-0.195166860,0.433353100,10.465201380,0.021673740,0.080920740,-0.277243580
1640837315967729920,0.278598760,0.492663530,10.128631590,-0.029249490,0.079832980,-0.259874760
1640837315972049920,0.409489300,0.426513430,10.081834790,-0.028491020,0.048141190,-0.282271240
1640837315972359936,0.320541590,0.302291270,10.059504510,0.012451410,0.054711110,-0.285795330
1640837315977280000,0.432796630,0.193410280,9.418305400,0.037124760,0.086635360,-0.303369760
1640837315978710016,-0.238235370,0.000280610,10.366493230,0.048048800,0.017316640,-0.298897920
1640837315982019840,-0.595112800,-0.250173960,10.240249630,0.027109690,0.063553450,-0.291454790
1640837315982400000,-0.548462570,-0.211201000,9.422485350,0.017258520,-0.011029840,-0.312241910
1640837315987089920,-1.021114350,-0.199791120,10.417966840,0.022588670,0.032721460,-0.327205660
1640837315987490048,-0.468413530,0.139423190,9.466341020,0.032827250,0.124786790,-0.347310270
1640837315992009984,-0.301047380,0.483242240,10.234153750,0.050684810,-0.004836920,-0.356318090
1640837315992359936,-0.122624610,0.468218090,10.494306560,0.040571390,0.086311980,-0.326642420
1640837315997089792,0.443847210,0.414770010,9.536039350,0.061933700,0.020927190,-0.317397650
1640837315997529856,-0.067903520,0.138725470,10.921557430,0.083735580,-0.007319450,-0.326581270
1640837316002840064,0.002191990,0.039072190,9.610728260,0.074385110,0.037410860,-0.339788200
1640837316004139776,-0.093341280,0.028264850,9.620882030,0.062760720,-0.077338520,-0.359256600
1640837316007119872,-0.372945820,0.088434610,10.220771790,0.043381760,0.078938920,-0.366111160
1640837316009319936,-0.065700480,0.284835490,9.596332550,0.024886430,0.085943950,-0.358472850
1640837316012120064,-0.419627550,0.379617630,11.194376950,0.060123210,0.003342330,-0.346873670
1640837316012809984,-0.426395150,0.296851810,10.552264210,0.088347500,0.015026330,-0.344412060
1640837316017370112,-0.424152430,0.325828190,9.777923580,0.085783030,-0.080196580,-0.358523490
1640837316018609920,-0.654487850,0.397806440,10.094456670,0.066886860,-0.041002050,-0.350755510
1640837316022019840,-0.465070130,0.298309360,9.670542720,0.044003140,0.022606560,-0.377011390
1640837316022310144,-0.108338970,0.545312170,9.863760950,0.020201500,0.017499930,-0.384299520
1640837316027180032,0.137735840,0.712236820,10.436735150,0.022360680,0.023671980,-0.355461270
1640837316027829760,0.328917530,0.525233330,10.565200810,0.029918560,0.037431720,-0.354057640
1640837316032049920,0.423284380,0.653883640,10.173080440,0.023680930,-0.020787120,-0.351633160
1640837316032440064,0.055940530,0.309112700,10.473620410,0.025765600,-0.075553370,-0.360149200
1640837316037129984,-0.077917010,-0.077343670,9.718177800,0.019060080,0.025537620,-0.393231270
1640837316037649920,-0.078347340,-0.109932490,9.320403100,0.038921830,0.018657750,-0.419940050
1640837316042340096,-0.608866570,-0.200333000,10.712138180,0.046077380,0.015634300,-0.408619730
1640837316043799808,-0.507992150,-0.157517210,9.808976170,0.033399460,0.046966970,-0.382491890
1640837316047649792,-0.476371590,-0.132279470,10.081119540,0.048826640,-0.092452770,-0.380711260
1640837316049270016,-0.795321940,-0.101851600,10.746708870,0.084052990,-0.020951040,-0.364773040
1640837316052150016,-0.209405780,0.009406320,9.368697170,0.085237630,0.013764200,-0.385406610
1640837316052859904,-0.138766770,0.019254650,10.455476760,0.105477880,-0.032816820,-0.413887230
1640837316057199872,-0.121790510,0.280053470,10.481220250,0.109976550,0.059969730,-0.439915120
1640837316057730048,0.372337520,0.504910830,9.479339600,0.070898230,-0.043782600,-0.436267260
1640837316062939904,-0.048443620,0.378894270,10.437962530,0.076812510,-0.093533100,-0.403641220
1640837316063319808,-0.141625000,0.325286300,9.755806920,0.109864780,-0.014220180,-0.396767290
1640837316067059968,-0.059894250,0.146353010,9.844294550,0.124885140,-0.046660010,-0.382638010
1640837316067649792,-0.655457680,-0.122247100,11.113051410,0.154250890,-0.017476080,-0.384102760
1640837316072099840,-0.432814720,-0.058872520,10.428525920,0.120735180,-0.013093650,-0.414447490
1640837316072819968,-0.333874940,0.037829280,10.217751500,0.086684530,-0.089262430,-0.418455930
1640837316077109760,-0.608879330,0.237415610,10.318509100,0.090561810,-0.076195610,-0.430910350
1640837316077580032,-0.186570330,0.428180960,9.415791510,0.101999950,-0.039593880,-0.433631330
1640837316082129920,-0.293211460,0.642970980,10.009892460,0.138799850,-0.085835170,-0.438982280
1640837316083190016,-0.405864890,0.730288860,10.705455780,0.127270800,-0.055967260,-0.412699550
1640837316087630080,0.070629710,0.714818240,10.051833150,0.082582230,-0.047363340,-0.387449500
1640837316089079808,-0.160310070,0.670763310,10.869025230,0.072148450,-0.110399740,-0.391012520
1640837316092189952,-0.051071490,0.535400150,10.448137280,0.053553290,-0.036010150,-0.393173130
1640837316092640000,0.387001190,0.489101890,9.309008600,0.061856220,-0.066691640,-0.426675470
1640837316097119744,-0.045598630,0.319666480,10.444744110,0.072789200,-0.062340510,-0.450936020
1640837316097529856,0.005949950,0.274267170,9.911367420,0.056353220,-0.004884600,-0.445079890
1640837316102059776,-0.202697810,0.156812190,10.057079320,0.057047610,-0.135879230,-0.430812030
1640837316102569728,-0.654531840,-0.150527050,10.757176400,0.064565250,-0.083793700,-0.405615600
1640837316107209984,-0.338966370,-0.150471170,9.532051090,0.085395570,-0.045359130,-0.402195780
1640837316107829760,-0.543246390,-0.163371670,10.548806190,0.100442770,-0.093163560,-0.423038010
1640837316112059904,-0.284278540,0.038445280,10.216104510,0.077518820,0.007465480,-0.445662530
1640837316112320000,0.197513240,0.456592080,9.602725980,0.067070130,-0.086556380,-0.452038740
1640837316117039872,-0.037659410,0.517325340,10.727121350,0.068412740,-0.078482940,-0.435438840
1640837316117339904,0.253318640,0.517041680,9.559392930,0.072899480,-0.020788610,-0.441365030
1640837316122220032,-0.059630600,0.390527760,10.359884260,0.120553400,-0.141637060,-0.433959130
1640837316123119872,-0.469919230,0.160232220,10.634435650,0.129635660,-0.056169940,-0.434309300
1640837316127130112,-0.180192470,0.054268740,9.351975440,0.100857040,-0.083786270,-0.445233350
1640837316127640064,-0.462280150,0.098253160,10.811529160,0.084669910,-0.099214930,-0.456731110
1640837316132019968,-0.275968910,0.275950310,10.232067110,0.061152870,0.017544630,-0.438281830
1640837316132409856,0.073700060,0.261685520,9.905480380,0.076648590,-0.088994210,-0.429129660
1640837316137129984,-0.324647190,0.280547050,11.112806320,0.130584840,-0.072565670,-0.444458510
1640837316138000128,-0.221673280,0.370099750,9.909729960,0.133693230,-0.068195160,-0.453200970
1640837316142190080,-0.234794270,0.377213690,9.936445240,0.098033260,-0.195756600,-0.448693420
1640837316142779904,-0.475019690,0.524413700,10.357812880,0.067010520,-0.056944800,-0.461860060
1640837316147040000,-0.023782900,0.709104240,9.593184470,0.016008320,-0.007961690,-0.451141600
1640837316147480064,0.087205910,0.800115170,10.685581210,0.030286610,-0.072546310,-0.421632830
1640837316153339904,0.069451310,0.746236210,10.925435070,0.077290830,-0.027678910,-0.428247480
1640837316154909952,0.354737070,0.493761960,9.969121930,0.061063470,-0.082598630,-0.432342320
1640837316157129984,-0.079520490,0.280853420,10.517386440,0.060594090,-0.142604110,-0.437483280
1640837316157879808,-0.250780370,-0.133773820,10.105259900,0.054109100,-0.058515380,-0.444056150
1640837316162149888,-0.000494540,-0.209908860,9.215152740,0.055199870,-0.041793290,-0.469872420
1640837316162839808,-0.454211740,0.007101570,10.479091640,0.055609650,-0.043037540,-0.450714020
1640837316167820032,-0.280938770,0.025741480,10.302555080,0.035874550,-0.003644820,-0.418473840
1640837316169509888,-0.050764590,0.204416440,10.043994900,0.061142440,-0.092864040,-0.422599940
1640837316172509952,-0.392285880,0.161075030,11.017889980,0.106373450,-0.093966740,-0.416082200
1640837316174710016,0.020152740,0.174121930,9.818916320,0.110758860,-0.020587450,-0.437750010
1640837316177979904,0.036547620,0.304704670,9.932277680,0.112065690,-0.076785680,-0.473314610
1640837316178579712,-0.208111450,0.386458580,10.511185650,0.065186620,0.000986460,-0.463342730
1640837316182030080,0.111852040,0.500676990,9.371559140,0.036051880,-0.036773090,-0.447514710
1640837316182339840,-0.357058260,0.265169230,10.489212040,0.081470620,-0.146037380,-0.441286030
1640837316187840000,-0.372529240,0.154246630,10.225137710,0.123843570,-0.039817390,-0.433714780
1640837316189219840,-0.217228340,0.085184690,9.982919690,0.152629610,-0.068743530,-0.420549510
1640837316192009984,-0.538518850,-0.182635780,11.317542080,0.122620170,-0.036160650,-0.425733630
1640837316192299776,-0.125152010,0.076748710,10.131831170,0.082883250,-0.014317040,-0.436201780
1640837316197059840,-0.176447840,0.365944920,10.238948820,0.066626070,-0.129511950,-0.438909320
1640837316197499904,-0.340184120,0.500962850,10.177154540,0.067369640,-0.064052650,-0.461508390
1640837316202159872,-0.012969900,0.920206310,9.198786740,0.086487840,-0.105096420,-0.470706910
1640837316203470080,-0.333714130,1.007592080,10.579005240,0.087478760,-0.083971020,-0.458391100
1640837316207510016,-0.091921230,0.939792750,10.485715870,0.059166550,0.034169850,-0.422835380
1640837316209489920,0.032949350,0.857289310,10.913391110,0.050647560,-0.092560060,-0.405548570
1640837316212160000,-0.198732640,0.646820780,11.331020360,0.016821920,-0.089520200,-0.399146910
1640837316212699904,0.306686010,0.504065220,9.199184420,-0.005899370,-0.055822730,-0.411638650
1640837316217379840,0.068359120,0.330751780,9.950384140,0.008165840,-0.087411720,-0.454713460
1640837316219269888,-0.225466980,0.239978400,10.069917680,0.016438970,0.016687810,-0.463143080
1640837316221999872,-0.023437020,0.217687010,9.569488530,0.021244590,-0.076693300,-0.437547330
1640837316222319872,-0.523910700,0.167170140,11.198505400,0.014990570,-0.103031110,-0.421734150
1640837316227059968,-0.450398770,0.258103010,10.327629090,-0.014349820,-0.011610980,-0.393532250
1640837316227360000,-0.169434760,0.272850040,10.233097080,-0.030261280,-0.102788230,-0.397877450
1640837316232120064,-0.276578010,0.282818470,10.853069310,0.001491610,0.005967920,-0.437587500
1640837316232620032,0.384122400,0.410314590,9.374443050,0.017200410,0.033909090,-0.463169870
1640837316237079808,0.381499380,0.488388600,10.285806660,0.031153860,-0.072942680,-0.448280630
1640837316237560064,0.088738870,0.350719540,10.215468410,0.009760260,0.017166140,-0.432127800
1640837316242240000,0.285475520,0.165560110,9.432717320,-0.017485020,-0.064873700,-0.414863290
1640837316242949888,-0.477205490,-0.109564780,10.989607810,0.028885900,-0.085824740,-0.403979480
1640837316248479744,-0.477000090,-0.222456570,10.100318910,0.054377310,0.023303920,-0.431942910
1640837316248920064,-0.227944060,-0.147676080,10.146973610,0.045046220,-0.030937790,-0.445173770
1640837316252059904,-0.662719070,0.047631500,11.163753510,0.056600580,0.020520390,-0.441950620
1640837316252989952,-0.178433140,0.307301370,9.827111240,0.013029580,-0.006039440,-0.442366300
1640837316257069824,-0.176613600,0.430657800,10.099616050,0.038667030,-0.112296660,-0.407546820
1640837316257479936,-0.458464620,0.503720940,10.227860450,0.071635840,-0.001508000,-0.431653860
1640837316262039808,0.016085780,0.766105180,9.692229270,0.038917360,-0.028429930,-0.432315560
1640837316262289920,-0.302495450,0.657535250,11.017505650,0.043512880,-0.046871600,-0.416953890
1640837316267049984,-0.087231840,0.693417790,10.607831000,0.014168030,0.024586920,-0.435659350
1640837316267399936,0.278269230,0.837720390,10.281687740,-0.021211800,-0.029511750,-0.408156220
1640837316272100096,-0.123643940,0.569149850,10.763961790,-0.010149180,-0.038757910,-0.397802890
1640837316272529920,0.042654570,0.497150180,9.772336010,-0.010435280,-0.015927850,-0.431691140
1640837316277050112,-0.102562670,0.462573830,9.830071450,-0.014565890,-0.057563190,-0.414700840
1640837316277449728,-0.594597340,0.091035250,10.608235360,-0.011727210,-0.013914700,-0.411462870
1640837316282629888,-0.281370760,0.095584240,10.150660510,-0.018927450,-0.004746020,-0.407038660
1640837316283409920,-0.466836990,0.069265700,10.599311830,-0.003927950,-0.053380440,-0.396156400
1640837316287079936,-0.349856260,0.127862620,10.423140530,-0.012084840,-0.000889600,-0.391103360
1640837316287489792,0.262846740,0.431499150,9.721050260,-0.032526260,0.014841560,-0.409260420
1640837316292049920,0.038121970,0.568087640,10.662826540,-0.032316150,-0.006923080,-0.424236090
1640837316292489984,0.246914770,0.664881940,10.242254260,-0.035594400,0.001619760,-0.410771400
1640837316297189888,0.264210190,0.586598810,9.862391470,-0.013725460,-0.050954520,-0.413197310
1640837316297779968,-0.149311810,0.361257670,10.238798140,-0.013162200,-0.002756710,-0.423443290
1640837316302009856,-0.096674550,0.354295370,9.926013950,-0.035074350,0.032421950,-0.398646320
1640837316302309888,-0.388285040,0.032523480,10.466283800,-0.034064060,-0.010980670,-0.404681300
1640837316307040000,-0.369277180,-0.018318210,10.380934720,-0.036396090,0.005142390,-0.399152930
1640837316307430144,-0.158907610,0.005024480,10.133152960,-0.012627240,0.014211240,-0.396023690
1640837316312039936,-0.422183600,-0.204067380,10.677829740,0.004191700,0.026626890,-0.404563640
1640837316312379904,-0.169283760,-0.029574290,10.095421790,0.026124720,-0.008437040,-0.413246540
1640837316317019904,-0.259147700,0.133920090,10.146518710,0.024309760,-0.033868850,-0.426231320
1640837316317420032,-0.284326820,0.305043760,10.028480530,-0.024820860,0.028155740,-0.434654920
1640837316322049792,-0.190772710,0.777512250,10.198329930,-0.037965180,-0.017598270,-0.433970990
1640837316322569728,-0.382492150,0.964566110,10.763366700,-0.030665110,-0.018635400,-0.419102700
1640837316327129856,0.065155090,0.949728670,9.946639060,-0.055587290,0.039935110,-0.394323500
1640837316327600128,-0.041104130,0.838591520,10.824350360,-0.000500680,0.026208160,-0.378522310
1640837316332099840,-0.362460200,0.478441180,11.116288190,0.005204980,0.020547210,-0.363349940
1640837316332669952,-0.106390160,0.464084830,9.609643940,-0.048364710,-0.076539840,-0.368383590
1640837316337339904,-0.448476250,0.371908460,10.139689450,-0.097920010,-0.070866950,-0.391030310
1640837316338459904,-0.292928190,0.301729890,9.788551330,-0.148449840,0.086094460,-0.413936440
1640837316342059776,-0.097393230,0.497136650,10.119016650,-0.106506050,0.022839010,-0.425343250
1640837316342389760,-0.377538860,0.480219360,11.620124820,-0.035597390,0.009551640,-0.411255690
1640837316347099904,0.004749470,0.636023400,10.283672330,-0.070671740,0.016260150,-0.385689740
1640837316347469824,-0.117357680,0.691678640,10.266281130,-0.121818480,-0.096929080,-0.363570450
1640837316352019968,-0.419243810,0.400662600,10.487086300,-0.156234220,0.017981230,-0.362984840
1640837316352310016,0.104696740,0.385152280,8.976492880,-0.135439600,0.035925210,-0.379511650
1640837316357120000,-0.126118380,0.341090290,10.415885930,-0.072343640,-0.007890170,-0.387637320
1640837316357479936,-0.063738290,0.295611080,10.534154890,-0.097811230,0.121741000,-0.366282430
1640837316362779904,0.159860210,0.290123340,10.128553390,-0.127869860,-0.033584240,-0.356206300
1640837316363489792,-0.393296600,0.013631650,11.369127270,-0.127331930,-0.067952280,-0.343495640
1640837316367219968,-0.005535960,-0.000233070,9.425089840,-0.109627860,0.055556010,-0.354579120
1640837316367679744,-0.001675630,-0.046871190,9.705391880,-0.061762330,0.004297500,-0.381016730
1640837316372399872,-0.298168210,0.070175480,10.739517210,-0.061012800,0.124463450,-0.391450550
1640837316372999936,0.175342250,0.380628760,9.463169100,-0.101979090,0.054791570,-0.374586880
1640837316377369856,-0.357887360,0.129218250,10.769321440,-0.111751270,-0.074420870,-0.358790190
1640837316377910016,-0.355928000,0.085360210,10.025366780,-0.068810580,0.040321060,-0.366212430
1640837316381989888,-0.171476770,0.039003220,9.583524700,-0.007136170,-0.009717050,-0.370463760
1640837316382360064,-0.433394640,-0.115895790,10.880436900,0.003521140,0.070017580,-0.370201530
1640837316387049984,0.141540740,0.217383610,9.969348910,-0.050720580,0.145159680,-0.365722180
1640837316387449856,0.020089140,0.201008680,10.752562520,-0.091409680,0.011669100,-0.341595710
1640837316392129792,-0.194080250,0.085401270,10.571709630,-0.059483960,0.019647180,-0.335696340
1640837316392879872,-0.021770280,0.245926950,9.170478820,0.015360120,-0.044474010,-0.363898280
1640837316397039872,-0.611134650,0.176244780,10.199698450,0.030398370,-0.007082520,-0.374822320
1640837316397399808,-0.412571910,0.363554660,9.893778800,-0.010471050,0.115217280,-0.366617740
1640837316402060032,-0.294025480,0.642145630,10.766258240,-0.060918930,0.032110520,-0.371795980
1640837316402809856,-0.376566410,0.794629750,11.309898380,-0.110018270,0.073355460,-0.345455170
1640837316407369728,0.103780670,0.894019190,10.070522310,-0.077721480,0.004071000,-0.339122150
1640837316408969984,-0.220823150,0.748172880,10.573711400,-0.027169290,-0.031696260,-0.355249730
1640837316412089856,-0.252045600,0.662919340,9.594022750,-0.034615400,0.052367160,-0.354002420
1640837316412459776,-0.161263970,0.463170710,9.696369170,-0.056828570,-0.012983380,-0.336143370
1640837316417039872,-0.507824120,0.195542630,10.811899190,-0.097805280,0.058175630,-0.337950940
1640837316417329920,-0.066468050,0.373932840,9.796232220,-0.135687010,0.044852500,-0.324972000
1640837316422279936,-0.078994540,0.289952780,10.774168010,-0.128623830,0.003392990,-0.324909330
1640837316422720000,-0.068598240,0.146862790,10.649512290,-0.096237670,0.107814370,-0.342683520
1640837316427119872,0.118676220,0.406878260,10.120648380,-0.053429610,-0.000008940,-0.353817700
1640837316427529728,-0.341081410,0.348647480,10.868907930,-0.062303250,-0.014461580,-0.353880230
1640837316432000000,-0.086745720,0.364992020,9.200455670,-0.127163540,0.040714440,-0.353921950
1640837316432279808,-0.104728960,0.502188620,9.583268170,-0.139008480,-0.009115040,-0.341807400
1640837316437239808,-0.346478460,0.355907590,10.489384650,-0.134454670,0.147628780,-0.332781700
1640837316438380032,0.027051050,0.342873010,9.905963900,-0.092715030,0.065036120,-0.321385290
1640837316442200064,-0.384394680,0.186232080,11.401668550,-0.039140880,-0.041538480,-0.323705380
1640837316443470080,-0.225787310,0.061831970,10.095945360,-0.082707410,0.058425960,-0.318792490
1640837316447119872,-0.012467190,-0.156418920,9.572547910,-0.105121740,0.007614490,-0.321544710
1640837316447500032,-0.435024410,-0.329877170,10.917511940,-0.059863930,0.093913090,-0.341154630
1640837316452750080,-0.001205290,0.046446070,9.387515070,-0.040543080,0.097118330,-0.346505670
1640837316453129984,-0.165764350,0.198071630,10.294258120,-0.054897370,-0.049592560,-0.344929100
1640837316457149952,-0.370266770,0.432086590,10.399005890,-0.080889470,0.089211770,-0.343090300
1640837316458040064,-0.050177310,0.725025000,9.600399970,-0.082914520,0.008328260,-0.340932550
1640837316462060032,-0.509246110,0.623849030,11.293175700,-0.053046650,0.005981330,-0.324307380
1640837316462319872,-0.211207450,0.720982310,10.178697590,-0.045651190,0.130935000,-0.322920020
1640837316467089920,-0.168087300,0.739237130,10.309770580,-0.066830200,-0.013457240,-0.320714680
1640837316467379712,-0.588390350,0.572177350,10.905500410,-0.104168080,0.014488400,-0.308583770
1640837316472090112,-0.103041690,0.526118040,8.969366070,-0.134256500,0.015082960,-0.324359540
1640837316472469760,-0.270519790,0.376584770,10.056611060,-0.117680430,-0.016236310,-0.354115660
1640837316477069824,-0.292711290,0.366645840,10.378958700,-0.097242010,0.152063370,-0.342258840
1640837316477459968,0.108523770,0.337056280,10.282372470,-0.091668960,0.045044710,-0.327578160
1640837316482149888,-0.394336550,0.181814950,11.662644390,-0.096522270,-0.016076860,-0.316421720
1640837316482679808,-0.090597470,0.251151030,9.804323200,-0.123637910,0.011375540,-0.301496650
1640837316488459776,-0.004197310,0.103708160,9.677948000,-0.122450280,-0.031737990,-0.317850710
1640837316489689856,-0.313832340,0.132112880,10.182989120,-0.091727080,0.115549590,-0.353980120
1640837316492069888,0.126321390,0.407766640,9.339245800,-0.081090640,0.082299140,-0.346614510
1640837316492489728,-0.300737290,0.389026880,10.857706070,-0.093486920,-0.006669760,-0.328074400
1640837316497069824,-0.426230850,0.327637110,10.182665820,-0.123375680,0.039707130,-0.311940910
1640837316497409792,-0.360076730,0.184294130,10.036872860,-0.104478000,-0.065611310,-0.308884680
1640837316502019840,-0.755430040,-0.061436720,10.775889400,-0.059367720,0.028643010,-0.328525930
1640837316502369792,-0.194678100,0.017141090,9.478888510,-0.038509080,0.079984980,-0.345845610
1640837316507149824,-0.044465980,0.088205820,10.488747600,-0.049793720,0.037752090,-0.350642230
1640837316507769856,-0.047911350,0.161124780,10.403889660,-0.093624000,0.114920750,-0.318834280
1640837316512059904,0.301887270,0.158506990,9.753602980,-0.085164600,-0.026796760,-0.304092470
1640837316512349952,-0.191036450,0.046246890,10.697163580,-0.024706130,-0.025138260,-0.326554570
1640837316516999936,-0.232121440,0.194888850,9.672110560,-0.006802380,0.056481370,-0.334705440
1640837316517410048,-0.384823170,0.323026510,10.398730280,-0.013537710,-0.011160970,-0.341324540
1640837316523279872,-0.708632050,0.505185480,10.990818980,-0.058509420,0.063841050,-0.341084630
1640837316524160000,-0.203812210,0.803716000,9.739415170,-0.112475460,0.034652650,-0.321161720
1640837316529199872,-0.263961550,0.728451370,10.809685710,-0.091114630,0.021420420,-0.308006970
1640837316529799936,-0.291005370,0.737591150,10.254398350,-0.042490660,0.086775430,-0.320945620
1640837316532059904,-0.015330430,0.683626000,9.706166270,-0.039903820,-0.050847230,-0.324180720
1640837316532440064,-0.357500230,0.410009680,10.530075070,-0.069004290,0.009165700,-0.313819970
1640837316537390080,-0.115766500,0.126282410,9.611485480,-0.105413800,0.078243020,-0.298425560
1640837316537969920,-0.083045000,-0.088296440,10.570731160,-0.086765000,0.006808340,-0.315955310
1640837316542089984,-0.238275350,-0.046427530,10.690077780,-0.056844950,0.082296130,-0.315308570
1640837316542599936,0.164096730,0.056104740,9.770613670,-0.063483420,0.024853640,-0.347633690
1640837316547109888,-0.096937080,0.350235850,10.545569420,-0.083817560,0.008334220,-0.356091650
1640837316547499776,-0.178764390,0.397697150,9.839975360,-0.102791200,0.081703070,-0.325536760
1640837316552059904,-0.216731180,0.258167560,9.976456640,-0.061285500,-0.003030900,-0.332631200
1640837316552529920,-0.692985650,0.312646900,10.603667260,-0.017341970,0.027148430,-0.342303510
1640837316557039872,-0.515711310,0.259045540,9.672038080,-0.031515960,0.029820210,-0.321681800
1640837316557420032,-0.574260230,0.268893210,10.441221240,-0.075170400,0.008501110,-0.332301860
1640837316562180096,-0.515007260,0.366958740,10.326808930,-0.099058460,0.055725870,-0.326795880
1640837316562719744,0.055072370,0.359250720,9.939383510,-0.089001680,0.027814510,-0.313849780
1640837316567069952,-0.043861040,0.240461570,10.776625630,-0.033929940,0.085718930,-0.328619810
1640837316567440128,0.056410960,0.240617280,10.285050390,0.000177320,0.054633610,-0.338211630
1640837316572439808,-0.076157290,0.311308030,10.362566950,-0.024163720,-0.065833330,-0.345849930
1640837316573050112,-0.420364470,0.365042000,9.941334720,-0.094571710,0.006614630,-0.350597560
1640837316577039872,-0.278652310,0.563125850,9.473910330,-0.136995330,0.007620450,-0.349554420
1640837316577349888,-0.464592640,0.800046150,10.566511150,-0.097432740,0.042282050,-0.343026310
1640837316581969920,-0.295452420,0.793397720,10.399714470,-0.074219720,0.104935490,-0.318023650
1640837316582319872,0.001357690,0.740040720,10.652353290,-0.062893330,0.024248660,-0.305317340
1640837316587049984,-0.415099170,0.467050160,11.179330830,-0.067999970,0.004291530,-0.305391940
1640837316587419904,-0.186941550,0.141494650,9.643913270,-0.109103340,-0.023821000,-0.316144530
1640837316592019968,-0.108168420,-0.045416810,9.603986740,-0.097379100,-0.035271050,-0.338351760
1640837316592339968,-0.308869900,-0.127227750,9.847301480,-0.085802380,0.119745750,-0.355844200
1640837316597070080,0.165854450,0.033091510,9.675663950,-0.093655290,0.095939650,-0.341308150
1640837316597369856,-0.255257670,0.109399870,11.239009860,-0.059470540,0.005266070,-0.330822200
1640837316602380032,-0.302463530,0.235268310,10.594894410,-0.075495250,0.007219610,-0.331619380
1640837316604110080,-0.113706720,0.336101740,9.821429250,-0.080445390,-0.066432350,-0.314602200
1640837316607509760,-0.620913510,0.134176310,10.440993310,-0.038567190,0.030744080,-0.342206690
1640837316608280064,-0.095521170,0.293794960,9.419313430,-0.046007340,0.128822040,-0.371338430
1640837316612310016,-0.161576120,0.462766500,10.294962880,-0.045445560,0.038093320,-0.347213390
1640837316612720128,-0.520760480,0.294708640,10.795516010,-0.057932730,0.032188000,-0.333504410
1640837316617070080,-0.083989380,0.302616660,9.450008390,-0.084482130,-0.046482680,-0.324436990
1640837316617679872,-0.652075350,0.074418700,10.414541240,-0.032916670,-0.070631510,-0.306078790
1640837316622339840,-0.506842790,-0.138556550,10.184372900,-0.004215540,0.091053550,-0.324924290
1640837316623059968,-0.123401820,-0.020229410,10.204078670,0.014352800,0.046792630,-0.337022540
1640837316626999808,-0.511980890,0.108559760,11.353085520,-0.005219880,0.020460790,-0.344066320
1640837316627389952,-0.025045210,0.466705260,9.917689320,-0.079387430,0.012838840,-0.349101420
1640837316632140032,-0.119399030,0.760090830,9.702713010,-0.087140510,-0.090439620,-0.362960990
1640837316632809984,-0.519122360,0.876005170,10.061817170,-0.054624690,0.000095370,-0.363977340
1640837316637039872,-0.134453250,1.073789000,9.347743990,-0.039428480,0.044706470,-0.348940490
1640837316637529856,-0.471102630,0.872414470,10.969988820,-0.027720640,-0.009128450,-0.322012630
1640837316642169856,-0.405545620,0.610668000,11.062489510,-0.069858140,0.041602550,-0.304913520
1640837316642799872,0.048760520,0.535314260,9.991592410,-0.115317120,-0.036302210,-0.299721960
1640837316647269888,-0.336546390,0.065288400,10.644819260,-0.107815860,-0.032524760,-0.332936670
1640837316648310016,0.074462880,0.072515550,9.341254230,-0.090986500,0.045904520,-0.367859040
1640837316652049920,0.091791120,0.083118990,9.480722430,-0.063176450,0.003767010,-0.370441410
1640837316652509952,-0.345951530,-0.143416840,10.697241780,-0.057898470,0.041432690,-0.349053800
1640837316657059840,-0.120501780,0.072827200,9.974133490,-0.059932460,-0.006090100,-0.334206190
1640837316657459968,-0.562701110,-0.005507340,10.609291080,-0.079745080,-0.079746560,-0.321942600
1640837316661999872,-0.493700330,0.155175250,9.980069160,-0.087630760,0.033178930,-0.324311850
1640837316662339840,-0.179176170,0.406743170,9.654379840,-0.046916310,0.022126740,-0.358027280
1640837316667039744,-0.403223930,0.588084820,10.607476230,-0.035476700,0.037927940,-0.372581240
1640837316667439872,-0.022636490,0.771054330,9.716251370,-0.061921780,0.033119320,-0.348454650
1640837316672039936,-0.196590300,0.493811640,10.186399460,-0.065445910,-0.058810420,-0.345280770
1640837316673839872,-0.400582610,0.234527420,10.060872080,-0.064885620,0.000728670,-0.339494710
1640837316677049856,-0.288299200,0.015880220,9.642538070,-0.018338860,-0.020214910,-0.343516470
1640837316677399808,-0.632235410,-0.181152250,10.722049710,-0.020432470,-0.004152950,-0.367288320
1640837316683169792,-0.265040730,0.048710900,9.881141660,-0.054980810,0.049223010,-0.358893010
1640837316683709952,-0.166218180,0.224800330,10.340362550,-0.074422380,-0.031299890,-0.343468870
1640837316687170048,-0.279292700,0.220683260,10.568246840,-0.078347330,0.037571790,-0.343911380
1640837316687830016,-0.058713320,0.459548980,9.647081380,-0.030341750,-0.038912900,-0.352033970
1640837316692039936,-0.515571530,0.510453820,10.603601460,0.005505980,-0.085242090,-0.367242100
1640837316692339968,-0.501284300,0.638264480,9.699632640,-0.044929990,0.016236310,-0.367508920
1640837316697459968,-0.323329180,0.881608370,9.802986150,-0.106762370,-0.056962680,-0.358673930
1640837316698089728,-0.427471760,0.773866060,10.758909230,-0.130049900,0.038342180,-0.340642060
1640837316701999872,0.095648130,0.738548820,9.597107890,-0.111427910,0.051361320,-0.332446400
1640837316702529792,-0.011848820,0.606262150,10.710618970,-0.056841980,-0.056047750,-0.332620740
1640837316707119872,-0.178131390,0.348983080,10.474731450,-0.060030830,0.017312170,-0.330065280
1640837316707480064,0.015883020,0.120214980,9.277449610,-0.101360690,-0.082005580,-0.341245590
1640837316712199936,-0.352557030,-0.267119800,10.251793860,-0.103783620,-0.042589010,-0.364501860
1640837316712989696,-0.191470410,-0.190791140,9.390370370,-0.089971720,0.101397940,-0.376683470
1640837316716999936,-0.249713820,-0.000932460,10.182361600,-0.070403530,-0.027625270,-0.360041950
1640837316717399808,-0.589409350,0.045018900,10.951379780,-0.053736560,-0.003065170,-0.340783600
1640837316722080000,-0.284478370,0.253556910,9.457641600,-0.067265340,-0.058612230,-0.337745250
1640837316722589952,-0.456797600,0.185970890,10.274513240,-0.048646330,-0.076726090,-0.326202810
1640837316727150080,-0.399635550,0.015317050,10.004376410,-0.012573600,0.090181830,-0.349783930
1640837316727719936,0.029663480,0.224302250,9.694864270,-0.005166230,-0.003944340,-0.375487000
1640837316732059904,-0.170603280,0.282546340,10.668448450,-0.025147200,0.002875920,-0.350664590
1640837316732460032,0.069254910,0.270568790,9.524634360,-0.060628350,0.023925300,-0.346079410
1640837316737169920,-0.191528950,0.329332110,10.209640500,-0.051422420,-0.103868550,-0.346824530
1640837316737639936,-0.601108850,0.171813320,10.256865500,-0.009539720,-0.016072390,-0.338913530
1640837316742099968,-0.295868220,0.128828870,9.485210420,0.022849440,-0.021535160,-0.354358640
1640837316742429952,-0.577868340,0.219971020,10.983876230,0.018467010,0.010731820,-0.355246690
1640837316747109888,-0.337001380,0.346499260,10.359508510,-0.035431980,0.056101390,-0.341269370
1640837316747439872,-0.132464650,0.464239980,10.336758610,-0.064304470,-0.088489060,-0.351269540
1640837316752039936,-0.397596690,0.526959420,10.271037100,-0.049613430,-0.043588890,-0.372418910
1640837316752399872,-0.066535730,0.728851560,8.922286030,-0.033256420,-0.029322500,-0.377851750
1640837316757050112,-0.401671230,0.674036860,10.367731090,-0.012941660,-0.030264270,-0.356596800
1640837316757550080,-0.449770360,0.476542710,10.384073260,-0.023883580,0.027468800,-0.336399670
1640837316763219712,-0.050870900,0.420514110,9.970693590,-0.041992960,-0.072215500,-0.315544040
1640837316764379904,-0.283017930,0.226634830,10.777612690,-0.061194610,-0.015594070,-0.314553080
1640837316767119872,-0.014673560,0.117825780,9.717093470,-0.083939720,0.039006770,-0.337749660
1640837316767729920,0.026471150,0.137578010,10.014208790,-0.054094200,-0.066298250,-0.368188320
1640837316772019968,-0.361011330,0.099820820,10.265439030,-0.022917990,-0.000517070,-0.377605860
1640837316772440064,-0.102022150,0.059607910,9.207951550,-0.027038160,-0.025613610,-0.373606470
