timestamp,accel_x,accel_y,accel_z,gyro_x,gyro_y,gyro_z
1640793801129999872,-0.002282870,0.360429610,9.212785720,-0.013692680,-0.009848180,-0.040051340
1640793801132029952,-0.105828880,0.578349530,9.975755690,0.000253320,0.001446900,-0.025087600
1640793801134979840,-0.178665610,0.749589030,10.058919910,-0.070822250,0.034785270,-0.013841690
1640793801136910080,0.115635080,0.247909370,9.746499060,-0.113807640,-0.056342790,0.009740890
1640793801140270080,-0.122053550,0.077382910,10.013470650,-0.027431550,-0.033541030,-0.001761320
1640793801145530112,0.113444820,-0.165764720,9.219219210,0.026293100,0.031158330,-0.033997000
1640793801146380032,0.023356960,-0.194290180,9.699507710,0.016276540,0.009790060,-0.030358140
1640793801147949824,-0.225526270,-0.031235290,10.081949230,-0.073654960,0.038853290,-0.020648540
1640793801151029760,0.049264500,-0.346025020,9.640340810,-0.096593790,-0.010818240,-0.010137260
1640793801152230144,-0.433325410,-0.284492610,10.202143670,0.037306540,-0.056099890,-0.025141240
1640793801155089920,-0.369524150,0.011717590,9.426795010,0.086419300,-0.021089620,-0.056782380
1640793801157229824,-0.300728380,0.130708470,9.255205150,0.033377110,-0.003869830,-0.034283110
1640793801160069888,-0.570868610,0.172418970,10.118802070,-0.025032460,0.052036350,-0.027833880
1640793801161979904,-0.080684420,0.148925100,9.799981120,0.001686810,-0.003218650,-0.013287370
1640793801165239808,-0.250854580,0.167665260,10.088210110,0.091284500,-0.068548310,-0.006560980
1640793801167059968,-0.074935350,0.278576910,9.540760990,0.069761260,-0.005143880,-0.022743640
1640793801170089984,-0.021499160,0.292705330,9.652235980,0.003215670,0.010383130,-0.023821000
1640793801172039936,-0.323707880,-0.021048180,10.400528910,0.015059110,0.015443570,-0.022049250
1640793801175269888,0.062946320,-0.010389950,9.666379930,0.076389320,-0.037103880,-0.043667850
1640793801177339904,-0.146529150,0.203451420,9.771100040,0.112165510,-0.038187210,-0.035633150
1640793801180019968,-0.296586600,0.493520260,9.761378290,0.005862120,0.026357180,-0.024464730
1640793801182339840,-0.260129480,0.670704420,9.905550000,-0.078183420,-0.023385880,-0.005830820
1640793801185289984,-0.528037190,0.476257650,10.317696570,-0.019043680,-0.052154070,-0.008200110
1640793801187029760,-0.154960110,0.549147730,9.649260520,0.083769870,-0.021664800,-0.020334130
1640793801190569984,-0.252002810,0.668792250,9.924900050,0.096640000,-0.009314720,-0.024385750
1640793801192099840,-0.209696550,0.678287090,9.920671460,-0.036412480,-0.002484020,-0.009052460
1640793801195539968,0.264356020,0.570891920,9.590581890,-0.131663680,0.001785160,0.032354900
1640793801197029888,0.024428880,0.165948990,10.060560230,-0.071884680,0.000907480,0.004513560
1640793801200120064,0.085052190,0.242324740,9.933522220,0.033773480,-0.027887530,-0.017745790
1640793801202050048,0.022550330,0.308588420,9.592097280,0.037388500,-0.039280950,-0.013300780
1640793801205109760,-0.185960080,0.080841060,9.698367120,-0.073364380,0.007036330,-0.008858740
1640793801207239936,0.002228010,-0.030881590,9.714028360,-0.099414590,0.047115980,0.018778440
1640793801210729728,-0.308431270,-0.207942100,10.109682080,-0.014385580,0.020152330,-0.014656780
1640793801211949824,-0.318824740,0.045205960,9.962544440,0.046834350,-0.055348870,-0.010447210
1640793801214999808,-0.257376850,0.411208060,9.349365230,-0.007934870,-0.036297740,-0.005829340
1640793801217219840,-0.398647520,0.197731420,9.539091110,-0.109356660,0.013782090,-0.021788480
1640793801220739840,-0.132650820,0.092707500,9.752607350,-0.038830940,0.028802460,-0.007635360
1640793801222119936,-0.187767640,0.175179140,10.075386050,0.080488620,0.012408200,-0.037580730
1640793801227079936,-0.058771600,0.215247620,9.885197640,0.051324070,-0.023064010,-0.009603800
1640793801227469824,0.020043750,0.315347700,9.698213580,-0.041107830,-0.015826530,0.025700040
1640793801230749952,-0.223914490,-0.118495110,9.925386430,-0.091318770,0.009758770,-0.000196700
1640793801232019968,-0.070152120,-0.252624210,9.705321310,0.030848380,-0.019855800,0.003752110
1640793801234979840,-0.314821870,-0.023559910,9.896764760,0.130243580,-0.018142160,-0.032837680
1640793801236960000,-0.359207870,0.165437710,9.700690270,0.043508410,0.008282070,-0.034429130
1640793801240109824,-0.389780370,0.539642160,9.957334520,-0.066231200,-0.032848120,0.015524030
1640793801242709760,-0.516520860,0.471972410,10.173924450,-0.085803870,-0.033542510,-0.004772840
1640793801246330112,-0.213593530,0.523366510,9.615998270,0.007611510,-0.039386750,-0.004142520
1640793801246959872,-0.368296590,0.792838280,10.063895230,0.081843140,-0.036481030,-0.014764070
1640793801250129920,-0.195313710,0.683179500,9.850824360,-0.006793440,0.010934470,-0.017529730
1640793801252019968,0.047112140,0.580716010,9.831486700,-0.072358540,-0.051164620,0.033299630
1640793801255450112,-0.045945970,0.196110110,10.206064220,-0.051969280,-0.015260280,0.014777480
1640793801256960000,0.137102070,0.130916210,9.571604730,-0.029696530,0.002190470,-0.005404650
1640793801260089856,-0.150920900,0.450665770,10.078869820,-0.014856460,-0.076596440,0.015203660
1640793801262019840,-0.271334410,0.179083810,9.979495050,-0.089485940,-0.014832620,0.007356700
1640793801264959744,-0.068538110,0.143562080,9.432951930,-0.075276200,-0.040963280,0.018884240
1640793801266949888,-0.371464610,0.137901920,10.310508730,-0.000102820,-0.034394860,-0.002890830
1640793801270139904,-0.044049590,0.283108030,9.554636000,-0.022745130,0.039912760,-0.011321900
1640793801271999744,-0.076524650,0.613245900,9.793022160,-0.076571110,-0.051727900,0.034256280
1640793801275879936,-0.209599490,0.214539870,10.396598820,-0.127904130,0.017569960,0.029240550
1640793801277040128,0.158536300,0.081615590,9.366245270,-0.055235640,-0.011292100,0.017838180
1640793801280029952,-0.111644650,0.039531980,9.965897560,0.062347950,-0.086574260,0.015893580
1640793801282029824,0.109320510,-0.047838890,9.267032620,-0.010305650,0.088521840,-0.000494720
1640793801285179904,0.125205810,0.032753520,9.535094260,-0.086991500,0.026306510,0.018341840
1640793801287159808,-0.312205200,-0.212409720,10.846494670,-0.086709860,-0.004334750,0.023223460
1640793801290030080,0.069398020,-0.185773820,9.330962180,0.001163780,-0.014737250,0.007972120
1640793801292310016,-0.431199010,0.035373210,9.851387980,0.075447540,-0.081032510,-0.000584130
1640793801295040000,-0.499969990,0.145935300,9.740279200,-0.009964400,0.056137150,-0.011533500
1640793801297060096,-0.284013000,0.128429830,9.398868560,-0.040347880,0.014443700,0.008462370
1640793801299939840,-0.534316720,0.018392810,10.596916200,0.022941830,-0.034514070,0.017088650
1640793801302059776,0.025309550,0.256843510,9.416110990,0.058071320,0.037816170,0.014786420
1640793801305009920,-0.073482690,0.475169810,9.911137580,0.019963080,-0.031480190,0.008958580
1640793801306929920,-0.187230180,0.440979360,10.380400660,-0.055955350,0.015845900,0.021480020
1640793801310099968,0.180423920,0.336070450,9.295720100,-0.032413010,-0.021399560,0.004778800
1640793801312429824,-0.177056890,0.190813200,10.184251790,0.059124830,-0.037276750,-0.005590910
1640793801314999808,-0.134508710,0.422875080,9.788396840,0.055348870,0.047989190,-0.010120870
1640793801319190016,-0.288739620,0.523717400,9.863366130,-0.035393240,-0.061208010,-0.003117320
1640793801320070144,-0.508154570,0.470648850,10.436298370,-0.111074770,-0.038225950,0.032724440
1640793801322019840,-0.099729440,0.443183210,9.418574330,-0.079029780,0.030708310,0.024084740
1640793801325419776,-0.413613590,0.423335190,10.451015470,0.015993420,-0.030435620,-0.001448390
1640793801327020032,-0.302306180,0.640942040,10.179059030,0.011591610,0.001940130,0.013847650
1640793801329959936,0.054807540,0.616119920,9.267791750,-0.084121530,-0.056201220,0.010490420
1640793801332029696,-0.045158040,0.295387950,10.005461690,-0.127169490,-0.013598800,0.029449160
1640793801335160064,0.231315080,0.335240690,9.538369180,-0.091628720,0.079175830,0.014075640
1640793801336939776,0.041762990,0.365109860,10.295514110,-0.053183740,-0.033590200,0.004015860
1640793801340029952,-0.134508680,0.383113060,10.332601550,-0.081487010,-0.029744210,0.032773620
1640793801342340096,0.092124650,0.250454810,9.252596860,-0.124779370,-0.021602220,0.010584300
1640793801344989952,-0.198994760,-0.142861560,9.971266750,-0.091327730,0.029535590,0.021202860
1640793801346979840,-0.139033820,-0.027338030,9.692272190,-0.034901500,0.070044410,0.022830070
1640793801350390016,-0.197942730,-0.030558430,10.013465880,-0.048474970,-0.027577580,0.008898970
1640793801351980032,-0.297401580,-0.070127790,10.061208720,-0.099836290,0.003583730,0.054663420
1640793801355000064,-0.140078890,-0.098800640,9.496698380,-0.082023440,0.001464780,0.012239810
1640793801356959744,-0.336604890,-0.252855990,10.070596690,-0.015594070,0.003355740,-0.002299250
1640793801360119808,-0.018503020,0.096706970,9.404664040,0.020451840,0.055426360,0.008492170
1640793801362700032,-0.022785750,0.151132930,9.960231780,-0.029446180,0.029255450,-0.009381770
1640793801364960000,-0.149597390,0.077171470,10.194988250,-0.068669020,0.047063830,0.029762090
1640793801366999808,-0.029561760,0.188921500,9.593373300,-0.016047060,-0.051006680,0.026741620
1640793801369979904,-0.319757640,-0.037438120,9.994405750,0.016847250,-0.005154310,0.002257530
1640793801371970048,-0.294640420,0.199096610,9.401873590,0.013694170,0.058425970,0.023245820
1640793801375030016,-0.454383340,0.158537220,10.295529370,-0.001201030,-0.006407500,0.006927550
1640793801377009920,-0.352781950,0.028696380,10.191473010,-0.013707580,0.025302170,0.013858080
1640793801380000000,-0.075761750,0.348165090,9.543767930,0.021134320,-0.018635390,0.025303670
1640793801382659840,-0.413006720,0.286323820,10.587384220,-0.003208220,0.001493100,-0.003379580
1640793801385019904,-0.175739960,0.443758160,9.492848400,-0.037272270,0.017571450,0.009079280
1640793801387029760,-0.174244240,0.495694010,9.922796250,-0.008773800,-0.071686510,0.015951690
1640793801389979904,-0.146552710,0.322568420,10.164964680,-0.006186960,0.046275550,0.006139280
1640793801392329984,0.187467500,0.538834810,9.310221670,0.010636450,0.019253790,0.013346970
1640793801395020032,-0.247864020,0.595776620,10.762063030,-0.051838160,-0.024497510,0.006940960
1640793801396979712,-0.060119700,0.553017740,9.632312770,-0.117518010,0.051881380,0.030919910
1640793801400409856,-0.082215650,0.348074670,9.707127570,-0.060358640,-0.084091720,0.028212370
1640793801401999872,-0.435770480,0.165157880,10.440624240,-0.005112590,0.017870960,0.001539290
1640793801405939712,0.053650670,0.211034850,8.753058430,0.004571680,0.043289360,0.000184770
1640793801406949888,-0.202858190,0.139422340,10.431234360,-0.054997210,-0.016567110,0.009490550
1640793801410159872,0.033717180,0.039975710,10.025326730,-0.116242480,0.125962500,0.026890640
1640793801412070144,0.276862230,-0.015168920,9.567832950,-0.060245390,-0.031869120,0.018590680
1640793801415379968,-0.313498410,0.080658350,10.731549260,0.012293460,-0.043089690,0.021947920
1640793801417100032,0.128877950,0.240567070,8.501691820,-0.028507420,0.043050960,0.016297400
1640793801419999744,-0.217074160,0.077231710,9.973390580,-0.055049360,-0.016681850,0.006692110
1640793801421979904,-0.414979400,-0.019892510,10.435783390,-0.038684910,0.136838850,0.005295870
1640793801424999936,0.044540800,0.044046570,9.206128120,0.028099130,-0.026413800,-0.015597050
1640793801427399936,-0.471440970,0.255829420,10.702014920,0.023823980,-0.043825810,0.005629660
1640793801430629888,-0.129727720,0.453246120,9.030850410,-0.084546210,0.105722250,0.024943060
1640793801433779968,-0.261770250,0.057597860,9.980522160,-0.084412080,-0.042012330,0.015243890
1640793801434959872,-0.508559410,-0.024435900,10.627346040,0.035429000,0.049835440,-0.002747770
1640793801436979968,0.200768220,0.039490720,8.806410790,0.105081510,0.016848740,-0.027376420
1640793801439970048,-0.367270050,0.081102940,10.846157070,0.049145510,0.000898540,-0.017912680
1640793801442259968,-0.187139510,0.481270910,9.843303680,-0.091034180,0.077515830,-0.003822150
1640793801445070080,0.060690290,0.314258370,9.523649220,-0.106926270,-0.081539150,0.003269310
1640793801447810048,-0.421973590,0.456481700,10.553017620,-0.009118020,0.035181650,0.001582500
1640793801450799872,0.004661180,0.760668810,9.144124030,0.027115640,0.072640180,-0.023154920
1640793801452309760,-0.476411820,0.628997680,10.792407990,0.000299510,-0.048187370,0.004686420
1640793801454989824,-0.469976660,0.654830040,10.118452070,-0.069171190,0.023119150,0.029504300
1640793801456989952,0.054586520,0.138808760,9.193806650,-0.075647240,-0.030595060,0.002039970
1640793801460019712,-0.358444870,0.093691290,10.546123500,-0.017286840,0.045472380,0.001709160
1640793801462159872,0.029852240,0.452866670,9.427852630,-0.038592520,0.072857740,-0.002752240
1640793801465299968,-0.017070430,0.118136140,10.296459200,-0.093805800,-0.049921870,0.009223820
1640793801467010048,-0.187178250,0.157879230,10.166081430,-0.083062070,0.025580830,0.011640790
1640793801470010112,0.166791450,0.021773820,9.250214580,-0.019408760,-0.011377040,-0.019228460
1640793801472059904,-0.204035880,-0.021094830,10.261899950,0.018070640,0.024077300,-0.010576850
1640793801475559936,0.031653710,0.370469300,9.412272450,-0.038623810,0.094842910,0.006625060
1640793801477120000,0.049677010,0.009716540,10.216295240,-0.105358660,0.022791330,0.017684700
1640793801482569984,-0.272137760,0.093508270,10.325308800,-0.054910780,0.042749950,0.025358800
1640793801483490048,-0.112626790,0.124569820,9.306067470,0.019067530,-0.043667850,-0.001627210
1640793801484959744,-0.389813690,-0.049071000,9.961153980,0.017032030,0.018282230,-0.023917850
1640793801486939904,-0.261972840,0.145187900,9.380663870,-0.020805000,0.110656040,-0.005978350
1640793801489949952,-0.142523470,-0.173216090,10.268184660,-0.015144050,0.025126340,-0.010301170
1640793801492369920,-0.196828370,-0.080314230,10.314719200,0.026778870,0.063343330,0.007969140
1640793801495179776,0.190743180,0.242115100,9.324703220,0.023673480,0.000543890,0.005157290
1640793801497040128,-0.177184240,-0.029746740,10.413861270,-0.020800530,0.036299220,0.002430380
1640793801499939840,-0.091002170,0.032705610,9.346187590,0.008207560,0.077192490,-0.002193450
1640793801501989888,-0.119960240,-0.047681380,9.919625280,0.096999110,-0.039304800,-0.023388860
1640793801504930048,-0.341497420,0.059754190,10.177532200,0.097358230,0.097021460,-0.024601820
1640793801507000064,-0.087494900,0.416924890,9.442153930,0.015094880,0.046038630,-0.010764600
1640793801510079744,-0.556232210,0.359802540,11.061261180,-0.049817560,0.003859400,0.004169350
1640793801512259840,-0.277540330,0.447412670,9.475086210,-0.013712050,0.051172080,-0.000916420
1640793801515820032,-0.164095090,0.560932820,9.685650830,0.069445360,-0.053548810,-0.017569960
1640793801516989952,-0.393547950,0.588740290,10.420610430,0.064446030,0.125777740,-0.014808770
1640793801520059904,0.076352000,0.640175940,9.280282970,-0.009006260,0.051443280,0.007367130
1640793801522029824,-0.225753010,0.333479490,11.083564760,-0.033584240,-0.030319390,0.028447810
1640793801525519872,-0.014803970,0.222494410,9.685538290,-0.023056560,0.099743910,0.005421040
1640793801527709952,0.044808330,0.353268620,9.516808510,0.004638730,-0.047498950,-0.006805360
1640793801529979904,-0.532730460,0.455550940,10.822805400,-0.021547080,0.051574410,-0.006385150
1640793801532219904,0.040569620,0.451537490,8.850123410,-0.077258060,0.050155820,-0.012482700
1640793801535320064,-0.179209560,0.221791580,10.639294620,-0.034654140,-0.030365590,0.001288950
1640793801537169920,-0.194058210,0.292730300,10.160887720,0.010967260,0.153793390,-0.009197000
1640793801540060160,0.176231820,0.308888350,9.302660940,-0.016535820,-0.009348990,-0.005264580
1640793801545159936,-0.391200360,0.266719880,11.019871710,-0.064586100,0.008744000,0.034716730
1640793801546969856,0.037729990,-0.030902460,9.017592430,-0.097091500,0.093777490,0.021418930
1640793801547449856,0.041910430,-0.310167370,9.834495540,0.015933810,-0.024656960,0.010019540
1640793801550329856,-0.261072870,-0.120787070,10.362323760,0.083433090,0.143890080,-0.012275580
1640793801552800000,0.329852130,-0.008299860,8.983017920,0.006042420,0.088399630,-0.019805130
1640793801555029760,-0.276427150,-0.002244910,11.088371280,-0.051909700,0.018011030,0.024072830
1640793801557039872,-0.219723080,-0.026882840,9.765181540,-0.050008300,0.096796450,-0.003996490
1640793801560499968,-0.064215640,-0.204915210,9.272887230,0.075471410,-0.060552370,-0.021979210
1640793801562059776,-0.637024880,0.144897970,10.258496280,0.131973640,0.085867930,-0.026263300
1640793801565029888,-0.062485460,0.150454070,8.916614530,0.034171340,0.156520320,-0.030991440
1640793801566979840,-0.339669230,-0.107917950,10.880376820,0.016963480,0.024265050,0.006741290
1640793801569949952,-0.305301130,0.075887600,10.303041460,0.055381660,0.076630710,0.003905600
1640793801571990016,0.219570340,-0.087042540,9.214843750,0.101554390,-0.017263000,-0.001959500
1640793801575189760,-0.395453330,0.194637240,10.513025280,0.099048020,0.072808570,-0.000269710
1640793801577100032,-0.076074440,0.272053390,9.346796990,0.032262500,0.119990130,-0.015562770
1640793801579979776,-0.141322270,-0.071012560,10.311755180,0.075389440,-0.021861490,-0.016759340
1640793801582069760,-0.384060260,0.254512070,10.217287060,0.148826840,0.073459750,-0.017124410
1640793801585019904,-0.031835380,0.302844380,9.373203280,0.108946870,0.044181950,-0.034734610
1640793801586989824,-0.655124310,0.503364560,10.834558490,0.035338110,0.030277670,-0.000111760
1640793801590240000,-0.435010080,0.643390300,9.826519010,-0.008541350,0.049218540,0.001059470
1640793801592000000,-0.201376830,0.277641740,9.958513260,0.065892930,-0.023101270,-0.007912520
1640793801595000064,-0.469271180,0.563937250,10.221234320,0.141754720,0.080835810,-0.008854270
1640793801597049856,-0.001601630,0.643802230,9.514961240,0.071936870,0.052887210,-0.013503440
1640793801599949824,-0.118065130,0.386143770,10.499941830,-0.019428140,0.027354070,0.014959280
1640793801602030080,0.011058750,0.384123470,9.937045100,-0.018881260,0.071556870,0.016076860
1640793801604989952,0.150377330,0.149513920,10.066972730,0.038912900,0.002583860,-0.015380980
1640793801607290112,-0.182642670,0.386383860,10.219658850,0.080743430,0.047823790,-0.008420650
1640793801610899968,-0.033276200,0.530784190,9.475747110,0.005260110,0.027260190,-0.006631020
1640793801612140032,-0.140806240,0.190637100,10.259458540,-0.052811210,0.048460080,0.014500320
1640793801615699968,-0.189839020,0.107625400,9.766795160,0.011923910,0.103771690,0.008821490
1640793801617979904,-0.072770360,0.111695680,9.951944350,0.080750890,0.002363320,-0.021004680
1640793801620029952,-0.381679300,0.208270510,10.298124310,0.057269640,0.059382620,0.003901120
1640793801622239744,-0.127363230,0.279997440,9.347031590,-0.038823490,0.035189100,-0.000387430
1640793801625019904,-0.159023670,-0.042774000,10.261641500,-0.041241950,0.052668150,0.003342330
1640793801627349760,-0.104769410,-0.105283640,9.724010470,0.072263180,0.135049240,-0.009188060
1640793801631239936,0.104339730,0.059097240,9.751539230,0.122442850,0.016163290,-0.024357430
1640793801632029952,-0.256473030,0.100871880,10.495477680,0.050263110,0.071674590,0.011493270
1640793801634929920,-0.079635450,-0.038968920,9.266387940,-0.024773180,0.047451260,0.011518600
1640793801637009920,-0.273450080,-0.286958100,10.227973940,0.042176250,-0.018915540,-0.004458430
1640793801640130048,-0.353063170,-0.200048580,9.643807410,0.134806330,0.134339930,-0.026245420
1640793801642040064,-0.080737880,0.079394850,9.540219310,0.129076850,0.038824980,-0.037118800
1640793801645019904,-0.537901760,0.159179180,10.943323140,0.063641380,0.069622700,-0.005675850
1640793801647320064,-0.253244550,0.164771680,9.422546390,0.028409060,0.048232080,-0.011123720
1640793801650039808,-0.381808100,0.154317830,10.129194260,0.100937510,-0.064274680,0.002504890
1640793801652079872,-0.595337270,0.314929750,9.993637080,0.139044240,0.105968120,-0.021588800
1640793801655099904,-0.198967350,0.434946600,9.283506390,0.099334140,0.023143000,-0.022365150
1640793801656989696,-0.482576490,0.436823070,10.924352650,0.079683960,0.016191600,0.018008050
1640793801660280064,-0.114710920,0.376205030,9.722602840,0.054366890,0.091801580,0.000429150
1640793801662089728,0.027762100,0.321367320,10.115380290,0.084288420,-0.051918640,0.010660290
1640793801664979968,-0.521998760,0.535875440,10.687549590,0.091540810,0.041821600,-0.001734500
1640793801666990080,-0.104963010,0.426306100,9.080815320,0.032487510,-0.016258660,-0.010068710
1640793801670329856,-0.352375540,0.336886500,10.382146840,0.063912570,-0.048550960,0.012588500
1640793801672019968,-0.419963720,0.427895430,10.025374410,0.069484110,0.099630650,-0.018352270
1640793801674959872,-0.021592240,0.440373930,9.616366390,0.041770940,-0.022156540,0.000305470
1640793801677079808,-0.396053850,0.728812340,10.704406740,0.000338260,-0.003562870,0.023494660
1640793801680699904,0.034567580,0.547321920,9.467188840,-0.047217310,0.059574850,0.008869170
1640793801682070016,-0.049906230,0.303681340,10.138007160,0.028415020,-0.041721760,0.021342930
1640793801685139968,-0.466997770,0.396854910,10.382747650,0.080280010,-0.001829860,-0.007209180
1640793801687039744,0.139097530,0.035900670,8.964312550,0.016325710,-0.010806320,0.004273650
1640793801689959936,-0.110088640,-0.045888220,10.195845600,-0.004817550,0.041964650,0.018186870
1640793801692129792,-0.150263680,-0.179769590,10.264025690,-0.008538370,0.107026110,-0.009186570
1640793801695010048,0.133548750,-0.148549710,9.863863950,0.043280430,-0.034660110,0.010097030
1640793801697069824,-0.388927580,0.226008520,10.270355220,0.052706900,-0.035811960,0.005468730
1640793801699929856,-0.122838960,0.058084610,9.230561260,-0.011083480,0.037944310,-0.002141300
1640793801702309888,-0.299313810,0.010557930,9.896755220,0.044818220,0.021809340,0.002278390
1640793801704939776,-0.495888380,0.095284130,10.154562000,0.107915700,0.033901630,-0.022156530
1640793801706949888,0.063858310,0.147816120,9.495175360,0.085736830,0.014415390,0.000925360
1640793801710309888,-0.363219620,0.372476250,10.435281750,0.029467040,0.030933310,0.020825860
1640793801712029952,-0.268313470,0.176948850,10.099449160,-0.025053330,0.003619490,0.010809300
1640793801715020032,-0.093728900,-0.055083100,9.666914940,0.079458960,-0.053802130,0.010481470
1640793801717259776,-0.373393420,0.112973150,9.768960000,0.162135030,0.018051260,-0.022886690
1640793801719980032,-0.119661170,0.098236480,9.700910570,0.092555580,0.051315130,-0.025041400
1640793801722029824,-0.400833610,0.199400680,10.415431980,0.034868720,-0.008240340,0.003319980
1640793801724949760,-0.351225580,0.299467920,10.068044660,0.006267430,-0.043147800,-0.000610950
1640793801727269888,-0.136522070,0.287849190,9.811753270,0.053042180,-0.023508070,0.013728440
1640793801730080000,-0.549070950,0.546393160,10.229963300,0.094318400,0.006689130,-0.009267030
1640793801732019968,-0.341940340,0.584791900,10.063200950,0.054052480,-0.028955940,-0.009353460
1640793801735229952,-0.255497960,0.440995400,10.091760640,0.053437050,-0.031152370,0.014598670
1640793801736979968,-0.204220980,0.456692280,10.034371380,0.048276790,-0.015984470,0.000676510
1640793801739939840,-0.091702250,0.466336790,10.102345470,0.010900200,-0.012788180,0.003740190
1640793801742050048,-0.285843370,0.647618650,10.151131630,-0.009071830,-0.038853290,0.000055130
1640793801745730048,-0.174963010,0.598960940,10.024951930,-0.040739780,-0.062586370,0.003647800
1640793801747010048,-0.071083110,0.387191030,9.961104390,-0.007738170,-0.021807850,0.006888810
1640793801750789888,-0.244217980,0.432684090,10.229818340,0.041438640,-0.003169480,-0.014227630
1640793801752049920,-0.105144640,0.459268210,10.082858090,-0.006790460,-0.035949060,0.003249940
1640793801755019776,-0.123574550,0.416971980,9.904239650,-0.070711970,-0.024342540,0.020027160
1640793801757009920,-0.149607960,0.313759650,10.014272690,-0.095066440,-0.009265540,0.022946300
1640793801759990016,-0.112909170,0.252656580,10.043231010,-0.038169330,-0.029391050,0.011076030
1640793801762099968,-0.187211830,0.305202600,9.992059710,0.011698900,-0.062647460,-0.019446020
1640793801764989952,-0.021375990,0.319085360,9.692810060,-0.042884060,-0.003911550,-0.001481180
1640793801767139840,-0.045338440,0.125604170,10.105384830,-0.075528030,0.040474530,0.000455980
1640793801769999872,-0.203135240,0.010211220,10.442002300,-0.049237910,-0.011533500,0.009453300
1640793801772039936,-0.059878510,0.137073130,9.646389960,-0.014950330,-0.074847030,0.021255010
1640793801774939904,-0.185346740,0.133121820,9.532457350,-0.036521260,-0.039054460,0.014810270
1640793801777349888,-0.189417230,-0.016283580,9.724609380,-0.068910440,0.047770150,0.014390050
1640793801780069888,-0.254901740,-0.082039580,10.101456640,-0.018037860,0.002734360,-0.004979970
1640793801782160128,-0.274728060,-0.224041220,10.403971670,0.050109630,-0.027087340,-0.022056700
1640793801785260032,-0.118537970,0.057147830,9.709170340,0.038304930,-0.008523460,-0.003515180
1640793801786989824,-0.418507220,0.096622050,10.168242450,-0.029730800,-0.038184230,0.007322430
1640793801789949952,-0.388181360,-0.049666420,9.938833240,-0.051569950,-0.021205840,0.020462270
1640793801792029952,-0.226714830,0.093788620,9.367853160,0.035236770,-0.056065620,0.007011000
1640793801795249920,-0.392773000,0.087417750,10.172274590,0.065380330,0.001068410,-0.022363660
1640793801797169920,-0.175229060,0.301867990,9.883111950,0.047929590,0.026097890,0.004960600
1640793801801959936,-0.342111110,0.310537010,10.428121570,0.010657310,-0.082425780,0.005880000
1640793801802459904,-0.287176310,0.149519880,10.213897710,-0.004620850,-0.053980950,0.008851290
1640793801804979968,-0.105252660,0.383536670,9.369560240,0.025501850,-0.054074830,0.012603400
1640793801806999808,-0.533677760,0.310005990,10.504237170,0.022958220,-0.037398930,-0.007909540
1640793801809989888,-0.352088960,0.437283870,9.928898810,0.010208790,-0.024636090,0.003688040
1640793801812120064,-0.275498150,0.519404530,9.846549030,0.009332600,-0.130309130,0.017924600
1640793801815109888,-0.317675440,0.248637560,10.356636050,-0.011262300,-0.037714840,0.010356310
1640793801818469888,0.045814580,0.496058910,9.598133090,-0.001494590,0.010617080,0.005537270
1640793801819990016,-0.325045700,0.475436390,10.808094020,-0.008353590,-0.098310430,0.013610720
1640793801822019840,-0.191767110,0.381961460,10.288141250,-0.036808850,-0.070488460,0.016517940
1640793801824930048,0.113900150,0.606831490,9.222823140,-0.031773740,-0.100240120,0.013802950
1640793801827280128,-0.401723120,0.457201330,10.592063900,-0.051935020,-0.044898690,0.008206070
1640793801830070016,-0.051366520,0.669646980,9.624210360,-0.073632610,0.010064250,0.016903880
1640793801834080000,-0.042064290,0.694907010,10.183836940,-0.088119510,-0.094695390,0.025013090
1640793801835340032,-0.252119780,0.466901330,10.798009870,-0.099930170,-0.016184150,0.015385450
1640793801837039872,0.020727470,0.560188350,9.478447910,-0.068639230,-0.057378410,0.014381110
1640793801839939840,-0.326887970,0.401175710,10.425620080,-0.084830830,-0.143560780,0.015065070
1640793801842000128,-0.094492890,0.300359990,9.553553580,-0.128553790,0.016723570,0.029486420
1640793801844940032,0.206328750,0.161691900,9.512834550,-0.124649710,-0.018657740,0.025992100
1640793801847360000,-0.244379330,-0.066767600,11.025249480,-0.093071170,-0.004409250,0.016061960
1640793801850060032,0.107513530,0.139433010,9.608037950,-0.071311000,-0.044399500,0.014461580
1640793801852160000,-0.064634460,0.107397840,10.141740800,-0.097863380,-0.124609460,0.023674960
1640793801854959872,-0.275602010,-0.051897430,9.864403720,-0.130186990,0.031870600,0.023350120
1640793801857039872,0.102876160,-0.057645000,9.167924880,-0.074356800,-0.019744040,0.006951390
1640793801859959808,-0.230065820,-0.041763200,10.676409720,-0.024010240,0.002342460,0.008457900
1640793801862279936,0.015933720,0.172461630,9.619676590,-0.052177910,0.045852370,0.030845400
1640793801865669888,-0.131879510,0.077622650,10.358224870,-0.099383320,-0.103183110,0.030367080
1640793801867049984,-0.422680020,-0.053605910,10.176201820,-0.085891790,-0.001361970,0.033974650
1640793801869979904,-0.046093730,-0.169561670,8.894702910,-0.006392600,-0.054998700,0.006017090
1640793801872029952,-0.334409890,-0.188080490,10.334533690,0.051051380,0.014321510,0.007426740
1640793801874939904,-0.105544340,-0.062973770,9.590175630,-0.009605290,0.099484640,0.008954110
1640793801877080064,-0.044434470,-0.214956790,10.387696270,-0.036509350,-0.080002860,0.015926360
1640793801880409856,-0.335501130,-0.126782610,10.437981610,-0.000485780,-0.020091240,0.032188000
1640793801882099968,-0.016760390,-0.073178090,8.940913200,0.028203420,-0.056537980,-0.001657010
1640793801885419776,-0.522102590,-0.045779920,10.437616350,0.056819610,-0.033073130,0.002992150
1640793801887040000,-0.360261890,0.252714600,9.472062110,0.037686530,0.051206350,0.004972520
1640793801889920000,-0.155922650,0.194937500,10.015347480,0.030744080,-0.074414920,-0.000949200
1640793801892019968,-0.429148500,0.320008780,10.743804930,0.042495140,0.016297400,0.039304800
1640793801895759872,-0.111241930,0.318398060,9.493592260,0.023305420,-0.033444170,0.011461970
1640793801897819904,-0.431690040,0.168941600,10.663959500,0.042122610,-0.119642910,0.018139180
1640793801899960064,-0.244029160,0.278729260,9.403282170,0.063869360,0.005210940,0.010775030
1640793801902069760,0.000787200,0.118745990,9.535840030,0.069823870,-0.054511440,-0.019298500
1640793801904909824,-0.397028600,0.326582220,10.874865530,0.049258770,0.021034480,0.004376470
1640793801906999808,-0.087507960,0.622702000,9.603233340,-0.025074180,-0.044482950,0.001636150
1640793801910070016,-0.305588930,0.425685260,10.618149760,-0.041228540,-0.152744370,0.013563040
1640793801912349952,-0.358274790,0.578193660,9.856733320,0.021310150,0.009167190,0.018005070
1640793801914979840,-0.132865210,0.622048020,9.502911570,0.037455560,-0.067828600,-0.016999250
1640793801917129984,-0.420394810,0.587543850,10.939966200,0.014264880,-0.040799380,0.017234680
1640793801919999744,0.107283750,0.581659670,9.464195250,-0.046314310,0.006151200,0.019022830
1640793801922009856,0.194537130,0.342171160,10.262732510,-0.068293520,-0.096580390,0.015193220
1640793801924949760,-0.056278970,0.457327310,10.378515240,-0.040607160,0.032296780,0.023673470
1640793801927179776,0.176640180,0.523020630,9.391169550,-0.055503850,-0.059424340,0.001075860
1640793801930279936,-0.242760210,0.301446620,10.702652930,-0.065053980,-0.109967570,0.023208560
1640793801932090112,-0.139974420,0.271421790,9.483835220,-0.055418910,0.030095880,0.007927420
1640793801934959872,-0.006732830,0.132988150,9.685235020,-0.045111780,-0.053663560,-0.010322040
1640793801936999936,-0.381308970,0.264053310,10.643023490,-0.051298740,0.023448460,0.023759900
1640793801939929856,-0.031905720,0.307955030,9.519804000,-0.114999730,-0.001421570,0.034163900
1640793801942370048,-0.154084880,-0.023854970,10.387334820,-0.107386710,-0.089797370,0.040814280
1640793801944960000,-0.250661940,-0.079771730,9.832128520,-0.015388430,0.009250640,0.028397150
1640793801947109888,0.147165690,-0.169850230,9.281855580,0.023779270,-0.029018530,-0.004643200
1640793801951000064,-0.235587180,-0.204455290,10.416397090,-0.007821620,0.019425150,0.012826920
1640793801952179968,0.011898130,-0.187060210,9.752614970,-0.062939520,0.050920260,0.006826220
1640793801954939904,0.019192970,-0.105730710,10.184010510,-0.043915210,-0.074577340,0.011569260
1640793801957029888,-0.316816930,0.093261660,10.028259280,0.004163380,-0.007370110,0.024066870
1640793801959990016,-0.088106920,0.241911650,9.288156510,-0.000017880,-0.028185550,0.003039840
1640793801962449920,-0.542875590,0.318108590,10.354985240,0.003862380,-0.016541780,0.013129420
1640793801964999936,-0.476312730,0.145120590,9.801565170,0.012543800,0.012774770,0.008133050
1640793801967259904,-0.243141040,0.173963470,10.028201100,0.042302920,-0.068181750,0.012674930
1640793801969910016,-0.541761640,0.295361700,10.384175300,0.024539230,0.015512110,0.024594370
1640793801972019968,-0.172471600,0.302325070,9.768722530,-0.056937340,-0.035458800,0.014027950
1640793801975049984,-0.241949530,0.347878660,10.303624150,-0.027573110,-0.060290100,0.034596030
1640793801977019904,-0.167196120,0.155237990,9.768250470,0.020986800,0.002077220,-0.005316730
1640793801980279808,0.098140130,0.287146660,9.870800020,0.051663820,-0.056304040,-0.007693470
1640793801982139904,-0.260937010,0.592219650,10.386689190,0.019204620,-0.018385050,0.011847910
1640793801985299712,-0.001357780,0.568150160,9.763240810,-0.096516320,-0.037096440,0.013791020
1640793801987059712,-0.061644130,0.597144900,10.261772160,-0.097542990,-0.043931600,0.042818480
1640793801990180096,-0.389032010,0.600269790,10.316061970,-0.042851270,-0.007338820,0.005942580
1640793801992319744,-0.262734200,0.498686880,9.995715140,0.005549190,-0.090320420,0.013622640
1640793801995729920,-0.388391080,0.578167500,9.979738240,-0.018678610,-0.047770150,0.028164690
1640793801999960064,-0.202352230,0.206105920,9.683454510,-0.101207200,-0.003938380,0.022293630
1640793802000369920,0.031193280,0.008884630,10.047534940,-0.088728960,0.013238190,0.036542120
1640793802002070016,-0.133133310,0.201431480,10.354343410,-0.056216120,0.002573430,0.013138350
1640793802005100032,0.060637220,0.145696330,10.001749990,-0.085471580,-0.069756810,0.026111310
1640793802007119872,0.037242190,0.216197010,9.844393730,-0.079604990,-0.055325020,0.030343240
1640793802009959936,-0.064316820,-0.008192400,9.803654670,-0.063827620,0.014974180,0.000004470
1640793802012389888,0.041313180,-0.052714430,9.744492530,-0.021232660,0.005505980,0.013397640
1640793802015030016,-0.166054860,0.229251670,10.088027950,-0.009325140,-0.003673140,0.021541120
1640793802018009856,-0.143942980,0.127328860,9.999747280,-0.101485860,0.004129110,0.031325220
1640793802020000000,-0.247522620,0.026421800,10.002697940,-0.099141900,-0.050783160,0.045973060
1640793802022729984,-0.471541370,-0.085182920,10.077253340,-0.009861590,-0.050093240,0.006860500
1640793802024999936,-0.138342070,-0.142694710,9.223066330,0.036241110,0.007846950,-0.006796420
1640793802027059968,-0.260424790,0.003383660,10.055658340,0.032880900,0.040549040,-0.009132920
1640793802030040064,-0.248219360,-0.005391270,10.532827380,-0.043681270,0.035607820,-0.005105140
1640793802032089856,0.005942990,-0.073633930,9.826927190,-0.032918160,-0.083149970,0.021253530
1640793802034950144,-0.175984110,0.011560330,9.961874010,0.033617020,-0.071488310,0.014019010
1640793802037119744,-0.129856940,0.183292820,9.454211240,0.025467570,0.048421330,0.008210540
1640793802039970048,-0.316503380,0.242730470,10.131948470,0.016027690,-0.019370020,0.002320110
1640793802042049792,-0.389746070,0.160155740,10.538092610,0.019098820,-0.035054980,0.007677080
1640793802045389824,-0.060254440,0.296038210,9.522624970,0.041551880,-0.024025140,0.000186260
1640793802047069952,-0.319108430,0.383897390,10.376557350,0.028851630,-0.030976540,-0.002048910
1640793802051259904,-0.368936450,0.556202590,10.137261390,-0.033080580,0.008989870,0.012685360
1640793802053099776,-0.223682240,0.517038230,9.688633920,-0.040327020,-0.077074770,0.005237760
1640793802056089856,-0.357064520,0.277991530,10.455966000,0.009816890,-0.040951360,0.007902090
1640793802057029888,-0.033909450,0.485364080,9.511867520,0.044745210,0.025054810,0.004409250
1640793802060019968,-0.177491250,0.461814050,10.337157250,-0.004121660,-0.059604650,-0.007838010
1640793802062359808,-0.115197580,0.597862300,10.338738440,-0.087334220,0.011067090,0.028043990
1640793802066020096,0.187867390,0.487274770,9.481761930,-0.103083250,-0.018341840,0.024263560
1640793802067799808,-0.187546300,0.197364150,10.778793330,-0.020453340,-0.046956540,-0.004056100
1640793802070269696,-0.016497560,0.556824920,9.518982890,0.028483570,0.014950340,-0.000604990
1640793802072019712,0.005226720,0.436692000,9.628877640,-0.052802270,-0.070494410,-0.004376470
1640793802074899968,-0.182617100,0.238615860,10.480301860,-0.127434750,0.062577430,0.029827650
1640793802077019904,0.185949650,0.152815450,9.458477970,-0.095447910,0.063972180,0.014889240
1640793802080029952,-0.231375040,-0.013658170,10.821660040,-0.007484850,-0.074824690,-0.015261770
1640793802082129920,-0.181433320,0.272229050,9.602608680,-0.014482440,0.017912690,0.023491680
1640793802085309952,-0.014785460,0.066585440,9.128293040,-0.081178550,-0.024671850,-0.001707670
1640793802087409920,-0.427632300,-0.239798460,10.574747090,-0.077018140,0.056730220,0.011749570
1640793802089939712,0.102576550,-0.083898340,9.279511450,0.009243190,0.080853690,-0.005079800
1640793802092029696,-0.080743570,-0.030840920,10.420481680,0.034156440,-0.035068400,-0.015692410
1640793802095000064,-0.251076280,0.208684770,10.180437090,-0.043627620,0.073522310,0.026546410
1640793802097080064,-0.011323990,0.107766930,9.362830160,-0.091351560,-0.023642180,0.006684660
1640793802100080128,-0.505391240,-0.174597900,10.547406200,-0.004427130,-0.016136470,-0.000379980
1640793802102380032,-0.108420090,-0.021009050,9.018170360,0.092506410,0.068739060,-0.014159090
1640793802104930048,-0.201319950,0.051553290,10.112788200,0.067517170,0.001493100,-0.025747720
1640793802107059968,-0.448397730,0.138312710,10.564751630,-0.031594940,0.089047860,0.016132000
1640793802109939712,-0.004754460,0.101098520,9.577677730,-0.041449070,-0.027841330,0.011520090
1640793802112059904,-0.509933470,0.026220110,10.776878360,0.032109020,-0.053422160,-0.009953980
1640793802115000064,-0.309510440,0.355465020,9.176310540,0.059500340,0.052765020,-0.014421340
1640793802117129984,-0.238603730,0.375645880,9.788722040,0.033546990,-0.032827260,-0.018088520
1640793802122010112,-0.577847180,0.342345830,10.712380410,-0.005075340,0.064454980,-0.000393390
1640793802122399744,0.040718850,0.306005750,9.537596700,0.003586710,-0.018420820,0.006240610
1640793802124889856,-0.221455310,0.302854980,10.793183330,0.033953790,-0.042286520,-0.011551380
1640793802127019776,-0.287981810,0.575853350,9.831346510,-0.000426170,0.056052210,-0.009104610
1640793802130050048,-0.058152820,0.494896890,9.888848300,-0.045134130,-0.081871470,0.004813080
1640793802132109824,-0.369205000,0.385285140,10.552592280,-0.017192960,0.016175210,0.007852910
1640793802135389952,0.000291450,0.389886770,9.363572120,0.007420780,0.025215750,-0.018785890
1640793802136999936,-0.137680370,0.502325240,10.466882710,-0.003150110,-0.030525030,0.000281630
1640793802139919872,-0.240766300,0.639377360,10.104902270,-0.081126400,0.065675390,0.005477670
1640793802142079744,0.007487660,0.348730830,9.973290440,-0.113707800,-0.053289540,0.008897480
1640793802144929792,-0.390481470,0.283475970,10.657074930,-0.023329260,-0.016304850,0.010122360
1640793802147229952,-0.167369230,0.333045480,9.251058580,-0.006873910,-0.013458730,-0.022324920
1640793802151909888,0.042956780,0.255657910,9.795644760,-0.052954260,-0.015832480,0.008399790
1640793802155259904,-0.087777070,0.205877170,10.195112230,-0.095406180,0.142322480,0.011973080
1640793802156019968,0.072078420,-0.054393030,10.196484570,-0.085286810,0.002415480,-0.003659730
1640793802157019904,-0.165700880,0.133338540,10.581763270,-0.010883810,-0.066548590,0.011435150
1640793802159960064,-0.120877360,0.263284150,9.127881050,-0.038374950,0.000034270,-0.006522240
1640793802162040064,-0.007461990,0.047614970,9.556620600,-0.092200950,0.028234730,0.012761360
1640793802165019904,-0.314322350,-0.029417380,10.306949620,-0.038060550,0.122700650,0.008541350
1640793802167310080,-0.036085840,-0.117729570,9.797665600,0.013056400,0.017158690,-0.026561320
1640793802170169856,-0.130015490,0.072457130,10.356764790,0.026923420,-0.027228890,0.024430460
1640793802172029952,-0.309711520,0.102733810,9.740770340,-0.060115750,0.058531760,0.003710390
1640793802174939904,-0.250584040,-0.134568100,9.706377980,-0.090277180,-0.020103150,-0.002355870
1640793802177079808,-0.459470120,-0.195044680,9.997309680,0.036005680,0.029985610,-0.005410610
1640793802180329984,-0.131227820,-0.044956560,9.332181930,0.092321640,0.065241760,-0.051602720
1640793802182169856,-0.189556970,0.164037270,10.279094700,0.044120850,0.024607780,-0.004214050
1640793802186220032,-0.427590670,0.193229170,10.348544120,-0.035744920,0.035502020,0.003494320
1640793802187119872,-0.166265320,-0.018204600,9.749639510,-0.031119590,-0.060477850,0.000466410
1640793802189959936,-0.399014770,-0.052031350,9.968173980,0.094354150,-0.017118450,0.006560980
1640793802192059904,-0.273868500,0.205663310,9.491105080,0.103746340,0.076605390,-0.029842560
1640793802194919936,-0.277002160,0.353887530,10.123694420,0.029549000,0.020486120,-0.008551780
1640793802197369856,-0.414047390,0.340354440,10.513573650,-0.010913610,-0.003233550,0.000736120
1640793802200059904,-0.058582100,0.397557170,9.746178630,-0.004088880,-0.034806140,-0.010354820
1640793802202989824,-0.381471480,0.484225750,10.141251560,0.048932440,-0.029259920,-0.028373310
1640793802204979968,-0.516528730,0.591213050,9.962076190,0.037275250,-0.000625850,-0.035341090
1640793802207039744,-0.270637040,0.565335870,9.767082210,-0.002135340,-0.042973470,-0.014361740
1640793802209990144,-0.455445620,0.298822610,10.344780920,0.006823240,-0.016182660,-0.002545120
1640793802212219904,-0.204829130,0.318742160,9.943307880,0.013829770,-0.001040100,-0.007212160
1640793802215079936,-0.262124150,0.418664840,10.048516270,-0.008082390,-0.053118160,-0.005748870
1640793802217120000,-0.406179580,0.372626870,10.395061490,-0.050081310,-0.053805120,-0.001366440
1640793802221509888,-0.073664430,0.412802250,9.742142680,-0.064148020,-0.037460030,-0.005236270
1640793802222800128,-0.231934340,0.423157900,10.076306340,-0.009770690,-0.051483510,-0.026519590
1640793802224959744,-0.135490800,0.514251170,10.127790450,-0.007444620,-0.029313570,-0.023655590
1640793802227079936,0.175962330,0.718276740,9.492245670,-0.057493150,0.002381210,0.003516670
1640793802230069760,-0.140215430,0.386069210,10.592184070,-0.108639910,-0.032390650,0.005254150
1640793802232270080,-0.127154800,0.278371960,10.255495070,-0.078052290,-0.024226310,0.014999510
1640793802236369920,-0.071439530,0.268446270,9.476576810,-0.015154480,-0.107735420,0.001871590
1640793802237009920,-0.284145060,0.026496890,10.080972670,-0.041402880,-0.026138130,-0.012548270
1640793802239939840,0.007858430,0.173896910,9.452280040,-0.082960710,0.087103250,0.010268390
1640793802242060032,-0.177479670,-0.197861160,10.451070790,-0.075213610,-0.039662420,-0.012010330
1640793802251219968,-0.202218530,-0.106584110,10.310498240,-0.022435190,-0.030396870,0.002089140
1640793802252249856,0.037842080,0.177225560,9.139558790,-0.017319620,-0.050978360,0.005717580
1640793802252699904,-0.442844900,-0.065325910,10.398140910,-0.061783190,-0.039380790,-0.007605550
1640793802253159936,-0.082384200,0.093900870,9.432851790,-0.052319480,0.033292180,-0.001408160
1640793802255069952,0.001989370,-0.040417030,9.806103710,0.014618040,-0.011731690,-0.029878320
1640793802257059840,-0.206357120,0.043127530,10.511873250,0.029785930,0.043688710,-0.020001830
1640793802259970048,0.001826170,0.399622980,9.564553260,-0.017048420,-0.015479330,0.001685320
1640793802262179840,-0.443411200,-0.034485690,10.468049050,-0.071479380,-0.097696510,0.000528990
1640793802265349888,-0.308746580,-0.146248120,9.273992540,-0.006544590,-0.009639560,-0.006979700
1640793802267139840,-0.217712300,-0.182152570,9.347508430,0.089994080,-0.020265580,-0.032375750
1640793802269999872,-0.547899310,-0.252781780,10.618482590,0.081713500,0.065071880,-0.033445660
1640793802272089856,-0.211120350,0.058456030,9.807243350,0.024394690,-0.021368270,-0.000584130
1640793802274909952,-0.435825770,-0.001582240,10.600718500,-0.010314580,-0.127652300,-0.003238020
1640793802277129984,-0.292919990,0.167916850,9.500883100,0.008143490,-0.010932980,-0.005546210
1640793802280009984,-0.119034250,0.413503740,9.431084630,0.065903370,-0.039374830,-0.025349860
1640793802282299904,-0.498793420,0.459916950,10.798889160,0.067669160,0.028492510,-0.039435930
1640793802285009920,-0.090157190,0.631569270,9.621350290,0.049933790,-0.050184130,-0.020344550
1640793802287369984,-0.199731860,0.502595960,10.398771290,0.033579770,-0.126244140,-0.009831790
1640793802289959936,-0.283839970,0.506927070,9.853466990,-0.010697540,0.014449660,-0.012826920
1640793802292089856,-0.162677390,0.522155170,9.579555510,-0.019359590,-0.080344100,-0.016228860
1640793802295399936,-0.474323330,0.445813120,10.794658660,0.003059210,-0.053548810,-0.009109080
1640793802297070080,-0.111994810,0.456247390,9.382347110,0.009815400,-0.012332200,-0.021654370
1640793802300079872,-0.209510890,0.463045060,10.372201920,0.015211110,-0.099651520,-0.023774800
1640793802302099968,-0.378825780,0.651579620,10.218524930,-0.045414270,-0.003810230,-0.002734360
1640793802304950016,-0.023646010,0.497535440,9.376611710,-0.097195820,-0.113333780,-0.013691190
1640793802307059968,-0.256757500,0.385491790,10.672195430,-0.054235760,-0.060631350,0.005193050
1640793802310220032,-0.057506130,0.523523210,9.549784660,-0.021946430,0.029596690,-0.019931800
1640793802312089856,-0.031938070,0.485705970,10.297604560,-0.042784210,-0.129269080,-0.017888840
1640793802315349760,-0.167446460,0.523082140,10.340133670,-0.095483670,-0.008270140,0.010360780
1640793802317119744,0.300341070,0.271775570,9.115083690,-0.134678180,-0.025139750,-0.002110000
1640793802320600064,-0.122164120,0.101557960,10.762919430,-0.060962140,-0.048866870,0.015471880
1640793802322019840,-0.170695350,0.299306540,9.630538940,-0.031168760,0.010776520,-0.011107330
1640793802324940032,-0.054607110,0.093987800,9.686745640,-0.083549330,-0.133761790,-0.000372530
1640793802327089920,-0.374672770,0.028175760,10.368824010,-0.103159250,0.014439230,0.011125210
1640793802329919744,0.051794000,-0.119931080,9.099565510,-0.082710390,0.036610670,-0.026467440
1640793802332290048,-0.165371360,-0.185279250,10.603196140,-0.000245870,-0.059050320,-0.008706750
1640793802335980032,-0.225652290,0.197903690,9.968172070,-0.017739830,0.040708480,-0.011612470
1640793802337070080,0.086525160,0.093397960,9.369373320,-0.111268470,-0.070063770,0.004477800
1640793802339939840,-0.441961740,-0.026796960,10.617360120,-0.076144930,-0.033570830,0.033988060
1640793802342350080,-0.034074290,-0.135817290,9.083141330,0.011006000,0.032517320,-0.020438430
1640793802344989952,-0.083624500,-0.091584350,9.989117620,0.054803490,-0.048245490,-0.025887790
1640793802347069952,-0.363653390,0.191768830,10.289669040,0.007104870,0.062040990,-0.014418360
1640793802350060032,0.038657660,-0.038853390,9.447314260,-0.068895500,-0.041438630,-0.030012430
1640793802352169984,-0.366168710,-0.085721050,10.538732530,-0.007733700,-0.073574480,0.003775950
1640793802355980032,-0.268898990,0.011212040,9.409637450,0.061637170,0.013367830,-0.001730020
1640793802357019904,-0.238631840,-0.007456570,9.800217630,0.058491530,-0.054527820,-0.024253130
1640793802359949824,-0.641533260,0.171514410,10.380064010,0.027221440,0.012503570,0.014226140
1640793802362119936,-0.094760460,0.155130430,9.433062550,0.000506640,-0.029709940,-0.010962790
1640793802364940032,-0.274000170,0.323362500,10.437625890,0.018355250,-0.056318940,-0.001171230
1640793802367450112,-0.289769050,0.566514670,9.909444810,0.022791330,0.020813940,-0.002817810
1640793802369989888,-0.074579300,0.619639870,9.865514760,-0.000949200,-0.075368590,-0.023843350
1640793802372140032,-0.457906570,0.619916080,10.383399010,0.008761880,-0.043869020,-0.007784370
1640793802375369984,-0.070702630,0.606235560,9.389589310,-0.007373100,-0.026518110,-0.017178060
1640793802377069824,-0.201485380,0.595477940,10.220426560,-0.019663570,-0.036054850,-0.012767320
1640793802379979776,-0.330600950,0.565743150,10.185981750,-0.046786660,0.008042150,-0.001135470
1640793802382409728,0.112259920,0.522003890,9.865899090,-0.078347320,-0.065176170,0.001768770
1640793802385289984,-0.217817770,0.354399060,10.343994140,-0.053891540,-0.025600190,0.001151860
1640793802388269824,-0.108824070,0.354719610,9.761621480,-0.037145610,-0.018829110,-0.018399950
1640793802390089984,-0.156055660,0.385505800,10.046628000,-0.044947860,-0.065574050,-0.006884340
1640793802393410048,-0.267660920,0.263190000,9.822031970,-0.088213390,-0.015921890,0.003196300
1640793802395709952,0.094073690,0.146773870,9.726738930,-0.099149350,-0.006140770,-0.001716610
1640793802397139968,-0.019162040,0.281525790,10.093166350,-0.054974860,0.025418410,-0.010570890
1640793802401499904,0.012616150,0.347910140,9.976028440,-0.081130870,-0.012075900,-0.019748510
1640793802402289920,0.050315390,0.402754600,10.132355690,-0.105582190,-0.032046440,0.013744830
1640793802405880064,-0.290289700,0.123736880,9.944513320,-0.089839100,-0.014807280,-0.005541740
1640793802408000000,-0.201545570,-0.107518060,9.619747160,-0.040830680,-0.052620470,-0.021164120
1640793802409929984,-0.129773470,0.077523540,9.460886960,-0.007899110,0.031036140,-0.006686150
1640793802412799744,-0.201407050,-0.006357110,9.914437290,-0.081345450,0.075155480,-0.015197690
1640793802414929920,-0.115002760,-0.037531540,10.495937350,-0.116677570,0.002494450,0.018745660
1640793802417209856,-0.191311660,-0.073546740,10.069136620,-0.056292130,-0.056849430,-0.004455450
1640793802420519936,-0.104063290,-0.271275910,9.394218440,0.011983510,-0.046978890,-0.017319620
1640793802422439936,-0.207292540,-0.012245750,9.628399850,0.044842060,0.019070510,-0.018291180
1640793802426699776,-0.425227880,-0.114616550,9.991786000,-0.024253130,0.052550450,-0.038336220
1640793802427359744,-0.138424620,-0.145611260,9.930561070,-0.028936560,-0.027181210,0.000193720
1640793802429920000,-0.246183480,0.099215840,10.182876590,0.022581220,-0.022284690,0.002054870
1640793802432160000,-0.202948230,0.163805400,9.782383920,0.004340710,0.011064110,-0.009684270
1640793802436139776,-0.273223400,0.432096600,10.043025020,-0.005964940,-0.043277440,0.007863340
1640793802438220032,-0.390835670,0.259997610,10.059727670,0.006821750,-0.005437430,-0.020879510
1640793802440369920,-0.113611950,0.157806260,9.528027530,0.044520200,-0.013272460,-0.029762090
1640793802442080000,-0.320655730,0.484552000,10.280539510,0.065454840,-0.026613480,-0.014111400
1640793802444960000,-0.342441590,0.471423920,10.100626950,-0.040327010,0.014619530,-0.016300380
1640793802447099904,-0.172440860,0.625813480,9.755792620,-0.094592590,-0.074811280,0.015626850
1640793802450569984,-0.320495370,0.465849400,10.263792990,-0.056697430,-0.019945200,0.004804130
1640793802452580096,-0.139411840,0.381805450,9.844131470,0.006222730,0.028739870,-0.023494660
1640793802455069952,-0.333412410,0.577339050,10.247407910,0.047779080,-0.080338130,-0.006690620
1640793802458060032,-0.373483870,0.405998710,10.167570110,-0.047765680,-0.037708880,-0.000064080
1640793802459980032,0.106168630,0.393845710,9.121835710,-0.135436670,-0.004290040,0.010427830
1640793802462070016,-0.183215800,0.219105270,10.443936350,-0.086720300,-0.010848050,0.021338460
1640793802464910080,-0.136454120,0.324671830,10.294708250,-0.037114330,0.043581430,-0.014844530
1640793802467119872,-0.044660680,0.576413150,9.699274060,-0.049628320,-0.108562420,-0.001932680
1640793802470119936,-0.286508410,0.339487700,10.373586650,-0.103148820,-0.062289830,0.019824510
1640793802472179968,0.087253450,0.153982240,9.123984340,-0.108122830,0.073641550,0.007954240
1640793802475169792,-0.078131210,0.053194360,10.025793080,-0.032261010,-0.037008530,0.005929170
1640793802477079808,-0.145295260,0.201104660,10.422776220,-0.044457610,0.048278260,0.018364190
1640793802479960064,0.260070410,0.214403080,9.187647820,-0.120064620,-0.011041760,0.022459030
1640793802482099968,-0.263380260,-0.140855790,10.793500900,-0.111408540,-0.050143900,0.015164910
1640793802485459968,-0.103482400,-0.105794580,9.467253680,-0.035062430,0.042968990,-0.003646310
1640793802487109888,-0.062829750,-0.232506630,9.205812450,0.021852550,-0.067864360,-0.019274650
1640793802491059968,-0.363930640,-0.162377550,10.386331560,-0.007200240,0.086645790,-0.000420210
1640793802493249792,0.061803210,0.049291770,9.358184810,-0.076186660,0.083890550,0.006529690
1640793802494919936,-0.375726130,-0.197908160,10.811983110,-0.047346950,-0.093126290,0.020457810
1640793802497069824,-0.225188080,0.130605030,9.588410380,0.008311870,0.012217460,0.015474860
1640793802499899904,-0.115025360,0.057516620,9.053318020,0.009126960,-0.020390750,-0.020046530
1640793802502909952,-0.667771400,-0.063374070,10.759052280,0.022989510,0.050427030,-0.004108250
1640793802505129728,-0.155858020,0.163105740,9.404010770,0.032280380,0.038506090,-0.011056660
1640793802507139840,-0.281566710,-0.092857050,10.236954690,0.047375270,-0.085443260,-0.002042950
1640793802509929984,-0.313117740,0.221286340,10.059291840,0.008556250,0.054101650,0.019741060
1640793802512110080,-0.130620730,0.356468560,9.525893210,-0.037412350,-0.020660460,-0.000481310
1640793802514969856,-0.542600150,0.078367650,10.634829520,-0.005069380,-0.057297960,0.006674230
1640793802518129920,-0.084654310,0.371340930,9.201955800,0.068748000,0.008210540,-0.018957260
1640793802520369920,-0.160986590,0.329248820,9.918038370,0.066293760,-0.026202200,-0.029520690
1640793802522299904,-0.417750420,0.399550230,10.550041200,0.004610420,0.051273410,0.000026820
1640793802525549824,-0.071102980,0.586977180,9.734257700,-0.059144200,-0.066554550,-0.003367660
1640793802527069696,-0.332105040,0.300363930,10.483885770,-0.045427680,-0.074091550,0.017634040
1640793802529909760,-0.192124440,0.584543530,9.519795420,0.005348030,0.025667260,0.009606780
1640793802532130048,-0.245263050,0.653888290,10.043539050,-0.003914540,-0.050812960,-0.012287500
1640793802535329792,-0.379468290,0.421236810,10.439758300,-0.049836930,-0.012910370,0.012721120
1640793802537509888,0.116604610,0.471078870,9.391281130,-0.063897680,-0.025753680,0.007908050
1640793802542349824,-0.212009120,0.162259270,10.549934390,-0.047384210,-0.021547080,-0.008304420
1640793802542969856,-0.191462080,0.411604910,9.801212310,-0.044785440,0.001920760,-0.000654160
1640793802544899840,-0.100977100,0.540089310,9.815217970,-0.088448820,-0.104045880,0.002290310
1640793802547099904,-0.241285260,0.257992090,10.168009760,-0.123895720,0.005702670,0.012589990
1640793802550139904,0.093454110,0.202743780,9.255237580,-0.063945350,0.018294160,0.000162420
1640793802553029888,-0.124849650,0.077199280,10.561890600,-0.007909540,-0.020173190,-0.020395220
1640793802555259904,-0.107174720,0.177337080,9.856007580,-0.042107710,0.032275920,0.006575880
1640793802557139968,0.025485490,0.136042180,9.784202580,-0.118345030,-0.074416400,0.023701790
1640793802559899904,-0.395409290,-0.167934250,10.435297970,-0.113961110,-0.004805620,0.024722520
1640793802562099968,0.028038320,-0.172659050,8.795324330,-0.019057100,-0.003129240,0.006841120
1640793802565169920,-0.102707560,-0.150486990,10.213687900,0.040611640,-0.000885130,-0.011654200
1640793802567159808,-0.116663800,-0.010232280,9.942024230,-0.017732380,0.120364130,0.005233290
1640793802573769728,0.024978660,-0.090174850,9.819816590,-0.064004960,-0.069561600,0.020855670
1640793802574459904,-0.424759570,-0.193338070,10.672625540,-0.021144750,-0.039872530,0.016301870
1640793802575039744,-0.081935670,-0.075528030,8.600677490,0.030069060,-0.005406140,0.000846390
1640793802578629888,-0.379904600,-0.074680600,10.103426930,0.047270950,-0.039280950,-0.004030760
1640793802579939840,-0.449782520,0.067986640,9.947738650,0.012856720,0.131802280,-0.002008680
1640793802582690048,0.006036490,-0.153253170,9.547609330,0.016073880,-0.048509240,-0.007720290
1640793802584969984,-0.427117620,-0.023326530,11.076410290,0.075168930,-0.036093600,0.012491650
1640793802587419904,-0.108215700,0.090836200,8.909646030,0.048036880,0.015468900,0.006005170
1640793802589989888,-0.259907480,-0.082584930,9.913157460,0.031381850,-0.089733310,0.009736420
1640793802592119808,-0.446390840,0.038561120,10.144429210,0.068387380,0.087192640,0.002685190
1640793802595019776,0.063886230,-0.046325630,9.067649840,0.097921500,-0.028136370,-0.016072390
1640793802597080064,-0.479138310,0.215721550,10.948907850,0.110018250,-0.059467560,0.009158250
1640793802600019968,-0.305455000,0.482649620,9.409715650,0.017966330,0.046792620,-0.005766750
1640793802602459904,-0.340369700,0.345327590,9.938454630,-0.008435550,-0.125679390,0.010629000
1640793802605009920,-0.720748130,0.469156920,10.622637750,0.064471360,-0.008468330,0.004029270
1640793802607219968,-0.154932710,0.441737120,8.980545040,0.094556810,-0.013606250,-0.030532480
1640793802609969920,-0.443935220,0.501330200,10.616067890,0.081330550,-0.083972510,0.000564750
1640793802612119808,-0.373085980,0.636376140,10.083053590,-0.002686680,0.038471820,-0.002765660
1640793802615039744,0.120094950,0.307226990,9.593131070,-0.051216780,-0.100548570,0.015684960
1640793802618019840,-0.397009970,0.376887170,10.753667830,0.029450660,-0.058449800,0.020012260
1640793802620369920,-0.023743260,0.469906540,9.241078380,0.026696920,-0.011992450,-0.025083130
1640793802622139904,-0.108542680,0.451056930,10.054986950,-0.007461010,-0.096377740,0.005814430
1640793802624940032,-0.436341490,0.557086170,10.542228700,-0.039619210,-0.006459650,0.014916060
1640793802627120128,0.058561610,0.177555520,9.461818700,-0.052993000,-0.054064400,-0.007370110
1640793802631259904,-0.298811550,0.344689940,10.383389470,0.013959410,-0.077661880,-0.003373620
1640793802632249856,-0.324091050,0.623473230,9.916782380,-0.036081680,-0.003938380,-0.010846550
1640793802635639808,-0.108103620,0.342999160,9.744908330,-0.095111140,-0.075793270,0.009933110
1640793802637129984,-0.455077350,0.357343410,10.367350580,-0.062517830,-0.069685280,0.011140110
1640793802640120064,-0.059844140,0.142944380,9.527771950,-0.022380060,-0.023010370,-0.018888710
1640793802642099968,0.036393370,0.207822490,9.738296510,-0.004923340,-0.033643850,0.004287060
1640793802645159936,-0.091125590,0.363595930,10.305831910,-0.069345540,0.002875920,0.026784840
1640793802647140096,0.232812430,0.029999890,9.884906770,-0.119990110,-0.003650780,0.024268030
1640793802649999872,-0.050538030,-0.010366350,10.127362250,-0.046296410,-0.076797600,0.021734830
1640793802652599808,-0.134165140,-0.037884560,9.792691230,-0.000156460,-0.054782630,0.011818110
1640793802654959872,-0.037310430,-0.150821370,9.381724360,-0.001968440,-0.012663010,0.007587670
1640793802657799936,-0.308565050,-0.094697450,10.013721470,-0.024299330,0.009638070,0.003585220
1640793802659940096,-0.120603520,-0.130796060,10.014249800,-0.039748850,0.007593630,0.000378490
1640793802662589952,-0.258371890,0.001941810,9.980322840,-0.006784500,-0.048826630,0.001677870
1640793802664939776,-0.343397440,0.100146850,9.831638340,-0.003130730,-0.055035950,0.012220440
1640793802667099904,-0.246182710,0.053202100,9.568752290,-0.007319450,-0.009500980,0.011706350
1640793802670129920,-0.361989950,-0.100028160,9.652514460,0.041429700,-0.015692410,0.008755920
1640793802672169984,-0.083356100,-0.145936880,9.771257400,0.069905810,0.005662440,0.010174510
1640793802674929920,-0.095637080,-0.064496440,10.007375720,0.071199240,0.026191770,0.011029840
1640793802677100032,-0.231702010,-0.118213440,10.157086370,0.016491120,-0.046426050,0.018702450
1640793802680049920,-0.161521750,-0.095023390,9.900115010,0.021313130,-0.073178110,0.017946960
1640793802682189824,-0.285945800,-0.140016260,9.431633950,0.075383500,-0.026352710,-0.016991790
1640793802685009920,-0.264683630,-0.017234760,9.596515660,0.114832840,-0.001804530,-0.024524330
1640793802687330048,-0.445510390,0.273569170,10.122754100,0.092944490,0.005464260,-0.017839670
1640793802691429888,-0.478014920,0.152465640,10.101660730,0.033751130,-0.063547500,0.002439320
1640793802692119808,-0.290768360,0.275235350,9.947739600,0.060671570,-0.086690490,0.030070550
1640793802695099904,-0.405881940,0.312505930,9.875702860,0.083746040,-0.023271140,-0.000549850
1640793802697110016,-0.319445730,0.277916700,9.864095690,0.072191660,-0.029914080,-0.007428230
1640793802699919872,-0.285682890,0.540746750,10.166125300,0.071911500,-0.058440860,0.005169210
1640793802702419968,-0.199072940,0.227528570,9.965343480,0.053142020,-0.049354140,-0.001941620
1640793802704939776,-0.018199760,0.343517690,9.676063540,0.072823470,-0.062799450,0.018917020
1640793802707109888,-0.272106530,0.535334290,10.136769290,0.051753220,-0.053817040,0.001303850
1640793802710350080,-0.207723050,0.458974000,9.784667020,-0.024175640,-0.058001290,0.014632940
1640793802712119808,-0.214319960,0.552070740,9.937063220,0.005124510,-0.085559490,0.019328300
1640793802714919936,-0.397284660,0.320068120,10.436693190,0.042724610,-0.043791530,-0.015002490
1640793802717429760,-0.156570080,0.445904020,9.623895650,0.052444640,-0.052791850,-0.006401540
1640793802720019712,-0.262204290,0.660361770,10.070175170,-0.000381470,-0.099697720,0.008392330
1640793802723330048,-0.137235180,0.353542450,9.807829860,-0.099098690,-0.000861290,0.021611150
1640793802724939776,0.121694850,0.264677050,9.429724690,-0.044168540,-0.032089650,0.036756690
1640793802727309824,-0.233177100,0.126557200,10.724358560,0.044806300,-0.073197490,0.002366300
1640793802729959936,0.032431270,0.072726910,9.483929630,0.036340950,-0.043250620,0.000663100
1640793802732149760,-0.036128420,0.092699690,9.582010270,-0.017145280,-0.112423320,0.021287800
1640793802735360000,-0.148933540,-0.251836120,10.142399790,-0.071549420,0.035901370,0.020666420
1640793802737099776,0.167306860,-0.222343740,9.242557530,0.006581840,0.018511710,0.008624790
1640793802739939840,-0.310796140,0.132763820,10.703798290,0.069873020,-0.109916910,0.010548530
1640793802742470144,-0.216744800,0.234402600,9.525895120,-0.002138320,-0.007592140,0.019545860
1640793802744920064,-0.100894020,0.257879140,9.070623400,-0.053523490,-0.096035020,0.013192000
1640793802747099904,-0.536160050,0.018233720,10.553650860,-0.001381340,0.009652970,0.000998380
1640793802750000128,-0.003881210,0.081298010,9.013849260,0.090610990,0.036093600,-0.020791590
1640793802752539904,-0.219710630,0.296503720,10.412231450,0.092737360,-0.106836850,0.000762940
1640793802757319936,-0.248985390,0.218988340,9.993471150,-0.028760730,0.052030390,0.035555660
1640793802757910016,0.107312320,-0.049221250,9.155377390,-0.047621130,-0.070707500,0.024369360
1640793802760329984,-0.522106770,-0.276019220,10.922644620,0.070720920,-0.065477200,0.016720590
1640793802762119936,-0.081877920,-0.159965080,8.733028410,0.129890460,0.016859170,-0.013569000
1640793802764989952,-0.308020260,-0.009665430,9.972197530,0.091213000,-0.107276450,-0.016179680
1640793802767360000,-0.607499120,0.231824900,10.522434230,-0.005953020,0.051113970,0.011940300
1640793802770059776,-0.038062190,0.294922650,9.246255870,-0.025336450,-0.066447270,0.004290050
1640793802772599808,-0.600085560,0.412211950,11.077015880,0.058552620,-0.115682190,0.022464990
1640793802775120128,-0.256960630,0.782605830,9.216348650,0.069618230,0.014197830,-0.005969410
1640793802777129984,-0.236916450,0.692965570,9.736644740,0.033369660,-0.115795420,0.000424680
1640793802779929856,-0.605246960,0.613595190,10.724477770,0.012727080,-0.011636320,0.035214420
1640793802785309952,0.088321270,0.395682960,9.010182380,-0.004911420,-0.053325300,-0.004054610
1640793802786789888,-0.206290980,0.384292600,10.501765250,0.008286540,-0.116257390,0.012609370
1640793802787269888,-0.211410520,0.666421530,9.892733570,-0.047153230,0.033214690,0.007216630
1640793802790550016,0.068616410,0.350216240,9.758145330,-0.090727210,-0.107079760,0.004489720
1640793802792310016,-0.457392160,0.316003170,10.795659070,-0.029803810,-0.095231830,0.023382900
1640793802794949888,-0.090089460,0.257363140,9.137487410,0.000293550,-0.053133070,-0.019799170
1640793802797089792,-0.076073480,0.199652550,9.776438710,-0.016318260,-0.088974830,0.001727040
1640793802800189952,-0.308291290,0.328382190,10.101472850,-0.070501870,0.036822260,0.023964040
1640793802802160128,0.142841150,0.060925740,9.684399600,-0.108687580,-0.037622460,-0.002053380
1640793802805799936,-0.207489680,0.168199180,10.399275780,-0.037623940,-0.108899180,0.014247000
1640793802807680000,-0.079658480,0.303752120,9.370629310,-0.022390490,-0.056731710,0.004325810
1640793802809969920,0.043168790,0.025615050,9.594016080,-0.048305100,-0.047574940,0.007127230
1640793802812120064,-0.273920690,0.021457450,10.083680150,-0.037534530,0.031286470,0.006207820
1640793802814949888,0.088455890,-0.106002520,9.686938290,-0.033164020,-0.027287010,-0.012855230
1640793802818019840,0.010508460,-0.064338240,9.956698420,-0.004570190,-0.049695370,0.018833580
1640793802820049920,-0.101748070,0.092085730,9.554322240,-0.042700760,-0.012730060,0.012630220
1640793802822419968,-0.100505310,-0.072642300,9.906893730,-0.066016610,-0.048848990,-0.000895560
1640793802825419776,-0.386503010,-0.155053200,9.810150150,0.011511150,-0.019435580,0.006328520
1640793802827180032,-0.155280650,-0.205095810,9.428122520,0.060781840,-0.034551330,-0.041730690
1640793802829929728,-0.279740330,-0.041448320,10.117019650,0.044497840,0.012972950,-0.022993980
1640793802832160000,-0.356263730,0.096934440,9.891653060,-0.017677250,0.005108120,0.001601880
1640793802834929920,-0.175547900,0.048108820,10.056881900,-0.034277140,-0.095534320,-0.001259150
1640793802837179904,-0.235385860,0.121016490,9.677730560,0.029110910,-0.013124940,0.010468060
1640793802840299776,-0.037042680,0.110495110,9.442467690,0.059187410,-0.005169210,-0.026147070
1640793802842180096,-0.291561010,0.242696570,10.441608430,0.061105200,0.003980100,-0.023594500
1640793802844960000,-0.312190230,0.238576410,9.829089160,0.035084790,-0.046342610,-0.008861720
1640793802847099904,-0.136342880,0.253536430,9.794966700,0.007931890,-0.117534400,-0.003848970
1640793802849979904,-0.394942100,0.269758880,9.857420920,0.006486480,0.015176830,-0.004766880
1640793802852669952,-0.313607220,0.411173050,9.717946050,-0.006145240,-0.013935570,-0.019508600
1640793802855449856,-0.431505320,0.522725400,10.465378760,0.004211070,-0.066588820,-0.003957750
1640793802859089920,-0.295434210,0.323577200,9.844615940,0.013294820,-0.026220080,-0.021369760
1640793802860250112,-0.043850830,0.374680010,9.800481800,0.020495060,-0.071077050,-0.019864740
1640793802862119936,-0.226853830,0.367605330,10.203104020,0.009459260,-0.011856860,-0.016213960
1640793802865749760,0.038818200,0.333086430,9.682830810,-0.057289010,-0.028106580,-0.018107890
1640793802867139840,0.078011390,0.348600690,10.077641490,-0.049714750,-0.045301020,0.011315940
1640793802870149888,-0.191402780,0.262318310,10.275209430,-0.021809340,-0.007446110,-0.028572980
1640793802872189952,-0.081510900,0.371656660,9.624819760,-0.013342500,-0.079762940,-0.014480950
1640793802874939904,-0.246407270,0.519186790,9.776659010,-0.037319960,-0.058880450,0.001260640
1640793802877069824,-0.169656720,0.241162960,9.804825780,-0.105929380,0.041416290,-0.013312700
1640793802879899904,-0.014920400,0.128435400,9.862466810,-0.043796000,0.019022820,0.008547310
1640793802882579968,-0.331517880,0.124053990,10.579627990,0.008726120,-0.046788160,-0.020936130
1640793802885200128,-0.044020920,0.088550080,9.544312480,-0.032125410,-0.036178530,-0.008414690
1640793802889869824,-0.019863510,0.163231540,9.323967930,-0.072439010,-0.038994850,-0.000628830
1640793802891629824,-0.221287410,-0.166057270,10.106653210,-0.079700340,0.048670170,-0.020866100
1640793802892369920,0.195089030,-0.128985350,9.218992230,0.000537930,0.026550890,-0.021614130
1640793802894949888,-0.011491770,0.151562450,10.141607280,0.029172010,-0.030478830,-0.025980170
1640793802897080064,-0.033510290,0.054237090,10.152599330,-0.056451560,0.062903760,-0.010012090
1640793802900179968,0.009751810,0.046899740,9.576070790,-0.061139470,-0.038409240,-0.009433930
1640793802902329856,-0.453442510,-0.143458080,10.258439060,0.000816580,-0.044727320,-0.025112920
1640793802905009920,-0.049610820,-0.130838560,8.745525360,0.053860250,0.056980550,-0.030793250
1640793802907320064,-0.292417140,0.095878530,9.814641000,0.051809840,0.020480150,-0.028817350
1640793802910019840,-0.492620830,-0.036305540,10.599333760,-0.038757920,0.074513260,-0.013346970
1640793802912169984,-0.057239490,-0.089938460,9.288503650,-0.008989870,-0.061239300,-0.006005170
1640793802919319808,-0.409006800,-0.181426180,10.327938080,0.074365740,-0.050602860,-0.037254400
1640793802920450048,-0.218126920,0.015906480,9.349442480,0.086109350,0.100292280,-0.055046390
1640793802921099776,-0.291812090,0.235021740,9.760656360,0.052076590,-0.052258380,-0.049661100
1640793802923620096,-0.470929680,0.280696000,10.457833290,-0.005160270,0.006493930,-0.037427250
1640793802926039808,0.166951570,0.457627270,8.863550190,0.003993510,0.012020770,-0.018179420
1640793802927179776,-0.322106000,0.448296310,10.673981670,0.048701470,-0.030580170,-0.017701090
1640793802929929984,-0.327255070,0.528023540,10.049037930,0.028455260,0.058266520,-0.016735490
1640793802932189952,-0.153936040,0.322055820,9.510548590,0.040587790,-0.105962160,-0.013856590
1640793802934969856,-0.591311810,0.121633430,10.597458840,0.033122300,-0.029352310,-0.022250410
1640793802937389824,-0.100235040,0.202650070,8.875052450,0.014898180,0.046679380,-0.033995510
1640793802940019968,-0.334623100,0.187711510,10.320314410,-0.000275670,-0.067213190,-0.042949630
1640793802942129920,-0.354528610,0.534172590,10.304588320,-0.051276390,0.044623020,-0.027504570
1640793802944909824,0.118280550,0.481812720,9.433164600,-0.054959950,-0.057411200,-0.024531780
1640793802947119872,-0.430158050,0.481076960,10.907609940,0.004769860,-0.056935840,-0.024946040
1640793802950229760,-0.135539010,0.701962530,9.251977920,0.001797080,0.005258620,-0.021281840
1640793802952229888,0.004464850,0.542176190,9.606863980,-0.041677060,-0.089266900,-0.007094440
1640793802954969856,-0.215322660,0.469334750,10.162912370,-0.089906150,0.077070300,0.017115470
1640793802957239808,0.211303640,0.236940560,9.379064560,-0.089132790,0.023451450,-0.018762050
1640793802960419840,-0.222911060,0.246434570,10.811214450,-0.034077470,-0.079500680,-0.017134850
1640793802962109952,-0.170135920,0.354536350,9.524670600,-0.060704360,-0.020132960,-0.030194230
1640793802964949760,0.031600270,0.022553680,9.462886810,-0.103923660,-0.054652990,-0.027397280
1640793802967139840,-0.349610360,-0.051348460,10.207957270,-0.055450210,0.074493890,-0.002940000
1640793802969959936,-0.018221390,-0.163152220,9.470912930,-0.032763180,0.034326310,-0.033928450
1640793802972239872,-0.126432840,0.021980050,10.345458980,-0.021962820,-0.050263110,-0.001108650
1640793802975699968,-0.208433260,0.155489880,9.506107330,-0.085893270,0.029923020,0.015386940
1640793802977079808,-0.063741940,-0.229583230,9.565795900,-0.098007930,-0.056649760,-0.016580520
1640793802979939840,-0.327869000,-0.106002700,9.913306240,0.021883850,0.017006700,-0.009424980
1640793802982569984,0.017649320,0.014701590,9.076386450,0.045496230,0.040107970,-0.041845440
1640793802984999936,-0.138222460,0.086298900,10.476838110,-0.012414160,0.014181430,-0.015485290
1640793802987109888,-0.227531210,0.182597700,9.901179310,-0.078433760,0.050333130,-0.004903970
1640793802989989888,-0.109157760,-0.200152320,9.747496600,-0.047700110,-0.094561280,-0.021040440
1640793802992889856,-0.442757280,-0.127883510,9.810466770,0.075005000,-0.006657840,-0.004969540
1640793802994940160,-0.244271580,-0.061015590,8.771608350,0.073724990,0.032407050,-0.048461560
1640793802997210112,-0.410219850,-0.164940830,10.252576830,0.020453330,0.002941490,-0.031587480
1640793802999929856,-0.310798560,-0.026376610,9.840875630,-0.002883380,0.069159280,-0.010459130
1640793803002149888,-0.067385330,-0.084528290,9.934659000,0.033867360,-0.072200600,-0.021485980
1640793803005080064,-0.466226970,0.103445160,10.471261980,0.077697630,-0.013275450,-0.005251170
1640793803007139840,-0.109178880,0.371568830,8.934144970,0.049188730,-0.010041890,-0.030863290
1640793803009929984,-0.269478650,0.240864780,10.068963050,0.027991830,-0.049130610,-0.024850660
1640793803012159744,-0.238633650,0.366877680,9.713287350,0.058196480,0.077606740,-0.012415650
1640793803015120128,-0.006243280,0.377235740,9.757057190,0.066894300,-0.044025480,-0.035588440
1640793803017269760,-0.497969150,0.494110520,10.822792050,0.030945240,-0.041875240,-0.011855360
1640793803020229888,-0.160812450,0.605648040,9.175086020,-0.036196410,-0.027345130,-0.012134020
1640793803022179840,-0.286147560,0.287267920,10.120826720,-0.024405120,-0.066255030,-0.023549800
1640793803025649920,-0.531315510,0.421627100,10.295154570,0.048267840,0.041703890,-0.027562680
1640793803027099904,-0.096383500,0.500928940,9.443816180,0.034497680,-0.064212080,-0.041981050
1640793803029989888,-0.281390010,0.520810780,10.399207120,-0.042507050,-0.059919060,-0.017213820
1640793803032169728,0.019257630,0.449557870,9.416757580,-0.092841680,0.037378070,0.002774600
1640793803034939904,0.085351660,0.216865240,9.959991460,-0.050264600,-0.035431980,-0.026144090
1640793803037359872,-0.350080910,0.455818650,10.558319090,0.009916720,-0.033959750,-0.022079050
1640793803040009984,0.024979510,0.478610070,9.317704200,-0.044438240,-0.060690940,-0.011548400
1640793803042979840,-0.134239410,0.290854600,9.919290540,-0.101994000,-0.042574110,-0.006233160
1640793803046289920,-0.232625420,0.155590860,9.892738340,-0.084164730,0.045169880,-0.009839230
1640793803047399936,0.059052780,0.082581640,9.668062210,-0.039128950,-0.021262470,-0.023180250
1640793803049949952,-0.274378630,0.202078030,10.180516240,-0.020736460,-0.037921970,-0.012026730
1640793803052229888,-0.049380310,0.047377510,9.602829930,-0.082774480,0.010342900,0.000877680
1640793803056029952,-0.076115890,-0.116822480,9.834113120,-0.074929000,-0.028394170,-0.015527010
1640793803057179904,-0.215415690,-0.183342560,9.813545230,-0.016425550,-0.001312790,-0.023974480
1640793803059980032,0.154236790,-0.065002000,9.349105830,0.002197920,0.024262070,-0.028616190
1640793803062340096,-0.080150630,0.132918430,9.945058820,-0.036346910,0.031985350,-0.011163950
1640793803064879872,-0.159915790,-0.050651340,10.010452270,-0.079770390,0.014385580,0.000710790
1640793803067109888,-0.089326010,-0.048235830,9.732494350,-0.009168690,-0.048130760,-0.005351010
1640793803069969920,-0.367408870,-0.157632590,9.540745740,0.052420810,-0.012305380,-0.026783350
1640793803072259840,-0.166708320,-0.114056180,9.406061170,0.027416650,0.044818230,-0.037513670
1640793803076179968,-0.345372080,-0.016414860,9.994533540,0.000296530,0.051280850,-0.022126730
1640793803077479936,-0.273702860,-0.254682180,10.054988860,0.000645220,-0.010246040,-0.028745830
1640793803079969792,-0.070006300,0.024358820,9.676786420,0.061132020,-0.032527740,-0.013110040
1640793803082149888,-0.340593610,0.091761100,9.687844280,0.045385960,0.005462770,-0.024247170
1640793803084979968,-0.140161780,-0.037592180,9.615493770,0.007869300,0.016535820,-0.028243670
1640793803087450112,-0.296610360,0.109243720,10.035167690,0.074222680,0.007389490,-0.018902120
1640793803093989888,-0.226166190,-0.064705780,9.802773480,0.096401570,-0.011524560,-0.044175990
1640793803094720000,-0.059992680,0.333769260,9.632946010,0.086283680,-0.006011130,-0.017119940
1640793803095229952,-0.469788640,0.531269310,10.159889220,0.000773370,0.006908180,-0.035987790
1640793803097119744,-0.308663790,0.437412830,9.833868980,-0.042584550,-0.044025490,-0.020568080
1640793803099959808,-0.346384440,0.556998190,9.869192120,0.044794380,-0.049561270,-0.024941560
1640793803102180096,-0.435075580,0.436499210,9.830098150,0.079636280,0.008884070,-0.054419040
1640793803105079808,-0.217798930,0.574387070,9.786364560,0.055746740,0.001020730,-0.018325450
1640793803107879936,-0.411965880,0.550974190,10.422108650,-0.027303400,-0.036513810,-0.008706750
1640793803110460160,-0.035637200,0.121762210,9.651836400,-0.074523680,-0.038304930,0.000044700
1640793803112169984,-0.000007640,0.246096450,9.633877750,0.014138220,-0.033541020,-0.007876750
1640793803114929920,-0.309030620,0.244244690,10.253312110,0.031150880,0.003297630,-0.034767380
1640793803117240064,0.028999160,0.287730310,9.533436780,-0.022502250,-0.033348800,-0.009085240
1640793803120299776,-0.202165830,0.379378290,10.131909370,-0.058525790,-0.058686730,-0.013785060
1640793803122239744,-0.116380540,0.099510200,9.724647520,-0.058057910,0.027316810,-0.023633240
1640793803125049856,0.000720620,0.332699120,9.434586520,-0.000594560,-0.033646820,-0.023253260
1640793803127379968,-0.394051700,0.425623090,10.456553460,-0.023768840,-0.025855000,-0.018444660
1640793803129969920,0.036818470,0.147724570,9.281838420,-0.077803440,0.012849270,0.002217290
1640793803132140032,-0.111773380,-0.004731870,9.968553540,-0.019532440,-0.058245660,-0.004413720
1640793803134929920,-0.173934920,-0.144029950,10.010261540,0.010353330,0.035925210,-0.023134050
1640793803137199872,0.240518110,-0.003767180,8.955422400,0.007098910,0.005795060,-0.003036860
1640793803140029952,-0.331762370,0.025649370,10.636563300,-0.056190790,-0.024771690,-0.000470880
1640793803142449920,-0.154466660,-0.161042780,9.539854050,-0.073166190,0.031721600,0.004111230
1640793803144919808,-0.179902600,-0.242085870,9.465845110,0.041629370,-0.104682150,-0.007253890
1640793803147109888,-0.517486040,-0.159147500,10.160948750,0.086042280,0.020335620,-0.028648970
1640793803149979904,-0.087626900,0.059420730,8.944353100,0.026388470,0.052185360,-0.023396310
1640793803152299776,-0.439547270,-0.001737870,10.597877500,-0.012864180,-0.047740340,-0.007501250
1640793803154990080,-0.187872100,0.061340580,9.825300220,-0.004208090,0.027801100,-0.005303320
1640793803158789888,0.065935020,0.158066940,9.200785640,0.064542900,-0.072149930,-0.005647540
1640793803160270080,-0.507796820,0.225470500,10.570867540,0.059184440,-0.012862680,-0.012847780
1640793803162129920,-0.008669070,0.286937360,8.960035320,0.011745100,0.024241210,-0.011038780
1640793803164899840,-0.247503820,0.006366860,10.119882580,0.041762000,-0.081463180,-0.010360780
1640793803167140096,-0.272491810,0.163027730,10.105006220,0.061871120,0.052168970,-0.006289780
1640793803170029824,-0.003796450,0.311777770,9.321517940,0.037507720,-0.042054060,-0.010409950
1640793803173009920,-0.562212820,0.358272670,10.794789310,-0.009809440,-0.057639190,0.002522770
1640793803175539968,-0.193675040,0.460920570,9.190149310,-0.035679340,0.009520350,0.002154710
1640793803177129984,-0.350625870,0.244687530,9.938167570,0.032007700,-0.097538530,-0.018027430
1640793803179899904,-0.610246720,0.444026470,10.323452950,0.073079760,0.017218290,-0.004510580
1640793803182220032,-0.071046320,0.516465490,9.136782650,0.006434320,-0.037658210,-0.004206600
1640793803184999936,-0.296853330,0.371629800,10.571880340,-0.056095430,-0.060369080,0.022971630
1640793803187289856,0.081023470,0.383874270,9.629799840,-0.058609240,0.051641470,0.025182960
1640793803190139904,0.109173050,0.220201840,9.998977660,-0.001105670,-0.067473940,-0.008402760
1640793803193609984,-0.213783650,0.397094520,10.317557330,0.009332600,-0.037704410,0.011348720
1640793803194919936,0.231548860,0.359067470,8.851848600,-0.054821370,-0.036777560,-0.000627340
1640793803197129984,-0.081949760,0.031038230,10.066205980,-0.061883030,-0.010390580,0.018188350
1640793803199950080,-0.119835280,0.117432700,9.709360120,-0.027892000,0.063978160,0.010506810
1640793803202459904,-0.066575610,0.109064730,9.908680920,-0.018942360,-0.070470570,-0.008897480
1640793803206209792,-0.383307750,0.246609580,10.122494700,-0.056576740,-0.012362000,0.039960440
1640793803208930048,-0.091329310,0.040309730,9.138277050,-0.087772320,-0.001399220,0.007092950
1640793803209910016,-0.320814640,-0.204514620,10.224197390,-0.011113290,-0.012701750,-0.008945170
1640793803212179968,-0.180990380,0.051189590,9.331231120,0.048615030,0.042957060,-0.001078840
1640793803214929920,0.026403520,-0.043163470,9.662260060,-0.008562210,-0.044330960,-0.006553530
1640793803217159936,-0.242638660,0.011223370,10.276104930,-0.067880760,0.039254130,0.034876180
1640793803220229888,0.037533410,-0.068676760,9.182097430,-0.045120720,-0.030007960,0.017759210
1640793803222479872,-0.248283890,-0.265212360,10.250275610,0.047735860,-0.063119820,-0.004574660
1640793803225479936,-0.129185910,0.187434630,9.101160050,0.069053470,0.079737610,-0.005343560
1640793803227459840,-0.180397440,0.054303150,9.862931250,0.000217560,-0.028944020,-0.017710030
1640793803230249984,-0.490654530,0.100423710,10.571829800,-0.015406310,0.019328300,0.012707710
1640793803232270080,-0.076552650,0.310669420,8.977111820,0.008609890,-0.046892480,0.007927420
1640793803234909952,-0.454812770,0.125966100,10.458786010,0.030669570,-0.071823600,0.000348690
1640793803237229824,-0.406020280,0.436824230,9.485342030,0.016748910,0.074979670,0.007691980
1640793803240019968,-0.220673860,0.348729580,9.668599130,-0.009781120,-0.078272830,-0.002388660
1640793803242159872,-0.443542660,0.142746390,10.712702750,0.014431780,0.000017880,0.016273560
1640793803244959744,0.150466650,0.345734180,8.884207730,0.031451880,0.005644560,-0.005868080
1640793803247139840,-0.186372520,0.282736360,10.572529790,-0.015427170,-0.067502250,-0.003802780
1640793803250690048,-0.217279210,0.511210200,9.807207110,-0.056308510,0.051440300,0.038158900
1640793803252539904,0.118545530,0.336525950,9.328070640,-0.048224640,-0.100407020,0.012765830
1640793803255389952,-0.385043170,0.363173900,10.731246950,0.007431210,-0.028996170,0.006324050
1640793803257220096,0.030617410,0.707049970,8.909468650,-0.011658670,0.031171740,0.010906160
1640793803259960064,-0.081389940,0.377162190,10.202610020,-0.079487270,-0.063301620,0.013561550
1640793803262230016,-0.269220830,0.324046670,10.278551100,-0.089202820,0.057776280,0.031700730
1640793803264910080,0.156277220,0.148183820,9.268767360,-0.042818490,-0.040015580,0.006414950
1640793803267160064,-0.464925740,0.110078790,10.574608800,-0.010703500,-0.068770340,0.008341670
1640793803270269952,-0.140130590,0.310595300,8.904850010,-0.068123640,0.002075730,0.028648970
1640793803272189952,0.115926400,-0.098204820,9.481712340,-0.113497700,-0.016793610,0.013703110
1640793803275049984,-0.184561680,-0.079868700,10.398392680,-0.049959120,0.109326830,0.014929470
1640793803277149952,0.294759060,0.162904640,9.444075580,-0.004634260,0.005064900,0.006319580
1640793803279929856,-0.106791120,0.140746760,10.342933650,-0.043067340,-0.061966480,0.027059020
1640793803282209792,-0.117059940,0.177342680,9.194634440,-0.103089210,0.019975000,0.035236770
1640793803285019904,-0.021152890,-0.089148360,9.398577690,-0.067669180,-0.025042900,0.015836950
1640793803287579904,-0.445504840,-0.145146000,9.991788860,0.026938320,0.079004470,0.003476440
1640793803290009856,-0.001449740,0.100052010,9.242753980,0.028359890,0.033080580,0.000429150
1640793803293249792,-0.287837450,0.023876120,10.484254840,-0.040902200,0.003695490,0.013355910
1640793803294909952,-0.327931850,-0.017446070,9.652598380,-0.081102560,0.038449470,0.024655460
1640793803297139968,-0.151819660,-0.152070370,9.521766660,-0.001151860,-0.083959100,0.022302570
1640793803299909888,-0.492852660,-0.157922040,9.707291600,0.067201250,0.044651330,0.002251560
1640793803302709760,-0.105604550,0.007915200,9.033586500,0.033037370,0.035758320,-0.005158780
1640793803305039872,-0.310747590,0.036237340,10.562537190,0.005042550,0.009043510,0.017480550
1640793803307739904,-0.210240160,0.111480910,9.638521190,-0.012351570,0.034172830,0.015072520
1640793803309929728,-0.040646710,0.217936050,9.827943800,0.009749830,-0.073610250,0.023894010
1640793803312140032,-0.471080270,0.399197910,10.212526320,0.021769100,0.034022330,0.015451010
1640793803314909952,-0.185940250,0.345566300,9.092087750,0.005508960,-0.025609140,0.005130470
1640793803317430016,-0.346823570,0.329337180,10.091860770,0.040043890,-0.040082630,0.014482440
1640793803321539840,-0.252784130,0.395445050,9.412045480,0.013133890,0.072304900,0.007817150
1640793803323299840,-0.117918890,0.338843730,10.039331440,-0.022555890,-0.040371720,0.010511280
1640793803326850048,-0.442489560,0.562029900,10.635780330,-0.045625870,-0.016777220,0.024242700
1640793803327429888,-0.062756510,0.358168930,9.097231860,-0.065633640,-0.049532950,0.008000430
1640793803329900032,-0.272983610,0.377747770,10.186606410,-0.006794930,-0.052604080,0.013855100
1640793803332140032,-0.448586610,0.586067910,9.943662640,-0.015255810,0.042679900,0.002662840
1640793803335889920,-0.025828910,0.351404960,9.528296470,-0.074155640,-0.076647110,0.029191380
1640793803337250048,-0.179169210,0.416865680,10.222634320,-0.081908700,-0.014039880,0.035354500
1640793803340039936,0.152600180,0.193292050,9.354068760,-0.092287370,0.043350460,0.013996660
1640793803342149888,0.003522120,0.259376730,10.299557690,-0.046013300,-0.048804290,0.028258570
1640793803344879872,-0.290838300,0.370257080,10.217359540,-0.060071050,-0.026261810,0.018528100
1640793803347129856,0.173341410,-0.064861010,8.923411370,-0.106735530,-0.057543820,0.019147990
1640793803350179840,-0.135854290,0.116309090,9.882462500,-0.052128740,0.007444620,0.026378040
1640793803352619776,-0.126912550,0.068541050,9.635292050,-0.065356500,0.099129990,0.007736680
1640793803355170048,0.041569680,0.001605070,9.794898030,-0.076195600,-0.042156880,0.039528310
1640793803357750016,-0.372657030,0.154109000,10.391509060,-0.079274190,-0.023531910,0.030140580
1640793803360339968,-0.001120730,-0.216511680,9.173462870,-0.069560120,0.006262960,0.021336970
1640793803362210048,-0.253751700,-0.137873340,9.829206470,0.004862250,-0.026917460,0.024826830
1640793803365059840,-0.336394370,-0.032178250,9.836792950,-0.018547480,0.061932210,0.006464130
1640793803367189760,0.190142680,-0.181287350,9.230008130,-0.061975430,0.025951870,0.038063530
1640793803370299904,-0.296096980,-0.036108070,10.358526230,-0.028429930,0.002133850,0.036968290
1640793803373699840,-0.011761620,-0.079280010,9.471130370,-0.026714810,0.014668700,0.030215090
1640793803375279872,-0.039886650,-0.074020240,9.495003700,0.015029310,-0.040741270,0.036031010
1640793803377120000,-0.363026500,-0.033641420,9.951327320,0.013688210,0.049299000,-0.001496080
1640793803379930112,0.010286660,-0.098435600,9.246323590,0.011155010,0.032503910,0.003100930
1640793803382729984,-0.364506130,0.046290820,9.952971460,0.052662200,-0.016698240,0.016133490
1640793803385550080,-0.285170500,0.176556600,9.788341520,0.001645090,0.040583310,0.012816490
1640793803387539968,-0.296173300,0.221965920,9.739696500,-0.019924340,-0.033424800,0.040951360
1640793803390060032,-0.614018200,0.194356690,10.077222820,0.008618830,-0.036020580,0.031866130
1640793803392209920,-0.103623090,0.103531720,9.219450000,0.045466420,0.001031160,0.021258000
1640793803394939904,-0.273744910,0.169224550,9.870573040,0.085933510,0.022524600,0.020933150
1640793803397139968,-0.213932500,0.293360260,10.292130470,0.016929210,0.033387550,0.017951430
1640793803400009984,0.056690690,0.387195230,9.731761930,-0.041531030,-0.045792760,0.038145490
1640793803402560000,-0.159445850,0.337923380,9.885980610,-0.022222100,-0.047659880,0.033868850
1640793803404929792,-0.036338140,0.514376640,9.544083600,-0.007730720,0.010466580,0.001713630
1640793803407119872,-0.277869730,0.621845840,9.862133030,0.014011560,-0.009107590,0.021190940
1640793803409949952,-0.356672610,0.506372630,10.205442430,-0.023184720,-0.027881560,0.023153430
1640793803412189952,-0.037331720,0.486642930,9.562187190,-0.052194300,-0.003433230,0.029395520
1640793803414989824,-0.201273080,0.277416260,10.008774760,-0.036938490,-0.005745890,0.033098460
1640793803417299968,-0.234158660,0.407901560,9.960462570,-0.062394140,0.005471710,0.032408540
1640793803420359936,-0.138136790,0.350446190,9.523158070,-0.079956660,-0.051373250,0.042685860
1640793803422230016,-0.175561880,0.114593920,9.798911090,-0.075635310,-0.037699930,0.034233920
1640793803424919808,0.072274240,0.210261110,9.421394350,-0.046916310,0.048650800,0.020967430
1640793803427189760,-0.012870170,0.141609160,9.979702950,-0.038702790,0.012688340,0.014346840
1640793803430339840,0.104130200,0.247309060,10.032586100,-0.084955990,0.014367700,0.044208780
1640793803432189952,0.243487340,0.144711110,9.546114920,-0.103016210,0.009496510,0.039528310
1640793803434929920,-0.136790350,-0.094927800,10.078620910,-0.062975290,-0.009401140,0.034344200
1640793803437289984,-0.119225930,0.057966800,9.258459090,-0.015194710,-0.007110830,0.024406610
1640793803440320000,-0.258801550,-0.121135200,9.469218250,-0.034658610,0.000479820,-0.004239380
1640793803442179840,-0.299913380,-0.084917450,9.726233480,-0.068350140,0.082810220,0.008380410
1640793803444989952,-0.216583650,-0.002821630,9.776371960,-0.046531860,0.033825640,0.004564230
1640793803447239936,-0.343577860,-0.114521350,10.239895820,-0.021848080,-0.016991790,0.016240780
1640793803449929984,-0.085807660,0.216260670,9.232268330,-0.013120470,0.016395750,0.036934020
1640793803452289792,-0.251193550,0.007247990,9.895171170,-0.044311580,0.008516010,0.018213690
1640793803454959872,-0.236728740,-0.176617220,9.770385740,-0.001996760,0.051596760,0.027583540
1640793803457159936,-0.001078450,0.014322490,9.253673550,0.066450240,-0.025773050,0.006039440
1640793803459970048,-0.147078440,-0.057668580,10.092716220,0.033725800,0.032752760,0.000831480
1640793803462729984,0.055750660,0.341974500,9.486052510,-0.039838250,0.071576250,0.029177960
1640793803464939776,-0.287698570,0.315352230,10.454423900,-0.079506640,-0.039693710,0.016105180
1640793803467180032,-0.311476590,0.155581740,9.888866420,-0.016389790,0.011268260,0.009687240
1640793803470019840,-0.210294430,0.494389830,9.127470970,0.057792670,-0.040414930,-0.015802680
1640793803472319744,-0.613476220,0.374203090,10.380521770,0.020386280,0.028267510,-0.007380550
1640793803474889984,-0.253165600,0.400231720,9.306038860,-0.043062870,0.046530370,0.026634340
1640793803477339904,-0.241233920,0.284814000,10.050874710,-0.057034200,-0.070635970,0.032463670
1640793803479949824,-0.248695450,0.122510690,10.167607310,-0.051826250,0.061461340,0.037527100
1640793803482309888,0.069867250,0.405333670,9.261486050,-0.016859180,-0.010313090,0.027734040
1640793803485019904,-0.325907710,0.225530560,10.726447110,-0.038072470,-0.056159500,0.022177400
1640793803487399936,0.070306490,0.238260420,9.075428010,-0.038856270,0.040103500,0.021232670
1640793803489969920,0.152452560,0.243445140,9.467211720,-0.029140710,-0.038464370,0.015269220
1640793803492219904,-0.242797540,0.253676000,10.537762640,-0.048436220,0.089949390,0.008383390
1640793803495020032,0.208555950,0.633176510,9.057922360,-0.089021030,0.017222760,0.027477740
1640793803497200128,-0.271174790,0.393629970,10.767223360,-0.111548600,-0.069245680,0.034373990
1640793803499970048,-0.182262380,0.354469950,9.452174190,-0.086545940,0.070390110,0.030256810
1640793803502599936,0.054498180,0.251791360,9.046225550,-0.027650590,-0.047941500,0.022457540
1640793803504930048,-0.432322860,0.004094040,10.380113600,-0.038230420,0.075985490,0.034891070
1640793803507149824,0.194616170,-0.077520290,8.847998620,-0.079025330,0.093087560,0.042349100
1640793803510380032,-0.172643870,-0.422504600,10.631823540,-0.073398630,-0.042155390,0.038577620
1640793803512149760,-0.267503920,-0.346186190,9.818876270,-0.041197250,0.044068690,0.029104950
1640793803514950144,0.180553360,-0.235934110,8.660565380,-0.029434270,-0.056564820,0.016626720
1640793803517289984,-0.337136150,-0.145707990,10.282991410,-0.029850010,0.080038610,0.014132260
1640793803520249856,0.066178390,-0.009980070,9.084526060,-0.032562020,0.139375030,0.010754170
1640793803522249984,-0.101015970,-0.036385170,10.392645840,0.027646130,-0.050865110,0.025172530
1640793803524989952,-0.388051450,0.171337750,9.977126120,0.033210220,0.047495960,0.035245720
1640793803527510016,0.025680960,0.098286340,8.787732120,-0.024133920,-0.027738520,0.031699240
1640793803529909760,-0.584051130,0.005929470,10.345851900,-0.004895030,0.036779050,0.032849610
1640793803532199936,-0.193542420,-0.027618120,8.987805370,0.033113360,0.098928820,0.007660690
1640793803534909952,-0.059373650,-0.022891920,9.841289520,0.091086330,-0.017663840,0.015719240
1640793803537299968,-0.453225110,0.219754100,10.292865750,0.041280690,0.095127520,0.023238360
1640793803541039872,-0.057239660,0.031022390,9.340463640,-0.033171480,-0.014147160,0.026947260
1640793803542340096,-0.569395600,0.034799050,10.350151060,0.025689600,-0.064451990,0.032566490
1640793803544910080,-0.272529840,0.136590480,8.988559720,0.063031910,0.046853720,-0.004868210
1640793803547149824,-0.085145490,0.194684980,9.579641340,0.079052150,0.011259320,0.002436340
1640793803549929984,-0.471149560,0.521177170,10.551939960,0.035823870,0.078520180,0.012531880
1640793803552280064,0.099028890,0.381700040,9.525033950,-0.034552810,-0.023041670,0.007709860
1640793803558220032,-0.108465220,0.475326600,10.191779140,0.002712010,-0.048255920,0.021447240
1640793803559119872,-0.204286590,0.557839690,9.519731520,0.021360820,0.046758350,-0.003844500
1640793803560559872,-0.081176300,0.431344330,9.636135100,0.014631450,-0.029100480,0.012516980
1640793803562209792,-0.363040330,0.500170410,10.084019660,0.000692900,0.007084010,0.037653740
1640793803564940032,0.063399170,0.101235700,9.333196640,-0.039392710,0.026771430,0.009775160
1640793803567180032,-0.119741400,0.126877400,10.186610220,0.002728400,0.024145840,0.016731020
1640793803570240000,-0.342399570,0.410144210,9.967845920,-0.017428400,0.007815660,-0.002554060
1640793803574980096,-0.099901240,0.149331700,9.645199780,-0.071048740,-0.058129430,0.003053250
1640793803576619776,-0.249220880,0.275260360,9.707551000,-0.034128130,0.002312660,0.009422010
1640793803577209856,-0.022984640,0.142516730,9.404824260,-0.004699830,0.049285590,-0.012840330
1640793803579879936,0.086743420,0.120204060,9.935976980,0.011725720,0.047710540,-0.000739100
1640793803582199808,-0.020427740,0.322488310,9.973281860,-0.039361420,0.039611760,0.025786460
1640793803584930048,0.134525490,-0.137685330,9.809441570,-0.080490100,-0.020478660,0.028376280
1640793803587469824,-0.180289800,-0.154182750,9.722797390,0.008706750,-0.015211110,0.025355820
1640793803590169856,-0.194887070,-0.115764490,9.135468480,0.044041860,-0.001171230,0.002294780
1640793803593259776,-0.120266810,-0.229990570,9.473922730,0.017093120,0.064498190,0.001321730
1640793803594990080,-0.348972260,-0.132430810,10.001186370,0.007466970,0.102277110,-0.003615020
1640793803597129728,-0.254268770,-0.147678300,10.020338060,0.006921590,-0.011788310,-0.003735720
1640793803599939840,-0.325448480,0.027135260,9.698804860,0.059063740,-0.052061680,0.001981850
1640793803602200064,-0.232688840,0.186286360,9.059713360,0.038531420,0.022134190,-0.007735190
1640793803605059840,-0.207757620,0.140123640,9.616273880,0.018405910,0.045539430,-0.004546340
1640793803607329792,-0.297236110,-0.058022990,9.941204070,0.066439810,0.043667860,-0.005415080
1640793803610299904,0.083191800,-0.056776810,9.592214580,0.116634390,-0.009231270,-0.005212430
1640793803612179968,-0.099582930,-0.056168340,10.040886880,0.105504710,0.025202340,0.004492700
1640793803614919936,-0.272138510,-0.000098750,9.819873810,0.027042630,0.012204050,0.009201470
1640793803617299968,-0.317838730,-0.033650750,9.660928730,0.028140840,-0.077404080,0.009813910
1640793803620299776,-0.413603430,-0.107213770,9.435036660,0.107584900,-0.002785030,-0.018654760
1640793803622370048,-0.193803360,0.226102050,9.351280210,0.137835760,0.052861880,-0.036896770
1640793803627149824,-0.400043460,0.514774560,10.431617740,0.100718450,0.019642710,-0.028882920
1640793803627699968,-0.273424480,0.495500500,10.163187030,0.012765830,-0.030826030,-0.002026560
1640793803629929984,-0.057792940,0.534839090,9.516307830,0.027303400,-0.064601010,0.004917380
1640793803632179968,-0.353946600,0.473482250,9.903854370,0.070422890,-0.012792650,-0.022839010
1640793803635689984,-0.225287380,0.532244680,9.550423620,0.077100110,0.005391240,-0.010558960
1640793803638870016,-0.172736090,0.522473040,9.769330020,0.056214640,-0.053313390,-0.012622780
1640793803640039936,-0.095952120,0.262823520,9.988762860,0.002469120,0.010669230,-0.021728870
1640793803642409984,0.102166110,0.349513380,9.628181460,0.006458160,0.016970930,-0.012521450
1640793803644919808,-0.342872740,0.396977630,10.439519880,0.012545290,-0.067736220,-0.042618810
1640793803647159808,-0.290497870,0.382731500,9.747113230,-0.019359590,-0.050316750,-0.025896730
1640793803649959936,-0.183234780,0.400922030,9.067152020,-0.002893810,-0.069272530,-0.018666680
1640793803652199936,-0.401418000,0.109940580,10.084470750,0.011937320,0.000232460,-0.038737060
1640793803655160064,-0.048825680,0.251713450,9.409422870,0.034664580,0.058804450,-0.014346840
1640793803657239808,-0.083523560,0.293345690,10.152086260,-0.007334350,-0.071844450,-0.015008450
1640793803660699904,-0.077482870,0.047067440,10.169489860,-0.059165060,-0.003176930,-0.000947710
1640793803662249984,0.202562940,0.020363700,8.968194010,-0.005689260,-0.033897160,-0.010174510
1640793803664899840,-0.322523120,-0.200950010,10.245211600,0.058636070,-0.077490490,-0.042690330
1640793803667209984,-0.032945090,-0.027409790,8.939707760,0.057308370,0.042854250,-0.035479660
1640793803670159872,0.016303530,-0.016565480,9.402839660,0.002907220,-0.026613480,-0.045955180
1640793803672279808,-0.375308160,-0.222406030,10.633228300,-0.010846560,0.052091480,-0.032873440
1640793803676440064,0.005201390,0.014521400,9.157362940,0.062544650,-0.037705900,-0.030276180
1640793803677189888,-0.443296130,-0.003357200,10.193273540,0.082737220,-0.120727740,-0.042743980
1640793803679950080,-0.311838420,0.031393250,9.129376410,0.047181550,0.062789030,-0.028748810
1640793803682200064,-0.118340860,-0.083721670,9.149233820,0.068384420,-0.026802720,-0.051999100
1640793803684919808,-0.462771860,-0.242921380,10.513561250,0.114826870,0.018800800,-0.045385960
1640793803692580096,0.156730250,0.011969240,8.909748080,0.135970120,0.006392600,-0.030140580
1640793803693799936,-0.269151540,-0.006221810,10.362756730,0.085848550,-0.087134530,-0.043958430
1640793803694200064,-0.331851040,0.056417640,9.742143630,0.037674610,0.025798380,-0.040537120
1640793803694929920,0.007599680,0.035874380,8.994155880,0.108568390,-0.088493530,-0.056464980
1640793803698609920,-0.556061450,0.039241690,10.414252280,0.169260800,-0.006301700,-0.075779860
1640793803699879936,-0.082895970,0.456228760,8.983065610,0.143460930,0.036740300,-0.058771670
1640793803702649856,-0.348483030,0.407098830,10.369814870,0.070062280,-0.091978920,-0.039987260
1640793803705299968,-0.426076620,0.458342910,9.989253040,0.027360030,0.013108550,-0.030578680
1640793803707209728,0.036666230,0.425796360,9.057892800,0.085581850,-0.080615280,-0.043207410
1640793803709920000,-0.541881680,0.414791970,10.677543640,0.135049240,-0.022202730,-0.058333580
1640793803712219904,-0.081810970,0.571516630,9.075504300,0.087296970,0.003834070,-0.050181150
1640793803714959872,0.022067070,0.301130710,9.892111780,0.046753890,-0.088819850,-0.041876730
1640793803718129920,-0.188773410,0.255459820,10.092359540,0.041927400,0.057230900,-0.043593360
1640793803720019712,0.163633760,0.296171250,9.345881460,0.052998970,-0.053420670,-0.066302720
1640793803722909952,-0.344236250,0.445880650,10.471748350,0.057132550,-0.074495380,-0.045335290
1640793803724900096,-0.136349510,0.449933290,9.115908620,0.004132090,-0.007751580,-0.043930120
1640793803727200000,-0.048151870,0.234446700,9.758247380,0.019894540,-0.058463220,-0.038972500
1640793803729949952,-0.342665400,0.298850180,10.067959790,0.066499420,0.065457830,-0.042377410
1640793803732270080,0.087708530,0.335627940,9.351891520,0.035686790,-0.025463100,-0.055699050
1640793803734939904,-0.193286850,0.334546450,10.449893950,-0.000238420,-0.039063390,-0.016860660
1640793803737479936,-0.076112590,0.174740720,9.146978380,-0.034946200,0.004580620,-0.040817260
1640793803740019968,-0.015704360,-0.049487530,9.592652320,0.026540460,-0.077050930,-0.059133770
1640793803742599936,-0.218737690,0.039415210,9.678824420,0.080482670,0.060896580,-0.054162740
1640793803744979968,0.213870940,-0.012161940,9.122969630,0.027626750,0.023210050,-0.076287990
1640793803747139840,-0.133957330,-0.064784300,10.706637380,0.023080410,0.017394130,-0.029408930
1640793803750180096,-0.054823550,-0.098792260,9.337305070,0.032331050,0.018401450,-0.052925950
1640793803752389888,-0.083085110,-0.132000310,9.581543920,0.071780380,-0.101110350,-0.041061630
1640793803755479808,-0.428420780,0.049529580,9.600157740,0.071668630,0.057442490,-0.038447970
1640793803757239808,-0.129727870,-0.129341070,8.861662860,0.037956240,0.034073000,-0.072021790
1640793803759939840,-0.460840940,-0.102910490,10.573941230,0.108574340,-0.008212030,-0.051978230
1640793803762249984,-0.193793570,0.203156770,9.292632100,0.116188830,0.048518180,-0.071601580
1640793803764879872,-0.062833080,0.178027510,9.745576860,0.065970420,-0.055736310,-0.060126190
1640793803767219968,-0.496097480,0.359564420,10.352068900,0.042495140,0.050918770,-0.041458010
1640793803770040064,-0.055734460,0.145422370,9.015636440,0.062507390,-0.024937090,-0.065734990
1640793803772919808,-0.349011750,0.049804640,10.166443820,0.155061480,-0.058288880,-0.050224360
1640793803774919936,-0.265740130,0.391740110,9.259922980,0.146870360,0.076843810,-0.057134040
1640793803777169920,-0.117777540,0.258504660,9.628826140,0.046132510,-0.040732320,-0.048956280
1640793803779889920,-0.533380390,0.435045690,10.550640110,0.008122620,-0.010129810,-0.028522320
1640793803782699776,-0.018251230,0.386794180,9.078949930,0.019611420,-0.020250680,-0.050342090
1640793803785049856,-0.353942010,0.315954480,10.295562740,0.102134030,-0.055341430,-0.065095730
1640793803787760128,-0.496954800,0.734281660,9.840911870,0.105121750,0.030943760,-0.066606700
1640793803789919744,-0.109580020,0.476022660,9.441036220,0.001791120,-0.072318320,-0.059336420
1640793803792300032,-0.364930090,0.349986400,10.149209020,-0.006513300,-0.023983420,-0.014996530
1640793803794880000,0.069621920,0.264250900,9.291768070,0.021752720,0.048747670,-0.039714570
1640793803797240064,0.012170090,0.275868300,10.208827970,0.049240890,-0.028012690,-0.035907330
1640793803800000000,-0.229797140,0.509537460,10.167224880,0.021038950,-0.018291180,-0.026048720
1640793803802779904,0.225703760,0.266060800,9.335795400,-0.038510560,-0.062108040,-0.057117640
1640793803804930048,-0.117101750,0.250842060,9.814383510,-0.004474820,0.004267690,-0.046056510
1640793803807489792,-0.048539420,0.397702720,9.388890270,0.023755430,0.032366810,-0.054611270
1640793803809890048,0.012970710,0.388337760,9.817043300,-0.003871320,-0.005643070,-0.037522610
1640793803815239936,-0.259596200,0.468641610,9.971895220,-0.033620000,0.010597710,-0.003506240
1640793803816449792,-0.030650790,0.170790490,9.646356580,-0.051096090,-0.031566620,-0.028763720
1640793803817209856,-0.188893480,0.009058530,9.731650350,0.017946960,-0.000257790,-0.031366940
1640793803820659968,-0.025716820,0.034110740,9.168697360,0.032311680,0.036664310,-0.040231650
1640793803822299904,0.099990040,-0.147965910,9.869569780,0.011055170,0.053367020,-0.039657950
1640793803824950016,-0.085741500,-0.187794360,9.944171910,-0.000801680,0.077672300,-0.037160520
1640793803827190016,0.081604170,-0.097322850,9.621410370,0.011551380,-0.052860380,-0.038860740
1640793803830040064,-0.178894000,-0.048639630,9.684011460,0.032849610,0.003741680,-0.037370630
1640793803832339968,-0.160489530,0.079209270,8.907021520,0.016485150,0.063160060,-0.051881380
1640793803835439872,-0.266914760,0.114322620,9.983441350,0.029516220,0.027592480,-0.048671660
1640793803837209856,-0.335301940,0.098483950,9.852476120,0.075106330,0.090366600,-0.046415630
1640793803840229888,0.000034670,0.283529190,9.523722650,0.079935800,-0.014610590,-0.029915570
1640793803842190080,-0.443538430,0.229969040,10.454763410,0.032038990,0.036442280,-0.016634170
1640793803845180160,-0.228360460,0.161370490,9.128009800,-0.008319320,0.037515170,-0.027968000
1640793803847460096,-0.224056050,0.064552480,9.772454260,0.059239560,-0.056210160,-0.028716030
1640793803849920000,-0.261271600,0.056083600,9.507394790,0.116261820,0.102058050,-0.049062080
1640793803852289792,0.130226330,0.283138840,9.150622370,0.087825940,0.036932520,-0.049853320
1640793803854990080,-0.371033790,0.429086030,10.787172320,0.004683430,0.018550460,-0.028960410
1640793803857169920,-0.111353040,0.424332770,9.523223880,-0.036098070,0.033769000,-0.033991040
1640793803859889920,-0.096058020,0.418942480,9.821764950,0.029602650,-0.072285560,-0.026458510
1640793803862370048,-0.537754650,0.523825650,10.065189360,0.077427930,0.069183110,-0.055585810
1640793803864869888,-0.062576540,0.638601300,9.031018260,0.029152630,0.029918560,-0.034640730
1640793803867189760,-0.357601460,0.543500780,10.379993440,-0.021938980,-0.006476050,0.005422530
1640793803870249984,-0.106030420,0.321384280,9.640132900,-0.048214190,0.082293150,-0.016371910
1640793803872229888,0.126468350,0.323729070,9.695000650,-0.007669630,-0.016774240,-0.017249580
1640793803874869760,-0.381358120,0.430477080,10.402052880,0.015725200,0.020919740,-0.022158030
1640793803877469952,0.122107740,0.430082950,9.127413750,-0.048947330,0.021423400,-0.026051700
1640793803879949824,0.014636950,0.345911260,9.836466790,-0.056916490,0.012107190,-0.016348060
1640793803882259968,-0.095045280,0.234764890,9.787747380,-0.041429700,0.110144930,-0.048424310
1640793803885099776,0.241510320,0.447958440,9.492571830,-0.026459990,0.022149080,-0.032487520
1640793803887589888,-0.285820480,0.467363920,10.213420870,-0.059828160,0.033064190,-0.000382960
1640793803889920000,-0.081308380,0.157819020,9.508400920,-0.104877340,0.032116470,-0.002959370
1640793803892249856,-0.164100600,-0.031705450,9.755148890,-0.024953480,0.019884110,0.011748070
1640793803895119872,-0.274121430,-0.208153440,9.457860950,0.016467280,0.094084460,-0.014643370
1640793803897169920,0.149150330,-0.130451400,9.439640050,-0.008647140,0.084064900,-0.001993780
1640793803899899904,-0.104228870,-0.041035180,10.186049460,-0.064843890,0.122302760,0.011014940
1640793803902230016,0.011249560,-0.230371530,9.745487210,-0.080974400,0.032246120,-0.012169780
1640793803906739968,-0.087503190,0.049375400,9.757884030,0.033889710,-0.026470420,0.003124770
1640793803908389888,-0.207095430,0.089716500,8.963045120,0.041238960,0.100798910,-0.024302300
1640793803910109952,-0.052288200,0.176682870,9.484571460,-0.002840160,0.103235270,-0.011080510
1640793803912289792,-0.372922540,0.200006130,10.289664270,0.004094840,0.142942340,-0.001320240
1640793803914909952,-0.075363620,0.044782710,9.413131710,0.008331240,0.038893520,-0.019136070
1640793803917319936,-0.294315130,0.304401670,10.002228740,0.043481590,0.000631810,0.013874470
1640793803920359936,-0.375091220,0.179957260,9.227701190,-0.005149840,0.115817790,-0.007972120
1640793803922269696,-0.165761290,-0.010712890,9.511017800,-0.007227060,0.029118360,-0.007133190
1640793803927589888,-0.414588390,-0.015090290,10.163651470,0.074474520,0.100722910,0.004538890
1640793803928279808,0.079554380,-0.196412490,9.138360980,0.079187750,0.091384360,-0.027526920
1640793803929869824,-0.273443610,0.093796570,10.575060840,0.060307980,0.033941860,0.008344650
1640793803932279808,-0.386973890,0.212972240,9.834885600,-0.019516050,0.073228780,-0.004212560
1640793803934870016,-0.068406570,0.035642690,9.217736240,-0.014427310,-0.042800610,-0.012832880
1640793803937459968,-0.548135460,0.481772600,10.102767940,0.075905030,0.076444460,-0.024445360
1640793803939919872,-0.236371620,0.659747900,9.248013500,0.055667770,0.115364800,-0.036509340
1640793803942249984,-0.429354610,0.784379420,10.453532220,0.008739530,-0.019828980,0.003997980
1640793803944969984,-0.345393480,0.910728630,9.912112240,-0.051276400,0.062280890,0.014442210
1640793803947189760,0.175635380,0.472098020,9.287783620,-0.050672890,0.032113500,0.009232760
1640793803949920000,-0.365664630,0.532937170,10.534812930,0.025926530,0.052037840,0.016102200
1640793803952349952,-0.042126940,0.447086900,9.478343960,-0.001586970,0.056916480,0.002902750
1640793803955299840,0.146428700,0.084502120,9.617497440,-0.050222870,-0.024269520,0.021286310
1640793803957259776,-0.116099720,0.094972560,9.932539940,-0.043992700,0.104253020,0.000487270
1640793803961139968,0.166857910,0.035328690,9.493085860,-0.057905920,0.078237060,-0.024613740
1640793803962249984,-0.261317670,0.381206450,10.240975380,-0.041288130,0.010140240,0.010785460
1640793803964879872,-0.192258920,0.504824640,9.652177810,-0.093427300,0.049410760,-0.003112850
1640793803967180032,-0.066216300,0.326504950,9.606492040,-0.088311730,0.046804560,0.009717050
1640793803970340096,-0.397450000,0.431651860,9.828552250,-0.017541640,0.083383900,0.014886260
1640793803972250112,-0.021272780,0.313684020,9.310432430,-0.038799640,0.076654560,-0.004845860
1640793803975059968,-0.076394070,0.193466860,9.851735120,-0.068964050,0.088866050,0.041824580
1640793803977210112,-0.059655990,-0.032894690,9.807753560,-0.092978770,0.103861080,0.027368960
1640793803979889920,0.002993250,-0.383117320,9.932085990,-0.041143600,0.030311940,0.015835460
1640793803982249984,-0.260297630,-0.302463620,9.457543370,0.034844870,0.045064090,0.007380550
1640793803985219840,-0.032245510,-0.212261690,9.085681920,-0.028410560,0.071941320,-0.025373700
1640793803987579904,-0.258654150,-0.171693240,9.969980240,-0.071382540,0.136275630,0.001458820
1640793803989959936,-0.175480130,-0.048810910,9.615596770,-0.025612120,0.111237180,0.002506380
1640793803992969984,-0.147840220,0.084039290,10.165688510,0.034259260,0.005891920,-0.010024010
1640793803994929920,-0.348002140,0.414423410,9.557583810,0.035710630,0.083845860,0.017544630
1640793803997200128,-0.193083020,0.333945750,9.167433740,-0.037199260,0.050817430,0.010305640
1640793803999879936,-0.487936560,0.094953590,10.178214070,-0.013710560,0.089243060,0.020083790
1640793804002650112,-0.153703060,0.153397130,9.145807270,0.056059660,0.102140020,0.011247400
1640793804005849856,-0.142542440,0.189645130,10.126878740,0.056557360,0.020852690,-0.000993910
1640793804009729792,-0.422606530,0.312771440,10.099051480,-0.023543830,0.118725010,0.017383690
1640793804010350080,-0.092102980,0.304475490,9.252098080,-0.083905470,0.004038220,0.002762680
1640793804012259840,-0.455031280,0.182094960,10.475625040,-0.022336840,0.022989510,-0.007294120
1640793804014899968,-0.178292110,0.382843460,9.079570770,0.060364610,0.118012750,-0.018921500
1640793804017259776,-0.235442950,0.525003670,9.964946750,0.036171080,0.003859400,-0.012010340
1640793804020160000,-0.485636560,0.621576960,10.306782720,-0.060909990,0.086012470,0.032641000
1640793804022639872,0.137666110,0.535298350,8.972809790,-0.121918330,0.043629110,0.034379960
1640793804024969728,-0.266979130,0.328736900,10.666441920,-0.055316100,0.032992660,0.021262470
1640793804027609856,-0.226901340,0.470784490,9.592169760,0.012344120,0.100055340,0.009225310
1640793804029889792,0.083588040,0.392685260,9.409321780,-0.021621580,-0.036154690,0.000366570
1640793804032229888,-0.295097950,0.215944040,10.148530010,-0.090759980,0.091271090,0.014051800
1640793804034939904,0.231845270,0.076259560,8.968314170,-0.103248680,0.113588590,0.014217200
1640793804037509888,-0.151562230,0.002774470,10.351064680,-0.048159060,0.009427970,0.008873640
1640793804040519936,-0.299118520,0.277306230,9.709159850,-0.040979680,0.064277650,0.017158690
1640793804044080128,0.036357100,0.153273520,9.178582190,-0.086365640,0.002682210,0.031460820
1640793804045379840,-0.542654450,-0.070082650,10.385900500,-0.062543160,0.074549020,0.019937750
1640793804047190016,-0.129814190,-0.045467670,9.110289570,-0.010299680,0.087448950,0.002723930
1640793804049959936,-0.075958450,-0.039005130,9.892922400,0.014439230,0.036066770,0.003528600
1640793804052310016,-0.249241690,0.066651860,9.886946680,-0.040806830,0.140404720,0.014933950
1640793804055569920,0.034103330,0.040031110,9.589901920,-0.081236650,0.009590390,0.009557600
1640793804057260032,-0.433970420,-0.048744320,10.061844830,-0.031700730,-0.006884340,0.010129810
1640793804060459776,-0.067222190,-0.062208850,8.680198670,0.020486120,0.067150590,-0.017827750
1640793804062240000,-0.241682220,0.099788890,9.962333680,0.036528710,0.081557040,-0.018227100
1640793804064909824,-0.612066210,0.179750370,10.287793160,-0.011186300,0.115495920,0.009280440
1640793804067200000,-0.167752100,0.109822900,9.726291660,-0.032305720,-0.049075490,0.014367700
1640793804070309888,-0.485119700,0.242711720,10.053089140,0.002565980,0.010742250,0.016951560
1640793804073400064,-0.236046640,0.246739010,8.978961940,-0.007124250,0.090228030,-0.002403560
1640793804074909952,-0.433759390,0.260190190,10.245501520,0.017715990,0.017283860,-0.013536220
1640793804077179904,-0.469360830,0.297459840,9.898243900,0.011950730,0.054754320,-0.010862950
1640793804079929856,0.068811760,0.177292940,9.333388330,0.015254320,-0.038565710,-0.003713370
1640793804082229760,-0.300647320,0.385267050,10.398791310,0.014226140,0.064036240,0.000301000
1640793804085389824,-0.122712540,0.614534140,9.310338970,-0.074747210,0.049102310,-0.007745620
1640793804087419904,-0.144751550,0.576310100,10.213233950,-0.085341930,-0.059135260,0.038826470
1640793804089920000,-0.245668460,0.441385870,9.808452610,-0.026226050,0.073507440,0.011220570
1640793804092960000,0.017374870,0.304243150,9.206966400,0.026035310,-0.012904410,0.001463290
1640793804094879744,-0.400667820,0.422415970,10.294665340,0.024908780,0.019958620,0.018429760
1640793804097209856,-0.046811710,0.340756620,8.911557200,-0.107462690,0.063608580,0.007341800
1640793804099910144,-0.021210080,0.114288900,10.074600220,-0.132252250,-0.018621980,0.038041170
1640793804102370048,-0.331421140,0.050313670,10.248647690,-0.048629940,0.101764520,0.009214880
1640793804106210048,-0.003862640,-0.015663440,9.154523850,0.030507150,-0.054915250,-0.014764070
1640793804107249920,-0.312742440,0.176749800,10.042468070,0.014057760,-0.034484270,0.003688040
1640793804109949952,-0.022338480,0.093023790,8.824227330,-0.108911080,0.153011080,-0.011610990
1640793804112219904,-0.026116510,-0.141375690,10.034763340,-0.083650650,0.007529560,0.015822050
1640793804114909952,-0.396345560,0.060559980,10.504330640,0.027202070,0.042890020,0.008623300
1640793804117359872,0.134848620,0.125583190,8.767824170,0.017125900,-0.039210920,-0.006747250
1640793804119930112,-0.391668890,0.268211450,10.114233020,-0.039491060,-0.013236700,0.024011730
1640793804122739968,-0.308926700,0.037780160,9.361020090,-0.083433100,0.137358900,0.000344220
1640793804124969984,-0.046718870,-0.255220000,9.702433590,0.024157760,-0.039120020,-0.006309150
1640793804127290112,-0.415534290,0.041102380,10.456908230,0.113332290,0.034444030,-0.001348560
1640793804129920000,0.116402100,0.183947060,8.953686710,-0.000555810,0.048071150,-0.005729500
1640793804132239872,-0.366244850,0.222369940,10.432184220,-0.084857650,-0.027059020,0.031098730
1640793804135079936,-0.357211230,0.209457560,9.699424740,-0.059622530,0.051745780,0.004726650
1640793804137679872,0.005281690,0.105777730,9.308331490,0.046493110,-0.051997610,-0.020113590
1640793804139930112,-0.524411260,0.480082690,10.392925260,0.107491020,0.045548380,-0.000312920
1640793804142259712,-0.109889590,0.543915090,9.248651500,-0.015322870,0.046578050,-0.016339120
1640793804144919808,-0.230866040,0.454777150,10.319292070,-0.091420120,-0.046189130,0.027146940
1640793804147209984,-0.271168440,0.463219400,9.913312910,-0.071801250,0.052535540,0.025267900
1640793804152139776,0.077784450,0.288976220,9.467625620,-0.005352500,-0.020305810,-0.012947620
1640793804152760064,-0.446359250,0.523108360,10.364908220,0.033240020,-0.006951390,0.018814210
1640793804155609856,-0.034842970,0.410979420,9.150299070,-0.056365140,0.019159910,0.016532840
1640793804160049920,-0.009516920,-0.038356690,9.973602290,-0.072744500,0.001001360,0.030922890
1640793804160509952,-0.190898400,0.026026970,9.834970470,-0.019153950,0.075794760,0.020246210
1640793804162230016,0.051009290,0.023692520,9.567454340,-0.008785730,-0.023931260,-0.009422000
1640793804164929792,-0.237839670,0.184714620,10.148203850,-0.036612160,0.006827710,0.028166170
1640793804167539712,-0.044566730,0.185022580,9.266896250,-0.072717670,0.032475590,0.015015900
1640793804169920000,-0.089023330,-0.103379250,10.033739090,-0.027936700,-0.005188580,0.010950860
1640793804172339968,-0.161879110,0.104770790,9.508530620,0.040026010,0.080850730,0.014649330
1640793804175829760,0.090352300,0.110820540,9.494972230,0.004185740,0.007653240,0.001737480
1640793804177209856,-0.262812350,-0.086368200,10.475444790,-0.034366550,0.061453880,0.043857100
1640793804179919872,-0.072881740,-0.158482860,9.183695790,-0.013230740,0.016993280,0.031188130
1640793804182609920,-0.242835360,-0.414109920,9.959601400,0.054465230,-0.062316650,0.013405080
1640793804185009920,-0.275489210,-0.204272030,9.184371950,0.077655920,0.101023910,0.014646350
1640793804187609856,-0.058579550,-0.157225470,9.367842670,0.033862890,0.037746140,-0.004428630
1640793804189929984,-0.456267240,-0.231465000,10.840053560,0.029896200,0.056099900,0.019308930
1640793804192659968,-0.046723950,0.063051690,9.062804220,0.076045100,-0.006493930,0.012961030
1640793804194889984,-0.251255420,0.057283850,10.026544570,0.101682540,-0.071837020,0.009623170
1640793804197329920,-0.383169410,0.230713350,9.611624720,0.069347020,0.125463320,0.016945600
1640793804199919872,-0.147144060,0.273110450,9.327544210,0.062343480,-0.021098550,0.006821750
1640793804202259968,-0.478409380,0.084231790,10.691753390,0.098356610,-0.009496510,0.018312040
1640793804205080064,0.104684960,0.326009570,8.815938000,0.113758450,0.062145290,0.029513240
1640793804207229952,-0.199595840,0.361542790,10.376003270,0.078833110,-0.041879710,0.020593410
1640793804209929984,-0.482331960,0.344543670,10.368721960,0.024420020,0.062553580,0.042754420
1640793804212319744,-0.022211130,0.311328590,9.092714310,0.049030780,-0.087773810,0.029461090
1640793804214919936,-0.529634360,0.185144780,10.692265510,0.106821960,-0.045193730,0.018365680
1640793804217249792,-0.138409200,0.488914370,8.991790770,0.099408620,0.093829620,0.022792810
1640793804219929856,-0.172549320,0.554797650,10.084845540,0.022463500,-0.076116630,0.021769110
1640793804222479872,-0.331103920,0.539181470,10.586388590,-0.031335660,0.049032280,0.056107350
1640793804225890048,0.282707540,0.508258580,9.078100200,0.008584560,-0.014281270,0.042612860
1640793804227239936,-0.308125670,0.436223690,10.812066080,0.068011890,-0.072273610,0.029174990
1640793804230039808,-0.093512350,0.574440060,9.223533630,0.038865200,0.039605800,0.043416020
1640793804232260096,0.232574210,0.346038370,9.235553740,-0.024366380,-0.059761110,0.041201710
1640793804234909952,-0.180368590,0.014425740,10.514489170,-0.038959090,0.085750230,0.053900480
1640793804237459968,0.292162330,-0.010565560,9.292935370,0.014026460,0.063920030,0.034821030
1640793804239939840,-0.224543180,-0.023418850,10.739284520,0.052674110,-0.088426470,0.039127470
1640793804242289920,-0.301201700,0.016422010,9.473980900,-0.005850200,0.005689260,0.050695240
1640793804244900096,0.038212060,-0.123267700,8.907054900,-0.031410160,-0.035785140,0.034306940
1640793804247209984,-0.433367580,-0.256271480,10.271915440,0.035364930,0.088252130,0.035332150
1640793804250690048,0.048000620,0.016371820,9.217212680,0.087475780,0.073453780,0.021617120
