# timestamp,accel_x,accel_y,accel_z,gyro_x,gyro_y,gyro_z
1691752810.285667,-0.008564259958333334,-0.043499651531249996,9.984090260739583,0.11318767506249999,-0.0027907689895833336,-0.07407249732291667
1691752810.287667,0.023612025265245418,0.021052831313832426,10.055554309524046,0.08466079547347546,0.0011180809122459093,-0.08864880331680715
1691752810.289667,0.08924004102591221,0.13672651640401906,10.08437729,0.011142748154415648,0.00979750146483342,-0.056385221210999474
1691752810.291667,0.06285622330985915,0.11094259007042254,10.034807248450704,-0.027194251267605635,0.021447821760563382,-0.056556538169014084
1691752810.293667,0.023545523757961782,0.08750273535031848,10.01038585522293,-0.04153174611464969,0.01986005286624204,-0.11409184936305733
1691752810.295667,0.1475715629584942,0.10284205672779922,10.06104540111004,-0.08178372583976834,0.01810949,-0.15941229600386103
1691752810.297667,0.21945940917269907,0.16775504920889348,10.060650700801448,-0.056531175780765254,0.03243658465873836,-0.21719386527921405
1691752810.299667,0.21478898572211155,0.1846921519123506,9.931088912051793,-0.05007273795816733,0.04672362400896415,-0.26237229810756973
1691752810.301667,0.25959039841603054,0.12327853692270993,9.954985430644085,-0.047075946321564886,0.06964928771946566,-0.26763090921278626
1691752810.303667,0.40695617054881267,0.0823150494934037,10.039058066036938,0.026656342242744067,0.10950637371503957,-0.2996687129920844
1691752810.305667,0.4990164359866539,0.19788110448999047,9.939168755023832,0.028751985481410867,0.14365024990467112,-0.3135238775023832
1691752810.307667,0.5641336283184913,0.26720996766369826,9.859771537894186,-0.004926778863279205,0.1989427379046621,-0.2922819941278156
1691752810.309667,0.6010722676406712,0.09393637299605134,9.897029413287266,0.006438380365251725,0.28374784869693975,-0.2961335163277394
1691752810.311667,0.6597257725755248,0.026033417695852535,10.00278081484895,0.01950530305683564,0.37380908252432155,-0.3527427056579621
1691752810.313667,0.802962467253937,0.2439964923425197,10.183420793848425,0.08515824497047245,0.45770092420275593,-0.41921195871062994
1691752810.315667,0.7179835618315575,0.14437364303399286,10.483539961659057,0.1935570808726535,0.5711665953221715,-0.4807412449822425
1691752810.317667,0.6791673348750613,0.11256384298383144,10.580978123718765,0.23943031368936796,0.6363449081479666,-0.5359955598187163
1691752810.319667,0.7175831240195122,0.03404671331707318,10.71373734204878,0.2830028329560975,0.6874686697170732,-0.5357334402536585
1691752810.321667,0.790296697554859,0.10576517344827585,10.9944141738558,0.3207815122257053,0.7384119259561128,-0.5193147448902821
1691752810.323667,0.6617405518596492,0.08746816607017543,11.022853990245615,0.32146691428070173,0.7921156812280702,-0.5094281563157895
1691752810.325667,0.5465999626011561,-0.017852720963391147,10.848771369566474,0.3489567295568401,0.8304880418593449,-0.5033533661512524
1691752810.327667,0.6096479371993833,0.1058837522713258,10.756496198186023,0.3719464378931141,0.8532521629085303,-0.49423452564234327
1691752810.329667,0.5503774896229261,0.1312152515233786,10.848095340889895,0.4134350756711916,0.8418127440573152,-0.5094036594268476
1691752810.331667,0.5334193371413987,0.04121106697294538,10.758958276962737,0.43916845558448186,0.8453186005053599,-0.4776098587238387
1691752810.333667,0.5242101590453461,0.03124461980429594,10.701530842577567,0.48520736292124106,0.8422565385918854,-0.5069494431455848
1691752810.335667,0.5137521737609031,0.07565628699332991,10.738037667778348,0.4756118888455618,0.8009050242739867,-0.4919395592560287
1691752810.337667,0.564465726853346,-0.03277340746559089,10.842683793341244,0.423158732415757,0.7604668552444234,-0.5022122842240152
1691752810.339667,0.4320292632778076,-0.39122103336378294,11.075103343476625,0.33845930383664696,0.7352185242450295,-0.5035901731972058
1691752810.341667,0.4851534398289738,-0.413556179637827,11.039273587867203,0.2972071761418511,0.6920253530482898,-0.5098142483199195
1691752810.343667,0.49275478335734874,-0.4564139605427474,11.185795046786744,0.21177681875120077,0.6362534995052833,-0.5406631602449568
1691752810.345667,0.3756642107623318,-0.6781280932735425,11.468677067219732,0.13675988704035874,0.5907822815246637,-0.5414409375336323
1691752810.347667,0.4255898668644501,-0.536979643826087,11.474214992936062,0.09933658801534527,0.5807075304654732,-0.585297119544757
1691752810.349667,0.3258191164514539,-0.6008868164218827,11.598443029857073,0.07656568911779202,0.5650826284918679,-0.5870137061163134
1691752810.351667,0.28855399386949926,-0.36633829141122914,11.793772149044006,0.006003635053110773,0.537016130121396,-0.5946341705766313
1691752810.353667,0.26605520919799497,-0.3812121075989975,11.86363536057644,-0.04309915803508772,0.506273997047619,-0.5680443745012531
1691752810.355667,0.25720020505976093,-0.42891503701195216,11.976311788326694,-0.050678578047808766,0.5096335456175299,-0.567157812749004
1691752810.357667,0.23057095620123202,-0.1531404206365503,12.092399615913758,-0.04072285398357289,0.47169340802874743,-0.5354474002464065
1691752810.359667,0.3189962397687861,-0.16161553075144508,12.143279938439306,-0.05243194462427746,0.4385133369942196,-0.5128909578034682
1691752810.361667,0.16042271969838792,-0.0734296561726469,12.376078147867915,-0.07177378336973479,0.4166967614664587,-0.4975632517940718
1691752810.363667,0.27649749280821917,-0.07238360955479453,12.41098438380137,-0.07208046678082192,0.36731557828767125,-0.5039941277054795
1691752810.365667,0.3599922636612576,-0.12925532526876268,12.458500783275861,-0.0919822390060852,0.3280231175912779,-0.4818117651115618
1691752810.367667,0.26638026302884615,-0.12683514009134617,12.675081133716347,-0.12632346762500002,0.3053626480576923,-0.47041565050961537
1691752810.369667,0.39744926575012296,-0.23030264863256272,12.79859200050664,-0.1584042403393999,0.25085640819970484,-0.4560327394589277
1691752810.371667,0.4273811905823224,-0.2646169572235702,13.053478270679376,-0.2136059997677643,0.19362261045060658,-0.43261847625649913
1691752810.373667,0.352596720078256,-0.27395074019005033,13.356037813616545,-0.27407305301844603,0.13378625431525992,-0.41607954889882615
1691752810.375667,0.38090012567996157,-0.25677209535800094,13.517449009956753,-0.3176253990629505,0.06007763631427199,-0.4198350020470928
1691752810.377667,0.44890920727043393,-0.14051620416246216,13.702823280166498,-0.366634782679112,0.01197911725529768,-0.4118295020887992
1691752810.379667,0.304185713915,-0.251678481515,13.85710301309,-0.40470940137,-0.037312482995,-0.40974277544
1691752810.381667,0.41363685503575076,-0.037933057272727264,13.895369351741573,-0.4408758544024515,-0.05665542327374872,-0.3936266239530133
1691752810.383667,0.35279392026732675,-0.10524294315346534,13.857783913430692,-0.44976677210396043,-0.07590431203960396,-0.373972151019802
1691752810.385667,0.36487730113245703,0.08562236916076846,13.82507675070273,-0.42303707756319514,-0.10068849440849342,-0.3655558870930233
1691752810.387667,0.37384367047141426,0.18964383106820462,13.79511156382648,-0.37986292633400204,-0.07934991337512537,-0.3509148826278837
1691752810.389667,0.3284693473589165,0.13675377401354402,13.77082337302483,-0.334638268040632,-0.06694958134537246,-0.333031960717833
1691752810.391667,0.3016762474845459,0.3717672618640038,13.584418240328102,-0.3081861059106039,-0.09138682180694246,-0.3159646219448407
1691752810.393667,0.19162288347826087,0.17828128202898552,13.422346106485508,-0.2658297854710145,-0.09092572449275363,-0.29894175489130437
1691752810.395667,0.27173448895061725,0.3537137329475309,13.323555503966048,-0.22114923307098766,-0.10168671830246913,-0.28477247763888885
1691752810.397667,0.298779574211391,0.25033175072836805,13.24027915432092,-0.19229249107338445,-0.14346183190580503,-0.28747438387185104
1691752810.399667,0.28438846928571426,0.21994879305471127,13.075380408378926,-0.18661393093211753,-0.18419631024822697,-0.2639497419756839
1691752810.401667,0.36461766162243153,0.1361169308732877,12.945800966258561,-0.16785758096318493,-0.23374026729452055,-0.2591606855821918
1691752810.403667,0.3591989422145726,0.20626947802639128,12.840184670005737,-0.15346469415949512,-0.2729509487263339,-0.26369908634538153
1691752810.405667,0.4922300110730949,0.33331905119751165,12.545795830264385,-0.12550736441679627,-0.2934662793623639,-0.24539849116640747
1691752810.407667,0.29050050547064776,0.40066045489878543,12.349214888254048,-0.10332579808704453,-0.30146714449392714,-0.2641823420597166
1691752810.409667,0.31096467565916397,0.5159268361139182,12.00527713277446,-0.0758006352319706,-0.2934908736196601,-0.2500655684841525
1691752810.411667,0.25533836330953597,0.45706664627231003,11.924359868592555,-0.050652482621111675,-0.29851467514023455,-0.24274339978072412
1691752810.413667,0.12515969572383073,0.2860884478396436,11.83840484741648,-0.02597916605790646,-0.29847094859688195,-0.23190735752783964
1691752810.415667,0.2551239277809798,0.15038623008645532,11.584044965619597,-0.009179076311239192,-0.30370473187319885,-0.23165971178674352
1691752810.417667,0.05727324672869735,0.11880258865817825,11.603490490323212,-6.729775220372207e-05,-0.30079218483349657,-0.20552874224779627
1691752810.419667,0.19723743094051857,0.19408248059989833,11.348820763223182,0.005892800523640061,-0.3281442382663955,-0.20582404060498222
1691752810.421667,0.19549136504,0.19179470803999998,11.3682063608,0.00893756696,-0.35739834164,-0.19559747076
1691752810.423667,0.1737155735276382,0.1381610781507538,11.26697867356784,0.01516422463316583,-0.36342753311557785,-0.2061912964522613
1691752810.425667,0.36374884680260045,0.09668782444444445,10.990254422239953,0.027006846843971633,-0.36076828750591017,-0.20059962143617022
1691752810.427667,0.19394731606973997,0.2183789355555556,11.061004995526005,0.04715369081560283,-0.359509126749409,-0.17541605760638296
1691752810.429667,0.21836073102819237,0.033495000696517424,10.924118860232173,0.05121748721393035,-0.35829806986733004,-0.16859620225538974
1691752810.431667,0.21036045495863495,-0.04338779127714581,10.78176618622544,0.048245902512926576,-0.3526350233919338,-0.17346735414684591
1691752810.433667,0.11318354071174377,0.0005793785631672578,10.82084589919484,0.04930070456850534,-0.3463805926957295,-0.1569739234119217
1691752810.435667,0.29212646693688793,0.02987932633297062,10.563645374341675,0.04592576313928183,-0.3571956821926006,-0.1352717804678999
1691752810.437667,0.11530203231983166,0.13032467459231983,10.589235671251972,0.03154493879537086,-0.3612877100368227,-0.13192972708048395
1691752810.439667,0.1536887034917556,0.08666963922405432,10.458091634209506,0.02963212363724539,-0.37731232989330743,-0.13015754636275462
1691752810.441667,0.23762670013041212,0.04225635137193531,10.246688533641107,0.045568532180490354,-0.3930570244600939,-0.1204004455399061
1691752810.443667,0.1255375577955134,0.06873569254961173,10.311884679167386,0.061286711919758416,-0.40304771735547884,-0.11311747996117343
1691752810.445667,0.36384829720746187,0.10182327418880724,10.098220394901075,0.09354154001695873,-0.4180593925607688,-0.1107875
1691752810.447667,0.31652689271028034,0.11702500308411215,10.108811549439253,0.11985718392523365,-0.4308745895327103,-0.10695454074766356
1691752810.449667,0.2516251166358775,0.1163114129946524,10.12298709839086,0.13975782789499272,-0.4365870048031113,-0.10621727120077783
1691752810.451667,0.3140382186119711,0.19811833481940144,9.940604254499483,0.14594123,-0.45633223264189887,-0.0965009697626419
1691752810.453667,0.17252132096618358,0.27051008268115945,10.010642884323671,0.14669515297101451,-0.46640571188405794,-0.08287705799516909
1691752810.455667,0.32114432873260434,0.28398420093439364,9.925784190844931,0.1433135425695825,-0.4898088029821074,-0.07956815732604373
1691752810.457667,0.33203592385597547,0.340013322793667,9.952048249223697,0.13490828719101122,-0.500361469473953,-0.08591428452502553
1691752810.459667,0.2765427942175857,0.19443344278688526,9.991999011937407,0.12228949789865871,-0.5255595529210134,-0.08540055134128166
1691752810.461667,0.3739547393841494,0.10402026326602726,9.925137046880362,0.10533642477031803,-0.5396244524331146,-0.08719305139323573
1691752810.463667,0.24537158097451275,-0.03435877004497752,10.010634515592203,0.09175488538230885,-0.5350598147076462,-0.07698971058470765
1691752810.465667,0.30154378030272455,-0.08619126,9.94509335469223,0.083036874419778,-0.5387808692532795,-0.06936366037336024
1691752810.467667,0.34955344,0.08620078682247638,9.974822726653406,0.06792053678269518,-0.5196774010293386,-0.05513736958229737
1691752810.469667,0.24182162257575757,0.007269670212121215,10.006449727575758,0.05434623804545455,-0.5144194210909091,-0.044655564621212125
1691752810.471667,0.21148465009415263,0.02817517495044599,9.86255910586224,0.03113549496035679,-0.49635990035183347,-0.03491934558473737
1691752810.473667,0.2224807056859756,0.029450624568089435,9.887179444364836,0.014867693734756098,-0.49908234269308943,-0.02261088648882114
1691752810.475667,0.09537367393895349,-0.22314561869186045,9.927021318953487,-0.02776087209786822,-0.5301362779505814,-0.022211591036821705
1691752810.477667,0.19476033384192093,-0.11186275340670335,9.897445291415709,-0.06167076468734367,-0.5516513875837918,-0.0121889911905953
1691752810.479667,0.24835851666666667,-0.12609462444444444,10.026278051111111,-0.09499791622222223,-0.6166697382222222,-0.016547104222222223
1691752810.481667,0.17748080704160246,-0.22027394212634824,10.03872149696456,-0.12577507041602465,-0.6514461078736518,-0.012426989738058551
1691752810.483667,0.19558804590841217,-0.11940261597312096,9.940939837436536,-0.13708452346938776,-0.6818376194126431,-0.011943261030363365
1691752810.485667,0.2718041765125241,-0.06303347026974952,10.05459510726397,-0.1422610355876686,-0.7004205818111754,0.001568135125240849
1691752810.487667,0.22245720095141702,0.030494570951417013,10.008237871012145,-0.1287589870242915,-0.6875829203441296,0.011972366012145748
1691752810.489667,0.26415251048543686,0.11324806893203884,9.928359167669903,-0.11369370339805826,-0.6586747059223301,0.04468939242718447
1691752810.491667,0.10027241830508474,0.016799993220338982,10.039617935084745,-0.044497357542372884,-0.5942640642372882,0.11307149296610171
1691752810.493667,0.14169788153699284,0.18995904115513124,10.099259035909308,0.0010342471980906917,-0.5476638643198091,0.12898394557040574
1691752810.495667,0.0055089121003134844,0.4478733098275862,10.24821926291536,0.08316075619122257,-0.42883238362068965,0.1252336905799373
1691752810.497667,-0.09480944261149654,0.6442751458424183,10.405317227626362,0.17440828658077306,-0.3017390630971259,0.12695280856788901
1691752810.499667,-0.08095680882678752,0.6803824490785498,10.467896192069487,0.25394489354984895,-0.22068191848439075,0.11310523005035246
1691752810.501667,-0.24367733134036143,0.52786377124498,10.441955282665662,0.324773020376506,-0.139981737063253,0.06936037283132529
1691752810.503667,-0.29960456848780487,0.535731233702439,10.340050701809755,0.36588455796097563,-0.07906340297073172,0.0813124126
1691752810.505667,-0.2347218075795564,0.6518462139922855,10.35698912024108,0.3924405460173577,-0.052270893876567026,0.1505654262632594
1691752810.507667,-0.2229592354164456,0.3633953544933687,10.258441574376658,0.4126828644986737,-0.023343704933687,0.23558054264721484
1691752810.509667,-0.13887928954862727,0.22984336,10.189383373727315,0.41541543999069336,-0.01746210894369474,0.26102745000930666
1691752810.511667,-0.07560285534048258,0.14582164701340483,10.341467472815014,0.3097120541930295,-0.051325182697050935,0.27700872611796246
1691752810.513667,-0.001481440678642712,0.016974463053892233,10.340982891377246,0.24222326688622753,-0.06958664694610778,0.28336033
1691752810.515667,-0.00042300534073699825,-0.21407376911155984,10.32118280958102,0.1930268900100959,-0.09073138653205452,0.18114657856133265
1691752810.517667,0.048986687406311645,-0.46299470380177515,10.337577809097635,0.11275677684418145,-0.1317250933974359,0.09676257297337279
1691752810.519667,0.32486169143279175,-0.2987199887444609,10.251858354283604,0.03631340162481537,-0.18240411466765138,0.027040721772525846
1691752810.521667,0.27890518608870973,-0.2281442585483871,10.288000754637096,-0.01064405504032258,-0.22144184423387098,0.04215955790322581
1691752810.523667,0.24622041595465993,-0.18476724530982366,10.076486958760706,0.0014919033904282099,-0.21824396589420655,0.0977993290277078
1691752810.525667,0.1821680453877344,0.10114136690319309,10.062384150344654,0.1188204504054739,-0.22696017643689814,0.1827471074607197
1691752810.527667,0.2431965961958763,0.31267286216494844,10.389048517680413,0.2454533928041237,-0.22902526573195875,0.23921446303092783
1691752810.529667,0.17966071378326998,0.4186484783174905,10.600610417224335,0.42671839066539924,-0.19184380313688212,0.22467763937262356
1691752810.531667,0.12625538769784173,0.7097516136690647,10.801191201726619,0.6057369513669065,-0.14461539748201438,0.18964006223021582
1691752810.533667,0.13688842366568915,1.0463012162463343,11.12120933090909,0.832021487546432,-0.08776196671554251,0.2052524053665689
1691752810.535667,0.10226901478260869,1.4261383141514727,11.47231606347826,1.0924294446704068,-0.050478298232819074,0.1372831553997195
1691752810.537667,-0.09431578141392338,1.1296419869131138,11.580935988359418,1.4112563939341607,0.05393009007015651,0.13045781153804642
1691752810.539667,-0.16541314391857506,1.2996311853689568,11.57357121,1.5128706875826972,0.13153440498727736,0.20611918493638676
1691752810.541667,-0.08148250669354838,1.1465861416078629,11.559428052741936,1.3926045524294355,0.18656571015120968,0.24791023101814516
1691752810.543667,-0.18185832347075742,0.8262957199041226,11.656406369712368,1.2990174804074783,0.23612511124161073,0.2901446352013423
1691752810.545667,-0.14225462051502147,0.7820099749356223,11.73310914274678,1.2889470903004292,0.29427358969957085,0.3819087424463519
1691752810.547667,-0.11244908787976382,0.33404703575952766,12.324569115619967,1.1978106527536232,0.2866956463768116,0.3955447614653784
1691752810.549667,-0.12658488139569785,-0.03570821835417712,12.753092026038019,1.09157632088044,0.2600081844922461,0.3952664027163582
1691752810.551667,0.002082440256410245,-0.7090038783861238,13.086082637823027,0.8409863549522373,0.21306734726998494,0.2779579656561086
1691752810.553667,0.11469071609149678,-0.9536518581302835,13.300963288468424,0.5871095439830929,0.14341870668821483,0.13611600871208354
1691752810.555667,0.23164530339830086,-0.9679897590704648,13.228443994147925,0.3178640469615192,0.14467526213393303,-0.03242055674162918
1691752810.557667,0.3516506415696202,-1.184275177772152,13.203349132227848,0.17718179073417722,0.11469796825316456,-0.08647790164556962
1691752810.559667,0.3693373601964637,-1.0787171907465618,13.080723017721022,0.06356008282907662,0.0657596763064833,-0.12172686652259332
1691752810.561667,0.3346259604295943,-1.0771690448257756,12.638676607494034,-0.07512173155131263,0.04568128738902148,-0.15411452611933174
1691752810.563667,0.39137500828159644,-0.9204192583093126,12.310005421518847,-0.13455753657427938,0.008865199883592023,-0.17868098683481154
1691752810.565667,0.38487254520752895,-0.774801564222973,11.856544311805019,-0.14789283247586874,-5.96407480694984e-05,-0.18664286377895753
1691752810.567667,0.30371060985957876,-0.5201901388264795,11.537972797673019,-0.16291119994984957,-0.020669550531594784,-0.15721305182046139
1691752810.569667,0.2679014146272855,-0.4947006806375996,11.351827711270511,-0.16141727804969527,-0.01491770062822316,-0.17144414643225503
1691752810.571667,0.23678166612244897,-0.44551696163265303,11.179553734285715,-0.11363545265306121,-0.021827055510204082,-0.15587644897959185
1691752810.573667,0.24922882144240568,-0.24949240770132516,10.83470959082059,-0.09374327,-0.039220951559633024,-0.08311723193170234
1691752810.575667,0.20999237801995013,-0.06876434015960099,10.672653924254364,-0.1300265496957606,-0.05525561227431422,-0.11523770532169576
1691752810.577667,0.2951678262540869,-0.1340506926202709,10.450172988570761,-0.14453115608594116,-0.0841504183699206,-0.08159895751985054
1691752810.579667,0.2809376493988191,-0.2572937811111111,10.268544580499194,-0.1568334525442834,-0.0764428772463768,-0.119665282071927
1691752810.581667,0.28532623092245313,-0.16814989157121135,10.148708807080588,-0.21727507004054739,-0.09000701900152053,-0.06670294472377092
1691752810.583667,0.2933784161213327,-0.03343072332173047,9.900734698040775,-0.2920991181452014,-0.1003419764893088,-0.09806312724017902
1691752810.585667,0.1487039968884442,-0.2028424232116058,9.796534402821411,-0.3447998316708354,-0.07941522555277639,-0.10092407929964983
1691752810.587667,0.16044995677372262,-0.1381506832408759,9.610472610321168,-0.3977603996642336,-0.09863726214598541,-0.12555190605839417
1691752810.589667,0.17340945577513622,-0.20478190876671618,9.535165263184744,-0.45073769237741457,-0.11788239912332839,-0.12364770646359584
1691752810.591667,0.17107317227867994,-0.3038014786851755,9.523274280429545,-0.5006408159140912,-0.1299538932949188,-0.10556943500261917
1691752810.593667,0.10685233604288498,-0.2932313573879142,9.391734942105263,-0.5311049440545809,-0.12164884086744639,-0.11577845799220274
1691752810.595667,0.10762758874699953,-0.20056352892462792,9.168436185674508,-0.5467097843975036,-0.12082543292846855,-0.12071087415266443
1691752810.597667,0.19116370152380951,-0.030106135439153442,9.136025098380951,-0.565123917,-0.14899893443386242,-0.0878256975079365
1691752810.599667,-0.003269191932730925,-0.021463682936746983,9.197339888303212,-0.5880762485291164,-0.13803303736947792,-0.08622385307730923
1691752810.601667,0.045089019762962965,-0.01412401487407407,8.901961073244443,-0.5928804032,-0.10383093222222223,-0.08901034205925926
1691752810.603667,0.03485731442913387,-0.008172335413385827,8.917288978523622,-0.5651856730511812,-0.0862151248031496,-0.09067539214566929
1691752810.605667,0.08194035888774988,0.049003208165043576,8.773606789241414,-0.5347725733623783,-0.09305638895438237,-0.08011377850333162
1691752810.607667,0.07880864248624313,0.2110466732866433,8.692260187143571,-0.5187885797248625,-0.09229325422711356,-0.09344271635817909
1691752810.609667,-0.09824042120672599,0.1600634027992087,8.73571506346192,-0.526312261107814,-0.06756684460929772,-0.09477270646884273
1691752810.611667,0.05949083928179549,0.1778491828678304,8.455666383700748,-0.5168067762094762,-0.07608857285785536,-0.06757070471820448
1691752810.613667,0.011505604298597205,0.2969673754208417,8.504355883977956,-0.5120885319288577,-0.10365354271543087,-0.065901763752505
1691752810.615667,-0.1076713855287958,0.18451147709947646,8.599942638319371,-0.5219695583612566,-0.11185277,-0.08680064241361256
1691752810.617667,0.04345024560987415,0.21515598909486933,8.398034165459825,-0.5330178898063892,-0.1134212773233301,-0.0793456987947725
1691752810.619667,-0.009368109152542353,0.23071292711864408,8.494314623995157,-0.5380797733656175,-0.10947978259079902,-0.0753190927118644
1691752810.621667,0.00047565534050179187,0.08873379533026116,8.518741571474655,-0.5253766533845367,-0.15232408788018434,-0.08852276385560676
1691752810.623667,0.09275137829500002,0.16081613320500002,8.4959758846,-0.5458724115,-0.15589985563,-0.096039445115
1691752810.625667,0.04487857174003107,0.10022418145002589,8.708432065696531,-0.5639954479854997,-0.1248345442620404,-0.08742615720870014
1691752810.627667,0.12946084635755256,-0.02048118546845125,8.606129891453154,-0.5575182441204589,-0.14908915416826002,-0.07955467846080305
1691752810.629667,0.17908960734026746,0.16530781801882116,8.5310164596632,-0.5427466990044576,-0.14476094632491332,-0.07552613899950471
1691752810.631667,0.108898769765625,0.07766191624999999,8.782118921484376,-0.5224789134375,-0.14748086265625002,-0.07534248796875
1691752810.633667,0.21803625112103175,-0.028960813511904764,8.765590514186508,-0.5182120647767857,-0.13645899362103175,-0.07329558039186508
1691752810.635667,0.27158872775590553,0.09442958075787403,8.696966075132874,-0.5050160843061023,-0.12414366792322835,-0.06631899718503938
1691752810.637667,0.15211882794204323,0.030976458310412555,8.83383285277505,-0.49960902,-0.14607882993614932,-0.06540911457269155
1691752810.639667,0.15841614207971383,0.0557236072560041,8.828783311941748,-0.5329245290648952,-0.11722100017373531,-0.07361809983648442
1691752810.641667,0.16793877015313935,0.14928379029096478,8.892219039464011,-0.5550582418989279,-0.09028320024502298,-0.07357991797856049
1691752810.643667,0.008535455992402657,0.08853999008547009,9.063085462150996,-0.5746125534995251,-0.07360289780151946,-0.06945362636752136
1691752810.645667,0.027630739036445334,0.16067328742386422,9.026998440958561,-0.596196014892661,-0.05507145814278582,-0.054343379790314526
1691752810.647667,-0.07749536341212745,0.23085715358684483,9.164551020637203,-0.5962098035560124,-0.02881249749229188,-0.0479369
1691752810.649667,-0.22883208167938932,0.05948342386768449,9.317745855877863,-0.6048994348091603,0.020559875267175575,-0.044857660712468196
1691752810.651667,-0.045752809005726175,0.18627162826132226,9.147488091140032,-0.6061038312597605,0.02008197961478397,-0.052551196090577824
1691752810.653667,-0.11420561502752294,0.20519406442201835,9.255443683880735,-0.5983238491009174,-7.81875504587172e-05,-0.04639862028440367
1691752810.655667,-0.06671036595162988,0.05039656279705573,9.252816536887487,-0.564390775657203,-0.017766727665615142,-0.04488560610935857
1691752810.657667,0.2344376378764479,0.2603024130888031,9.081530335579151,-0.5234396752509652,-0.0626819662934363,-0.03610176822393823
1691752810.659667,0.1941944334748835,0.3392748760538581,9.15481200306059,-0.49914616240807874,-0.10806283113930606,-0.03119663595546349
1691752810.661667,0.270389576453831,0.2335992994793713,9.00703600901277,-0.45031070686640473,-0.12916541055009823,-0.018004327416502947
1691752810.663667,0.33585262446014125,0.4352856960948537,8.93241129630676,-0.39604403171543895,-0.1491063814026236,-0.02113705841069627
1691752810.665667,0.21959127128205125,0.37859082641025643,9.006741060641025,-0.3806408258974359,-0.1692814408974359,-0.019434246025641026
1691752810.667667,0.24414718688034187,0.38779929395833335,8.830373490128206,-0.35692561142094015,-0.15918077663461538,-0.008750303317307691
1691752810.669667,0.19587387007843138,0.6055499452009804,8.842530941313726,-0.34575872244117645,-0.14929784912745098,-0.01594867593137255
1691752810.671667,0.08079342304545453,0.48175690818181816,8.933745881181817,-0.35958969854545453,-0.16783725072727274,-0.012637908727272728
1691752810.673667,0.08543607304477611,0.49781291162189056,8.875796402830845,-0.37829661223880595,-0.1605793361840796,-0.0057900583283582085
1691752810.675667,0.041934875981781375,0.425954650597166,9.037287294610323,-0.3880980604908907,-0.15523047814777327,0.021054606897773283
1691752810.677667,0.012245519471585243,0.22764012212362914,9.105423299471585,-0.4306127159870389,-0.1924124568793619,0.03319790834995015
1691752810.679667,0.11341310150485438,0.15754544640291263,9.096055485927184,-0.514156066223301,-0.20144511783495145,0.037069133524271845
1691752810.681667,0.03652256998950132,-0.09670312162204722,9.38129430038845,-0.5664522757690289,-0.22623308202624673,0.028310309690288714
1691752810.683667,0.11942029426512966,-0.18474681357348705,9.44648529740634,-0.6341485479538904,-0.2319574934293948,0.03129789694524496
1691752810.685667,0.17912157761736497,0.03032091809692078,9.478909525280162,-0.6740752617566885,-0.25633348774356385,0.03408846
1691752810.687667,0.08621385014150942,-0.004759040481132071,9.688491905985849,-0.6842540092028302,-0.2617012966226415,0.04686861843396226
1691752810.689667,0.20725408290529695,0.019092123980738354,9.673389717415729,-0.6115968536436598,-0.2677028234670947,0.044419646532905296
1691752810.691667,0.22823769208955225,0.16601704290547264,9.651830034159204,-0.5588165330348259,-0.2686236462686567,0.04274413206965174
1691752810.693667,0.18916678629757785,0.19060827996539792,9.793527629411765,-0.4725608871626298,-0.2763163192733564,0.0667577998615917
1691752810.695667,0.19891622201120163,0.2124817441191446,9.764961346603869,-0.39135722348268837,-0.28544585678716905,0.06839984814154786
1691752810.697667,0.057356745642292484,0.4208637402667984,9.797555991195651,-0.3086887980533597,-0.2718492668873518,0.043200576595849804
1691752810.699667,0.10562770720595789,0.6718570124910117,9.732640258043142,-0.22625845293271699,-0.269856582835131,0.052511464134566005
1691752810.701667,0.16932492913130304,0.73741412,9.675632592675985,-0.13561353147279082,-0.2902268606989516,0.06197786054418373
1691752810.703667,0.07908198683033545,0.8625620836801167,9.67455134982985,-0.04275247108410307,-0.29720879,0.06887035710257657
1691752810.705667,0.028379589821782177,0.8186178731287128,9.57146867279208,0.06753987205940594,-0.27733156756435645,0.0647469860990099
1691752810.707667,0.1164049933056133,0.8305142335343035,9.606323870935551,0.178295591995842,-0.25549514873180873,0.0587379291060291
1691752810.709667,0.10480171208955225,0.9249766177014925,9.559497315791045,0.23235166647761193,-0.24802854223880597,0.06675869659701493
1691752810.711667,-0.04751788928500496,0.7506143395034757,9.474068046901689,0.2662219611420059,-0.22044626414101293,0.08937536824230387
1691752810.713667,-0.11073687688833747,0.6873438059156328,9.411587064967742,0.3030812072605459,-0.18947380382630272,0.10297855744913151
1691752810.715667,-0.10121835591898734,0.5401561492101266,9.381144560227849,0.27843261293164556,-0.16280368573164555,0.09098059860253165
1691752810.717667,-0.168687988512355,0.45106131545637923,9.379166644785677,0.2286509828845184,-0.1362163252647504,0.117665797508825
1691752810.719667,-0.063972885275207,0.4269585878470531,9.31600304450073,0.2136734659327813,-0.11530747717973698,0.08919371571358986
1691752810.721667,0.0563371979234168,0.31591709869906726,9.25654517389298,0.21085332301423662,-0.09652488120274914,0.08050303145802651
1691752810.723667,-0.09224817867542974,0.23841068665318504,9.311011861617796,0.216473254661274,-0.09716364466127402,0.07018842743680485
1691752810.725667,0.06529952952965234,0.3167323272290389,9.257288442147239,0.22019985317484664,-0.10013486,0.07146965629345604
1691752810.727667,0.10219652718918919,0.2768967799066339,9.225831734643734,0.26695316495331695,-0.09414215546928748,0.07007398863390663
1691752810.729667,-0.020022494785643052,0.25087318256231306,9.23724987884347,0.3354839505682951,-0.09754338781655035,0.060022285772681955
1691752810.731667,0.07086837266666667,0.32205081476923075,9.105087405897436,0.4039428115897436,-0.11608104692307693,0.07012717225641026
1691752810.733667,0.020431141217137308,0.420050687127556,9.1541494536222,0.43859331865628043,-0.11354349218111003,0.077127422969815
1691752810.735667,-0.0001666370010235431,0.2904752378710338,9.1849366490174,0.46719313034800414,-0.09914373040941658,0.07247505729785056
1691752810.737667,-0.01713008063291139,0.3252057911587147,9.122616885793573,0.5021669111684518,-0.0747562493378773,0.053968563096397276
1691752810.739667,0.008491437599999999,0.21981963666666665,9.233318261333332,0.51345748,-0.06378803173333333,0.06493852026666666
1691752810.741667,0.07236375201820941,0.08884340814871017,9.21686961781487,0.4796017669195751,-0.053617232898330806,0.07474631996965099
1691752810.743667,0.035340239839839846,0.030952063258258257,9.178513385015014,0.42945192402902904,-0.02531149633633634,0.0686711632032032
1691752810.745667,-0.10588049406144981,-0.010907816015362455,9.321548067119538,0.3909315851512242,-0.013749734570331252,0.06753255160345654
1691752810.747667,0.03385688969742817,-0.007401138809884016,9.236402648769541,0.35086092948562786,0.011503565451336357,0.0667049986838124
1691752810.749667,-0.06947851219890054,0.05974376692653674,9.249450459655172,0.36427092413793105,0.006864326686656671,0.062354433058470764
1691752810.751667,-0.24912582183856505,0.049816570493273545,9.340929778789237,0.411349718206278,0.00956349668161435,0.06072007
1691752810.753667,-0.028355007712031588,0.28748836602564104,9.160987775700198,0.46701076798816565,0.04064971298816568,0.0570982774556213
1691752810.755667,-0.08613495900817998,0.390477639396728,9.183511085255624,0.5070979918660532,0.08490147121676891,0.046564474606339466
1691752810.757667,-0.11238897653409091,0.31406582526342974,9.143671162815084,0.5680814353770661,0.11135095374483471,0.0487512532696281
1691752810.759667,-0.08404195113704072,0.39483879977656405,9.034697039736841,0.6351001830983118,0.1469821624875869,0.03261169195630586
1691752810.761667,-0.13650882329019412,0.5494007758088602,9.124086686799403,0.6507084970681931,0.18247678349925336,0.026332552439024392
1691752810.763667,-0.15138650729990355,0.49098452198649956,9.11011496954677,0.6778389619768563,0.21903768218900677,0.021468622246865958
1691752810.765667,-0.21257835189440993,0.3508026002795031,9.046468600838509,0.7173265565217392,0.26120150854037266,0.016921827298136644
1691752810.767667,-0.2015891385635359,0.32500296364640885,9.11690814646409,0.7171642704419889,0.28677978038674035,-8.828303867403076e-05
1691752810.769667,-0.1287008017789891,0.34064340927651143,9.13356597166997,0.667084618468781,0.30631526632804756,0.020954772378592668
1691752810.771667,0.021651292853634596,0.21442686498526523,9.210246623089391,0.6517199759528487,0.31732689552062865,0.026010032991159136
1691752810.773667,-0.07637911657472418,-0.08145088478435303,9.312926095707121,0.610831902111334,0.32401882455867603,0.015296750115346038
1691752810.775667,-0.02305022678737713,-0.014459340724262831,9.173332337946198,0.5194627169684428,0.3221380565597517,0.00711847818934299
1691752810.777667,-0.007349528077689245,-0.24285885950199204,9.51085658371514,0.4377165050398406,0.30440143168326694,0.006099807878486055
1691752810.779667,-0.08945587422372228,-0.36103730840887177,9.649607303182256,0.3825798989199614,0.2803997907232401,-0.017440754021215046
1691752810.781667,0.12142798043298968,-0.1703289433814433,9.334779942020617,0.31991538668041236,0.26741870354639175,-0.049608374927835056
1691752810.783667,0.0679146920974889,-0.26025951447070406,9.434934808581978,0.26726442210733625,0.24491482868045297,-0.04804494462826194
1691752810.785667,0.0415153370719603,-0.4071925101240695,9.54561707962779,0.24239127908188585,0.2290609217121588,-0.024363630397022332
1691752810.787667,0.25351523940089865,-0.23450983989016477,9.370101966045931,0.22868297334498253,0.2147473059161258,-0.039634965706440345
1691752810.789667,0.1776779814183038,-0.2359395643172017,9.515447743013896,0.2169831837853378,0.21622876995208434,-0.03236831976042166
1691752810.791667,0.2028059874583557,-0.16209813121440086,9.42543855615798,0.22272669622783448,0.21646791707146695,-0.007064747458355721
1691752810.793667,0.2220545997262952,-0.14381124635874878,9.286869508020528,0.20817068129521016,0.21368496102639295,-0.014984512370478984
1691752810.795667,0.09104408464872946,-0.1646642937219731,9.484910987623318,0.19657287401096163,0.2381914285799701,-0.03757140721973094
1691752810.797667,0.16295641534010152,-0.11706065849746194,9.4232574151066,0.2031875672081218,0.24927188,-0.03799587716751269
1691752810.799667,0.058192504614220875,-0.058156279425113463,9.595888173978821,0.18688380021180032,0.25307524314674734,-0.041999786520423604
1691752810.801667,0.1003461553115424,-0.022068718937691523,9.65668376994382,0.1742866191113381,0.25849637716547497,-0.049418910888661904
1691752810.803667,0.1805122203931204,0.023812602776412773,9.5397234004914,0.15404195474201476,0.2645572549385749,-0.048044213955773955
1691752810.805667,0.1634428026609442,-0.07349068931330473,9.756669961888411,0.12945020128755366,0.26631612,-0.030046857167381976
1691752810.807667,0.1291576743878061,-0.060222369055472263,9.809411686171915,0.11858027485757122,0.2641712127536232,-0.034525002023988005
1691752810.809667,0.12971429955889985,0.03462957155163466,9.87462703389206,0.10530915919564089,0.2542178736377789,-0.04567314429164504
1691752810.811667,0.1656386107919255,-0.039454756557970996,9.93081145836439,0.084530830315735,0.251897539052795,-0.04403589440993789
1691752810.813667,0.19386392521861776,-0.21349705820404324,9.912566753427363,0.06100404247296662,0.25395312818053595,-0.04112511879172543
1691752810.815667,0.14998636582677163,-0.14000990003149605,9.946727792535434,0.049471886708661414,0.2508068667086614,-0.03896351525984252
1691752810.817667,0.19489896090457257,-0.12072393497017894,10.019919539373758,0.03334034482107356,0.22852940229622268,-0.04142248126242545
1691752810.819667,0.10651622029014507,-0.06858268112556279,10.1033272767984,0.01772794295147574,0.21974289481240622,-0.041843734812406205
1691752810.821667,0.20310988932735424,0.08745814937219731,10.13777974278027,9.076466367713074e-05,0.22097310856502242,-0.04765983556053812
1691752810.823667,0.23465322481573705,-0.04908352025398405,10.182844699516933,-0.0007649982171314736,0.21397279513446216,-0.051587872973107574
1691752810.825667,0.16128417028037384,-0.013738693271028043,10.209367918411216,-0.006401543738317757,0.19822878523364487,-0.04921123570093458
1691752810.827667,0.1511487005737705,-0.024530753360655737,10.326349102786885,-0.034656023524590164,0.19357251975409837,-0.045657935
1691752810.829667,0.06397521667316124,-0.15871935703360934,10.415344527135899,-0.04623549051631758,0.19611969726741355,-0.04175234896736483
1691752810.831667,0.17823639683014972,0.01011077037687147,10.351641098275683,-0.033141442725864736,0.18639487210635003,-0.04200562827052143
1691752810.833667,0.16448199581417172,0.020829889422806183,10.410238778826841,-0.03711979107461286,0.18433473369779446,-0.04333541669638667
1691752810.835667,0.1766477150401714,0.09050518779860739,10.426021648655597,-0.03025647859132298,0.1748197645259775,-0.03916031026245313
1691752810.837667,0.2826299204170804,0.24799841253227412,10.349185729136048,-0.017886286544190666,0.16276225375372394,-0.040356278172790465
1691752810.839667,0.12150369607403796,0.07072982783244033,10.484789137291768,-0.019390614963468097,0.16202812397954214,-0.03781455103263517
1691752810.841667,0.19645609360808708,0.16858704539657854,10.474566959994815,-0.022070134530844998,0.15533697879212027,-0.02474627177812338
1691752810.843667,0.21697110044256587,0.14366877256588761,10.48511078335654,-0.04010977776727996,0.146162649801094,-0.013298585251118846
1691752810.845667,0.043233393993055536,0.033269426825396825,10.545587025014882,-0.05679772201884921,0.12701270401785714,3.699120039682424e-05
1691752810.847667,0.20958754600286533,0.16490722216809933,10.491328105377269,-0.08325595958930278,0.1029277385721108,0.016619446442215854
1691752810.849667,0.1628007181761334,-0.037067078546117765,10.684392800760813,-0.14561869860865034,0.06146004216779573,0.029040248957790518
1691752810.851667,0.275000029117207,-0.10729128167082294,10.671887303610973,-0.21946997141645885,0.04085302557605985,0.018416054608478803
1691752810.853667,0.2947344872413793,-0.17184588620689656,10.738531302413794,-0.28953151456896553,0.00938534629310345,0.007447665258620689
1691752810.855667,0.3009634481850534,-0.41608474528215555,10.899085219145908,-0.36971335864768684,-0.015378906263345198,-0.007922056263345197
1691752810.857667,0.2572603487123025,-0.3379961859023456,11.069717928664433,-0.44155899259932985,-0.028496967592149355,0.0007281975059837253
1691752810.859667,0.25505015595066804,-0.37162783321685505,11.21874645668037,-0.4714096230883864,-0.03650036009763617,0.002606228031860226
1691752810.861667,0.39821639833904954,-0.1791791908574228,11.142909974414502,-0.4818580943655071,-0.032349379657030865,0.00106526
1691752810.863667,0.3048696529925187,-0.154750210882793,11.17474559781546,-0.48098680596508725,-0.02834400552618454,0.009223964418952619
1691752810.865667,0.17698667187469166,-0.17031786521953626,11.239225687390231,-0.46767263263443515,-0.02842789956586088,0.00912805844597928
1691752810.867667,0.18219442055297158,-0.06154397424289404,11.181864386346252,-0.43529183375193803,-0.04227861164857881,0.012713254857881138
1691752810.869667,0.12102288587559809,-0.061715417775119616,11.220944780583732,-0.38318734034928226,-0.035554854306220095,0.00034659023444976074
1691752810.871667,0.14322863809523811,0.24740085190476188,11.027953389251701,-0.27549767231292516,-0.025348945986394558,0.03615377217687074
1691752810.873667,0.15060147359840956,0.38786069,10.969308603757456,-0.16497197351888668,-0.007558504055666004,0.06793761389662029
1691752810.875667,0.07181155432896064,0.4665431804944501,10.940124529354188,-0.036351209707366286,0.04459813947527751,0.05371577165489405
1691752810.877667,0.10455672738438587,0.7677398679015415,10.761866420218796,0.12625369778717055,0.07728332154152164,0.07239295818498259
1691752810.879667,-0.029411422115956376,0.869524691888008,10.677033941560952,0.28393784102081265,0.12290290513875124,0.04102482493062438
1691752810.881667,-0.05829729334177215,0.9246103721265823,10.457364200582278,0.42465215331645567,0.1744094044556962,0.02722492359493671
1691752810.883667,-0.15262926418647169,0.9168085548903108,10.249629898839123,0.5344044082084095,0.17741228953382085,0.0496487213071298
1691752810.885667,-0.1619155815472936,0.8579489094805904,9.976830740459267,0.5865145819792237,0.20622971378348826,0.10050586611809732
1691752810.887667,-0.2406874717176959,0.7010351961494551,9.839853372516865,0.5925711590451479,0.22342138429164504,0.0552577580539699
1691752810.889667,-0.31645157607256236,0.718990167909297,9.64831812372789,0.5499305479637188,0.22011600096598638,0.10733807341043086
1691752810.891667,-0.45474535017866813,0.6521483971629669,9.61225724980509,0.47180833279371953,0.19990867421223607,0.15119891431510557
1691752810.893667,-0.49030939577677224,0.31123177906485666,9.668790498446457,0.3580236447812971,0.2186282608295626,0.14601514060331824
1691752810.895667,-0.32732055384036146,0.012228217660642554,9.602261011561245,0.2844304205873494,0.15948485146586344,0.12342682732429719
1691752810.897667,-0.26143155896185416,-0.1515271830082086,9.904610025330758,0.11779324917431194,0.12942114184934814,0.1078926142781265
1691752810.899667,-0.1340314517802645,-0.46081683362156656,9.988848003377417,-0.023866038321464902,0.05594426552390641,0.03175961381485248
1691752810.901667,0.1253160156097561,-0.412678608902439,9.950886078414634,-0.1453696212195122,0.02863222743902439,0.011029381463414634
1691752810.903667,0.14055483817460318,-0.29452481444444445,10.079645898849206,-0.19533229908730157,-0.013019896825396827,0.017974223253968254
1691752810.905667,0.2349352968779565,-0.43187592132450336,10.125774062592242,-0.23452850291390728,-0.06446411337748344,0.00041320268684957515
1691752810.907667,0.2591363913315927,-0.2867640939530026,10.129275718851176,-0.2444717953472585,-0.13154874979112272,0.00834077118537859
1691752810.909667,0.18641089866902832,-0.27854403904352226,10.156060299418016,-0.23576415228744937,-0.15446334,0.05379693440283401
1691752810.911667,0.315344664180619,0.0029104576103501367,10.103377830598681,-0.2078416880618975,-0.1567770927143582,0.07618343366311517
1691752810.913667,0.34065554802637776,0.40692182761658036,10.299616804988224,-0.11704461243994348,-0.18834356845030617,0.14677367626471974
1691752810.915667,0.21272464096513388,0.7169200461243052,10.719720605901971,0.15976113794340577,-0.13853982034866094,0.13054199759979787
1691752810.917667,0.16462638275229358,1.035769209714577,11.033081572120285,0.40529021865443426,-0.06789350657492355,0.11126746804281346
1691752810.919667,0.012740053575757582,1.1362735796969696,11.225497192787879,0.5734802699393939,0.0008586650303030255,0.12340281303030304
1691752810.921667,-0.05267244,0.9967264415832482,11.190361400459652,0.6860499044433095,0.05617175310520939,0.08173918227783453
1691752810.923667,-0.2118874142258218,0.9234135912101,10.991130778313483,0.80457458763697,0.10540027446879466,0.03292321616960457
1691752810.925667,-0.20622203700920244,0.7852173740541922,10.874437105224949,0.8974765609662576,0.20925638764826177,0.0007259708640081804
1691752810.927667,-0.19931308018592966,0.7446689069346734,10.724024097060301,0.9136484084170854,0.27966028075879396,0.03448138074874372
1691752810.929667,-0.37156867704918034,0.69480137585693,10.504332467814208,0.8861952383358171,0.31531668742175856,0.04399600511177347
1691752810.931667,-0.2922790421192706,0.4727043798915722,10.302149431616561,0.8543924822129128,0.3366324865746673,0.08372274965500247
1691752810.933667,-0.27119820331319233,0.17213176338872105,10.357753081404836,0.7303691027744209,0.35881442684290027,0.13192704414400805
1691752810.935667,-0.2202516925866529,-0.2825901227677186,10.249202023372996,0.5301666262027935,0.34285808173823074,0.15476974977754784
1691752810.937667,-0.054440570810677213,-0.42959528949579834,10.07525731571923,0.36791168359367277,0.32809038762234305,0.06341404092931291
1691752810.939667,0.04747944893141153,-0.47504436225149105,10.085967072713718,0.2561156127186879,0.28447484209244533,0.03612898543737574
1691752810.941667,0.07381382346019029,-0.5914601217776665,10.176081000450676,0.15604977115172758,0.21085087686529796,-0.028110281387080625
1691752810.943667,0.3064578123529412,-0.5779884488235294,10.12634619882353,-0.006328925294117632,0.15816043882352943,-0.058714868823529415
1691752810.945667,0.26757761532763535,-0.7029267167806268,10.045865470911682,-0.08817415282051283,0.10029570706552707,-0.09388894717948718
1691752810.947667,0.4157531058333333,-0.47977807420833335,9.882286912291667,-0.12796933154166668,0.028566838583333323,-0.1353862375
1691752810.949667,0.3757340712900097,-0.417111275771096,9.870863937458777,-0.1413299050727449,-0.028278589369544135,-0.13342153321047526
1691752810.951667,0.43238253476344085,-0.31195675305376347,9.863596065387096,-0.16590863458064517,-0.05306963892473118,-0.1290378934408602
1691752810.953667,0.35558925436974786,-0.281469601092437,9.766693186806723,-0.1734590674789916,-0.07031639957983193,-0.10840632663865546
1691752810.955667,0.4300252932751298,-0.2205535465172251,9.676292274374706,-0.16244503712128364,-0.09878303566304861,-0.07047485615384616
1691752810.957667,0.4417699782551397,-0.10011725725355825,9.665292694254086,-0.14654040494464945,-0.09267351497627833,-0.07943772586715868
1691752810.959667,0.39073227864067966,-0.03160202286356821,9.611280622618692,-0.13183192906046975,-0.09431184011494254,-0.037210790449775114
1691752810.961667,0.39923496627692306,0.05417526196923077,9.568924584215384,-0.13249266680000002,-0.10111162606153846,-0.07113344227692307
1691752810.963667,0.20458475683615818,0.03826213683615819,9.602263990150659,-0.09952498502824858,-0.07273489387947268,-0.06577356109227872
1691752810.965667,0.25836097115151513,0.11369313909090908,9.473203487212121,-0.07545300456565657,-0.05385288183838384,-0.07173426086868687
1691752810.967667,0.15235208988809765,0.1680130410681587,9.44773946055951,-0.0773026520854527,-0.05187393585961343,-0.07470613681586978
1691752810.969667,-0.07405904940149627,0.035102218214463826,9.563774454049875,-0.09479259388029926,-0.04027975029426434,-0.07020331786533665
1691752810.971667,0.03997886095629821,0.024207901362467865,9.464527074277635,-0.11191192096143959,-0.02826757583033419,-0.056235006709511565
1691752810.973667,0.11351661664233577,-0.044871186291970795,9.500563131080291,-0.133425542,-0.02406098281751825,-0.04661659551824818
1691752810.975667,-0.025766741221832756,-0.08140286,9.605494255668503,-0.15402860039559338,-0.04430155750625939,-0.047721924646970455
1691752810.977667,0.1575195858781362,0.0696292188530466,9.496966053727599,-0.17506227931899643,-0.05173595835125448,-0.053583944946236556
1691752810.979667,0.08337662847515986,0.0713479138957206,9.654038501337924,-0.2114232899508116,-0.06553865331037875,-0.059943002695523856
1691752810.981667,0.11730531845512507,0.22719905651299654,9.696444193281021,-0.23330910732221677,-0.08319250480627759,-0.06104659954879843
1691752810.983667,0.25072836830508477,0.194863674519774,9.650310299717514,-0.24658163949152542,-0.10496767033898305,-0.05620624231638418
1691752810.985667,0.05070074058823529,0.07069937117647059,9.851999118235293,-0.2548488605882353,-0.11862032529411765,-0.061848000588235294
1691752810.987667,0.2164792623677582,0.1738781431738035,9.80176527370277,-0.25748273307304786,-0.11390011017632241,-0.06950515214105793
1691752810.989667,0.2131678007003891,-0.03472990040856033,9.932909246828794,-0.282073310233463,-0.1262379840466926,-0.05665797690661479
1691752810.991667,0.1493320027849407,-0.03870234884476534,10.141971428927283,-0.3341628447086127,-0.1458972713047963,-0.050816792888086645
1691752810.993667,0.1368115285714286,-0.19222019714285715,10.26975741,-0.39795235285714287,-0.1406149042857143,-0.04656727571428571
1691752810.995667,0.13750071870935468,-0.07426457178589294,10.354662875042521,-0.4416658735417709,-0.1454983888194097,-0.03712065502251126
1691752810.997667,0.25931261900390623,0.09512509624023438,10.366433167070312,-0.47697942884765626,-0.157324687734375,-0.028878131704101563
1691752810.999667,0.18768223494704994,-0.0796570071406959,10.422217524281391,-0.4923487777458397,-0.16902733319213314,-0.031832227019667175
1691752811.001667,0.1271463418604651,0.11863362056847546,10.451761025452196,-0.49274123573643414,-0.16255329684754521,-0.03562992873385013
1691752811.003667,0.15108309063950734,-0.03600262557555661,10.439792660090005,-0.4810630182993842,-0.16611716058739934,-0.022912015390810045
1691752811.005667,0.1428769348155738,0.22209656049180332,10.404038199969262,-0.48725697712090166,-0.1590321886680328,-0.0207388187704918
1691752811.007667,0.13088150798287346,0.15471418623215988,10.355704134519504,-0.4900206197526165,-0.15020025285442437,-0.023791579048525215
1691752811.009667,0.07703149388247639,-0.09886319759706191,10.331631459748163,-0.4526278258971668,-0.15897031977964324,-0.02522765450157398
1691752811.011667,0.0630053103508772,0.34350494157894745,10.23903443754386,-0.39967973263157897,-0.14642713894736842,-0.040891207719298245
1691752811.013667,0.13391453725179855,0.5578087995923262,9.993425275002398,-0.3164433038848921,-0.1373179516354916,-0.03124980049880096
1691752811.015667,0.03987993810222673,0.624833340298583,9.809393313041499,-0.19786316042510121,-0.14670135454959515,-0.0030669450961538468
1691752811.017667,-0.00436048311532701,0.7979588627009485,9.581588246909636,-0.09862976400399401,-0.1223330879530704,-0.027736231842236652
1691752811.019667,-0.03761931066187789,0.7114353887788609,9.435213901446895,-0.007007023571062088,-0.099070680282196,-0.03880645612108774
1691752811.021667,-0.0007980705555555509,0.8587203361111111,9.388463336666666,0.08533951666666666,-0.08096009222222222,0.0011836283333333322
1691752811.023667,-0.011357504821166094,0.7893616115629594,9.217756207457128,0.1696145261391475,-0.05074541850563449,0.012962197976482116
1691752811.025667,-0.12098763214534591,0.7847261141065206,9.16402417203584,0.2281235349776008,-0.015912684683922353,-0.021783039527127922
1691752811.027667,-0.11514132871559632,0.80924016,9.16979218,0.24666735660550457,-0.003054083990825688,-0.004407650321100916
1691752811.029667,-0.1669976377755808,0.5853758020514088,9.095170791102325,0.19764947330696983,0.026543672496292633,0.007767531809194266
1691752811.031667,-0.2098210867766117,0.3987297084707646,9.125181814692654,0.12879318470764617,0.0406014259970015,0.009708755997001498
1691752811.033667,-0.10975811686134852,0.1060429034805318,9.201896728822412,0.09440286766381767,0.019451447364672365,0.0021001772602089255
1691752811.035667,-0.08436882256603774,0.1725657921239892,9.284432379051212,-0.004685437541778983,0.036956347557951484,-0.011858032598382749
1691752811.037667,-0.06833539206726014,-0.19199555909990107,9.339518148466864,-0.06122162551928784,0.014673460098911968,-0.02131898918892186
1691752811.039667,0.011280064228187933,-0.25413888400767015,9.413946374477469,-0.14099893548418024,0.007619240767018216,-0.0314462416970278
1691752811.041667,-0.01853526028815368,-0.24220019304162219,9.545449910373533,-0.20898054854855924,-0.022101114429028818,-0.03363029872998933
1691752811.043667,0.05650034335616438,-0.395947552074364,9.710020084726027,-0.27153820228962816,-0.04203000156555773,-0.01774259572407045
1691752811.045667,0.07167111255813953,-0.2917585333670374,9.837941792831142,-0.32221611025278063,-0.06924757618806876,-0.02014200910010111
1691752811.047667,0.17815099232465814,-0.2999944214556683,9.884149563303925,-0.3752052091221879,-0.08561493045875607,-0.015293379805910895
1691752811.049667,0.24099903980068338,-0.22122369419134397,10.085413500501138,-0.4148313176366743,-0.10519061554669704,-0.016364789908883827
1691752811.051667,0.17762512718970735,-0.22460075847124117,10.183578315701313,-0.4290199358627649,-0.13430286835015137,-0.005427366478304741
1691752811.053667,0.2360392815122684,-0.17998833788182272,10.13662766219329,-0.45522799343515274,-0.13276651903855785,-0.013049352083124686
1691752811.055667,0.06456697797542998,-0.14644278714004913,10.28415654711548,-0.44935838488943486,-0.14550360344963145,-0.006031956997542998
1691752811.057667,0.13373984626541685,-0.20680374362111495,10.232872271445485,-0.41874877064134186,-0.14198078147015294,-0.002544123201776024
1691752811.059667,0.18787046414829658,0.040149664048096195,10.22318327713427,-0.38811062901803606,-0.11826996759519039,0.013007325130260521
1691752811.061667,0.04811217395649922,0.1662376959709995,10.160027048197824,-0.32273485929570167,-0.08376310606421544,0.027111554914552045
1691752811.063667,0.18399563207202763,0.42845936027627035,9.894067375629009,-0.22175316671928957,-0.06739439930439073,0.02600937189935866
1691752811.065667,0.011003241053405194,0.5482405205977462,9.898882559029886,-0.13039598567368937,-0.03521009272415483,0.02450108
1691752811.067667,-0.06908018288732394,0.5220949261921529,9.840645863978873,-0.03389180225352112,0.021416211066398388,0.011884559049295773
1691752811.069667,-0.0034868679122541588,0.6256388255168935,9.722859217947555,0.0485863785577408,0.04423237931921331,0.01089438236510338
1691752811.071667,-0.19264747382441977,0.5863450692734611,9.753219169475278,0.11286644150353178,0.054166170575176587,0.0059433338143289605
1691752811.073667,-0.13983538811700183,0.6164784986288848,9.680768675155393,0.15227245040219378,0.07565130566727606,0.017139654387568558
1691752811.075667,-0.10582293755290287,0.3926542873141617,9.690889385626695,0.15686033575149214,0.10894944414541509,0.005806068453608249
1691752811.077667,-0.13087847611982883,0.34790040318116977,9.637519273694721,0.14204336472182597,0.10972983151212554,0.014545953038516406
1691752811.079667,-0.03510479109341827,0.4109538048407643,9.516784294171973,0.12387713503184714,0.09999236921443737,-0.0007836818789808929
1691752811.081667,-0.03158308248226951,0.14012023276595742,9.611378582978723,0.08619576063829787,0.11173944177304965,0.012700064893617023
1691752811.083667,0.062041055217391304,0.03872360956521739,9.55640428,0.04904848130434783,0.10087591086956522,0.026816873478260866
1691752811.085667,0.08972857528252981,-0.004515350041472271,9.587987398994297,0.011869770803525144,0.09979578653706583,0.02270962346293416
1691752811.087667,0.005082109834087481,-0.08985538855706385,9.71703801471091,-0.026718379175465056,0.06985114188034187,0.0032611350276520873
1691752811.089667,0.15946417395683452,-0.04822852046043166,9.68728468313669,-0.06547467634532374,0.06271725179856115,0.007932003726618704
1691752811.091667,0.20597230245784365,-0.12618678320899335,9.828793755431784,-0.09859928695452222,0.035960977332652015,-0.005819492682677566
1691752811.093667,0.16466390104477613,-0.12199708194029851,9.858750797761195,-0.1412190805970149,-0.0004769802985074671,-0.007122964477611941
1691752811.095667,0.35907633374616177,0.033244360092118744,9.888199976612079,-0.19292735025588537,-0.03202335340839304,-0.0088404929580348
1691752811.097667,0.2663436376777939,-0.1449447604063861,10.051247685834543,-0.22412143272859217,-0.0546392512191582,-0.003945648476052249
1691752811.099667,0.32272569682119207,-0.09283599289862457,9.968462915832909,-0.23640079565970454,-0.08391874182883342,-0.00106526
1691752811.101667,0.2964693448868778,-0.0525929886877828,10.074244371312219,-0.22800193815987935,-0.1225616393514329,0.00879365245852187
1691752811.103667,0.1774766732528909,-0.1000388688989442,10.148708906400202,-0.20994868321769733,-0.12352354346907994,0.003611936420311714
1691752811.105667,0.36456625535044423,0.14677661116485688,10.029062540631788,-0.1765552210661402,-0.12384619060217178,0.005292670434353406
1691752811.107667,0.2321447673643411,0.18171805298449611,10.152649091492249,-0.11847556767441861,-0.12424368625968993,0.0213032271124031
1691752811.109667,0.2015908028105906,0.3160541313645621,10.061917654052953,-0.07207999761710794,-0.09578701729124237,0.014536199511201631
1691752811.111667,0.19363908540206187,0.33457611183505154,10.004317239463917,-0.03108156018556701,-0.0716911998556701,0.024481316494845362
1691752811.113667,-0.019595870579131286,0.2698216231952072,10.074688136719919,0.010008061867199203,-0.045608531892161755,0.030124697019470795
1691752811.115667,0.06531072330633637,0.44445008016198195,9.88835407345879,0.056408770843258696,-0.016075904845164364,0.02032021199142449
1691752811.117667,-0.08295211981452857,0.4255708950643998,9.957818996821226,0.10116225585780525,0.011284886919113859,0.022607647980422464
1691752811.119667,-0.05544567177171217,0.4981389093945409,9.92183788205459,0.12361191063523573,0.027322051270471465,0.028528995682382135
1691752811.121667,0.05833731331954498,0.47173943036194416,9.829076900558427,0.13470252759048604,0.03776346042399172,0.03364451136504654
1691752811.123667,-0.11925404158730157,0.27331901999999997,9.978652486349207,0.13518712571428573,0.04568800873015873,0.0329217426984127
1691752811.125667,0.07457409587607922,0.30796073439309296,9.954027783082784,0.11862414726764856,0.0367946319400711,0.03864328944134078
1691752811.127667,-0.013870926838709663,0.2042022388387097,10.052125104193548,0.10814152070967742,0.031215684322580647,0.03412282535483871
1691752811.129667,0.0003362416760635534,0.16954531459251665,10.048335448974886,0.10045918690415172,0.014207711527421833,0.0430271833111225
1691752811.131667,0.2514532724495677,0.2216465068972142,9.989055498270893,0.07813883657060519,0.0015707817098943328,0.04131506885686839
1691752811.133667,0.11654309750495054,0.07548610352475249,10.102819737920791,0.029196683881188117,-0.01965781904950495,0.029053240475247523
1691752811.135667,0.23541232175548588,0.04868960689655173,10.04211228768025,-0.011232581546499476,-0.033223563322884016,0.014834666290491119
1691752811.137667,0.17298933768461172,0.026410357622677468,10.160539976545975,-0.0267351387994283,-0.04742228396855645,-0.003780951310147688
1691752811.139667,0.05903341324723248,0.05154159501845018,10.239054938560885,-0.03874260671586716,-0.06515016228782289,-0.0069379740221402215
1691752811.141667,0.2462170000842836,0.22755244009419934,10.048026292647496,-0.024535411383242438,-0.08311069883986118,-0.01135137856222112
1691752811.143667,0.1407691442406312,0.0958082135453649,10.132471420128205,0.009599987790927019,-0.09951870278106509,-0.004967029437869823
1691752811.145667,0.22521287885337388,0.3819863225215626,9.882003671628615,0.08997296109589041,-0.0887217701978691,0.004905837874175545
1691752811.147667,0.18204556967483743,0.3587038681390695,9.882878885702851,0.15086788168084042,-0.08803646015007503,0.021733209329664833
1691752811.149667,-0.021173722968750003,0.329090507265625,10.0214547353125,0.197897838203125,-0.080186116640625,0.021480056796875
1691752811.151667,0.055728069388549184,0.47268118012229016,9.80224770528627,0.23818756599221788,-0.0628677740077821,0.010065239583101722
1691752811.153667,-0.022291507294589175,0.3303614505611222,9.837175004529058,0.2696656183767535,-0.023802999919839675,0.00639159
1691752811.155667,0.08961154714285716,0.4316403485714286,9.82922404,0.29249118,-0.011413547142857142,0.017805132857142858
1691752811.157667,0.12777178160177427,0.4355700593494332,9.811943595781173,0.2960311592902908,0.004729900586495811,0.021622925436175458
1691752811.159667,-0.041943039765166334,0.24361353479452058,9.946947434681997,0.29580526749021524,0.03352872817514677,0.03148367136007828
1691752811.161667,0.0832873624722662,0.2564464567670365,9.775380119128368,0.29462299339144216,0.04291558312731115,0.046102372165874275
1691752811.163667,-0.0871619833282905,0.09141431612708018,9.861705879621786,0.27599858019667173,0.03712793385779123,0.05946625090771559
1691752811.165667,-0.10730714855864343,0.009173070786622705,9.9130527605935,0.26211074490343855,0.02923280348092322,0.045087834338200655
1691752811.167667,0.07355382773195876,0.011462548,9.833791002597938,0.24772339049484537,0.032570736927835055,0.03505708391752577
1691752811.169667,0.017525655014955135,-0.042933313589232316,10.037796619880359,0.2248844385443669,0.012658908823529408,0.027340015054835496
1691752811.171667,0.12073895948065175,0.13863938930753564,9.97250820320774,0.20968786756619145,0.007008834796334011,0.029839334124236255
1691752811.173667,0.13769729642998027,0.12493293649901381,9.90720654,0.218780520739645,0.000947602593688362,0.02135361274161736
1691752811.175667,0.09917176144590495,0.14780624566228515,9.920898742355917,0.235128305247725,0.0077692142669362994,0.01704423
1691752811.177667,0.17516364398628798,0.2633012214691479,9.751257630352596,0.26515485434867775,0.00497575638589618,0.014796847806072478
1691752811.179667,0.06750719721144025,0.11416845326864145,9.810318499438203,0.3069985466700715,-0.0016615486925434116,0.020674184494382023
1691752811.181667,0.08961293858299595,0.21229881103238868,9.707518674595143,0.3350623314170041,0.013835497024291498,0.012597726275303643
1691752811.183667,0.11297495387283236,0.23394902572254336,9.527400711464356,0.37010242287090556,0.02848093936416185,-0.0012171489788053956
1691752811.185667,0.06413421822508676,0.182621681224591,9.624104625686664,0.390470379895885,0.032688883733267234,-0.006788220604858701
1691752811.187667,0.16500297859803417,0.27595619585618214,9.569821361624419,0.3918878064097258,0.01946298431453699,-0.0006767421572684952
1691752811.189667,0.07943911561664191,0.20859081888558692,9.57716277616642,0.3667406326448737,0.020657901575037146,-0.004678931575037147
1691752811.191667,0.07787706813432835,0.18977324054726366,9.664796826741293,0.3501142652736318,0.02418574184079602,-0.00745685
1691752811.193667,0.140781921021425,0.13407052629795713,9.658207411150972,0.3256498017538615,0.017043701225710015,0.002983483084205281
1691752811.195667,0.009331005113524193,-0.053253852112537026,9.766097671312933,0.2987420082527147,0.011643243356367225,0.004516592408687068
1691752811.197667,0.04460579966856551,-0.03263851429829104,9.800602053381668,0.2635693652615225,0.01140952785085448,-0.0021023965354738474
1691752811.199667,0.05323954690066858,-0.061115033080229225,9.805465640100286,0.23707322440305634,0.005120290811843362,0.0016034934479465133
1691752811.201667,0.12339930269656992,-0.05353915460158311,9.818245921266492,0.23236874487071238,0.012731455540897097,0.0027466410501319257
1691752811.203667,0.1883787145414847,-0.004572331368267832,9.783907009548763,0.24229881847161572,0.020796688340611352,-0.0008714394905385736
1691752811.205667,0.08982074850126581,-0.020775605863291136,9.808812822602532,0.2505776970227848,0.027622437772151898,-0.006632151108860758
1691752811.207667,0.09954345064642507,0.11258141800195887,9.792599191028403,0.24951289377081293,0.04164652039177277,-0.005567339902056806
1691752811.209667,0.014231459050279338,0.12036669263077704,9.78126119285424,0.25489684162519044,0.05207515036058913,-0.009464570360589132
1691752811.211667,0.08439291690535805,0.15640838766649975,9.725436810010015,0.25404662212318474,0.06332215742613921,-0.019962108072108162
1691752811.213667,0.1609897539720559,0.18195933,9.741677035828342,0.24872542223552893,0.06860855932135729,-0.009963733133732536
1691752811.215667,0.012550881842496281,0.04876629356612183,9.78873457433878,0.23232577734026746,0.0773907445319465,-0.010187282109955422
1691752811.217667,0.08544087584231146,0.09759948196865817,9.769384133996082,0.21644326758080315,0.0816826164201763,-0.012060650362389813
1691752811.219667,-0.07889545579562784,0.053629147976614125,9.888021292262328,0.20907832467208948,0.08784397065582104,-0.018263843573970515
1691752811.221667,-0.05367425693940964,0.09829246108234076,9.827465189083377,0.20317202425168307,0.10117474628689799,-0.013714380419471777
1691752811.223667,0.11657793131813676,0.223223114246779,9.832779918216055,0.1975210321060456,0.1138518539098117,-0.022857261803766106
1691752811.225667,-0.017892019500489714,0.010950953442703248,9.948229181008815,0.19526422700783544,0.11717909,-0.022485842184133204
1691752811.227667,0.18897817654518223,0.1293801260708936,9.84292532952072,0.189787258662007,0.11570590774837743,-0.023922979086370446
1691752811.229667,0.044355225200202686,0.14934576154080081,10.032828584292956,0.17704014699442475,0.11877941364419665,-0.01810463570704511
1691752811.231667,-0.01708479236815416,0.12176433988336714,10.056304939350913,0.16724489084178498,0.11124126614097363,-0.012630298321501015
1691752811.233667,0.16924670989005736,0.21330596923518164,9.9793689866587,0.15121305995219886,0.1024695811998088,-0.012449639741873806
1691752811.235667,-0.018597114478305754,-0.055593461353305784,10.146171375501034,0.1337748746694215,0.09569442169938017,-0.015003392623966941
1691752811.237667,0.18831163214778324,-0.005415850581280773,10.028614854295567,0.12446066979802956,0.08413122469950739,-0.015239578162561575
1691752811.239667,0.18803086769507185,0.03254786788501027,10.167837505097536,0.11948898200205338,0.06707502162731006,-0.02170065945585216
1691752811.241667,0.14971075041728762,0.007557254157973175,10.247932149642326,0.09476884831594636,0.05572714143070045,-0.035102927496274215
1691752811.243667,0.3494255631256182,0.1290358672304649,10.155085504075172,0.07326828258160237,0.037575069703264095,-0.035679510108803165
1691752811.245667,0.09943206524291498,-0.017631791862348173,10.317487682267206,0.05839331550607287,0.015840957024291495,-0.02957295105263158
1691752811.247667,0.18103254498759302,0.08503872096774194,10.174323422828785,0.05808202568238213,0.011088795682382134,-0.03220112
1691752811.249667,0.17385642044673538,0.05381488318114874,10.257938010495828,0.06259382583210604,0.002900848708885616,-0.025271398708885617
1691752811.251667,0.15625770350488935,-0.05252456901698404,10.32130663476068,0.05191560628924344,0.003434833381369017,-0.022055303216675246
1691752811.253667,0.2925785561386139,0.034858157301980205,10.182480482722772,0.03785380262376238,0.002320374207920792,-0.03815176188118812
1691752811.255667,0.09772148708249495,0.013719691815895371,10.38466933890342,0.024301207384305835,0.014616838370221331,-0.04850543575452716
1691752811.257667,0.15736884360824743,0.15415114315370199,10.34195262411434,0.011044506733833177,0.02306941176194939,-0.045823342357075914
1691752811.259667,0.14070262779860743,0.08476269392072844,10.378216864386717,0.0034633950455275836,0.03182156738618104,-0.04587198965184788
1691752811.261667,0.044813314188376745,-0.043383512324649307,10.432539931162324,0.0006190918837675351,0.03137513116232465,-0.04687164
1691752811.263667,0.1507478195967742,0.05976815675403227,10.32083371078629,0.0015248753024193547,0.03287715060483871,-0.04763407407258064
1691752811.265667,0.0006718882213438693,0.06596829828063241,10.47975207778656,-0.0008926331225296443,0.036355835889328066,-0.04037899928853755
1691752811.267667,0.12143390520000003,0.21353405256,10.36038087472,0.00238193254,0.0350280252,-0.02525102656
1691752811.269667,0.15828708060362173,0.1566781014084507,10.313325089134809,0.02317646911468813,0.02576567885311871,-0.015700326358148893
1691752811.271667,0.09718044164034641,0.1157656945899134,10.352901789862456,0.04480242967396842,0.02932542983698421,-0.011530141884870096
1691752811.273667,0.1953531583810464,0.1680526329615005,10.223983252082922,0.04776286475320829,0.026580606283316884,-0.016029963716683117
1691752811.275667,0.06490947206349207,0.08391106793650793,10.285870687460317,0.037165892222222226,0.021728009206349208,-0.01672296111111111
1691752811.277667,0.11322893966791645,0.14545255797536152,10.205780322811998,0.029852508628816284,0.014625560814140333,-0.0187861962988752
1691752811.279667,0.1564697177886598,0.08142506991752578,10.165903478319587,0.026516850427835054,0.008724185886597938,-0.025479040711340207
1691752811.281667,0.1367867164231738,0.03559581074559194,10.224770246080604,0.02022070174811083,0.010511504095717883,-0.02998786698740554
1691752811.283667,0.21148079475073317,0.08205816212121211,10.138065399325514,0.009125033274682306,0.017707545474095795,-0.02340561687194526
1691752811.285667,0.13266693941176472,0.049855728823529406,10.181835285294117,6.266117647058846e-05,0.027759537647058824,-0.01948807176470588
1691752811.287667,0.18275661455435846,0.12862561196865818,10.155185559990205,9.18117238001958e-05,0.028670328276199804,-0.016211633065621938
1691752811.289667,0.12991811673532438,0.05346146059732235,10.15805255199794,-0.0034700629866117405,0.040546971256436665,-0.0149137
1691752811.291667,0.0774904113830309,0.03176691019127023,10.12672843231486,0.0029262149485041683,0.046556604291319276,-0.013413238460029427
1691752811.293667,0.0919546341223671,0.10683615105817454,10.088190716895687,0.011615872572718153,0.04015470426278837,-0.015022153249749247
1691752811.295667,0.043933657615270204,0.06746022701536936,10.106234892761528,0.01384844,0.03209736134853743,-0.011533059851264252
1691752811.297667,0.12027185502793296,0.11920182039106145,10.063966404692739,0.01459828782122905,0.021579038770949723,-0.011087082681564246
1691752811.299667,0.08984692480938417,0.07363750210166177,10.11424041900782,0.017864786031280548,0.004091841739980451,-0.012455678044965786
1691752811.301667,0.14445749126911317,0.08180555214067278,10.039553773792049,0.005031504434250765,-0.005108059694189603,-0.013527555917431192
1691752811.303667,0.14827555652521218,0.12076673549176234,10.0540284501997,-0.014553645841238146,-0.0056422313230154765,-0.02059263292061907
1691752811.305667,0.14082804864593781,0.0246192154764293,10.109976251855567,-0.028502498164493482,-0.00908198996990973,-0.0301960287662989
1691752811.307667,0.17083290842211055,0.03860559814070351,10.08531090478392,-0.04405162485427136,-0.007629221608040201,-0.0337790528241206
1691752811.309667,0.01465158296244784,0.02436824116828929,10.202595460653686,-0.05742945808066759,-0.0014756694158553551,-0.027065718191933243
1691752811.311667,0.09170518363636362,0.06819846606060606,10.107593766666668,-0.05436076575757576,0.003292635757575757,-0.021208444242424244
1691752811.313667,0.14899530279462952,0.16482012439582297,10.105545299502735,-0.045756045295872703,0.006565334241670811,-0.02408048668324217
1691752811.315667,0.1505495122072072,0.1742926102852853,10.090876857172171,-0.039839716636636636,0.005155177422422422,-0.019428546856856858
1691752811.317667,0.17996048579661017,0.1642526747699758,9.944484160920096,-0.017535339176755448,-0.000942485205811138,-0.01407077360290557
1691752811.319667,0.016782927013752474,0.14015252251473476,10.017499633123773,0.004436853359528488,0.0011238632809430255,-0.00774357
1691752811.321667,0.04900471776595744,0.15659097946808512,9.878221437765959,0.007615508617021276,-0.002878479893617021,-0.003807750744680851
1691752811.323667,0.06541610380125422,0.1709665580125422,9.894874041234926,0.0026402914954172696,-0.014329420916546067,-0.00019476105643994202
1691752811.325667,0.08626634470915528,0.1455073990389479,9.972890187996965,0.00853881870005058,-0.019604201740010117,0.0025599717400101164
1691752811.327667,0.21308394121212118,0.12725545045454545,9.835162898181817,0.014752301212121212,-0.02024002,0.0009200001515151514
1691752811.329667,0.07545279129894938,0.15065863274116523,9.985682308681948,0.0057943447373447945,-0.01805760371537727,-0.0007274698185291309
1691752811.331667,0.10382696576642335,0.13278707470281542,9.93428420979145,-0.02267936072992701,-0.008882015318039624,-0.0018072833159541188
1691752811.333667,0.06911151276511397,0.10961600289395441,9.929463809395441,-0.0367658767888999,0.005153177819623389,-0.015604172061446979
1691752811.335667,-0.007212914683544305,0.10195056405063291,10.090862838987341,-0.04363538835443038,0.01487324835443038,-0.01752967075949367
1691752811.337667,0.09492265761299437,-0.002245411709039552,10.005274024378531,-0.06152955432203389,0.025620509307909604,-0.008832064985875705
1691752811.339667,-0.057324692693133034,-0.029277591378755366,10.156516671046138,-0.08039489384656652,0.03874956586909871,-0.0030957820225321884
1691752811.341667,0.011423047844784956,0.014859910074147303,10.122719980212556,-0.08673454191300049,0.0441239619130005,-0.007427363143845773
1691752811.343667,0.08668006996035679,0.13274175852329037,10.03310488221011,-0.08361956382556987,0.04698038009910803,-0.00958738
1691752811.345667,0.07781450332348597,0.24628803099458396,10.129243475534219,-0.07323889750861644,0.05672336249138356,-0.011051791560807484
1691752811.347667,0.19978816839258115,0.1261932998454405,10.005039367959814,-0.06549647106646059,0.050232073863987634,-0.013216196166924266
1691752811.349667,0.049224786720000024,0.09975201728,10.0675221264,-0.06922514432,0.03215394088,-0.00474681584
1691752811.351667,0.024122979303828944,-0.0037526247637991172,10.051479969368474,-0.07514431606166086,0.030403206061660866,0.0011976962207856784
1691752811.353667,0.07478667214214713,-0.07621224748508947,9.988499840680914,-0.07744715748508946,0.021484243071570576,0.005871131471172963
1691752811.355667,0.11688621558210473,0.14572619167259787,10.13112929658363,-0.0883866150482969,0.00869812328418912,0.008974324595831215
1691752811.357667,0.252946994062031,0.0127099951975988,10.05711048386193,-0.09955559742871435,0.006854674187093547,0.003473963251625813
1691752811.359667,0.1660504899013158,0.07514958552631579,10.07078390424342,-0.10226539,0.003146731743421053,-0.004681557598684209
1691752811.361667,0.1543636162761956,0.11817399285330468,10.177515634142933,-0.11273943938205266,-0.001179177146695325,-0.0059605562278344975
1691752811.363667,0.1058241831501472,-0.09170802500490677,10.23265788293425,-0.1322955938665358,-0.002886352355250245,-0.0015471940333660452
1691752811.365667,0.07330951509803922,0.03913346556862743,10.321713522627451,-0.14657203243137254,-0.01348916725490196,-0.0036762051764705882
1691752811.367667,0.1004727078425656,-0.11419574793002915,10.328670338746354,-0.16294818795918367,-0.025190551807580175,-0.006034429504373178
1691752811.369667,0.13152519836950768,-0.0036502427316040253,10.327504183599789,-0.1848907756802541,-0.036149631529910006,-0.009346579677077818
1691752811.371667,0.25181269985915494,0.12109265049295774,10.367601909366197,-0.19555479637323944,-0.05083637056338028,-0.007606889471830986
1691752811.373667,0.20601877002452185,-0.09618608089749875,10.357702105625306,-0.18883862572339383,-0.05763973679254537,0.005587017940166749
1691752811.375667,0.1644380776359338,0.19350130864775414,10.259370377432624,-0.18324965293144208,-0.052972603196217494,0.016971698023640663
1691752811.377667,0.0859308028922594,0.08835255736401676,10.175226634926778,-0.18287280431485356,-0.04507929655334728,0.025228160135983266
1691752811.379667,0.06798356128966224,0.04159833599795293,10.129403920598772,-0.17651824622824974,-0.03515808637154555,0.016518143055271238
1691752811.381667,0.133669133125,0.15331441620535713,10.134676849776787,-0.15646547102678574,-0.02897139049107143,0.006491457098214286
1691752811.383667,0.08147194076616915,-0.037692599407960214,10.22503947700995,-0.15061778439800996,-0.012889173467661691,-0.011287028731343282
1691752811.385667,0.13835876779011103,0.24457820527749746,10.211284349656912,-0.15424942204843592,0.0032995231584258327,-0.011400265887991926
1691752811.387667,0.04041536296975706,0.1601871678532474,10.196393058512642,-0.14217187032721865,0.01339318049082796,-0.007780075205751116
1691752811.389667,-0.00208555151001541,0.16532165740112997,10.151508330446841,-0.14394803500256806,0.026610821874678996,-0.002140924062660504
1691752811.391667,0.09099641583708146,0.26586286746126936,10.13915790888056,-0.1608150031234383,0.04700259631184408,0.0053699754372813595
1691752811.393667,-0.04268099975754579,-0.009524684418604601,10.213486356590797,-0.163904190326571,0.052504202483918856,0.01808313797624938
1691752811.395667,0.05211939135964913,0.20515228945906433,10.037095355614035,-0.14383250058479533,0.03378165659356726,0.017950641608187132
1691752811.397667,0.014120532529381724,0.19044731243229432,10.042512445646398,-0.13156805584568215,0.01886939115482882,0.008537900735820132
1691752811.399667,0.030334500358387244,0.19700621279741165,10.081016591144849,-0.12697167333499254,0.01224072943255351,0.01579337674464908
1691752811.401667,0.21849188761401822,0.2974764029572732,9.989411598036487,-0.12928361686029766,-0.0015275786701872303,0.02812134112818051
1691752811.403667,0.08938353333333332,0.02394202000000001,10.076396623333334,-0.12605628666666666,-0.02663161,0.03266811
1691752811.405667,0.1367625092207113,0.1326678233158996,10.027652796699792,-0.11684647378138074,-0.055644462107740586,0.02779326493200837
1691752811.407667,0.10151136265890344,0.14128693545851528,10.121794639873848,-0.11841491951479864,-0.060222841426491994,0.022611932367782632
1691752811.409667,0.12817320302257112,0.11183905952894996,10.172076883199216,-0.13753619835132483,-0.06359492312070657,0.019875179578017665
1691752811.411667,0.32302147932914044,0.2198449465513627,10.052294014025158,-0.16004983932914046,-0.06233359880503145,0.012491733060796645
1691752811.413667,0.15320045093610696,-0.009811599494799428,10.208697778469539,-0.16768179454680535,-0.06447144545319465,0.006586276820208023
1691752811.415667,0.17371982516516515,0.1007841481831832,10.200918957387387,-0.17654011922922921,-0.0682904877977978,-0.0006579244094094099
1691752811.417667,0.10644700671890306,0.05135926147404507,10.263126851464252,-0.19395585459353573,-0.06631036370225268,0.009264461444662095
1691752811.419667,0.03942719187214612,-0.04085569934043633,10.306121671425672,-0.20468966797564686,-0.06424446687975648,0.011230405144596651
1691752811.421667,0.1874159902411493,0.07044530333504362,10.191786083786557,-0.19981387416110827,-0.06924164200102617,0.007304907101077476
1691752811.423667,0.08838487872639225,-0.017479406958837776,10.357430307985473,-0.19707392,-0.07732787967554479,0.008624774004842614
1691752811.425667,0.15687572999072352,0.16822487655844157,10.32587639138219,-0.19298876358070502,-0.07240537443413729,0.021842862040816327
1691752811.427667,0.13180599624382205,0.18756552101043383,10.259972943020317,-0.1692366493465129,-0.06889178322350356,0.040914698484349254
1691752811.429667,0.040330086102040814,0.18747332207142858,10.234166216943878,-0.1473027046122449,-0.044875897928571426,0.04382585170408163
1691752811.431667,0.14908217683627203,0.2245942094508816,10.115481374554156,-0.12186572023173803,-0.028193823410579348,0.050343806317380356
1691752811.433667,0.000692660754716995,0.06456815798742138,10.277178770251572,-0.10122692264150943,-0.015811474025157233,0.04425872289308176
1691752811.435667,0.07505426684684685,0.2548638492192192,10.222292092072072,-0.08994927007507507,-0.008015077927927928,0.04566401629129129
1691752811.437667,0.07616811551671733,0.2674810867983789,10.18798523701621,-0.0941075317781155,0.0018655593465045596,0.033674555612968594
1691752811.439667,0.020729787508754375,0.24202635978489245,10.280762197088544,-0.09920441697848925,0.002305848754377189,0.043554343406703354
1691752811.441667,0.1766827043646409,0.20466275487192365,10.160756253922651,-0.11910202372677046,0.00865212976393772,0.03413501417880462
1691752811.443667,0.05182168382038835,-0.032175281038834935,10.218154923713593,-0.1430008948252427,-0.0015647999611650473,0.02991066268446602
1691752811.445667,0.10512030707009581,0.08527366609682305,10.191902557503782,-0.15607708796772565,-0.02361255647503782,0.009596512718103883
1691752811.447667,0.11296537255023184,0.0829447185625966,10.183517618768676,-0.1496095585368367,-0.04000751146316332,0.0037978500154559505
1691752811.449667,0.16427409980231436,0.13304788760366443,10.247815450520733,-0.13556491200096432,-0.05256981989874638,-0.0013441666634522662
1691752811.451667,0.31284884181818184,0.1823703171000508,10.197881066444896,-0.12065837748603353,-0.07127208364652107,0.0031454802996444898
1691752811.453667,0.1824633757894737,0.022093863333333325,10.256507620877192,-0.11536627210526315,-0.09645314912280702,0.007886698771929823
1691752811.455667,0.22226133412115193,0.09575617988083415,10.22491702868421,-0.12619574907646475,-0.11554310605263157,0.012237849692154915
1691752811.457667,0.20915234628528226,-0.0333426371219758,10.214653591295363,-0.1362555836844758,-0.1233623469657258,0.01608903671875
1691752811.459667,0.18525706803230543,0.04996533869309838,10.186965745418501,-0.1399516581938326,-0.13637418356828193,0.017777867209985317
1691752811.461667,0.23373608609455293,0.21176258389516958,10.106798610226104,-0.13688155228160329,-0.15362689647482014,0.01810949
1691752811.463667,0.18256206316683316,0.16420731293706292,10.086372058031968,-0.13000695497502499,-0.16023344381618382,0.0226366001998002
1691752811.465667,0.250958041888668,0.35507487441351887,10.035246225745526,-0.10983871934393638,-0.1698514453280318,0.026750211610337974
1691752811.467667,0.16136011897909577,0.1690350681623724,10.055039325906659,-0.09281317329606223,-0.1729110127321342,0.03496781172581429
1691752811.469667,0.06773215019847328,0.1597572194351145,10.04197619761832,-0.06577967244274809,-0.16381002575572517,0.03323787778625954
1691752811.471667,0.05953002424870466,0.2531948991709845,9.996057385202072,-0.03861224573056995,-0.14758494157512952,0.03089267
1691752811.473667,0.0036488740109072854,0.20955021961328707,9.921773526167575,-0.01585379584035697,-0.11207089257312841,0.023990897188894397
1691752811.475667,0.08821137332519531,0.46858082611816404,9.766778795541992,0.029972529033203126,-0.07774246275878906,0.014587570126953126
1691752811.477667,0.02366219025692695,0.39156837937531486,9.744340668720403,0.08185577679596977,-0.03244843886649874,0.025116092428211584
1691752811.479667,-0.003912159811039286,0.5201096666633516,9.685323421347588,0.11402036987568374,0.0178610593386375,0.02495134118846345
1691752811.481667,0.03225507882989691,0.5511156323505154,9.667154728659794,0.12373156154639176,0.031495588025773194,0.029244800298969073
1691752811.483667,-0.09702581984751599,0.23622869719134282,9.744344450501721,0.11931381046237088,0.03469419007870143,0.03575945721593704
1691752811.485667,0.0012376598354307822,0.2413114349854792,9.697541420793804,0.09670704101645691,0.030369836089060985,0.05556287026137464
1691752811.487667,-0.09502759424742269,0.023241042597938133,9.813166331381444,0.06507997098969072,0.03140883084536083,0.051295225731958764
1691752811.489667,-0.0754886262159435,-0.06847754807265388,9.748846311644803,0.03034982126135217,0.006461456750756815,0.04504746630676085
1691752811.491667,0.11891240497801661,0.13989997778212016,9.71993265668295,-0.002085255964826574,0.0002039979872984852,0.03804352651196874
1691752811.493667,0.04871338954342433,-0.0378675955384615,9.861496930794045,-0.01464249857568238,-0.015416994590570719,0.030766847136476427
1691752811.495667,0.27393882271238484,0.1001153706960082,9.680201144902764,-0.007029435588536335,-0.030893758341862847,0.024287372794268167
1691752811.497667,0.18627563485915494,0.09489131535211266,9.767533663169013,-0.010014982816901408,-0.03711921394366197,0.026158995985915492
1691752811.499667,0.13449416435387673,-0.03356642510934394,9.783869565367793,-0.01655818606361829,-0.049674575278330024,0.011841801192842942
1691752811.501667,0.27317423235238547,0.09287738088332548,9.678808738049126,-0.018821011861124233,-0.05859759444969296,0.01172998335380255
1691752811.503667,0.04355045371398081,-0.05628801335645678,9.827957768078976,-0.011802041707577374,-0.0710418783778015,0.006803705725720385
1691752811.505667,0.14310615710698138,0.11234830164239076,9.672430692968359,0.0021369504821697645,-0.080963308814666,0.013854853335007532
1691752811.507667,0.1633108829717682,0.28819120390787517,9.712656193055969,0.0245248237196632,-0.08384617844972758,0.024909461510648837
1691752811.509667,0.0973397828627838,0.1757717452615992,9.734947077665352,0.062418918114511356,-0.06409621387956564,0.03735523715202369
1691752811.511667,0.2885326120120725,0.41893471459255527,9.553419018777666,0.10907867960764586,-0.05242086759557344,0.028910570246478876
1691752811.513667,0.08259084381024862,0.37053156877727045,9.773333014337899,0.1318879485844749,-0.04508376463723998,0.027972512247590058
1691752811.515667,0.0679449245263158,0.30716347894736845,9.731749526105263,0.13528858,-0.038035547157894735,0.023727363368421052
1691752811.517667,0.21517783415802466,0.4027366392790124,9.61357010294321,0.13830393752098766,-0.0249114028345679,0.01979761123950617
1691752811.519667,-0.06467624769080238,0.05461215502935424,9.80227407330724,0.1270749942074364,-0.02024002,0.008901526340508807
1691752811.521667,0.06424523209445582,0.12840196513347024,9.723280893305954,0.11547291308008213,-0.012035083860369609,0.013957804620123204
1691752811.523667,0.14769768953511875,0.34084285044972207,9.75484399027792,0.11825350225871653,-0.009284327256189995,0.01582286107630116
1691752811.525667,0.10703821557956779,0.22084981699901768,9.803832624047152,0.12338231773084479,0.0009386450000000001,0.011906262269155206
1691752811.527667,0.15969108791875625,0.30126117667502506,9.776370861308926,0.1111636036108325,0.024786364573721166,0.01065264
1691752811.529667,-0.01250024821052631,0.04984979852631577,9.908769065263158,0.10320730705263158,0.04579515610526316,0.014409104315789473
1691752811.531667,-0.030325737065715744,-0.005627531136016287,9.811016559490575,0.09766787340295466,0.06645773813041263,0.00831644233825777
1691752811.533667,0.06492753805741626,0.196571983645933,9.679473497406699,0.10252074431578947,0.0945944587416268,0.0008950284114832537
1691752811.535667,0.009942191365991518,0.2147000119971738,9.713002345463966,0.12728229028732926,0.12007983902025436,0.0030261941780499292
1691752811.537667,0.03628166538630137,0.28249219047123286,9.574067793457534,0.16263640653150685,0.11518923173698631,-0.00044536655342465765
1691752811.539667,-0.06065310888888889,0.2624618003418803,9.646873165213675,0.17137100401709404,0.10714556837606838,-0.007729994871794871
1691752811.541667,-0.06369969248746238,0.23463176,9.745030143640923,0.16056644155466399,0.10728612602808425,0.008644991965897693
1691752811.543667,0.16121572807228915,0.3170153854457831,9.64013388286747,0.15952630757108432,0.07386877083855421,0.023310039840963855
1691752811.545667,0.1288050494786236,0.09424766515641292,9.70798617638686,0.15709762090719498,0.0383000846193952,0.03189183838894682
1691752811.547667,0.22390678444666,0.2219876095663011,9.642302578649053,0.15171840316550347,0.004680047956131604,0.008179062866400796
1691752811.549667,0.2001158570195685,0.19243470977420973,9.650893860852985,0.15784034160561966,-0.029768077967887604,0.007798933502257903
1691752811.551667,0.28579901013752457,0.16729308225933204,9.564502063182712,0.16686561563850688,-0.04542547269155206,0.008712565127701376
1691752811.553667,0.3847967530735077,0.3293037223038974,9.492888388001973,0.16937704,-0.04940840567340898,0.005985344326591021
1691752811.555667,0.2649730934670782,0.24525049442901234,9.521622203775719,0.17614837371399178,-0.048562688389917695,0.0038215783899176953
1691752811.557667,0.25673811054977713,0.3141349150272412,9.372432555007428,0.20459936353640415,-0.026825771277860327,0.010735481357107479
1691752811.559667,0.14033919287790697,0.2574880361627907,9.362748591598837,0.2311933551744186,0.00954402569767442,0.00657119363372093
1691752811.561667,0.0092665875339603,0.18906437789968653,9.386692078986416,0.2551002153396029,0.02087227759665622,-0.011786919968652037
1691752811.563667,0.05740505842718446,0.2984616433592233,9.355313358893204,0.26131453611650485,0.03579081704854369,0.00040335733980582586
1691752811.565667,-0.08466241563496142,0.18066682842159384,9.402974605429305,0.23919814823136246,0.053130680976863756,-0.008009471280205656
1691752811.567667,0.004674393730158738,0.09657564038194444,9.397861993864087,0.2104922351984127,0.05978637937003968,0.009969414305555558
1691752811.569667,-0.052746785822416306,0.022136781460456084,9.578686602668608,0.1681231202862688,0.06728378047549734,0.0005489091120815179
1691752811.571667,-0.0761104094736842,-0.047001957631578946,9.60994778263158,0.14022243605263157,0.06273847184210526,-0.007765217631578948
1691752811.573667,0.03920986618606917,0.005390159415489523,9.684460859454457,0.10444105540185095,0.05965481,-0.029275832708231857
1691752811.575667,-0.01511086582089552,-0.10625967610945275,9.795136565502487,0.08124734751243781,0.04484710346766169,-0.025762967014925375
1691752811.577667,0.12920897219428007,-0.03332284929980278,9.639134125626232,0.043913793303747534,0.03907808483727811,-0.020968584837278106
1691752811.579667,0.13888085525588537,0.022069782952917096,9.726041363710337,0.030243915982599796,0.01941081771238485,-0.01834173803480041
1691752811.581667,0.0949250968043366,-0.06073139691791431,9.787968732663913,0.030119978027878164,0.009107270562725865,-0.015498853309241094
1691752811.583667,0.28300165347317074,0.07361060666341464,9.635262858682927,0.02143623322926829,-0.006734546204878048,-0.011862365326829268
1691752811.585667,0.09397626708848245,-0.04909355982204644,9.815109742481463,0.020349551492832428,-0.023236773944636677,0.000547639426594167
1691752811.587667,0.2767668511996018,0.19655811963165754,9.610888313275261,0.05459148985067197,-0.03435411997013439,0.013462947401692384
1691752811.589667,0.16879000842264913,0.23596321893832153,9.593685035591507,0.09163536036400405,-0.03205918014155713,0.022269302851365018
1691752811.591667,-0.018348270324214794,0.11639652667679838,9.65750633698075,0.12323501329280648,-0.01994969511651469,0.016143016534954407
1691752811.593667,0.19720276273653564,0.25610640008733626,9.459766571237264,0.13950467748180495,-0.022649665254730715,0.0053712894759825325
1691752811.595667,-0.013597900228194737,0.12369718256592291,9.590943967033468,0.1368119285953347,-0.009249219746450304,-0.008253095811359027
1691752811.597667,0.06438254758743034,0.09812222479979726,9.540732639498225,0.13800546323365434,0.0031644760060821077,-0.01278317
1691752811.599667,0.2011656901301953,0.21009988921882827,9.491311203890836,0.14640531282924388,0.00913502553830746,-0.009736209859789683
1691752811.601667,-0.016366087952639358,0.12589224749383326,9.66780785842131,0.14988906803650714,0.009148558046373951,-0.0032578049235323136
1691752811.603667,0.11563565664015907,0.29714756159045724,9.51573827638171,0.14499880222664016,0.012982248389662027,-0.00106526
1691752811.605667,0.06085836301059,0.18760978947049925,9.69777747633888,0.13451985016641452,0.013418138850226928,0.0026736393645990925
1691752811.607667,0.06580654376681615,-0.0036551216791230884,9.74227041743398,0.11607029348779273,0.006052418420528152,0.00949608822620827
1691752811.609667,0.1589446312431897,0.08179418568103022,9.651030761391777,0.083092208692422,-0.010858944046557703,0.01171791
1691752811.611667,0.018437461422287416,-0.05857719913489734,9.919233704560117,0.0533710012170088,-0.019204434090909092,0.016758390718475073
1691752811.613667,0.20464372417404897,0.006906875471599794,9.860265756274101,0.025444221745700886,-0.02024002,0.014721630333507034
1691752811.615667,0.19982075246435846,0.05932841630346232,9.911419545712832,-0.006029265285132385,-0.03177677125254583,0.005861120692464359
1691752811.617667,0.2145410952152642,-0.022264671311154602,9.920386347534247,-0.03461588371819961,-0.0491011881409002,0.00243801698630137
1691752811.619667,0.19319861491442544,0.043072213789731056,9.869402772811736,-0.051424403814180925,-0.05065605709046455,-0.0015418960146699268
1691752811.621667,0.07452555020134229,-0.03191197892617449,10.019878523825502,-0.061399263758389264,-0.04224595966442953,-0.007699930604026845
1691752811.623667,0.1460057186440678,-0.016637671186440675,9.956226756101694,-0.053299327796610174,-0.051547963559322035,-0.0057957623728813554
1691752811.625667,0.09511807961914064,0.059448217763671866,9.919041924072266,-0.01793680638671875,-0.04980215446289062,0.0053544095703125
1691752811.627667,0.08560169786786787,0.045180671531531526,9.92636013,0.021378866546546547,-0.028557402822822823,-0.003598866366366367
1691752811.629667,0.12712438758064518,0.17817494338709677,9.916397168709677,0.05444875451612904,-0.00472496112903226,-0.01254263129032258
1691752811.631667,0.10802095918766066,0.29218615807197945,9.95654550711054,0.07001498135732648,0.008992037948586119,-0.007749318642673521
1691752811.633667,0.11265938979522185,0.35516365065821554,9.87965281283764,0.08972372488542174,0.029003654885421747,-0.011338756684544125
1691752811.635667,-0.004265157258145372,0.41035297388471176,9.83681827010025,0.1252649566215539,0.06827196870676691,-0.01906636611528822
1691752811.637667,-0.003250312499999998,0.30419420366666666,9.74051221709091,0.16756932634848484,0.09483920318181818,-0.020551530772727273
1691752811.639667,-0.010646336583941606,0.28689643328467157,9.71786089744039,0.1837127560437956,0.10529115384428224,-0.009927432311435523
1691752811.641667,-0.1604964842901879,0.20608128858037578,9.732075098580376,0.1770018078079332,0.11366750118997912,-0.006085797463465553
1691752811.643667,-0.05040485936438621,0.16085643222707424,9.68092274817079,0.1683918960262009,0.13110299569626396,0.010845948088306648
1691752811.645667,-0.08574286904879251,0.21046554610152785,9.828666415012322,0.1515962091867915,0.13668986419418433,0.007170714524396254
1691752811.647667,0.056869679423868336,0.15423388386831277,9.803359367572016,0.10761362502057613,0.1214489146090535,0.025978423827160493
1691752811.649667,0.17297023243460763,0.08901420154929578,9.864496332937627,0.05974483376257545,0.09987336350100603,0.023320070482897384
1691752811.651667,0.0009181588676396846,-0.07824352594363362,10.01388637597383,0.011655183653749374,0.07919734722194263,0.03495214272269753
1691752811.653667,0.2502004897860962,-0.11202815385026738,9.891279350588235,-0.03347323272727273,0.06753320871657754,0.018411417540106955
1691752811.655667,0.12050211745335354,-0.1339762941855774,10.111767510761473,-0.07215004754412506,0.035985311018658594,0.01000907899142713
1691752811.657667,0.16072243262253663,-0.1653898561394644,10.057943105517937,-0.10269816656897424,0.019665133628094997,-0.006692490409297628
1691752811.659667,0.1947772990019763,-0.15556160190711463,9.98382092,-0.1250075140513834,-0.01182738279644269,-0.014596858833992095
1691752811.661667,0.0660856505934718,-0.15506185836795253,10.17583996735905,-0.15459609916913947,-0.019345453738872406,-0.02080584824925816
1691752811.663667,0.2572718709318996,-0.17488582997951868,9.991652016241678,-0.1598622104966718,-0.043313119790066565,-0.015179883410138248
1691752811.665667,0.17174805469999996,-0.113820348195,10.079485939595,-0.125067907745,-0.04068564826,-0.013991714585
1691752811.667667,0.17786322308734942,0.10878473536646587,10.027587170175703,-0.05706224092369478,-0.03210981013052209,-0.0027380276656626505
1691752811.669667,0.11399196182481752,0.24676705232116788,10.014256955124088,-0.006965432408759124,-0.007155158437956204,-0.003062050218978102
1691752811.671667,0.05478299799793068,0.3138423191101914,9.878317602824625,0.05309954512157269,0.03656122023279876,-0.006842931112260735
1691752811.673667,0.06841795573551263,0.35777840288261514,9.730669017102525,0.09527864022288261,0.06605589144130758,-0.01659311265973254
1691752811.675667,-0.08711588748874438,0.4062286051725863,9.890946580555276,0.11046669483241621,0.10430958612306153,-0.014928086833416707
1691752811.677667,-0.016626141689453117,0.39805708885742186,9.742895248320313,0.12625984298828125,0.13126211868652343,-0.011300745561523436
1691752811.679667,-0.04632076755399298,0.3613669264389754,9.736572630683074,0.13651328505775992,0.1617318635660472,0.0048191065344048226
1691752811.681667,-0.045223809259259264,0.27444644935185186,9.771091866296297,0.13696538814814815,0.17105385101851853,0.01703436787037037
1691752811.683667,0.03990653672962228,0.21332194054671968,9.675683174811134,0.10199748330019881,0.18723875753479127,0.022992132485089464
1691752811.685667,-0.10322966808873718,0.04086135306679667,9.852724788059483,0.08173242859580693,0.17976636568990736,0.02227290852267187
1691752811.687667,-0.011440796230314965,-0.03847925099901575,9.812279833026576,0.03979119297244094,0.15050425166830708,0.02564288970964567
1691752811.689667,2.4875823376624417e-05,-0.046446266259740264,9.829604629241558,-0.015965129397402595,0.1112241262961039,0.015024933766233766
1691752811.691667,0.053845946326427495,-0.14422312883779687,9.97421266638201,-0.0717608237443153,0.07993359007579585,0.014180023244062655
1691752811.693667,0.24011118546246973,-0.14515239008716707,9.947071982958837,-0.1067059676803874,0.056061278663438255,0.007046220004842615
1691752811.695667,0.30314536257028113,-0.059725235552208836,10.006219659849398,-0.15557888123493976,0.025420885963855423,-0.005647186034136546
1691752811.697667,0.3519222677738516,-0.03543080296819788,10.0460701,-0.20494107042402826,-0.008936176607773854,-0.01107799816254417
1691752811.699667,0.2885496638131313,-0.05529638356060606,10.069854897954546,-0.2274500957828283,-0.045631513156565655,0.003400237702020201
1691752811.701667,0.3221568628607214,-0.04857494428356714,10.120611741452906,-0.2296413424248497,-0.060261625355711425,0.00958738
1691752811.703667,0.21356325416868638,-0.14923431753756666,10.14036650160446,-0.22312875312651478,-0.057358009844886086,-0.0007430501017935045
1691752811.705667,0.2233821910827375,0.010794693738508693,10.148519330878447,-0.21679382931562818,-0.057623295015321756,-0.00532632
1691752811.707667,0.182350710221998,0.0053102498587285635,10.219447824510596,-0.20685909241170533,-0.03664359384460142,0.0022412466599394543
1691752811.709667,0.12610571735849058,0.08514513984111222,10.253963635769614,-0.19969424271102282,0.002473272472691166,-0.009758756236345579
1691752811.711667,0.24834498028613716,0.20078694317710905,10.230075006413418,-0.18997654129748395,0.01936605573754317,-0.009300439876665022
1691752811.713667,0.03418866551444505,0.10211215267612772,10.35962957848454,-0.1722132508312215,0.031026572007095795,-0.00639159
1691752811.715667,-0.00776574586138612,0.17507540324752474,10.28567996049505,-0.15873494217821782,0.04706781552475248,-0.012348629267326732
1691752811.717667,-0.012736337418709352,0.11313950055027512,10.218026069209605,-0.13327475379689843,0.05739052388194097,-0.022331653376688344
1691752811.719667,-0.04193228973280554,0.22067171814943098,10.256570097337951,-0.10007476461652648,0.05304658618010886,-0.011615651439881247
1691752811.721667,0.09471387887855295,0.3667867532919897,10.095968434645995,-0.06153539958139535,0.05837594293023256,0.0029821929302325583
1691752811.723667,0.009947157506197318,0.2985048318740704,10.080123043311849,-0.03185283161130392,0.07392840321764997,-0.00651041867625186
1691752811.725667,-0.07159939552067762,0.350047325754858,10.181452704314898,-0.0018900881714001005,0.10973126048330842,-0.015486407458893871
1691752811.727667,-0.007162303670822934,0.3372421179750623,10.105677903491271,0.011961247341645886,0.13977226295261846,-0.018545695780548627
1691752811.729667,-0.10078631471999999,0.35311601776,10.22224486352,0.024347684799999998,0.16125547408000002,-0.013925137599999998
1691752811.731667,-0.06509724890397184,0.2670166845349422,10.083508200457517,0.03781126185017597,0.19816435947712419,-0.01171791
1691752811.733667,0.015501764056084118,0.24887228167751627,10.062833092483725,0.043816136339509267,0.20789459628442664,0.004934783329994993
1691752811.735667,-0.0640907605239743,0.335988272412259,10.270921948309441,0.029765270958971822,0.1737144597330697,0.024447368615916953
1691752811.737667,0.017237776315529182,0.10035044410979227,10.225156980929771,-0.017101657967359057,0.1472599021958457,0.02024582058852621
1691752811.739667,0.027958494483111565,0.07195593325997952,10.295422835864892,-0.05091844205220061,0.1109014434493347,0.003967759810644834
1691752811.741667,0.13729424625126646,0.08597051652988855,10.254540359685917,-0.07825808203647416,0.08878930927558258,-0.007208611955420466
1691752811.743667,0.23481182715982188,-0.10877565748144483,10.115458046219693,-0.09927041357248886,0.040922813805047004,-0.003477260316674913
1691752811.745667,0.2348963159116022,-0.011957784033149205,10.194431091381215,-0.11630215585635359,-0.0010770360220994507,-0.00106526
1691752811.747667,0.28408234416575795,-0.17917088823336969,10.105912026564885,-0.11739864685932387,-0.03500503406761178,-0.00033572534351145034
1691752811.749667,0.3215163772850679,-0.02301034018099546,10.039916680995475,-0.10819423402714932,-0.04778747153846154,0.003046368687782805
1691752811.751667,0.2668751294712991,0.013634652995971802,9.996365750886204,-0.08086462250755287,-0.04977080648036254,0.013484767255790533
1691752811.753667,0.24759674349633254,-0.13633954077750612,9.958703479022004,-0.05328249581907091,-0.04554487218581907,0.004984082904645477
1691752811.755667,0.20202706931034484,0.22591643852573712,10.054306817021489,-0.04431361484757621,-0.028001921409295354,-0.01418116343828086
1691752811.757667,0.18874935874493928,0.13062453877024288,10.058002324620446,-0.03159134292004048,0.0028637041599190276,-0.014197775005060729
1691752811.759667,0.13070278118870726,0.0597091805794948,10.031142814413077,-0.022120458068350668,0.024812901426448736,-0.026003213863298666
1691752811.761667,0.1155199355465995,0.35134095684130984,10.10492518363728,0.006168874458438289,0.04869089806549118,-0.036485172085642316
1691752811.763667,0.04582308384007898,0.16892711938795657,10.197502615103652,-0.003129018242843038,0.0855981510266535,-0.01668195629318855
1691752811.765667,0.1026149018445122,0.38930597153963414,10.257183007545732,-0.004921977530487806,0.11084109448170731,0.0008492904725609747
1691752811.767667,0.012452241445000012,0.20352630387499998,10.346289018355,0.0024298694649999993,0.119914152185,0.017182181115
1691752811.769667,-0.01151094705392157,0.08522419497058824,10.31282879729902,0.0035158931911764705,0.1274014534852941,0.02237055
1691752811.771667,0.08001825811244981,0.2710207437901606,10.292158216571284,-0.01015531046184739,0.13070398774598393,0.00901944953815261
1691752811.773667,0.08282258252282557,0.1344894741662662,10.356055700422873,-0.016693067885631907,0.11674550195579049,0.017477808044209515
1691752811.775667,0.12363201933333334,0.18852627285714285,10.309477924190476,-0.03704076542857143,0.10305672514285714,0.0022827096190476195
1691752811.777667,0.44214798896231033,0.38206442311796374,10.249212584806656,-0.06288397751835537,0.07934473880567793,-0.006714348658835047
1691752811.779667,0.913299628446602,0.833795813776699,10.07389162400971,-0.05673877969417476,0.055310497203883494,-0.014961278237864077
1691752811.781667,0.8877552710651828,0.7244623400741919,10.174412883889772,-0.0582705879809221,0.047191161547429784,-0.01544605373608903
1691752811.783667,0.8863184780625931,0.6892731932637854,10.193982381490311,-0.06482078247391952,0.034729841609538,-0.016125023636363638
1691752811.785667,0.8991526059237247,0.6671747033135216,10.177308746666666,-0.07429361640416048,0.018581187934621102,-0.0095467552897474
1691752811.787667,0.5846217696296296,0.3961914924596391,10.358658132070275,-0.08060096007597341,0.016685093418803417,-0.01135574180436847
1691752811.789667,0.5518055306526316,0.5179036200421052,10.366641749410526,-0.09001820808421053,0.01956273572631579,-0.03056075562105263
1691752811.791667,0.3547943158362809,0.3348252916068722,10.527874940747852,-0.09224037971197574,0.024748690864072765,-0.010546067306720565
1691752811.793667,0.2797145434657948,0.28236405482394367,10.505297275995975,-0.08250119478370221,0.03270597822937626,0.004861743707243461
1691752811.795667,0.20765432927787936,0.15800636655850092,10.503317175333638,-0.06352345172760512,0.046981180278793416,-0.0040444009186471645
1691752811.797667,0.12426036732972973,0.12158403035135135,10.592365230091893,-0.06111047351891892,0.06398208582162161,-0.0031560618486486487
1691752811.799667,0.21613222481854838,0.3182260915221774,10.49453693606351,-0.06989079393145162,0.06700158627016128,0.009709264133064516
1691752811.801667,0.12725545098484847,0.06259023762121213,10.465941071378788,-0.07243798,0.06604639,0.007035589666666666
1691752811.803667,0.12451464490120481,0.18832386927228909,10.48690604380723,-0.06804241425060241,0.06018564254457831,0.003528462269879518
1691752811.805667,0.11585911992450931,0.16309971455460492,10.426229427891293,-0.0711202071716155,0.051000808555611475,0.00319579
1691752811.807667,0.1170038063361852,0.11221540320583795,10.402203089038752,-0.07350325,0.0347645057372924,-0.0011950035078007047
1691752811.809667,0.17567547908996897,0.22888766910031025,10.34037683319545,-0.0818524123474664,0.02117198917269907,-0.018376084529472595
1691752811.811667,0.21331336675184276,0.2151769634987715,10.266652025051597,-0.06783561997051597,-0.01968514866339066,-0.026768763144963147
1691752811.813667,0.20071987603573152,0.29578506007725736,10.2602139501014,-0.057096320661516174,-0.046024978015451475,-0.03132062933848383
1691752811.815667,0.16829873043523316,0.082514364,10.316131489595854,-0.049485675813471505,-0.07033394670466321,-0.02268405804145078
1691752811.817667,0.2618445519672131,0.0837054825136612,10.247732625027323,-0.04240101967213115,-0.10490817808743169,-0.026305623770491803
1691752811.819667,0.21541531038364461,0.20488613377082282,10.222363422771329,-0.05098212546693589,-0.13261708843008582,-0.03732888750630994
1691752811.821667,0.26758223685459936,-0.10357349431256183,10.184497924322454,-0.05911848614243324,-0.14997890399604352,-0.042714890286844706
1691752811.823667,0.39821435380530973,0.18356958268436577,10.195273217138643,-0.07602971578171092,-0.167585896460177,-0.04950808731563422
1691752811.825667,0.29138971869520897,0.015185235708460754,10.271847912670744,-0.1000490737512742,-0.17511275126401632,-0.03376486806320082
1691752811.827667,0.311265216984127,0.11350605871031746,10.167224480496031,-0.11791885543650793,-0.17429332944444445,-0.02777930775793651
1691752811.829667,0.21946164111055022,0.26987160098939933,10.25842573229682,-0.11137417395759718,-0.17883268496214033,-0.012436328995456838
1691752811.831667,0.20723770304081632,0.03438366236734691,10.241769299653061,-0.11489039718877551,-0.15980487807142857,-0.002284879724489796
1691752811.833667,0.2014918938690767,0.17532527474352713,10.168481875530045,-0.11899321347337567,-0.1490209636394724,0.009418772388861749
1691752811.835667,-0.0033209904032258375,-0.017917894354838704,10.272361224596775,-0.11183558330645162,-0.13910291298387095,0.010111425161290322
1691752811.837667,0.0537262596911197,0.09388228393822395,10.151341223088803,-0.10865697,-0.11791530741312742,-0.00016451969111968938
1691752811.839667,0.03926105567404427,0.18015765492957747,10.227692676841047,-0.1079410809859155,-0.09397261120724346,-0.00712462949698189
1691752811.841667,0.033427070139823926,0.04391394721905749,10.247817947146556,-0.11205357603832211,-0.0781063357534956,-0.015214908586224752
1691752811.843667,0.09112284727941176,0.22989969776960786,10.126785132098039,-0.10140429926470587,-0.06938892350490196,-0.02106925569607843
1691752811.845667,-0.0717820167086157,0.150081449196515,10.253527070217812,-0.08593373287996128,-0.06853166958857695,-0.024500567715392062
1691752811.847667,0.10984058106166217,0.2695190757211796,10.146300681024128,-0.05924412364075067,-0.07822810735656836,-0.02107338780697051
1691752811.849667,0.010488326030496792,0.1479694361337924,10.211673794722087,-0.044763639985243485,-0.1024828388194786,-0.0161440208165273
1691752811.851667,0.05585268980421687,0.06564583805722891,10.169227139457831,-0.04412184450301205,-0.11985507992469879,-0.015669335798192772
1691752811.853667,0.15268074033670034,0.05394611848484849,10.14711014993266,-0.05420653521885522,-0.13522043673400674,-0.01379463531986532
1691752811.855667,0.06703764437500001,0.04788403,10.20229160625,-0.063716124375,-0.150135705625,-0.014980282499999999
1691752811.857667,0.2130780425432099,0.21880048239506172,10.052324576074074,-0.07189614150617284,-0.17055015664197531,-0.01671018550617284
1691752811.859667,0.24540870225316458,0.1711217799493671,10.030504775544303,-0.07972223164556963,-0.18305288473417722,-0.01704423
1691752811.861667,0.22361626811776547,0.13167024960241572,10.035548633266231,-0.06488570162053348,-0.1793943930397584,-0.014063418022143935
1691752811.863667,0.23841772222277474,0.23908442713575334,9.879926234152164,-0.03597161167081054,-0.18426585122824465,-0.01129677835902536
1691752811.865667,0.12562833247191013,0.16393555898876405,9.894240198876405,-0.012053049325842698,-0.18818075438202247,-0.008569990337078651
1691752811.867667,0.14941206009661834,0.18771929009661836,9.83263294580247,-0.0006701539774557159,-0.18926998524959743,-0.012484119779924852
1691752811.869667,0.10930923579881657,0.10485847504437869,9.769551875719921,-0.0003981593096646942,-0.17937309361932938,-0.020767404714003943
1691752811.871667,0.09830167984810126,0.11738255921518989,9.733769516658228,-0.006218988556962025,-0.17028588443037976,-0.040369477822784806
1691752811.873667,0.09663935303598581,0.239524532858591,9.713712027085656,-0.00852212,-0.16455932656360872,-0.04493493679675621
1691752811.875667,0.026359022185463668,0.1756948056641604,9.676871356,-0.015331795834586465,-0.13725999191478697,-0.03837942072681704
1691752811.877667,0.08134326976605276,0.2662580992135391,9.632494502150324,-0.0067993450920856135,-0.11470230410652066,-0.03395696243404679
1691752811.879667,-0.009525819172313654,0.13415177150048405,9.708325749404647,-0.003587664022265247,-0.09806516466118102,-0.03083749554695063
1691752811.881667,0.10225314737007876,0.11221453681889765,9.566355491086615,-0.00426106,-0.09795064588976378,-0.026814468582677168
1691752811.883667,0.06728544836123795,0.16688958820903096,9.616732208909184,-0.009716553505834603,-0.10870778045662101,-0.0247869896042618
1691752811.885667,0.13120968241513095,0.09860349310378275,9.447791955809894,-0.007158245164888458,-0.13845079703685742,-0.01234198090688652
1691752811.887667,0.25110134986387944,0.16215623979581914,9.344929333767622,-0.01335283200291687,-0.16737909024307246,-0.0059974835585804576
1691752811.889667,0.04150112808106721,0.09960812665982555,9.51675671883017,-0.014827345402770652,-0.21419466899435607,-0.01345490610569523
1691752811.891667,0.22431846400403432,0.08655105527483611,9.331706977952598,-0.007065235693393849,-0.2582952043015633,-0.011014718991427131
1691752811.893667,0.27045321625434676,0.11406771709388971,9.313666031634376,-0.01027268255340288,-0.27326918203179335,-0.00551630519622454
1691752811.895667,0.21969167096632505,0.09340541815519765,9.39120925,-0.01351466579795022,-0.26825479155197657,-0.004992548931185944
1691752811.897667,0.32634955661067194,0.14565831408102767,9.174680250306324,0.0011610562845849794,-0.25953294550395256,-0.0017526329644268774
1691752811.899667,0.10950075072239424,0.14750654897832818,9.326638835314757,0.012921690546955624,-0.23693064500515995,-0.002199785273477812
1691752811.901667,0.10182946541922289,0.17166768869120655,9.276645228077708,0.008831457893660532,-0.23024742989775052,-0.00319579
1691752811.903667,0.14172648546251218,0.1598916458714703,9.18460030865628,0.0004169781207400197,-0.2289219040506329,0.0042724678383641666
1691752811.905667,0.03001240819102749,0.10361938945007235,9.337857982416788,0.0014306275108538352,-0.23152774751085384,0.017428093704775688
1691752811.907667,0.11373332064129302,0.061734955172054226,9.225388328070908,0.006842021120959331,-0.24058535855057353,0.003410179661105319
1691752811.909667,0.05145707071719227,0.06626312461342829,9.329941166139369,0.01456909021871821,-0.23714271116480162,-0.008349808657171923
1691752811.911667,0.06781593545094153,0.07182605,9.388868302111,0.029113707041625372,-0.2313408089692765,0.0017277578245787906
1691752811.913667,0.09912947617412934,0.18611403846268657,9.262832710791043,0.041566514303482585,-0.20990638391044775,0.008635002781094527
1691752811.915667,0.045113880374331554,0.3292102936412251,9.37921601245017,0.04474111,-0.17086230371900826,0.0030575212834224597
1691752811.917667,0.035869493054545454,0.2330820618909091,9.386890420763637,0.048459849781818186,-0.1350251694909091,0.004462491927272727
1691752811.919667,-0.07054003978848994,0.15232916732907034,9.416700682174127,0.03594022755533694,-0.1026515586817511,0.009365731637973438
1691752811.921667,-0.07604740756072875,0.046250739574898794,9.449449183350204,0.01040034442307692,-0.10239153129554655,0.008411058552631578
1691752811.923667,-0.10779619313121272,-0.04890264100397614,9.448952969135188,-0.02101197099403579,-0.1102591066500994,0.0022311250994035787
1691752811.925667,-0.12254890992954202,-0.038136128540513334,9.403723396577755,-0.0338906377302466,-0.13808497005032713,-0.005995935460493205
1691752811.927667,0.09705615699901284,-0.05395580772458046,9.315238306663376,-0.04108892112043436,-0.1572979208489635,-0.02336010128331688
1691752811.929667,0.07553520928535734,-0.020637277561219386,9.367572132908546,-0.04220118530234883,-0.19034801318840577,-0.026878097526236884
1691752811.931667,0.26951835317550177,0.07162643050952135,9.250938927539886,-0.05520350240349974,-0.2102945990787442,-0.010390579871332992
1691752811.933667,0.22523985874257427,0.0868929294009901,9.257263423059406,-0.07135900153465347,-0.21989219414851485,0.0010584057673267326
1691752811.935667,0.16759412,0.17918546827056492,9.294829178637265,-0.07713400941030724,-0.2316417035034688,-0.001304921189296333
1691752811.937667,0.34036502849159245,0.28339438234915926,9.126308211913946,-0.06002464865479723,-0.23542345,0.009369795791295746
1691752811.939667,0.12776452670391064,0.294453968384967,9.234796697216861,-0.03725504202640935,-0.20703190655154902,0.0149137
1691752811.941667,0.17728589916958482,0.3245095423761881,9.13756450174087,-0.009071534412206102,-0.1640928175487744,0.019428419899949978
1691752811.943667,0.12332301921686747,0.26525158204819277,9.105206484472891,0.018135166942771088,-0.13842180945783134,0.018282760993975904
1691752811.945667,-0.15952086390999998,0.241436083505,9.281810257745,0.058111775885,-0.087745834365,0.021585454695
1691752811.947667,-0.10702550699019608,0.20084770233333332,9.06678555379902,0.10031187956372549,-0.03288272864705882,0.008595223387254899
1691752811.949667,-0.1646541757398897,0.23362172130055148,9.19697178066636,0.11088981318014707,-0.01028352419117647,0.007539093377757353
1691752811.951667,-0.06587959529246346,0.2309098489032621,9.209120369482564,0.09672696917322834,-0.007835509375703037,0.017872236878515187
1691752811.953667,0.0007670998159203957,0.2494734432089552,9.088058256089553,0.08147205817910447,-0.0002029868805970142,0.019792719696517413
1691752811.955667,-0.14554623863743518,0.24736698909005186,9.32676920766148,0.07207083942951438,0.0010607431211692598,0.014904659561527582
1691752811.957667,-0.027023738151305293,0.15345850924880128,9.3215415951252,0.05232508841236015,-0.01323947200852424,0.016460799579115608
1691752811.959667,0.047273817016491755,0.20320922197901048,9.301520480164918,0.02509999419790105,-0.02446275107946027,0.030196334857571214
1691752811.961667,0.015550167454361056,0.053488316805273856,9.480062912576065,0.008618268346855983,-0.03352557797160243,0.024429774229208924
1691752811.963667,0.18071056923298176,0.020677825589645253,9.380642697622244,-0.006488616040268455,-0.03400369165867689,0.03500869178331736
1691752811.965667,0.1461228986947689,0.07799576671914676,9.470717795053327,-0.013925261142712036,-0.03449476973082783,0.037866389126460134
1691752811.967667,0.12502429974621768,0.014500748491947296,9.582296506666667,-0.008405137003416302,-0.03226103382625671,0.03694216743777452
1691752811.969667,0.09284603948849106,0.15355466171867008,9.554731400675193,0.006373606680306906,-0.03308640410741688,0.029971801534526853
1691752811.971667,0.07824297534782608,0.24104868534782609,9.671675147415458,0.0038663442173913053,-0.014102661062801933,0.020921377903381642
1691752811.973667,0.042414747542503864,0.1369912607418856,9.79484568729521,-0.004336797542503864,0.010194925023183928,0.01810949
1691752811.975667,-0.04322253877675842,0.025743159204892972,9.88817984864424,-0.016850943312945975,0.03572164863404689,0.009891431692150865
1691752811.977667,-0.048362876,-0.08044517600000001,9.957005882999999,-0.036218993000000005,0.06902913299999999,0.00415453
1691752811.979667,-0.10203871042211055,0.015895574080402014,10.068164106452262,-0.050072781085427134,0.08810325539698492,-0.005012635396984924
1691752811.981667,-0.044870540266197884,0.07857936051732797,10.101565983586138,-0.05326322,0.09386632571572075,-0.005517334344550477
1691752811.983667,0.05347089657675331,0.05153815907307503,10.11533397203531,-0.03333143784207945,0.10883460277587052,-0.018287125846002943
1691752811.985667,-0.0030268866064638716,0.20403970426806084,10.200860097290875,-0.012674825598859315,0.11504856,-0.01545746946768061
1691752811.987667,0.08544867898395722,0.15225586748663103,10.122069923155081,0.009524715561497327,0.10636694187165775,-0.004141424705882353
1691752811.989667,0.038742536363636365,0.1227572490909091,10.129214113636364,0.02314529,0.10158749090909092,0.0036800081818181814
1691752811.991667,0.15195851061224486,0.24463204557823132,10.028968675442178,0.059966412721088436,0.09033007918367347,0.01581229068027211
1691752811.993667,0.21749281365902293,0.1652643698305085,9.99551740336989,0.0733460559222333,0.08674630510468594,0.021002596131605187
1691752811.995667,0.006289249502487576,0.1558017800995025,10.16106313597015,0.06789072940298507,0.09417255522388059,0.002358423184079604
1691752811.997667,0.11994234657030864,0.18237693362077415,10.016689834615384,0.06604639,0.08952762011758941,-0.0001383106908378253
1691752811.999667,0.169692326555334,0.2756244106131605,10.087654693140578,0.06531409012961116,0.0936094462013958,-0.0022632898454636083
1691752812.001667,0.07532422507470375,0.2957116522565688,10.194863240463679,0.06724173453374549,0.11577739103039669,-0.0012469253374549202
1691752812.003667,0.19158682176130895,0.27740479053897976,10.024086789663137,0.08799760861405197,0.13164576486044272,0.012479687045235803
1691752812.005667,0.01626122564646465,0.21399810122222224,10.166665196939395,0.09766753251515152,0.14475867482828284,0.0217518388989899
1691752812.007667,0.01344510408450704,0.14041487418511067,10.072555631710262,0.09726807196177062,0.1609170864084507,0.019754543631790744
1691752812.009667,0.08202102549155908,0.13618656758689177,10.029955024210526,0.09767216040714995,0.15738409328699104,0.03350452285004965
1691752812.011667,-0.027630576318956865,0.0942311669007021,10.17935280220662,0.09140759712136409,0.14606837985957874,0.03754816719157472
1691752812.013667,0.14259780970902036,0.1614263165470417,9.994405549912706,0.09411213311348204,0.1377621455868089,0.03265949971871969
1691752812.015667,0.10785500271578946,0.20921794397894738,10.069366917621053,0.11095794393684211,0.1161048532,0.019087298063157895
1691752812.017667,0.18235036009290953,0.20405857006845965,10.033526603985331,0.11054059118337407,0.08841382145232274,0.019749323990220048
1691752812.019667,0.26037032437223046,0.18495119912850813,9.97256782635155,0.10687261341211225,0.05616477085672083,0.010865065347119644
