# timestamp,accel_x,accel_y,accel_z,gyro_x,gyro_y,gyro_z
1640787309.340060,-0.061658540,0.401947740,10.374206540,-0.053381920,0.003463030,-0.003059210
1640787309.341570,0.231243090,0.491813420,9.587821960,-0.088742380,0.012150410,-0.004780290
1640787309.345030,0.271149190,0.465805260,9.894505500,-0.059676170,-0.081193450,0.001664460
1640787309.346390,-0.163269420,0.368622330,10.201497080,0.000481310,-0.019939240,-0.021842120
1640787309.350260,0.164681330,0.022167110,9.253269200,0.017547610,-0.025302170,-0.027845800
1640787309.351380,-0.364363700,0.067422900,10.447022440,0.015394390,-0.013333560,-0.018115340
1640787309.355060,-0.229368110,0.034671960,9.829704280,-0.062882900,0.001531840,-0.018209220
1640787309.356340,0.006017170,0.045219270,9.675349240,-0.070093570,-0.079189250,0.007942320
1640787309.360150,-0.292984990,0.259197120,10.077559470,-0.036981710,-0.007028880,-0.013209880
1640787309.361350,0.150068390,0.247639330,9.563699720,-0.013661380,0.000190730,-0.028255580
1640787309.365170,-0.174868990,0.377121390,10.572683330,0.042958560,-0.051461160,-0.027561190
1640787309.366440,-0.078620520,0.464969460,9.795422550,0.008073450,-0.049637260,-0.037276740
1640787309.370150,0.105180020,0.406828110,9.716428760,-0.037555390,-0.074385090,-0.010925530
1640787309.371400,-0.231534570,0.509299870,10.016657830,-0.053295500,-0.007948280,0.002595780
1640787309.376780,0.087510500,0.568714620,9.619310380,-0.074547540,-0.032837690,-0.006954370
1640787309.377500,-0.040436610,0.563260200,10.228107450,-0.042146440,-0.038515040,0.011141600
1640787309.380650,-0.071873010,0.499466900,9.890384670,-0.029091540,-0.035764280,-0.022189320
1640787309.381880,0.062574250,0.486521330,10.054440500,-0.033424800,-0.087444480,-0.027152900
1640787309.385180,-0.159802620,0.421026710,9.914283750,-0.059837110,-0.032024090,-0.009028610
1640787309.386410,0.194911580,0.244940190,9.361233710,-0.097902120,-0.046783680,-0.018945330
1640787309.390000,0.113948870,0.085802800,10.142362590,-0.059819230,-0.001657010,-0.016607340
1640787309.391650,0.012017890,0.090433720,9.770277020,-0.013865530,-0.017784540,-0.016146900
1640787309.396650,-0.022570370,0.099062380,10.207157140,-0.040860480,-0.118651990,-0.015617910
1640787309.398580,-0.244404240,-0.021170640,9.858921050,-0.081546600,-0.051665310,-0.015938280
1640787309.399990,0.014534680,-0.224271000,9.264331820,-0.049565740,-0.068634730,-0.030030310
1640787309.401260,-0.109810170,-0.058533320,10.220996860,0.029006600,-0.000943240,-0.035025180
1640787309.405060,0.010573780,0.266379650,9.588035580,-0.004994870,-0.004337730,-0.039899350
1640787309.406490,0.045245680,0.420658710,10.181326870,-0.065153840,-0.120049720,-0.003887710
1640787309.412250,-0.178851520,0.365105420,10.036976810,-0.089116390,-0.045923890,-0.004132090
1640787309.415010,-0.003023240,0.109276260,9.336509700,-0.002923610,-0.108957290,-0.019495190
1640787309.415860,-0.329125080,0.164909690,10.437384610,0.096064800,-0.058044500,-0.031013780
1640787309.416310,-0.192774250,0.275290160,9.717224120,0.038824980,-0.002314150,-0.039799520
1640787309.419990,-0.065562510,0.285992090,10.227437020,-0.041532520,-0.113955140,-0.011608000
1640787309.421290,-0.089169360,0.463952720,10.130363460,-0.106121610,-0.035709150,-0.019787260
1640787309.425940,0.310167100,0.425121520,9.203616140,-0.065957020,-0.078429290,-0.024355950
1640787309.426670,-0.092592170,0.630703330,10.411220550,0.024330620,-0.086776910,-0.020135940
1640787309.431390,-0.056359410,0.576475380,9.575222970,0.008754430,-0.041064620,-0.026726730
1640787309.432110,-0.040301350,0.232325200,9.897912980,-0.017692150,-0.153130310,0.008571150
1640787309.435000,-0.244003950,0.116345100,10.208103180,-0.021174550,-0.034534920,0.001241270
1640787309.436340,0.201904590,0.016401700,9.286583900,-0.039957460,-0.035685300,-0.004562740
1640787309.440460,-0.066537480,0.169742110,10.395893100,-0.035971400,-0.070343900,0.029975170
1640787309.441810,0.205047250,0.230283710,9.490882870,-0.072540350,-0.022400920,0.000467900
1640787309.446030,0.326298890,0.090921450,9.710396770,-0.018264350,-0.113749500,-0.010842080
1640787309.447040,-0.113692600,0.187544270,10.078012470,0.036296250,-0.056712330,-0.014966730
1640787309.450020,0.154646020,0.015255180,9.282577510,0.015620890,-0.077477090,-0.055447220
1640787309.451350,-0.176737820,0.045325890,10.289963720,0.005631150,-0.073169170,-0.025230650
1640787309.455000,-0.086279940,0.245339240,9.545108800,-0.017572940,-0.019784270,-0.015319880
1640787309.456340,0.090830420,0.193107310,9.933503150,-0.019706790,-0.089551520,-0.003606080
1640787309.460310,-0.161302210,0.450569900,10.179412840,-0.020179150,-0.034084920,0.018261370
1640787309.461340,0.138091470,0.254855360,9.454923630,0.004661080,-0.077714030,-0.002664330
1640787309.465030,-0.083954800,0.102276000,10.319021220,0.057364990,-0.081786510,-0.006112460
1640787309.466420,0.001818620,0.242052020,9.378704070,0.055310130,-0.023058060,-0.015711780
1640787309.469990,0.108902410,0.200149420,10.018546100,0.014162060,-0.081537660,-0.021901720
1640787309.471340,-0.150333640,0.475637850,10.270153050,-0.046557190,-0.023284550,-0.010524690
1640787309.475450,0.254439090,0.582110760,9.289402010,-0.068321830,-0.082515170,-0.011064110
1640787309.476640,0.018375770,0.443771900,10.446518900,-0.007870790,-0.058497490,-0.007352230
1640787309.480720,0.018537780,0.557603420,9.553895000,0.052717330,-0.009891390,-0.010757150
1640787309.481440,-0.001757940,0.406012450,10.012600900,0.048241020,-0.135326390,0.004404780
1640787309.484980,-0.075056110,0.228318360,9.755702020,-0.034235410,-0.031039120,0.017377730
1640787309.486300,0.301003780,0.057285100,8.954262730,-0.058989230,-0.026875740,0.004842880
1640787309.490020,0.025592720,0.097931590,10.508285520,-0.016745920,-0.001308320,-0.000509620
1640787309.491440,0.133059640,0.322755250,9.604441640,-0.024977330,0.008538370,0.000725690
1640787309.495130,0.028575270,0.089081870,10.247378350,-0.014762580,-0.140722100,0.008085370
1640787309.496900,-0.127489090,-0.103469390,9.862388610,0.028344990,-0.016787650,-0.009956960
1640787309.499980,0.041488270,-0.200237750,8.988092420,0.079336770,-0.060123210,-0.034610930
1640787309.501300,-0.274738340,-0.091238780,10.271816250,0.061547760,0.006332990,-0.021637980
1640787309.505030,0.159494830,0.249247950,9.348830220,-0.043553110,0.043770670,-0.024572020
1640787309.506360,0.135875330,0.242250550,10.268301960,-0.042796140,-0.088806440,-0.003716350
1640787309.510890,0.030653330,0.464095260,10.065639500,0.005020200,-0.008510050,-0.005923210
1640787309.511590,0.145863700,0.362409560,9.357522010,0.059019030,-0.069516880,-0.026203690
1640787309.515030,-0.493582520,0.188403250,10.685077670,0.113417220,-0.056342780,-0.011925400
1640787309.516340,-0.236739080,0.284394710,9.329567910,0.062343480,-0.032888360,-0.024527310
1640787309.519970,-0.194977950,0.130095210,9.811751370,0.003960730,-0.095760830,0.000660120
1640787309.521380,-0.089467320,0.386100410,9.852469440,-0.020577010,0.057552750,-0.001804530
1640787309.525050,0.340439200,0.674111600,9.629734990,-0.033898660,-0.008489190,-0.028528270
1640787309.526330,0.032674520,0.776895230,10.932940480,-0.017578900,-0.062771150,0.000099840
1640787309.530060,0.366359440,0.728482370,9.357665060,0.004231930,-0.033324960,-0.015975530
1640787309.532390,0.186690210,0.332850100,9.954397200,0.063991550,-0.091120590,-0.036062300
1640787309.535060,-0.121035950,0.333480480,9.930555340,0.041559340,0.030362610,-0.007151070
1640787309.536350,0.268668830,0.245374740,9.129343990,-0.048652300,-0.028327110,-0.003086030
1640787309.540160,-0.034528180,-0.013760890,10.329643250,-0.083526980,-0.000739100,0.013205410
1640787309.541680,0.240285460,0.215420690,9.273083690,-0.040429830,0.044976170,0.001534820
1640787309.545110,0.056060250,0.207616810,10.151329990,0.020176170,-0.070907180,-0.017915670
1640787309.546400,-0.167249840,0.152733500,10.154851910,0.019915400,0.004345180,-0.005640090
1640787309.549950,0.137965350,-0.001178540,9.343997960,0.020931660,-0.023406740,-0.021454700
1640787309.551310,-0.189157810,-0.168839980,10.321462630,0.041553380,0.011502210,-0.019411740
1640787309.555140,0.142987850,0.157297570,9.140758510,0.025360280,0.056499240,-0.015303490
1640787309.556760,0.163035840,0.242856140,9.859400750,-0.002871450,-0.019933280,-0.005453830
1640787309.560130,0.131320980,0.255506100,9.961420060,-0.040468580,0.050073860,0.002034010
1640787309.561350,0.332312970,0.282959400,9.359351160,0.029131770,-0.021657350,-0.009714070
1640787309.565010,0.013665450,0.009735380,10.236018180,0.102283060,0.022873280,-0.033082070
1640787309.566370,0.098755140,0.105181230,9.557907100,0.093823680,0.066408510,-0.032383210
1640787309.569960,-0.271035460,0.140484210,10.332452770,0.041474400,-0.037848950,-0.021064280
1640787309.571860,-0.216664420,0.184239120,9.633376120,-0.027568640,0.010581310,0.006435810
1640787309.575320,-0.123512490,0.241863730,9.231349950,-0.007538500,-0.013606250,0.003549460
1640787309.576370,-0.315636550,0.220643240,10.265835760,0.069233780,0.054369870,-0.009948020
1640787309.580010,0.003878180,0.314485190,9.793229100,0.110484660,0.033967190,-0.021509830
1640787309.581270,-0.089905480,0.231031370,10.337507250,0.112766030,-0.049844380,-0.007860360
1640787309.585020,0.233146180,0.282836850,9.585769650,0.053735080,0.035925210,-0.001026690
1640787309.586320,0.361425250,0.553511380,9.480019570,-0.004829470,0.008659070,0.006560980
1640787309.590130,0.113897640,0.700309460,10.054868700,-0.044189390,0.039252640,0.025148690
1640787309.591680,0.476377550,0.789005520,9.209590910,-0.023074450,0.046667470,0.018607080
1640787309.596980,-0.064860690,0.574914460,10.342558860,0.054369870,-0.015245380,-0.008109210
1640787309.597600,-0.088234010,0.391517640,9.774291990,0.081188980,0.016537310,-0.002527240
1640787309.600050,-0.064518180,0.094902360,9.539018630,0.039432940,-0.007835030,0.007525090
1640787309.601360,-0.418966170,-0.338352740,10.119605060,0.010813770,0.060428680,0.016701220
1640787309.605300,0.194370030,-0.229446310,9.097591400,0.015091900,0.062221290,0.027993320
1640787309.606420,0.033966880,-0.023943330,9.895424840,0.027059020,0.033748150,0.023008880
1640787309.610540,0.165983960,0.266391840,9.602783200,-0.019365550,0.077337030,0.026631360
1640787309.611500,0.325052020,0.319481070,9.652475360,0.002801420,0.000892580,0.009652970
1640787309.614990,-0.029920240,0.070037160,10.141500470,0.075329840,0.022439650,-0.011485820
1640787309.616330,0.215174000,0.133260940,9.317546840,0.139366110,0.053551800,-0.009140370
1640787309.620060,-0.196730760,0.154984620,10.107522010,0.108590740,0.038574640,0.009037560
1640787309.621310,-0.181473930,0.196690160,9.700220110,-0.001467760,0.054948040,0.027686360
1640787309.625260,0.006358040,0.306086720,9.360750200,-0.017583370,0.012570620,0.047138340
1640787309.626390,-0.238962190,0.262525770,9.854076390,0.022733220,0.066781040,0.025571890
1640787309.630020,0.038530100,0.435242240,9.613442420,0.093145670,0.057855260,0.003084540
1640787309.631290,-0.205936700,0.522842350,10.352691650,0.112631940,0.033330920,-0.007852910
1640787309.635140,-0.090804870,0.417527560,9.898572920,0.036010150,0.019872190,-0.000131130
1640787309.636750,0.098234620,0.338634490,9.730176930,0.016161800,0.003726780,0.036942960
1640787309.640260,0.037884340,0.237382070,9.692462920,0.030365590,0.083182750,0.021144750
1640787309.641990,0.216504110,0.417255190,9.597391130,0.030837950,0.059896710,0.025571890
1640787309.645150,0.020077200,0.501646040,10.093681340,0.022354720,0.048737230,0.046263640
1640787309.646430,0.191441550,0.217110540,9.619242670,0.004194680,0.032342970,0.022578240
1640787309.649980,0.171090410,0.287284110,9.747850420,0.058175620,0.027742980,0.021934510
1640787309.651470,0.037466260,0.316198530,9.523880000,0.049977020,0.104853530,0.019986930
1640787309.655040,0.178344290,0.269056920,9.659920690,-0.011675060,0.073660910,0.032395130
1640787309.656380,-0.109894370,0.259363260,10.235838890,-0.010542570,0.076036160,0.048014520
1640787309.660110,0.091035310,0.070983540,9.490892410,0.024393200,0.033564870,0.027142470
1640787309.661390,-0.102806800,0.064875260,9.738578800,0.082547970,0.009252130,0.025136770
1640787309.665000,-0.136567990,-0.002213260,9.363227840,0.053948160,0.101928410,0.014263390
1640787309.666380,0.175491880,-0.094200160,9.501229290,0.038976960,0.087846800,0.006651880
1640787309.670060,-0.047002820,0.107037160,10.270015720,0.067009030,0.106617830,0.011172890
1640787309.671300,0.340036570,0.393511350,9.422453880,0.043271490,0.081171120,0.033190850
1640787309.675180,0.210541160,0.572251320,10.023374560,0.005504490,0.039419530,0.048625470
1640787309.676330,-0.071282110,0.524259510,9.813721660,-0.012342630,0.110618780,0.032599270
1640787309.680050,0.120210730,0.215881720,9.629271510,0.069469220,0.041073560,0.032190980
1640787309.681340,-0.404461150,0.087034010,10.341129300,0.161290200,0.073686250,0.007706880
1640787309.685220,-0.005161440,0.184816520,9.219541550,0.109149520,0.091177230,-0.004765390
1640787309.686360,-0.077559120,0.442340140,9.986494060,-0.002834200,0.084137920,0.038602950
1640787309.690290,-0.160936300,0.636512940,9.916308400,-0.115631530,0.122861550,0.046229360
1640787309.691450,0.367726530,0.635841610,9.384001730,-0.056555870,0.065644090,0.051105020
1640787309.695260,0.002646930,0.761153100,10.236702920,0.070416930,0.092221800,0.028365850
1640787309.696440,0.120985810,0.616696830,9.569014550,0.074344880,0.089709460,0.015904010
1640787309.700320,0.133594420,0.230670150,9.867836950,0.027939680,0.052201760,0.046359010
1640787309.701300,0.057019590,-0.234112680,9.703621860,-0.016424060,0.136044640,0.030551850
1640787309.705000,0.386486590,-0.355383070,9.429940220,0.018607080,0.134693090,0.030627850
1640787309.706640,-0.013910100,-0.018300480,10.092350010,0.025387110,0.112305590,0.042667980
1640787309.712360,0.107577190,0.125585970,9.426814080,-0.051996120,0.071673100,0.034835940
1640787309.712750,0.070541930,0.126206770,9.685044290,-0.026327370,0.075803700,0.035813450
1640787309.715060,-0.194957970,0.044100320,9.677480700,0.072303410,0.144268570,0.003983080
1640787309.716630,-0.138197750,0.113454830,9.819753650,0.132843870,0.092568990,-0.010070210
1640787309.720030,-0.372431520,0.285226550,10.116918560,0.094489750,0.104115910,0.026509170
1640787309.721300,-0.190775630,0.192685380,9.584430690,-0.023332240,0.079086450,0.038170820
1640787309.725390,-0.165739970,0.221758340,9.922045710,-0.023341180,0.076644120,0.058114530
1640787309.726440,-0.087089550,0.251861180,9.457204820,0.042557720,0.125187650,0.041456520
1640787309.729990,0.086355770,0.275713320,9.923938750,0.103606280,0.093369190,0.006373230
1640787309.731320,-0.073028420,0.519831000,10.289375310,0.089792910,0.115621100,0.022293630
1640787309.734990,0.202253180,0.441275300,9.591949460,0.017175080,0.061075400,0.027954580
1640787309.736400,0.082339130,0.420832400,10.121122360,-0.006312130,0.068096820,0.035642090
1640787309.740260,0.109500300,0.544619980,9.458700180,-0.003455580,0.150446590,0.026103860
1640787309.741430,0.107100870,0.550167620,9.906532290,0.011968610,0.065517420,0.042371440
1640787309.744980,-0.301246520,0.443826880,10.408692360,0.030292570,0.106392810,0.052145120
1640787309.746360,-0.036839980,0.144640910,9.338129040,0.049839910,0.059682130,0.033651290
1640787309.750010,-0.223748150,0.138009560,10.129907610,0.070180000,0.046873100,0.042532390
1640787309.751330,-0.095042310,0.322550890,9.460263250,0.000743570,0.175988690,0.028504430
1640787309.755030,0.274002460,0.349141960,9.637474060,-0.053270160,0.106580560,0.046445430
1640787309.756420,-0.035429680,0.465482620,10.573742870,-0.034201140,0.124268230,0.051215280
1640787309.760110,0.257420390,0.390068230,9.327918050,0.009670850,0.079216070,0.029963260
1640787309.761450,-0.024310130,0.288785400,10.015114780,0.068491700,0.013513860,0.043092670
1640787309.765050,-0.379805980,-0.009674470,9.732502940,0.048506260,0.126104060,0.024482610
1640787309.766350,-0.037447420,-0.360202970,9.335327150,0.055058290,0.070714960,0.024774670
1640787309.769990,-0.400576000,-0.169379100,10.418544770,0.077937540,0.110813960,0.031790130
1640787309.771340,0.072080420,0.111209940,9.332062720,0.000940260,0.142824620,0.024102630
1640787309.775150,0.075803860,0.438887360,10.231431960,-0.031472740,0.054731970,0.057809060
1640787309.777760,-0.228352870,0.614483540,10.275000570,-0.026026370,0.102509570,0.025323040
1640787309.780430,0.181356340,0.402124050,9.343541150,0.069110100,0.021903220,0.008220970
1640787309.782440,-0.407755640,0.459339050,10.374217990,0.157183420,0.062644480,0.007963180
1640787309.785020,-0.281822560,0.352505450,9.515471460,0.083868210,0.106504570,0.007425250
1640787309.786370,-0.185803670,0.265774190,10.042243000,0.006252530,0.031019750,0.053630770
1640787309.790430,-0.345583710,0.385099020,10.188311580,-0.046710670,0.094242400,0.051954390
1640787309.791670,0.228395360,0.353985250,9.439541820,-0.018312040,0.067496310,0.037786360
1640787309.794990,-0.006317050,0.611961250,10.276824950,0.049409270,0.063221150,0.041671090
1640787309.799660,0.104439610,0.590041880,9.767136570,0.036521260,0.086769470,0.022356220
1640787309.800250,0.282931830,0.220116690,9.867216110,0.031380360,0.034633280,0.037126250
1640787309.801310,-0.040185220,0.148119120,10.014801030,0.049979990,0.073127450,0.019587580
1640787309.805000,0.181747730,0.113573890,9.447405820,0.017689170,0.059749190,0.020362430
1640787309.806650,-0.055724330,0.164600010,9.971655850,-0.015042720,0.083121650,0.052915510
1640787309.811850,-0.127452150,0.122604250,9.829529760,-0.026990480,0.093559910,0.035065410
1640787309.813280,-0.004256730,0.004083610,9.993319510,0.043438370,0.041322410,0.028073790
1640787309.815060,-0.155960260,0.098493240,9.752811430,0.113782290,0.075638290,0.015121700
1640787309.816380,0.101313700,0.191697720,9.449325560,0.073800980,0.083845860,-0.000941750
1640787309.819970,0.019438650,0.227166470,10.154283520,0.006651880,0.117853270,0.012637670
1640787309.821320,0.044734290,0.226153140,9.721711160,0.002555550,0.089009110,0.011694430
1640787309.825320,0.104921440,0.317078680,9.956079480,0.052173440,0.022940340,0.020289420
1640787309.828010,-0.177873450,0.234098610,9.782568930,0.081017610,0.093978650,0.024449830
1640787309.830230,-0.094843180,0.054659330,9.586444850,0.085499890,0.060769920,0.013469160
1640787309.831300,-0.246844530,0.024444000,10.302656170,0.104123360,0.086280700,0.020162760
1640787309.835020,-0.082888540,0.013049770,9.537439350,0.090806180,0.106345110,0.004006920
1640787309.836350,0.057579410,0.385090920,10.040168760,0.060746070,0.059512250,0.011402370
1640787309.840350,-0.110608460,0.775202870,10.124296190,-0.011304020,0.119723390,0.010372700
1640787309.842100,0.047425180,0.880884110,9.533856390,-0.026483840,0.044591720,0.013355910
1640787309.846420,-0.158619490,0.817181940,10.248706820,0.048498810,0.042948130,0.013677780
1640787309.847300,-0.250773790,0.522609350,9.769685750,0.102801620,0.095148390,-0.009031590
1640787309.849940,-0.220926730,0.385546590,10.067778590,0.109019880,0.016380840,0.017482040
1640787309.851390,-0.289792810,0.263642790,10.123554230,0.022906070,0.082543480,0.030146540
1640787309.855030,0.243612840,0.049149980,9.233533860,-0.052936380,0.098675490,0.029115380
1640787309.856860,0.208145470,0.363927040,10.078605650,-0.026248400,0.099013770,0.036512320
1640787309.860200,0.151777510,0.553030730,9.889652250,-0.027601420,0.106851740,0.005438920
1640787309.862540,0.226261090,0.525862100,9.724635120,-0.007978080,0.001963970,0.015065080
1640787309.864980,-0.192690510,0.328399270,10.161006930,0.038495650,0.046157830,-0.010064240
1640787309.866320,-0.102405060,-0.087029710,9.484241490,0.069603320,0.081858060,-0.024582450
1640787309.870000,-0.296928260,-0.021751110,10.012550350,0.074939440,0.060074040,0.000445540
1640787309.871390,-0.318854030,-0.011578350,9.874547960,-0.005286930,0.116574760,0.002786520
1640787309.875150,0.026739190,0.065063050,9.500903130,-0.054687270,0.042571130,0.026668610
1640787309.876580,-0.162419050,0.358436410,9.939164160,-0.004985930,0.040011110,0.035916270
1640787309.879990,0.112318460,0.229924740,9.263849260,0.034517050,0.090950730,0.003129240
1640787309.881340,-0.017634110,0.300954610,10.140653610,0.097769510,0.050272060,-0.005494060
1640787309.885000,-0.277009550,0.211315740,10.363310810,0.085183980,0.065034630,-0.020480160
1640787309.887800,0.025649240,-0.003021070,9.642994880,0.041294100,0.009590390,-0.012153390
1640787309.890120,-0.276892450,0.199430180,10.027063370,0.037439170,0.042523440,0.011886660
1640787309.891360,-0.093997800,0.317117300,9.499302860,-0.001157820,0.096736860,0.001616780
1640787309.895090,-0.079528040,0.551995340,9.961700440,-0.000512600,0.033679600,0.017830730
1640787309.896720,-0.133058160,0.690918800,9.980426790,0.021679700,0.054804990,0.003334880
1640787309.899990,0.192745750,0.607434570,9.635674480,0.034871700,0.057037180,-0.008313360
1640787309.901350,-0.151846300,0.748951910,10.415935520,0.045399360,0.043320650,-0.001029670
1640787309.905380,-0.080529730,0.549488780,9.802674290,-0.023621320,0.047419970,0.001394750
1640787309.906560,0.119766970,0.262938320,9.594571110,-0.048634410,0.028736890,0.010922550
1640787309.911200,-0.220663430,0.128192810,10.021048550,-0.003382560,0.088842210,0.004394350
1640787309.912480,-0.010133120,-0.046419680,9.598394390,0.031568100,0.056670600,-0.004701320
1640787309.915120,-0.257729560,0.015660750,10.075330730,0.021706530,-0.011150540,0.006553530
1640787309.916410,-0.085038550,-0.121718560,9.493840220,-0.021071730,0.052791840,-0.002260510
1640787309.919960,0.292261690,0.005745440,9.248538020,-0.003461540,0.093989070,-0.010991100
1640787309.921360,-0.022144790,0.357594370,10.297126770,0.017727910,0.106792160,-0.020363930
1640787309.925370,0.250085950,0.584932510,9.864255910,-0.022631880,0.075925890,-0.009803470
1640787309.926420,0.050417560,0.545775180,10.109071730,-0.031414630,-0.016382340,-0.003480910
1640787309.929970,-0.286294100,0.208282230,9.757866860,0.018566850,0.026004020,-0.008608400
1640787309.931380,-0.138359260,-0.036290170,9.132942200,0.088654470,0.054070350,-0.018732250
1640787309.935000,-0.594857870,-0.064328860,10.259189610,0.082097960,0.063756120,-0.027543310
1640787309.936370,-0.247906570,-0.030881270,9.720766070,-0.008191170,0.078736240,-0.015635780
1640787309.943630,0.002847290,0.150577160,9.770493510,-0.044007600,0.018884240,0.001341100
1640787309.945140,-0.125968550,0.329430550,10.176122670,-0.035849210,0.075235970,-0.013703110
1640787309.946210,0.221891460,0.579170110,9.634097100,0.020536780,0.046019260,-0.028167670
1640787309.946620,-0.278637410,0.680475890,10.477642060,0.064618890,-0.018054250,-0.034886600
1640787309.949960,-0.161375980,0.510622440,9.618700980,0.022597610,0.014930960,-0.028783080
1640787309.951300,-0.103891310,0.326455120,9.569117550,0.028149780,0.017744300,-0.020849700
1640787309.955490,-0.407863500,0.302299830,10.327845570,0.007227060,0.052878260,-0.016434490
1640787309.956940,0.065301480,0.421941430,9.464126590,-0.047566000,0.054740910,0.006005170
1640787309.960030,0.012845310,0.522174890,10.033830640,-0.069756800,0.024017690,0.005300340
1640787309.961990,0.106881310,0.496554520,9.978982930,-0.067050760,0.056196750,-0.014780460
1640787309.965010,0.254714970,0.486094270,9.658822060,0.003637370,0.020104650,-0.021971760
1640787309.966360,-0.130193160,0.320136400,10.276558880,0.018605590,0.018510230,-0.022369630
1640787309.969970,0.086216500,0.136138410,9.496686940,-0.037024910,0.042968980,-0.019507110
1640787309.971460,-0.015032930,-0.112640800,9.821430210,-0.026443600,0.037513680,-0.009053950
1640787309.975170,-0.218525480,-0.042302350,10.061027530,-0.023071470,0.067690020,-0.008729100
1640787309.976610,-0.110930700,0.106895010,9.599226950,-0.030112270,0.006040930,0.005294380
1640787309.980050,-0.245083900,0.016986050,9.928782460,-0.035446890,0.008934740,-0.005820390
1640787309.981330,0.021761030,0.125229810,9.503877640,-0.007043780,0.071811680,-0.016142420
1640787309.984990,0.029147630,0.150248910,9.943370820,0.047031040,0.064653170,-0.035035610
1640787309.986370,-0.118467000,0.225720900,10.334832190,0.033016500,0.056685510,-0.029052790
1640787309.990440,0.058626080,0.335046410,9.751275060,-0.017605720,-0.000119210,-0.018942360
1640787309.991630,-0.145950350,0.072265140,9.893645290,-0.020375850,0.006078180,-0.006015600
1640787309.995260,-0.200743180,0.007350630,9.543495180,0.031918290,0.037007030,0.005558130
1640787309.996380,-0.318191200,-0.104852360,9.878502850,0.087356560,0.016260140,-0.016915800
1640787309.999930,-0.313042550,-0.028582350,10.036334040,0.081704560,0.050392750,-0.024892390
1640787310.001350,-0.135819610,0.384408150,9.851241110,0.008113680,0.012156370,-0.009429460
1640787310.005140,-0.234846230,0.412802040,10.312138560,-0.034208590,0.011676550,-0.024019180
1640787310.006700,0.007875950,0.691476460,9.619946480,-0.014264880,0.006099050,-0.020770730
1640787310.010130,-0.067259890,0.920740720,10.047787670,0.021205840,-0.010785460,-0.025354330
1640787310.011480,-0.136410310,0.711868700,10.164657590,0.022636360,0.049003960,-0.013166670
1640787310.014960,-0.004184100,0.545397700,9.872066500,0.034910440,-0.024026630,-0.002017620
1640787310.016360,-0.247601660,0.250140310,10.336833950,0.033234060,-0.023259220,-0.004877150
1640787310.020420,0.039672330,0.209070670,9.322689060,-0.025956330,0.025704510,0.016191600
1640787310.021380,0.054389980,0.334471170,9.698292730,-0.076164310,-0.008030240,0.010380150
1640787310.025070,0.043499050,0.158148560,10.050802230,-0.078311560,0.075881180,-0.002774600
1640787310.026590,0.265793090,0.405661940,9.498103140,-0.000181790,0.002385680,-0.022389000
1640787310.029960,-0.272605960,0.480951940,10.661276820,0.016412140,-0.041522090,-0.026603040
1640787310.031360,-0.139713060,0.264478890,9.626318930,-0.033377110,0.007429720,-0.017704070
1640787310.035010,-0.181376800,0.113388190,9.607939720,-0.003324450,-0.059005620,-0.015977030
1640787310.036870,-0.323199630,0.013931660,9.991860390,0.003542010,0.067238510,-0.018487870
1640787310.040440,0.201910730,0.192851860,9.031805990,-0.005333130,0.072222950,0.007350740
1640787310.041380,-0.095095190,0.310704050,10.584744450,-0.036256020,-0.016939640,0.011245910
1640787310.045010,0.186851160,0.290345160,9.629283910,-0.075246390,0.031302870,-0.009432430
1640787310.046390,0.158021880,0.199366810,9.534237860,0.000670550,-0.064416230,-0.023031230
1640787310.049980,-0.344772730,-0.028687070,10.427123070,0.053551800,0.032895800,-0.049151470
1640787310.051490,-0.044616620,-0.010721870,9.326575280,0.058622650,0.034184750,-0.062268960
1640787310.055060,-0.544877290,0.010557040,10.478348730,0.043992700,-0.067098440,-0.031311810
1640787310.056740,-0.391560050,0.155334490,9.632603650,-0.044593220,0.019668040,-0.006292760
1640787310.060610,-0.155952980,0.269111570,9.319475170,-0.041876740,-0.040735320,0.001785160
1640787310.061350,-0.464485760,0.414622840,10.564194680,0.007517640,0.010530650,-0.000703330
1640787310.064980,0.017203640,0.622310460,9.482964520,0.033725800,0.020049520,-0.030526520
1640787310.066370,-0.060670470,0.620691120,10.275753020,0.049769880,-0.094936800,-0.030733650
1640787310.070090,0.108956750,0.691629830,9.920904160,-0.011098390,0.047136840,-0.030839450
1640787310.071340,0.329051820,0.641627250,9.512524600,-0.052613020,0.010587280,-0.029779970
1640787310.075100,-0.090320100,0.578960120,10.600879670,-0.067599130,-0.051760680,-0.001402200
1640787310.076410,0.280416070,0.465441230,9.213640210,-0.065901880,0.002349910,-0.014896690
1640787310.079960,-0.018283500,0.160276850,9.823634150,0.001735990,-0.032259520,-0.020566590
1640787310.081370,-0.500137810,0.224148770,10.443832400,0.012765830,0.007604060,-0.009530780
1640787310.085260,-0.138866500,0.086833430,9.360726360,-0.048933920,-0.040617580,-0.011034310
1640787310.086370,-0.251383960,-0.077019240,10.027606960,-0.067898620,-0.031964480,-0.010503830
1640787310.090090,0.062483980,0.237396270,9.430115700,-0.054411590,0.099183630,-0.026313960
1640787310.091400,0.103510880,0.337341370,9.982692720,-0.033886730,0.001974400,-0.031693280
1640787310.095020,-0.095056620,0.489427240,10.364837650,-0.043267010,-0.033451620,-0.015950200
1640787310.096370,0.187733460,0.357747260,9.275066380,-0.053454940,-0.037568810,-0.037960700
1640787310.100350,-0.181350020,-0.116996300,10.006278990,0.009189550,-0.032414500,-0.029990080
1640787310.101330,-0.162476420,-0.023104560,9.501398090,0.051772610,0.052294140,-0.038674480
1640787310.105070,-0.050349870,0.046426630,9.822034840,0.001956520,-0.002083180,-0.045642250
1640787310.106800,-0.168780370,0.197018590,10.259653090,-0.073727970,0.029991570,-0.007081030
1640787310.110490,0.129142360,0.500731290,9.370624540,-0.099471210,-0.016874080,-0.013433400
1640787310.111350,-0.165546610,0.312907760,10.145561220,-0.030651690,-0.040055810,-0.019498170
1640787310.115040,-0.176175610,0.370365320,9.690893170,0.047104060,0.021937490,-0.033503770
1640787310.116780,-0.262613180,0.268677590,10.115118980,0.074595220,-0.041903560,-0.053067510
1640787310.119970,-0.484773520,0.028946010,10.355327610,0.034040220,-0.020708140,-0.036929550
1640787310.121340,-0.123412070,0.261706740,9.278847690,-0.019103290,-0.026252870,-0.029867890
1640787310.125090,-0.196581050,0.411584620,10.196216580,-0.071965170,-0.020352000,-0.033904610
1640787310.126410,0.047076640,0.855299470,9.660835270,-0.104103970,0.049230460,-0.014941400
1640787310.129950,0.190860080,0.918711360,9.908684730,-0.057831410,-0.035473720,-0.019244850
1640787310.131790,0.007365490,0.698697920,10.535160060,0.008358060,-0.013799970,-0.041823100
1640787310.135020,0.113587330,0.764783320,9.510877610,0.037713350,-0.031307340,-0.019021330
1640787310.136370,-0.189251480,0.442685840,10.268836020,-0.049157440,-0.058515370,-0.011594590
1640787310.144020,-0.072799760,0.227642550,9.572968480,-0.143410280,0.032994150,-0.003091990
1640787310.144550,0.070578490,0.073472810,9.411458970,-0.102207070,-0.015012920,-0.005012750
1640787310.144960,-0.136849700,0.084292100,10.383348460,-0.042989850,0.032004720,-0.033350290
1640787310.146390,0.051178900,0.277256370,9.548852920,-0.039570030,0.006122890,-0.017876920
1640787310.150000,-0.190737440,0.119861550,10.340463640,-0.057810540,-0.090923910,-0.035218900
1640787310.151330,-0.011602040,-0.005452930,9.560840610,-0.062745810,0.024586920,-0.049115720
1640787310.155030,0.112125960,0.044343100,9.275870320,-0.001713630,0.014269350,-0.046795610
1640787310.156620,-0.213303180,0.193727660,10.650439260,-0.006102030,0.047686700,-0.040747230
1640787310.160780,0.138187710,0.338367640,9.541715620,-0.080764310,-0.002561510,-0.015454000
1640787310.161350,-0.073461090,0.143490970,10.045669560,-0.061969470,-0.094334780,-0.003291670
1640787310.165140,-0.035225160,0.004430940,9.591669080,-0.008779770,0.066557530,-0.020110600
1640787310.166360,-0.045982790,0.033179840,9.619688990,0.069019190,0.002738830,-0.042851270
1640787310.170010,-0.375673000,0.215583010,10.648387910,0.043225290,-0.005617740,-0.039500000
1640787310.171390,0.045996980,0.525836050,9.283157350,-0.082167990,0.009332600,-0.030092900
1640787310.175220,-0.245527310,0.530983510,10.152173040,-0.099207470,-0.055938960,-0.012736020
1640787310.176460,-0.304832460,0.662801680,9.974140170,-0.057417160,0.038862230,-0.024496020
1640787310.180300,-0.248989760,0.630822240,9.724066730,0.009237230,-0.058656930,-0.040772560
1640787310.181380,-0.499719740,0.417376730,10.509952550,0.048130750,-0.047202410,-0.023724140
1640787310.184960,0.006595100,0.238851160,9.317317960,-0.005497040,0.015972550,-0.021021070
1640787310.186410,0.012550690,0.054174860,10.004583360,-0.032651420,-0.041435660,-0.009444360
1640787310.190070,0.144751460,0.381831880,9.922715190,-0.095705700,0.065249200,-0.001102690
1640787310.191400,0.501666610,0.464543880,9.438792230,-0.132660570,-0.001859670,-0.003430250
1640787310.195140,0.123966300,0.376507940,10.431969640,-0.068914900,-0.036190450,-0.001628700
1640787310.196720,0.215998250,0.438032570,9.423056600,0.006149710,0.007775430,-0.025972720
1640787310.199970,-0.226443830,0.060906830,10.019538880,0.040458140,-0.070603200,-0.026795270
1640787310.201340,-0.558075430,-0.075255160,10.051191330,-0.004304950,0.007858870,-0.019541380
1640787310.205320,-0.228079410,-0.116245030,9.244691850,-0.061193110,-0.008873640,-0.025092070
1640787310.206390,-0.424598340,-0.101601850,10.117525100,-0.047343970,-0.005538760,-0.017122930
1640787310.210110,0.007832700,0.489319260,9.322240830,-0.059825190,0.064678490,-0.019451980
1640787310.211410,0.086893600,0.582156660,10.085335730,-0.067071620,-0.026415290,-0.038480760
1640787310.215000,-0.026199710,0.381152240,10.347482680,-0.035010290,0.001363460,-0.029146680
1640787310.216380,0.228931350,0.257722110,9.416885380,0.045393410,-0.029692050,-0.055290760
1640787310.220000,-0.234154190,-0.097681930,10.379069330,0.069424500,-0.039404630,-0.046041600
1640787310.221920,-0.075388100,0.009471670,9.442556380,-0.000324850,0.031295420,-0.020043550
1640787310.226020,-0.089758110,0.073453330,9.804155350,-0.078871850,-0.047247120,-0.006411970
1640787310.226520,-0.168438180,0.073353930,10.080711360,-0.096136340,0.030589100,0.003215670
1640787310.230010,0.157108950,0.400741880,9.416231160,-0.011348730,0.022670630,-0.017589330
1640787310.231410,-0.302547810,0.531910600,10.827548980,0.047287340,-0.029803810,-0.046890970
1640787310.235070,-0.194998530,0.699871780,9.761709210,0.005875530,-0.022383040,-0.037369140
1640787310.236390,-0.093256100,0.574326930,9.479171750,-0.042203080,-0.074492410,-0.028811400
1640787310.240090,-0.143739720,0.225917320,9.885721210,-0.049667060,0.048057730,-0.023756920
1640787310.242720,0.155128360,0.296784790,9.407572750,-0.002822280,0.053775310,-0.020824370
1640787310.245080,-0.081324910,0.274959980,10.505053520,-0.012551250,-0.031131510,-0.001946090
1640787310.246390,0.169238170,0.056517180,9.685855870,-0.061839810,-0.005955990,0.010767580
1640787310.249930,0.167309370,-0.134203110,9.674150470,0.001698730,-0.042241810,-0.008034710
1640787310.251370,-0.133688610,-0.227028090,10.117387770,0.044353310,0.022621450,-0.039486590
1640787310.255170,0.120468370,0.001531280,9.211542130,0.020684300,0.022968650,-0.039289900
1640787310.256460,-0.170454580,0.096521910,10.248182300,-0.023892530,0.016295910,-0.036576390
1640787310.260460,-0.091525000,0.188714440,9.860284810,-0.045461960,0.033214680,-0.024957950
1640787310.261790,-0.269979600,0.248563410,9.879329680,0.033859900,-0.070014600,-0.011298060
1640787310.265020,-0.471887890,0.206126240,9.986044880,0.056380030,-0.026379520,-0.024740400
1640787310.266500,-0.220484210,0.152069610,9.430960660,0.068534910,0.011806190,-0.022222100
1640787310.270250,-0.431880410,0.079947600,10.401278500,0.074800860,-0.008507070,-0.018472970
1640787310.271510,-0.009191490,0.247339980,9.721985820,0.024487080,0.020237270,-0.024662910
1640787310.276380,0.171530110,0.551063540,9.670514110,-0.005696710,-0.044804810,-0.003279750
1640787310.277640,0.108067490,0.746168320,10.078724860,-0.041671100,0.033916530,-0.009281930
1640787310.280030,0.306905750,0.809937890,9.713964460,-0.037513670,-0.015103820,-0.006765130
1640787310.281370,-0.140984940,0.486137540,10.443072320,0.052590680,-0.056779400,-0.000254810
1640787310.284980,-0.141114250,0.245394860,9.820143700,0.095726550,-0.008606910,-0.014573340
1640787310.286420,-0.311712560,0.121459060,9.840070720,0.063687560,-0.047846130,-0.003078580
1640787310.290050,-0.475491020,-0.025943680,9.947745320,-0.033171470,-0.000464920,0.008912390
1640787310.291400,0.135609540,0.037737730,9.010689740,-0.083771340,0.024478130,0.001014770
1640787310.295020,0.008530430,0.135796490,10.041082380,0.001142920,0.026109810,-0.015263260
1640787310.296400,0.156617840,0.545558630,9.877018930,0.025674700,0.053288050,-0.018051270
1640787310.300000,0.128626780,0.537695770,10.016638760,0.004224480,-0.072982910,-0.011651220
1640787310.301390,-0.251574160,0.074793790,10.230339050,0.015023350,-0.051549080,-0.010849540
1640787310.305040,0.060691560,-0.081582010,9.070641520,0.060774390,0.002484020,-0.023309890
1640787310.306460,-0.370640430,-0.224682930,10.065353390,0.097878270,0.007773930,-0.017677250
1640787310.311060,-0.253376780,-0.047074660,9.861657140,0.027027730,0.046584000,-0.005781650
1640787310.311790,0.103866770,0.152323340,9.580367090,-0.026527040,-0.043366850,-0.004829470
1640787310.315040,-0.051898380,0.197026270,10.054065700,-0.017194450,0.009775160,0.001417100
1640787310.316380,0.274562000,0.440282520,9.473032950,0.052717330,0.042848290,-0.031951070
1640787310.320520,-0.110204260,0.440745710,10.597661970,0.106222940,-0.024504960,-0.049555300
1640787310.321490,-0.190012130,0.505486130,10.090339660,0.072053060,-0.015766920,-0.030606980
1640787310.327670,-0.033431060,0.531269550,9.372722630,0.008003410,-0.054894390,-0.016167760
1640787310.328370,-0.428291980,0.224340950,10.069626810,-0.009818380,0.010822710,-0.018747150
1640787310.329980,-0.090022510,0.433999030,9.288949970,0.017848610,0.037315490,-0.015863780
1640787310.331430,-0.213093100,0.531637370,10.160307880,0.027494130,-0.019936260,-0.013698640
1640787310.335020,-0.054185160,0.383229200,10.049024580,-0.008064510,0.031568110,0.008043650
1640787310.336620,0.236855860,0.430461110,9.718717580,0.005955990,-0.016640120,-0.011143090
1640787310.340340,-0.066381250,0.325994370,10.400467870,0.030858820,-0.005084280,-0.030051180
1640787310.341550,0.274935960,0.469467220,9.258313180,-0.021198390,0.017316640,-0.016017260
1640787310.345010,0.136513610,0.393329080,9.823684690,-0.052626430,0.001053510,-0.008937720
1640787310.346410,-0.026995550,-0.045512680,10.007238390,-0.022296610,0.046791140,-0.015597050
1640787310.349960,0.009184530,-0.059312590,9.676403050,0.080797080,-0.029414890,-0.020812450
1640787310.351370,-0.373710100,-0.129177290,10.100522990,0.077883910,-0.020465250,-0.021052360
1640787310.355020,-0.082008090,-0.126437810,9.256628040,-0.002361830,0.039295860,-0.016847250
1640787310.357430,-0.171188370,0.109737520,9.914771080,-0.020062930,0.034524500,-0.023260720
1640787310.361000,-0.051378030,0.306696090,9.987401960,-0.011074540,0.068393350,-0.025653840
1640787310.361450,0.172791230,0.662267090,9.714035990,0.037282710,0.001789630,-0.014944380
1640787310.365000,-0.205977870,0.728254800,10.356140140,0.027385360,-0.003224610,-0.024114550
1640787310.366470,-0.033935590,0.467360500,9.534371380,0.000302490,-0.012321770,-0.008784240
1640787310.370340,-0.336304990,0.129473700,9.895973210,0.064358120,-0.022983550,-0.000327830
1640787310.371450,-0.334004730,-0.068585750,9.839601520,0.077120960,0.043068830,-0.036169590
1640787310.375270,-0.030491690,0.132526430,9.651979450,0.038887560,0.018242000,-0.014568870
1640787310.377600,-0.163905110,0.442754000,10.377515790,-0.047130890,0.035800040,-0.015535950
1640787310.379950,0.297154810,0.610716100,9.639557840,-0.113706290,0.025944410,-0.007015470
1640787310.381340,0.136961710,0.634750010,10.099187850,-0.015638770,-0.012575090,-0.010894240
1640787310.385070,-0.006719320,0.719437480,10.088783260,0.059483950,0.035516920,-0.049833950
1640787310.386400,-0.005798490,0.646902260,9.724481580,0.043207410,-0.030545890,-0.016283990
1640787310.390400,-0.366693590,0.269168790,10.104401590,-0.014472010,-0.023004410,-0.004132090
1640787310.391430,-0.002701290,0.034317860,9.329337120,-0.067058190,0.058491520,-0.022000070
1640787310.395080,-0.088206530,0.098379370,9.827904700,-0.033584240,0.041805210,-0.006623570
1640787310.396480,-0.117579430,0.283769550,10.067145350,-0.038723650,0.058604780,-0.017583370
1640787310.399920,0.294461610,0.334642260,9.596873280,-0.062723470,0.002793970,-0.009162720
1640787310.401340,0.049838220,0.173591490,10.126119610,-0.012640660,0.002534690,-0.024271010
1640787310.406100,0.220087080,0.135733600,9.483589170,0.024700170,0.062197450,-0.054730470
1640787310.407720,0.013089330,0.128259910,9.852705960,0.024485590,0.017553570,-0.045342750
1640787310.410560,-0.283428760,0.041988780,10.054559710,-0.022268290,0.045034290,-0.029860430
1640787310.411340,-0.086348700,0.068247590,9.498561860,-0.047650940,0.003769990,-0.030775370
1640787310.415020,-0.420703830,-0.023608410,9.993551250,0.000436600,-0.004193190,-0.003762540
1640787310.416400,-0.198676480,0.015442130,9.518395420,0.032539670,0.071711850,-0.013852120
1640787310.420390,-0.188439520,0.141985650,10.143720630,0.040890280,0.046502060,-0.034683950
1640787310.421890,-0.288095120,0.226757710,10.296455380,0.025866930,0.032398100,-0.025552510
1640787310.425090,0.152496290,0.505867900,9.434674260,-0.002677740,0.004106760,-0.033535060
1640787310.426950,-0.013120120,0.619878950,9.999307630,-0.017748780,0.039462760,-0.025698550
1640787310.430000,-0.010023090,0.741756920,9.825282100,-0.028814380,0.066544120,-0.023666020
1640787310.431390,-0.137299630,0.767982840,10.164875980,-0.019648670,-0.033783920,-0.018903610
1640787310.435010,-0.358291240,0.326665160,10.029169080,0.011329350,-0.012601910,-0.002229210
1640787310.436870,-0.077844170,0.250530900,9.423687930,0.047016140,0.017140810,-0.022253390
1640787310.440040,-0.409562050,0.217130480,10.348534580,0.019451980,0.041823090,-0.017373270
1640787310.441440,-0.037903440,0.321428630,9.649815560,-0.080347050,0.036044420,-0.001892450
1640787310.444980,0.318087400,0.561017160,9.603039740,-0.115370750,0.026181340,-0.005668400
1640787310.446380,0.182013840,0.486075190,10.031678200,-0.090086460,0.088652980,-0.025121870
1640787310.449980,0.224520090,0.632189690,9.872807500,-0.008609890,0.009559090,-0.015808640
1640787310.451910,-0.232746660,0.386684270,10.239513400,0.013861060,-0.045488770,-0.017113990
1640787310.455030,-0.177768380,-0.199170590,9.339131360,-0.020365420,0.014336410,-0.006833670
1640787310.456510,-0.241821960,-0.350033100,9.633333210,0.012761360,0.027602910,-0.003694000
1640787310.460000,-0.282190590,-0.395754130,9.838433270,-0.006863470,0.099554650,-0.018653280
1640787310.461350,0.158032520,0.047430410,9.496131900,-0.048121820,0.054354980,-0.002540650
1640787310.464990,-0.005419470,0.466935520,10.344871520,-0.089474010,0.031581520,-0.001047550
1640787310.466380,0.217862710,0.435190320,9.610043530,-0.073592370,0.034686920,-0.004868210
1640787310.469970,-0.015236300,0.479295190,9.955623630,0.053527950,-0.024357440,-0.019606950
1640787310.471670,-0.414978060,0.357987850,10.079677580,0.090068580,0.042465330,-0.048311050
1640787310.475620,-0.253670780,0.274968150,9.564006810,0.038303440,-0.003962220,-0.015522540
1640787310.476600,-0.588968990,0.272801160,10.275550840,-0.047571950,0.000405310,0.009994210
1640787310.479980,-0.074933930,0.118369620,9.299177170,-0.100533680,0.062358390,0.007817150
1640787310.481400,0.044496580,0.284533470,9.922774310,-0.021593270,0.036013120,0.018171970
1640787310.485140,-0.109217030,0.554801400,10.426406860,0.007504230,0.079716750,-0.012744960
1640787310.486420,0.342727720,0.526787100,9.749269490,-0.016997750,-0.018650290,-0.004945690
1640787310.490070,-0.010613600,0.537212010,10.167876240,-0.010970240,-0.022086500,0.000624360
1640787310.491470,0.024485510,0.402942450,9.469808580,-0.044509770,0.058199470,-0.028659410
1640787310.494990,-0.007650820,0.514889060,9.733946800,-0.043097140,0.015394390,0.001184640
1640787310.496420,-0.354891840,0.511605200,10.074375150,-0.087706740,0.042942170,0.011546910
1640787310.500290,0.099115260,0.187322560,9.420062070,-0.087527940,0.027960540,0.015860800
1640787310.501360,-0.223642240,0.180354880,10.188642500,0.008942190,0.017550590,0.014005600
1640787310.505060,-0.176044430,0.100933810,9.768288610,0.001266600,0.042513010,-0.004149970
1640787310.506450,0.049899040,0.041891490,9.626299860,-0.052395470,0.008550290,0.010682640
1640787310.509970,-0.185108480,0.087382440,9.893846510,-0.080364930,0.064815570,-0.002093610
1640787310.511400,0.144369940,0.111930990,9.582871440,-0.068147480,0.047050420,-0.013329090
1640787310.515040,-0.037320870,0.316089030,9.983181950,-0.009602310,0.023561720,0.009477140
1640787310.516760,-0.176707610,0.344662930,9.824797630,-0.031764810,0.027205050,-0.003531570
1640787310.520770,-0.115163440,0.177365990,9.931501390,-0.041301550,-0.008066000,0.002457200
1640787310.521580,-0.362582450,0.024898180,9.799496650,0.005671380,0.040704010,0.005993250
1640787310.525660,-0.099560950,0.045715500,9.580873490,0.018747150,0.019983950,-0.013160710
1640787310.526480,-0.146727860,0.409237770,9.969941140,-0.017842650,0.057566170,0.005082790
1640787310.529960,-0.168397410,0.712201540,9.764507290,-0.116328910,0.031131510,0.000324850
1640787310.531610,-0.002223850,0.735696610,10.055523870,-0.142873840,-0.020569560,0.003708900
1640787310.535030,-0.267567720,0.586402300,9.915153500,-0.053238880,0.028869520,-0.005485120
1640787310.536490,-0.208759960,0.454565050,9.840542790,0.038681930,-0.016686320,-0.026156010
1640787310.540020,-0.457606550,0.315100430,10.420179370,0.030565260,0.015856330,-0.002634530
1640787310.541430,-0.273399440,0.110676290,9.417140960,-0.075420740,0.004598500,0.028772650
1640787310.544980,0.066010970,-0.028782430,9.605110170,-0.126776100,-0.013473630,0.041668120
1640787310.546440,0.234329190,0.156080440,9.464071270,-0.099976370,0.112745170,0.022114820
1640787310.549990,0.488235150,0.455277090,9.602044110,-0.070144240,0.055149200,0.022834540
1640787310.551360,0.194012140,0.455888360,10.758371350,-0.058136880,0.013791020,0.015991930
1640787310.555100,0.172072950,0.239418910,9.562190060,-0.047995150,-0.006854530,-0.004401800
1640787310.556480,-0.085966600,-0.004991770,9.834609990,0.004069510,-0.049984460,-0.007358190
1640787310.559950,-0.596343460,-0.147836070,9.830647470,-0.007908050,0.090366610,-0.012700260
1640787310.561400,-0.450430450,-0.172549140,9.320747380,-0.048378110,0.012755400,0.011578200
1640787310.565060,-0.587270800,-0.021506780,10.298402790,-0.059439240,0.008665030,0.030480330
1640787310.566440,-0.135137990,0.167183070,9.153045650,-0.067786880,0.080102700,0.016008320
1640787310.570250,0.092235590,0.337583900,9.904615400,-0.026494260,0.002460180,0.019644200
1640787310.571400,-0.087257310,0.538557950,10.403972630,-0.014555450,0.087881070,-0.012643630
1640787310.575920,0.281362410,0.387944520,9.542645450,-0.009556110,-0.018964710,-0.013037020
1640787310.576420,-0.144650040,0.369149450,10.525113110,0.014552480,-0.052636870,-0.003993510
1640787310.580320,-0.069244940,0.224697460,9.260381700,-0.020270050,0.058810410,-0.010053810
1640787310.581380,-0.132848520,0.211442430,9.753105160,-0.029228630,-0.016516450,0.012937190
1640787310.585040,-0.612773780,0.393448680,10.515936850,-0.059241060,0.055232640,0.019596520
1640787310.586480,-0.114131490,0.261462000,9.259287830,-0.063979620,-0.013837220,0.010704990
1640787310.590080,-0.279914920,0.499171850,10.327933310,-0.001029670,-0.037223090,0.013510880
1640787310.591430,-0.134529020,0.701014400,9.513149260,-0.029082600,0.087951120,-0.004386900
1640787310.595060,0.146768450,0.689838830,9.739465710,-0.088448820,-0.010089580,0.015345220
1640787310.596660,-0.256082560,0.642964840,10.610131260,-0.115823730,0.033190850,0.019130110
1640787310.599980,0.156641040,0.133370980,9.250836370,-0.065846740,-0.014786420,-0.006543100
1640787310.601370,-0.150465090,0.007821100,10.031632420,0.044737750,-0.059442230,0.014609100
1640787310.605050,-0.292255340,-0.018487710,9.529849050,-0.006459650,0.045859810,0.000792740
1640787310.606500,0.129029930,-0.240339710,9.312636380,-0.091108680,0.002740320,0.026571750
1640787310.610000,-0.186403350,-0.097472100,10.338361740,-0.084982810,0.067931420,0.018002090
1640787310.611620,0.185518970,0.192518400,9.496441840,-0.046838820,0.036720930,-0.010152160
1640787310.614990,0.079481050,0.538008210,10.113118170,-0.016161800,-0.028596820,0.019523500
1640787310.616450,-0.283039060,0.639919640,9.909809110,-0.066880880,0.024563080,-0.011089440
1640787310.620340,-0.159651670,0.281510030,9.657161710,-0.058355930,-0.043404110,-0.016161800
1640787310.621730,-0.548881170,0.071647500,9.969228740,0.039868060,-0.001235310,-0.005429980
1640787310.625170,-0.366142240,-0.078815130,9.396039960,0.052772450,0.024753810,-0.032329560
1640787310.626420,-0.361992180,0.081261900,10.165229800,-0.007045270,-0.001928210,0.016625230
1640787310.630010,-0.318706450,0.346226300,9.856101040,-0.110231340,0.019659100,0.028699640
1640787310.631450,0.114675100,0.349484150,9.698100090,-0.119170550,-0.027683380,0.011426210
1640787310.634980,0.046029520,0.624528350,10.031166080,-0.025272370,0.032608200,0.010171530
1640787310.636810,0.074552890,0.698721890,9.876360890,0.027048590,0.010964270,-0.033047800
1640787310.640060,-0.101706300,0.681190730,10.418410300,-0.000792740,-0.067307050,-0.016100700
1640787310.642260,-0.194564700,0.520654200,9.444533350,-0.060765450,-0.041274730,-0.000171360
1640787310.645330,-0.070950610,0.049184960,9.490085600,-0.075589120,-0.019003450,-0.008572640
1640787310.646420,-0.297094490,0.223490130,10.197432520,-0.042963040,0.077930110,0.001449880
1640787310.649940,-0.179658220,0.372663770,9.778864860,-0.059856480,-0.010760130,0.001399220
1640787310.651430,-0.075059350,0.267945170,10.252531050,-0.086180870,-0.075571240,0.010281800
1640787310.655060,0.160604520,0.319990840,9.139765740,-0.069412600,0.044798850,0.005200510
1640787310.656500,0.208707020,0.151955840,9.627367970,-0.030626360,0.016175210,-0.007179380
1640787310.659960,-0.112650170,0.166677340,10.483937260,-0.016930700,0.050704180,0.005689260
1640787310.661850,0.103964470,0.016382810,9.390226360,-0.045825550,-0.039444870,-0.001518430
1640787310.664990,-0.190873400,-0.285853270,10.354650500,-0.022003050,-0.071440640,0.004273650
1640787310.666450,-0.270784230,-0.223931060,9.333853720,0.006432830,0.051224240,-0.005151330
1640787310.670120,-0.134562250,-0.189028110,9.380857470,0.016137960,-0.044372670,-0.020295380
1640787310.671450,-0.290532560,0.025556640,10.221965790,0.001128020,0.064395370,-0.017642980
1640787310.675370,0.180516690,0.287296090,9.007046700,-0.015193220,0.052319470,-0.022165480
1640787310.677960,-0.031450500,0.513391320,10.456702230,0.006112460,-0.052924450,-0.002959370
1640787310.679970,-0.040772510,0.691157220,9.540644650,-0.019265710,0.057505070,0.002147260
1640787310.681420,-0.037068110,0.457684840,9.601339340,0.002239640,-0.065283470,-0.015102330
1640787310.685050,-0.618719580,0.185152070,10.679994580,0.048448150,0.001680850,-0.017961860
1640787310.686450,-0.265834960,-0.068222340,8.965957640,0.080129500,0.010845060,-0.037184360
1640787310.690070,-0.543398380,-0.154691010,10.441628460,0.088660420,-0.064350670,-0.031250720
1640787310.692550,-0.393188480,0.172777800,9.766580580,-0.009493530,0.081497440,-0.017048420
1640787310.695040,0.161670330,0.391951530,9.311591150,-0.072914360,-0.048536070,-0.004723670
1640787310.696420,-0.039658810,0.622011900,10.529602050,-0.046150390,0.007064640,0.005960460
1640787310.699960,0.489888430,0.846627650,9.071585660,0.009983780,0.053706770,-0.036652380
1640787310.701420,0.100589740,0.941262010,10.642870900,0.057488680,-0.068108740,-0.022508200
1640787310.705160,-0.195496020,0.836198570,10.196002010,-0.014998020,0.000324850,-0.012531880
1640787310.706570,0.047533910,0.228622760,9.089727400,-0.040066250,-0.080592930,-0.014512240
1640787310.710190,-0.511070550,0.038245040,10.278746600,0.001621250,-0.011546910,-0.011827050
1640787310.712280,-0.301601860,0.097370720,9.072587010,-0.019666550,0.074210760,-0.024306770
1640787310.715010,-0.275806930,0.083483560,10.047727580,-0.040164590,-0.056742140,0.004173820
1640787310.716470,-0.239240350,0.178249360,10.072927470,-0.075843930,0.030274690,-0.012861190
1640787310.720000,0.377469600,0.149606930,9.145359990,-0.034734610,-0.009468200,-0.038638710
1640787310.721690,0.046494050,0.240811910,10.390003200,0.031003360,0.017072260,-0.021754200
1640787310.725490,0.066707700,0.258931520,9.664524080,0.010226670,0.038303430,-0.037184360
1640787310.727900,0.003224320,-0.015616490,10.033714290,0.008310380,-0.092159230,-0.015704330
1640787310.729960,-0.405870650,-0.052389770,9.810667990,0.011059640,-0.021401050,-0.006197390
1640787310.731420,-0.268095970,-0.260854480,9.078451160,0.026281180,-0.038822000,-0.019437080
1640787310.735230,-0.506462990,-0.167050990,10.053507800,0.055170070,0.005400180,-0.019505620
1640787310.736460,-0.279166970,0.196577740,9.568059920,0.026588150,0.031302870,-0.046418610
1640787310.740220,-0.078716130,0.327824230,10.054552080,0.016334650,-0.038693840,-0.033138690
1640787310.741540,0.018432490,0.738171460,9.924152370,0.002288820,0.024683780,-0.012259190
1640787310.745620,0.159881010,0.782996770,9.773052220,-0.006368760,-0.030289590,-0.032202900
1640787310.746540,-0.160718860,0.682551210,10.433958050,0.025573370,-0.044868890,-0.012265150
1640787310.749990,-0.172742290,0.512874190,9.388542180,0.038458400,-0.058376790,-0.019668040
1640787310.751390,-0.295167920,0.055564200,9.874714850,0.064662110,-0.086325410,-0.021633510
1640787310.755070,-0.318991010,0.143291090,9.703392030,0.042060020,0.040775540,-0.014400480
1640787310.756800,-0.088872330,0.225257900,9.790631290,-0.032651420,-0.035551190,-0.024226310
1640787310.760040,-0.004473800,0.299757210,10.376471520,-0.063435730,-0.005573030,0.001321730
1640787310.761610,0.388503250,0.585399390,9.234469410,-0.043942030,0.006854530,-0.030215090
1640787310.764980,0.105007380,0.608306170,10.343379970,0.013199450,-0.060279670,-0.036068260
1640787310.766450,0.024215000,0.665788350,9.788610460,0.013548130,0.015068050,-0.012655550
1640787310.770020,0.141077700,0.273949710,9.269439700,-0.013946000,-0.079362100,-0.022964180
1640787310.771790,-0.257757960,-0.213924330,10.162569050,0.016435980,0.012694300,-0.005580480
1640787310.779390,-0.021002690,-0.190809230,9.070664410,0.029614570,0.058092190,-0.016789140
1640787310.780000,-0.291832120,-0.182783900,10.405583380,0.018985570,-0.055247550,-0.007389490
1640787310.780540,-0.229505450,0.029476630,9.807374950,-0.046823920,0.031267110,-0.000330810
1640787310.781400,0.167485340,0.136659860,9.172682760,-0.034320360,-0.046172740,-0.039385260
1640787310.784980,-0.193636690,0.192717420,10.420145030,0.047278400,0.024905800,-0.049541890
1640787310.786440,0.102386420,0.544815060,9.188013080,0.076869130,0.053682930,-0.059314070
1640787310.790370,-0.211150380,0.386882040,10.334321980,0.049801170,-0.097498300,-0.054155300
1640787310.791510,-0.310593990,0.369474620,9.780771260,0.002093610,0.004291530,-0.015614930
1640787310.794950,0.047373610,0.156721650,8.984880450,0.005646050,-0.046655540,-0.012946130
1640787310.796490,-0.480812280,-0.122452550,10.617179870,0.051397090,0.012955070,-0.014917550
1640787310.800020,-0.127937200,0.189355600,9.455816270,0.066287820,0.037662690,-0.024384260
1640787310.801420,-0.224327300,0.188352580,10.307335850,0.042794650,-0.101126750,-0.038947170
1640787310.805740,-0.172781300,0.399059530,9.769140240,-0.010274350,-0.000324850,-0.025224690
1640787310.807260,0.258777620,0.608173910,8.972742080,-0.004376470,-0.026495760,-0.047197930
1640787310.810130,-0.248099070,0.574491020,10.625156400,0.020341580,-0.004322830,-0.038956110
1640787310.811430,0.040454230,0.800322770,9.533607480,0.018627940,0.013948980,-0.021244590
1640787310.814970,-0.095863300,0.405758350,10.188796040,0.020563600,-0.100761660,-0.022336840
1640787310.816470,-0.275652140,0.152015340,10.054848670,0.021177530,-0.000947710,-0.011850890
1640787310.820330,-0.000619300,0.228917930,9.095480920,0.027015810,-0.041891630,-0.017875430
1640787310.821560,-0.197916660,0.091305450,10.114352230,-0.017447770,-0.011496240,-0.017695130
1640787310.825020,0.269946720,0.202126500,9.178057670,-0.057157870,0.057548290,-0.010865920
1640787310.827120,0.191047860,0.153635930,10.083641050,-0.000850860,-0.023281580,-0.030367080
1640787310.829970,0.022468280,0.236863880,10.201758380,0.019586090,-0.001008810,-0.037927930
1640787310.831400,0.083107430,0.243652870,9.389551160,0.022657220,-0.072088850,-0.027333210
1640787310.835160,-0.271083090,-0.147577820,10.074917790,0.017216800,-0.014793870,-0.036935500
1640787310.837300,-0.138490900,-0.084346040,9.245813370,0.045081970,0.041414800,-0.047402080
1640787310.840040,-0.311625900,0.111084360,9.803771970,0.074723360,-0.041198730,-0.033600630
1640787310.841450,-0.169748340,0.300720450,9.718610760,-0.004291530,0.030054160,-0.028036540
1640787310.845020,0.020791120,0.584820030,9.489878650,-0.038853300,-0.017642970,-0.020588940
1640787310.846480,-0.183593230,0.542017220,10.312282560,-0.015750530,-0.016988810,-0.032156710
1640787310.849970,0.225871190,0.492496460,9.382687570,0.039981310,0.020718580,-0.051184010
1640787310.851700,-0.102921140,0.488742620,10.253162380,0.095994770,-0.016078350,-0.055977710
1640787310.855380,-0.183328490,0.378007560,10.138816830,0.022216140,0.016824900,-0.043368340
1640787310.856510,-0.110978660,0.245055140,9.405740740,-0.028811400,-0.072459880,-0.019307430
1640787310.860160,-0.397740540,0.131931190,9.850235940,-0.034162400,-0.038169330,-0.008858740
1640787310.861420,0.063126850,0.198152450,9.132822040,-0.009731950,0.053191180,-0.027887520
1640787310.865030,-0.259329970,0.456222980,10.401641850,0.031457850,-0.001074370,-0.015889110
1640787310.866520,-0.093567650,0.642618890,10.248047830,-0.022296610,-0.003039840,-0.015255810
1640787310.870040,0.233489980,0.590513050,9.569958690,-0.057981910,-0.049373510,-0.024437900
1640787310.871700,-0.181146000,0.589384140,10.096200940,-0.041967630,-0.014489890,-0.026728210
1640787310.875120,0.071682800,0.599420960,9.351591110,-0.044031440,0.020530820,-0.028187040
1640787310.876860,-0.192091300,0.241644430,9.945956230,-0.018046800,-0.033399460,-0.018753110
1640787310.879960,-0.207703520,0.082957010,9.808828350,-0.007666650,-0.011366610,-0.018127260
1640787310.881440,0.071146120,-0.060760410,9.518483160,-0.002555550,-0.016552210,-0.010034440
1640787310.885020,-0.112516550,-0.126270980,9.965491290,-0.029566890,0.030225520,-0.003609060
1640787310.887380,0.203682720,0.120197710,9.667751310,-0.074665250,0.032742330,-0.018599630
1640787310.890010,0.163572310,0.169159350,9.908019070,-0.065475710,0.014616550,-0.019335750
1640787310.891590,0.082226860,0.373652640,9.599203110,-0.024853650,0.002489980,-0.016558170
1640787310.894980,-0.126445400,0.411706150,9.741075520,-0.013233720,-0.018747150,-0.020901860
1640787310.896470,-0.543611590,0.072526050,9.917602540,-0.001636150,-0.020182130,-0.027793650
1640787310.900460,-0.443951870,-0.085650030,9.538663860,0.027211010,-0.033879280,-0.019076470
1640787310.901410,-0.493249210,-0.250380370,9.873216630,0.036631520,0.023743510,-0.036522750
1640787310.905050,-0.145480570,-0.077836520,9.591862680,0.009205940,0.063145150,-0.013798470
1640787310.906540,-0.010256040,0.269080340,10.314994810,-0.035771720,0.003317000,-0.011736150
1640787310.909970,0.057490560,0.436578330,9.973404880,-0.063736740,-0.001369420,-0.013148790
1640787310.911430,0.290086630,0.608618500,9.338135720,-0.019830470,-0.073117020,-0.007502740
1640787310.915230,-0.125738870,0.587076430,9.998253820,0.028659410,0.007060170,-0.040127340
1640787310.916970,-0.171155990,0.502546910,9.603368760,0.031620270,0.017739830,-0.041548910
1640787310.920240,-0.425875460,0.504102650,10.352312090,-0.005438920,-0.075694920,-0.022341310
1640787310.921540,-0.439163210,0.257827910,9.873068810,-0.067655740,-0.004273650,-0.018966200
1640787310.926240,0.008016300,0.238279720,9.283840180,-0.060433160,-0.012212990,-0.006434320
1640787310.926790,-0.369960960,0.493030610,10.543121340,-0.045274200,0.033429270,-0.006377700
1640787310.929920,0.029794990,0.518380760,9.581737520,-0.062762200,0.012618310,-0.006973740
1640787310.931640,0.170552570,0.558076320,9.825448990,-0.065270060,-0.107215340,0.004810090
1640787310.935050,0.062720600,0.374414470,9.593741420,-0.067661710,0.038203600,-0.022257860
1640787310.936480,0.359210130,0.237892970,9.268473630,-0.044302650,0.015999380,-0.033450130
1640787310.940080,-0.231706400,0.186388150,10.635179520,-0.041912510,-0.018867850,-0.013333560
1640787310.941450,-0.018537860,-0.170175900,9.465515140,-0.070704520,-0.003080070,-0.008933250
1640787310.944990,-0.092313590,-0.192963410,9.789468770,-0.028416510,-0.067929920,-0.005327170
1640787310.946450,-0.444580050,-0.070886430,9.833065030,-0.023587050,0.030684470,-0.013369320
1640787310.949960,0.092727070,0.034262490,9.132224080,-0.062213850,0.000458960,-0.015193220
1640787310.951400,-0.147828800,0.266493140,10.227664950,-0.060050190,0.035958000,-0.020569560
1640787310.955350,0.200440170,0.362428100,9.549902920,-0.057949140,0.047999620,-0.029219690
1640787310.956490,0.193412360,0.429304090,9.960243230,0.005702670,-0.031219420,-0.017830730
1640787310.959960,-0.183098420,0.382291620,9.917018890,-0.018100440,0.004570190,-0.023745010
1640787310.961420,-0.074725610,0.084309490,9.571125980,-0.037609040,-0.039704140,-0.007501250
1640787310.965010,-0.524145540,-0.132891610,10.129006390,0.000552830,-0.006000700,-0.008453430
1640787310.966490,-0.330642850,-0.184362230,9.399779320,0.002200900,-0.000713770,-0.032630570
1640787310.969960,-0.174882230,0.103122610,9.900834080,0.006808340,0.004740060,-0.015951700
1640787310.971790,-0.197158710,0.463735580,9.893604280,-0.080302380,0.065067410,-0.034536430
1640787310.975080,0.121273060,0.660565850,9.944555280,-0.111368310,-0.043933090,-0.021611150
1640787310.976860,-0.005000170,0.715637560,10.024682040,-0.048257420,-0.004528460,-0.016407670
1640787310.980250,0.042666370,0.577810700,9.491114620,0.011989470,-0.018684570,-0.046029690
1640787310.981450,-0.203364910,0.597321630,10.267888070,0.027130550,-0.030343230,-0.010573860
1640787310.984980,-0.221048000,0.338701400,9.692435260,-0.070121890,0.023077430,0.007838010
1640787310.986560,0.013854620,-0.083503850,9.751648900,-0.100374230,-0.032489000,0.013491510
1640787310.990090,-0.150318460,0.156449930,10.050171850,-0.056801740,0.044752670,0.006043910
1640787310.991480,0.157972870,0.247868030,9.280474660,-0.063985590,0.021919610,-0.021392110
1640787310.994980,-0.036657210,0.333340640,10.242785450,-0.069041560,-0.029082600,-0.007151070
1640787310.997100,0.037816740,0.343349930,9.494694710,-0.076095760,0.032892830,-0.037485360
1640787310.999970,0.104088050,0.114559260,9.587228780,-0.030367080,-0.031894450,-0.045175850
1640787311.001430,-0.346522180,0.296232370,10.188097000,-0.011089440,0.037474930,-0.021150710
1640787311.005280,-0.069004030,0.134613470,9.355000500,-0.073346500,0.021496420,-0.028273470
1640787311.006540,-0.332654210,-0.089658680,10.400427820,-0.065054010,-0.033827130,0.018261370
1640787311.009920,-0.253421160,0.041464560,9.465681080,-0.028835240,0.034765900,0.000759960
1640787311.011640,-0.005957070,-0.162629590,9.462712290,-0.006465620,-0.030013920,-0.021211800
1640787311.014950,-0.241657810,0.104606260,10.071304320,-0.009678300,0.068779280,-0.020788610
1640787311.016480,0.198192810,0.250852640,9.391927720,-0.049906970,0.020267070,-0.056253380
1640787311.019960,0.005751620,0.276883160,10.422399520,-0.047992170,-0.028640040,-0.036406520
1640787311.021560,0.020512570,0.723945260,9.498650550,-0.052310530,0.020897390,-0.030624870
1640787311.025240,-0.070603560,0.511122580,9.880686760,-0.055274380,-0.040149690,-0.026555360
1640787311.026470,-0.526092470,0.537936030,10.303959850,-0.052252410,0.023415690,0.002332030
1640787311.029970,-0.332195700,0.410590260,9.355467800,-0.036294760,-0.041854390,-0.014056270
1640787311.031460,-0.458503780,0.048284270,10.130681040,-0.009070340,-0.031118100,-0.019241880
1640787311.034970,-0.175638090,0.415175590,9.180448530,-0.042112170,0.077638020,-0.012797120
1640787311.036450,-0.000861190,0.406607720,9.993126870,-0.119899210,-0.011414290,-0.013589860
1640787311.040080,0.091375490,0.408226520,10.196480750,-0.152711570,0.041165960,-0.003960730
1640787311.041500,0.386214110,0.463302020,9.296917920,-0.079123680,-0.021396580,-0.022923950
1640787311.045120,-0.032913380,0.247068170,10.549420360,-0.015035270,-0.027211010,-0.022669140
1640787311.046430,-0.004609420,0.261297140,9.300703050,-0.035786620,0.017555060,-0.007745620
1640787311.049950,-0.085923140,-0.095768330,9.619503020,-0.068701810,-0.071483850,-0.001864140
1640787311.051440,-0.093551550,-0.292963270,9.695678710,-0.072997820,0.100840630,-0.006023050
1640787311.055370,0.171406480,0.032366440,9.189113620,-0.053857270,0.064815590,0.003269310
1640787311.056500,-0.310677140,0.115481700,10.869688030,-0.081351410,-0.000621380,0.003832580
1640787311.061660,0.081411180,0.253450540,9.269663810,-0.109331330,0.021965810,-0.000640750
1640787311.062220,-0.230834920,0.122994420,9.776999470,-0.028838220,-0.080902880,-0.027783220
1640787311.064960,-0.437367230,0.011968030,9.820720670,0.009278950,0.057736040,-0.045418740
1640787311.066500,-0.155801850,0.080105340,9.127764700,0.024297830,0.021523240,-0.024177130
1640787311.070010,-0.531073450,-0.122625400,10.650881770,-0.014898180,-0.001460310,-0.002585350
1640787311.071620,0.018146530,0.005031130,9.274753570,-0.051355360,0.033561890,0.017695130
1640787311.076020,-0.016862450,0.065456500,9.854060170,-0.021633510,-0.052073600,0.026281180
1640787311.078420,-0.050784470,0.150987370,10.051146510,-0.033116340,0.068667530,0.004173820
1640787311.079960,0.247976270,0.388051900,9.477194790,0.010991100,0.013069810,-0.015547870
1640787311.081440,-0.334309520,0.314716960,10.545272830,0.019016860,-0.048232080,-0.023943190
1640787311.084970,-0.045709330,0.413970560,9.239891050,-0.006650390,-0.011774900,-0.025266410
1640787311.086450,-0.340950160,0.370537400,9.722308160,-0.003749130,-0.028483570,-0.019921370
1640787311.090060,-0.575935360,0.363989650,10.140399930,-0.041939320,0.027620790,-0.009512900
1640787311.091450,-0.271631870,0.397760330,9.729091640,-0.041556350,-0.015011430,0.014813240
1640787311.095050,-0.352150200,0.216764330,10.186506270,-0.007830560,-0.023049120,0.016734010
1640787311.096440,0.124413680,0.368829580,9.592051510,-0.001926720,0.016799570,-0.001668930
1640787311.099930,0.107093710,0.578211430,9.779693600,-0.029428300,0.004966560,0.011186300
1640787311.101450,0.269645690,0.513380290,9.615661620,-0.109736630,0.005906820,0.013236700
1640787311.105190,0.332870660,0.246968630,9.708061220,-0.073449320,0.011768940,0.003351270
1640787311.106530,-0.030892130,0.138429270,10.051016810,0.021997100,0.001457330,-0.012008850
1640787311.111700,-0.109609680,0.023466880,9.785936360,0.034008920,-0.064234440,-0.010827180
1640787311.112260,-0.325928690,-0.089516190,9.634425160,-0.016126040,-0.013479590,0.006134810
1640787311.115010,-0.146826130,-0.197848350,9.308292390,-0.066870460,0.051184000,-0.005963440
1640787311.116540,-0.202039810,-0.038027650,9.999592780,-0.025159120,0.039234750,0.006386640
1640787311.119980,-0.177191600,0.376333590,9.739767070,-0.001543760,0.018629430,0.008164350
1640787311.121650,0.107868970,0.447742970,9.583995820,-0.041165950,-0.042401260,0.015780330
1640787311.125540,-0.255539090,0.445873470,10.008193970,-0.034236910,0.002349910,0.008121130
1640787311.126510,-0.098724570,0.150198370,9.359333990,-0.003829600,-0.009953980,-0.020740930
1640787311.129940,-0.243191120,-0.048370860,10.080671310,0.065626200,-0.025530170,-0.017228720
1640787311.131470,-0.264945780,0.056243040,9.679224010,0.049223000,0.040625030,-0.025402010
1640787311.135000,0.001467910,0.078910220,9.763320920,-0.042262680,-0.033363700,-0.010514260
1640787311.136490,-0.348777800,0.294107880,10.165813450,-0.078870360,-0.012412670,0.023239850
1640787311.143410,0.114597570,0.314423170,9.099449160,-0.054921210,-0.021077690,-0.001232330
1640787311.145080,-0.070761370,0.397891640,10.212348940,0.020137430,-0.005094710,-0.003655260
1640787311.145480,-0.282286020,0.588340760,9.979336740,0.040867940,0.034408280,0.001186130
1640787311.146490,-0.023234080,0.342334240,9.825581550,0.000503660,-0.098247830,0.007484850
1640787311.149970,-0.319305330,0.265756310,9.973068240,-0.034335260,-0.025261940,0.015941260
1640787311.151500,-0.054634620,0.342376770,9.029077530,-0.063049790,0.006754700,0.002864000
1640787311.155520,-0.310676310,0.295512910,10.360980030,-0.055313120,-0.023713710,0.016991790
1640787311.157910,-0.226071920,0.381389350,9.537703510,-0.040888790,0.004023310,0.021994120
1640787311.160010,0.196274410,0.266950490,9.581688880,-0.009831790,-0.078511240,0.007639830
1640787311.162330,0.008328960,0.266677140,10.017745020,0.005002320,0.053799150,0.003741680
1640787311.165040,0.301651720,0.385718910,9.238436700,-0.052154060,0.000914930,0.008034710
1640787311.166480,0.141713800,0.219982040,10.386809350,-0.078456100,-0.029043850,0.022618470
1640787311.169980,0.129718200,0.053497610,9.271665570,-0.059127810,0.038614870,0.011941790
1640787311.171930,-0.079971980,-0.011234490,9.803881650,0.029453640,-0.093612070,0.001490120
1640787311.175200,-0.512215500,-0.093996440,9.857016560,0.027126070,0.013823810,0.008690360
1640787311.176520,-0.191133050,-0.197775950,8.804837230,-0.011345740,-0.018624960,-0.005006790
1640787311.179940,-0.432567210,-0.151767340,10.381093980,-0.006388130,0.027541820,-0.002855060
1640787311.181440,-0.079620820,0.182548930,9.350985530,-0.013828280,0.089195370,-0.004234910
1640787311.184970,-0.028047940,0.372847110,10.041936870,0.009532270,-0.082290180,0.017513330
1640787311.186490,-0.174349930,0.530607160,10.009484290,-0.024147330,0.022052230,0.020287930
1640787311.190580,0.173994900,0.311860440,8.923414230,-0.002473590,-0.037209690,0.017069280
1640787311.193840,-0.342724200,-0.029432940,10.375528340,0.081515300,-0.032542640,0.015521050
1640787311.195010,-0.085552900,-0.101835030,9.153501510,0.102506560,0.050310790,-0.017644460
1640787311.196480,-0.164487590,-0.008398110,9.977236750,0.067204240,-0.061306360,-0.002925100
1640787311.199960,-0.277079310,0.407356110,10.072360990,-0.056974600,0.043614220,0.006197390
1640787311.201450,0.122210130,0.531004670,9.136358260,-0.093536080,-0.027529900,-0.004659590
1640787311.205050,-0.279604140,0.767653640,10.374731060,-0.013008720,-0.031891470,0.004452470
1640787311.206730,-0.156816390,0.969987090,9.578096390,0.033809240,0.033684070,-0.015005470
1640787311.210970,-0.311907590,0.642865000,10.162437440,0.052034850,-0.084783140,0.015629830
1640787311.211470,-0.432118300,0.365142350,9.986366270,0.009992720,-0.042407210,0.032337010
1640787311.215010,0.050124050,-0.035226370,8.953616140,-0.018231570,-0.010330980,0.025627020
1640787311.216520,-0.094698090,-0.088287140,10.018549920,-0.019846860,0.036056340,0.032237180
1640787311.220470,0.185142430,0.186200620,9.697331430,-0.063511740,0.053268670,0.017893310
1640787311.221510,0.276583520,0.083699580,9.985425000,-0.057674950,-0.059145690,0.008532410
1640787311.225080,0.209963280,0.362937570,9.604224210,-0.016675890,-0.023759900,-0.011277200
1640787311.227590,0.198743360,0.435481040,9.230587960,0.005230310,-0.004534420,-0.016158820
1640787311.229980,-0.215229350,0.262785320,10.107938770,-0.001628700,0.026811660,0.010691580
1640787311.231460,-0.139074300,0.290601880,9.539873120,-0.021360810,0.006915630,0.023590030
1640787311.235080,-0.321964500,0.025597610,10.053303720,-0.009611250,-0.032489000,0.030280660
1640787311.236600,-0.216978000,0.074357780,9.409827230,-0.013782080,0.026373570,0.039170690
1640787311.240070,-0.191512570,-0.023240460,9.608949660,-0.017216800,-0.006370250,0.016018750
1640787311.241480,-0.238433760,-0.107867850,9.931183820,0.008800630,0.033007570,0.001177190
1640787311.245030,0.206372890,0.104474870,9.044064520,0.034369530,0.008586050,-0.018478930
1640787311.246490,-0.053541010,0.143251200,10.158554080,0.037983050,0.011488800,-0.012348590
1640787311.249960,0.121149190,0.383624050,9.597693440,0.000216070,0.054378810,0.008490680
1640787311.251650,-0.090649950,0.456606750,10.070352550,-0.038506090,-0.063155580,0.014118850
1640787311.255030,-0.335200670,0.342865230,10.024952890,-0.014646350,0.007189810,0.020110610
1640787311.256920,-0.058676820,0.392076550,9.112892150,0.051122910,-0.001798570,0.004801150
1640787311.260280,-0.559496880,0.380884800,10.391476630,0.065724560,0.004342200,-0.006778540
1640787311.261460,-0.201721310,0.616864860,9.429460530,-0.013801460,0.029399990,0.015676020
1640787311.264960,-0.009268970,0.567300320,9.654627800,-0.085911140,-0.040926040,0.021809340
1640787311.266510,-0.091042760,0.429773270,9.932154660,-0.080539280,0.067180400,0.013411040
1640787311.270050,0.265491840,0.584926660,9.539077760,-0.012463330,0.023365020,0.006623570
1640787311.272030,-0.151663840,0.309838090,10.448243140,0.009873510,-0.038363040,0.014734270
1640787311.275030,0.167145090,0.023349280,9.219787600,-0.009971860,0.008016820,0.029648840
1640787311.276870,0.073249730,-0.260246190,9.547223090,0.013855100,-0.006298720,0.017932050
1640787311.279970,-0.175923990,-0.317643370,9.803372380,0.002831220,0.059822200,0.008770820
1640787311.281430,0.054486260,0.054848820,9.479820250,-0.031504030,0.014677640,0.027483700
1640787311.285100,-0.249748890,0.076668430,10.196837430,-0.061500070,0.005257130,0.017715990
1640787311.286500,-0.078532230,0.249645950,9.472549440,-0.017943980,-0.006467110,-0.002057850
1640787311.290070,-0.272606820,0.521946970,9.704285620,0.049220030,-0.023931270,-0.010259450
1640787311.291520,-0.264269170,0.302141760,9.508301730,0.024215880,0.051446260,-0.014489890
1640787311.294980,-0.156023400,0.322614340,9.770221710,0.026673080,0.020062920,0.006160140
1640787311.296460,-0.240509390,0.180573120,10.065944670,0.006386640,0.011999910,0.011678040
1640787311.300040,0.147412050,-0.008092920,9.310458180,0.004908440,-0.004288550,0.031308830
1640787311.301570,-0.121891170,0.199479520,10.034813880,0.019678470,0.018779940,0.025081630
1640787311.305160,-0.063612870,0.058642440,9.749582290,-0.018933420,0.036793950,-0.000317390
1640787311.306510,-0.065538870,0.182782870,9.931314470,0.028011200,-0.040777030,0.007128720
1640787311.309910,-0.248277690,0.319194230,9.882190700,0.044706470,0.014716390,-0.023068490
1640787311.311490,0.031840460,0.343191680,9.362141610,0.029751660,0.002065300,-0.013537710
1640787311.315230,-0.457716350,0.737340450,10.348873140,-0.006052850,0.000648200,0.002413990
1640787311.316700,-0.173288430,0.709500010,9.530099870,-0.076606880,0.004073980,0.007756050
1640787311.319990,-0.035443870,0.513469580,9.794038770,-0.030580170,-0.033096970,0.035014750
1640787311.321690,-0.243907880,0.602093340,10.026656150,0.025565920,0.046581030,-0.000226500
1640787311.324990,0.201220110,0.472120940,9.537630080,-0.005707140,-0.004446510,0.016871090
1640787311.326740,-0.062632730,0.339452560,10.037805560,-0.042779740,-0.009652970,0.030368570
1640787311.329940,0.277955140,0.078038420,9.123246190,-0.084309270,0.033207230,0.006102030
1640787311.331780,0.256828610,-0.094774940,9.738074300,-0.021921100,0.033187870,0.019112230
1640787311.334950,-0.169365080,0.095069140,9.994256970,0.008945170,0.049859290,0.006456670
1640787311.336470,-0.036524750,-0.050991660,9.796590810,-0.040856010,-0.055980690,-0.006626550
1640787311.340100,-0.306558850,-0.030534680,9.810306550,-0.035727030,-0.004877150,0.008851290
1640787311.341490,-0.192334180,0.002977380,9.077465060,-0.000733140,0.049717730,-0.020977860
1640787311.344960,-0.250243810,0.144193530,10.019831660,0.028452270,0.043506920,-0.018276270
1640787311.346530,-0.232084330,0.552730560,9.614931110,-0.011278690,0.059252980,0.002875920
1640787311.349990,-0.003922590,0.413296970,9.831298830,-0.064823030,-0.050622230,0.012415650
1640787311.351440,-0.053341620,0.340496720,9.832663540,-0.035829850,0.041548910,0.028766690
1640787311.355660,0.057220600,0.172622130,9.231810570,0.024101140,0.022822620,0.005467240
1640787311.356590,-0.146683290,-0.097014110,10.474949840,0.070470570,0.015240910,-0.014345350
1640787311.360030,-0.058713610,0.062802960,9.425900460,0.033105910,0.063535560,-0.012232360
1640787311.361420,-0.079632950,0.044603370,9.790084840,-0.025957820,-0.066952410,-0.006127360
1640787311.364980,-0.279043640,0.106965530,9.940336230,-0.050756340,0.056827070,0.003883240
1640787311.366530,-0.083374900,0.361375570,9.110148430,-0.011920930,0.012813510,-0.019952660
1640787311.369950,-0.530851660,0.517451820,10.748971940,0.027783220,-0.037500260,-0.010126830
1640787311.371740,-0.130473610,0.709106500,9.169909480,0.006014110,0.051723420,0.003694000
1640787311.375130,-0.030084190,0.554208760,9.837371830,0.002138320,-0.048294660,-0.002397600
1640787311.376690,-0.169264780,0.633550880,10.306932450,-0.026786330,0.093393030,0.014372170
1640787311.380030,0.289919080,0.619526740,9.050853730,-0.067284700,0.022503740,0.018374620
1640787311.381500,-0.069642230,0.358477440,10.432739260,-0.056780880,-0.053678460,0.033758580
1640787311.385020,0.219050050,0.233774140,8.939807890,-0.035154820,0.080001360,0.015045700
1640787311.386600,0.096648800,0.035229020,9.627486230,0.010512770,-0.016339120,0.000058110
1640787311.390100,-0.368147490,-0.012692990,10.497025490,-0.018994510,0.067198280,0.007136170
1640787311.391520,0.188347560,-0.104123560,8.911022190,-0.038576130,0.015679000,-0.001817940
1640787311.395110,-0.195829000,-0.091247190,10.240788460,-0.022844970,0.012217460,0.004720690
1640787311.396720,-0.096071950,0.315809100,9.352839470,-0.029960280,0.115963820,0.012886530
1640787311.399980,-0.116424860,0.346815440,9.711566930,-0.029560920,-0.026509170,0.008031730
1640787311.401460,-0.429923180,0.303611280,10.149404530,-0.027543310,0.017073750,0.004269180
1640787311.405360,-0.032897010,0.279112640,8.900430680,0.018340350,0.019821520,-0.010314580
1640787311.406920,-0.279423060,0.082170280,10.074175830,0.052730740,0.034350160,-0.007911030
1640787311.410020,-0.103435280,0.227582040,9.616281510,0.012339650,0.104108450,0.003658240
1640787311.411620,-0.056569590,0.223814580,9.964884760,-0.028076770,-0.020667910,0.008676950
1640787311.414970,-0.151831840,0.191409830,10.029360770,-0.064691900,0.011622910,0.021567950
1640787311.416530,0.037624760,0.235462010,9.188821790,-0.014244020,0.002968310,0.008380410
1640787311.420040,-0.317425520,0.093843160,10.121813770,0.050058960,0.018490850,-0.016906860
1640787311.421500,-0.276932180,0.316502120,9.728815080,0.052051250,0.041919950,-0.018543000
1640787311.425080,-0.381626870,0.293488890,10.138016700,0.013940040,-0.041721760,-0.006286800
1640787311.428260,-0.207254860,0.255376100,9.778634070,-0.038120150,0.016586480,0.004047160
1640787311.429960,-0.011309270,0.450006220,9.463078500,-0.016742940,0.020499530,-0.005383790
1640787311.431500,-0.234947860,0.645508830,10.230478290,-0.008820000,0.040175020,0.002510850
1640787311.434960,0.144008730,0.699449420,9.513426780,-0.042256710,0.010380150,0.020685800
1640787311.436510,-0.044270090,0.413084360,9.997464180,-0.019854310,-0.033606590,0.016102190
1640787311.440230,0.171176960,0.236559700,9.397557260,0.009618700,0.034593050,0.010859970
1640787311.441450,0.190160330,-0.006619990,9.458173750,0.016140940,0.027325750,-0.003984570
1640787311.445360,-0.138834660,-0.155140830,10.156657220,-0.013624130,0.063326950,0.012557210
1640787311.446670,0.089487160,-0.251405180,9.600178720,-0.035643570,0.011125210,0.007115300
1640787311.449990,-0.371512500,-0.308043570,10.130715370,0.020167230,-0.041541460,0.007502730
1640787311.451590,-0.210771200,0.009678680,9.123613360,0.031363970,0.018954280,-0.002348420
1640787311.455340,-0.128213940,0.063289160,9.410813330,0.011874740,0.039871040,-0.013279910
1640787311.456590,-0.293528770,0.184322910,10.046610830,0.023649640,0.086161520,-0.011442600
1640787311.461930,0.126755580,0.435619150,9.604752540,0.048840050,0.002345440,-0.019134580
1640787311.462630,-0.080169940,0.412059100,10.001757620,0.044618550,-0.007230040,-0.003549460
1640787311.464950,0.067358640,0.458164040,9.348379140,0.007313490,0.041690480,0.017558040
1640787311.466520,-0.025470210,0.202080230,9.906064990,0.010930000,0.016944110,0.002461670
1640787311.469980,-0.231625230,-0.085104000,9.773559570,0.064143540,0.042024250,-0.000272690
1640787311.471800,0.045168300,0.018840030,9.432311060,0.098480280,0.004784760,-0.011825560
1640787311.475940,-0.349760120,0.024357400,10.174749370,0.058366360,0.053386400,-0.017704070
1640787311.476870,-0.157343670,0.329549100,9.506587980,-0.014835600,0.004154440,0.004903970
1640787311.479950,-0.253099050,0.490581900,9.977622030,-0.033353280,-0.023165350,0.005234780
1640787311.481480,-0.254194170,0.427562980,9.606279370,0.014819200,0.056613990,-0.014477970
1640787311.484990,-0.175418820,0.726437930,9.919264790,0.086051230,-0.009746850,-0.012966990
1640787311.486510,-0.451622640,0.664005340,10.368100170,0.055632000,0.010645390,-0.012233860
1640787311.490070,0.047686220,0.471476640,9.189474110,-0.016897920,-0.015887620,0.011044740
1640787311.491580,-0.024391560,0.460449040,10.033785820,-0.020140410,0.009682770,0.028595330
1640787311.495140,0.229888320,0.290640770,9.390553470,-0.027947130,0.102767360,0.005143880
1640787311.496500,0.234011430,0.425378320,9.926609990,-0.012896960,-0.014550990,0.016906860
1640787311.499950,-0.092185740,0.360603870,10.240263940,-0.031720110,0.012175740,0.013829770
1640787311.501520,0.219933410,0.002651960,9.070235250,-0.017872450,-0.010435280,0.000883640
1640787311.505450,-0.379300330,0.055168610,10.152673720,0.042957070,-0.012476750,-0.007338820
1640787311.506700,-0.316228330,-0.093495540,9.310685160,0.002095100,0.070148710,-0.016103690
1640787311.511020,-0.164158760,-0.149677230,9.639191630,0.013364850,-0.002203880,0.018766520
1640787311.511950,-0.446061040,0.067601260,10.147369380,0.001177190,0.064076490,0.003206730
1640787311.514990,0.006278180,0.122785340,9.279307370,-0.009256600,0.004611910,0.004918870
1640787311.516540,-0.264072480,0.289723750,10.098455430,0.024537750,-0.024339560,0.023888060
1640787311.519990,-0.058640900,0.249781060,9.196217540,0.014743210,0.047937040,-0.023001430
1640787311.521770,0.186172100,0.196179460,9.534089090,0.059263400,0.006744270,-0.018744170
1640787311.525100,-0.121063030,0.302780570,10.004380230,0.066868970,0.080049050,-0.008739530
1640787311.526560,0.160570470,0.124762460,9.757222180,0.032563510,-0.000382960,-0.005975370
1640787311.529960,-0.228507490,0.187099670,10.174746510,0.020420550,-0.028166180,0.020480160
1640787311.531500,-0.215466650,0.119910890,9.179746630,0.003238020,-0.012871620,0.002656880
1640787311.534980,-0.276697580,-0.070585110,9.683110240,0.060139600,-0.003625450,-0.004017350
1640787311.536620,-0.432091770,0.312919860,9.670798300,0.079850870,0.076816980,-0.025750700
1640787311.540220,-0.301344540,0.408138390,10.072422030,0.038081410,-0.019413230,-0.036510830
1640787311.541500,-0.342933650,0.632639880,10.081617360,-0.009413060,-0.015567250,-0.005835290
1640787311.545060,-0.049696380,0.643361330,9.184773450,-0.035950540,-0.024472180,-0.018312030
1640787311.546520,-0.184894430,0.467057350,10.225552560,0.029385090,0.002352890,-0.010460620
1640787311.549960,-0.101542700,0.633227830,9.614579200,0.060249870,0.055114930,0.000834470
1640787311.551520,0.025065300,0.325142260,9.925769810,0.017257040,-0.076846780,0.002448260
1640787311.555250,0.082117170,0.213721800,9.826161380,-0.014179950,0.031931700,0.028747320
1640787311.556630,0.383908870,0.186733990,8.925022130,-0.033451620,0.021848090,0.000083450
1640787311.561230,-0.030306960,0.159636170,10.369186400,-0.023569170,-0.009952490,0.000754000
1640787311.562220,0.117574070,0.324850200,9.300392150,-0.030313430,0.054126970,-0.001475210
1640787311.565000,-0.034904470,0.069707480,9.791369440,-0.006228690,-0.066931550,-0.029799340
1640787311.566570,-0.462501230,0.047231270,10.247849460,0.036641960,0.022679570,-0.017563990
1640787311.570000,-0.167732610,0.048655080,8.815217970,0.030119720,0.004722180,-0.019852820
1640787311.571920,-0.492586280,-0.184276360,10.247347830,0.013768670,-0.018320980,-0.012692810
1640787311.575030,-0.024805720,0.051658380,9.100669860,-0.005027650,0.104732810,0.003063680
1640787311.576570,0.171058390,0.113117390,9.591131210,0.017556550,-0.020396710,-0.004519520
1640787311.579940,-0.072621160,0.277578230,10.193901060,0.007890160,0.042204560,0.005517900
1640787311.581520,0.411580770,0.455829590,8.964743610,-0.000727180,0.018543000,-0.013028090
1640787311.584950,-0.147289920,0.148084770,10.493795390,0.023344160,-0.018653270,-0.020113580
1640787311.586740,-0.120645810,0.230331790,9.338701250,0.064083930,0.054523350,-0.014963750
1640787311.590260,-0.201771780,0.101986900,9.594026570,0.073303280,-0.054799020,-0.028401620
1640787311.591560,-0.599220930,0.066168850,10.103349690,0.016440450,0.042553250,-0.009475650
1640787311.594970,-0.291315380,0.294058080,9.201480870,-0.019963090,0.009173150,-0.009754300
1640787311.596510,-0.570836130,0.162962570,10.307262420,-0.004456940,-0.035008790,-0.025656820
1640787311.599940,-0.130908030,0.443074610,9.346321110,0.033783920,0.040160120,-0.033870340
1640787311.601520,-0.057637540,0.702932600,9.929914470,0.060591110,-0.002481040,-0.035001340
1640787311.605080,-0.066387850,0.609139500,10.236684800,-0.019109250,0.042907890,-0.010967250
1640787311.607880,0.312781660,0.605810170,9.342251780,-0.036482510,-0.027590990,-0.000227990
1640787311.610270,0.101208210,0.306966540,9.936556820,-0.014194850,-0.004731120,-0.013957920
1640787311.611490,0.148718680,0.224204180,9.305543900,0.006781520,0.048044320,0.003977120
1640787311.614960,-0.221696320,0.108069300,9.972216610,0.014230610,-0.053384900,0.005318220
1640787311.616550,-0.179990540,-0.209448670,9.632097240,-0.026321420,0.012072920,-0.004220010
1640787311.620160,0.046090120,-0.112430710,9.136174200,0.006265940,0.017994640,-0.012595950
1640787311.621720,-0.308952120,0.044660930,10.187208180,0.011684000,0.067631890,-0.031448900
1640787311.625020,-0.031668130,0.245241850,9.674650190,-0.024396180,0.045102830,-0.019516050
1640787311.626600,-0.309079950,0.311832250,10.098728180,-0.004659590,-0.069056450,-0.011526050
1640787311.629970,-0.161559540,0.174111110,9.379191400,0.018021470,-0.005553660,-0.027981400
1640787311.631490,-0.105946490,0.060963930,9.134469990,0.074645900,0.008963050,-0.021128360
1640787311.635190,-0.410809960,0.008491660,9.954518320,0.069487100,0.051586330,-0.025929510
1640787311.636600,0.108883690,-0.034724980,9.577012060,0.015141070,0.038447980,-0.006444750
1640787311.640070,-0.020181710,0.059764250,10.064708710,0.010107460,-0.016996260,0.012879070
1640787311.641530,0.105248480,0.221870750,9.540076260,0.001659990,0.010503830,-0.002178550
1640787311.645000,0.042328000,0.283067730,9.646537780,0.020404160,-0.000898540,-0.018341840
1640787311.646500,-0.428615570,0.338853090,9.973657610,0.053970520,0.006812810,-0.037044280
1640787311.649960,-0.313367840,0.244716440,9.755293850,0.061310820,-0.037752080,-0.047579410
1640787311.651630,-0.613756300,0.143054620,9.955747600,0.096203380,-0.027932220,-0.031578540
1640787311.655380,-0.379818080,0.239621280,9.419295310,0.066740820,-0.001218910,-0.037004050
1640787311.656590,-0.266641380,0.423001110,9.981637000,-0.005006790,0.018504260,-0.019881130
1640787311.660010,-0.112158190,0.634524520,9.620299340,-0.051265960,0.027588010,0.008627770
1640787311.661480,0.288268570,0.568319500,9.762144090,-0.018145140,-0.043326610,-0.004051630
1640787311.664980,0.153534810,0.661750970,9.919164660,0.046306850,0.009290870,-0.026971100
1640787311.666520,0.334844050,0.640975710,9.176184650,0.025981660,-0.034280130,-0.027641650
1640787311.670010,0.091763260,0.197620320,10.236245160,-0.021737820,-0.020131470,-0.013388690
1640787311.671810,0.028297320,-0.180830390,9.396964070,-0.010296700,0.069321700,-0.022761520
1640787311.676000,-0.138143150,-0.343851300,9.924576760,0.057992340,-0.056636340,-0.018456580
1640787311.676800,-0.501344320,-0.183238160,9.971122740,0.039681800,0.024648010,-0.005811450
1640787311.679970,-0.104455690,-0.101304090,8.807555200,-0.031842300,-0.020270050,-0.008594990
1640787311.681490,-0.370756270,-0.067074430,10.233222960,-0.011244420,-0.007663670,-0.019027290
1640787311.684990,-0.029074860,0.202126960,9.099706650,0.049735610,0.097477440,-0.046257680
1640787311.686520,0.093730760,0.368822540,9.900468830,0.094534440,-0.037248430,-0.040633970
1640787311.690010,-0.273104490,0.487233760,10.461745260,0.050139440,0.036150220,-0.032864510
1640787311.692110,0.081824960,0.320121820,9.043782230,0.008100270,-0.062778590,-0.023718180
1640787311.694970,-0.390383480,-0.026809280,10.064647670,0.053460900,-0.066645430,-0.015425680
1640787311.696540,-0.115026440,-0.089198890,8.814623830,0.081385680,0.089205800,-0.041480370
1640787311.700290,-0.064973440,-0.110184530,9.820278170,0.106824940,-0.009886920,-0.032989670
1640787311.701530,-0.240687950,0.139833750,10.268117900,0.046011810,0.048667200,-0.019416210
1640787311.705400,0.266253260,0.229801400,9.154392240,0.005847220,-0.039149820,-0.025323030
1640787311.708510,-0.235186860,0.329562220,10.482104300,0.031058490,-0.024619700,-0.022096930
1640787311.710100,-0.273947510,0.487407800,9.538145070,0.062900780,0.027191640,-0.053824500
1640787311.711460,-0.453598710,0.371515840,9.962751390,0.107362870,-0.100365290,-0.055608150
1640787311.715080,-0.694934730,0.415178890,9.814533230,0.085985670,-0.029091540,-0.042916830
1640787311.716670,-0.218859570,0.367812990,8.983734130,0.059531640,-0.030091410,-0.038492690
1640787311.719950,-0.309602650,0.464317260,10.221881870,0.026740140,0.028222800,-0.008738040
1640787311.721720,0.114918590,0.735709430,9.534558300,-0.029616060,0.024214390,-0.000081960
1640787311.725050,0.283650730,0.671381770,10.051248550,-0.005859140,-0.076706710,0.001120570
1640787311.726620,0.308431180,0.799620150,9.752951620,0.003370640,0.022754070,-0.017176570
1640787311.729950,0.251856710,0.659167170,9.530961990,0.012607870,-0.052054230,-0.023689860
1640787311.731750,-0.114721660,0.196134700,10.209186550,0.001642110,-0.030769410,-0.022573770
1640787311.735010,0.051438200,-0.130839900,9.021695140,0.006042420,-0.005218390,-0.039193040
1640787311.736610,-0.317079900,-0.396801950,9.887489320,0.058867040,-0.042262670,-0.033323460
1640787311.739990,-0.301568720,-0.158729480,9.571337700,0.020124020,0.050197530,-0.025168060
1640787311.741550,-0.171545040,-0.084015100,9.564069750,-0.031346090,-0.051154200,-0.009000300
1640787311.744970,-0.145260650,0.078969460,9.962034230,-0.019046660,-0.004930790,-0.008852780
1640787311.746500,0.345381830,0.481169490,8.948328970,0.017526750,0.048522640,-0.041773910
1640787311.750010,0.083522190,0.607950930,10.064409260,0.050090260,0.012692810,-0.022463500
1640787311.751490,0.150444330,0.623759750,9.861913680,0.020401180,0.043965880,-0.033538040
1640787311.755320,-0.027526650,0.278058530,9.709609990,0.014683610,-0.080269580,-0.026635830
1640787311.756650,-0.359769490,-0.124952720,9.531246190,0.048643350,-0.047448280,-0.000324850
1640787311.759940,-0.247741000,-0.422096190,9.123952870,0.078029930,0.024692720,-0.025072700
1640787311.761480,-0.582481380,-0.521254660,10.101667400,0.089120870,0.028768190,-0.035297870
1640787311.765020,-0.208150770,-0.119846540,9.650609970,0.058506440,0.002098080,-0.031296910
1640787311.766540,-0.020315070,0.179428850,9.739980700,0.005997720,-0.011914970,-0.039602820
1640787311.770000,0.036460660,0.524762270,9.569118500,0.003515180,0.024501980,-0.025331970
1640787311.771990,0.013505790,0.901840750,9.960874560,0.040823220,-0.025062260,-0.036537650
1640787311.775130,-0.335313440,0.809251900,10.037376400,0.061683360,-0.030209120,-0.033719840
1640787311.776530,-0.142939420,0.664761540,9.293967250,0.063598160,-0.078956790,-0.007341800
1640787311.780210,-0.462200880,0.318296190,9.993280410,0.067599120,-0.006367270,-0.015988950
1640787311.781480,-0.295994250,0.145536710,9.408939360,0.035817920,0.039382280,-0.002782050
1640787311.784950,-0.118049410,0.243869660,9.875928880,-0.012883550,-0.056184830,0.018215180
1640787311.786530,0.027204140,0.181496440,9.464953420,-0.056917970,0.033968690,-0.000678000
1640787311.789990,0.486259520,0.288870690,8.998836520,-0.024314220,-0.003217160,-0.010946390
1640787311.791580,-0.109787310,0.384620100,10.543121340,0.028766690,0.001791120,-0.014461580
1640787311.794940,0.021074440,0.149886490,9.460687640,0.028121470,-0.034797200,-0.021919610
1640787311.796940,-0.106623960,-0.095996310,9.718677520,0.059270860,-0.116395950,-0.024627150
1640787311.799940,-0.389248190,-0.195493470,9.490682600,0.040234630,0.061620770,-0.040046870
1640787311.801540,-0.093563560,-0.070673110,9.182894710,0.019636750,0.011637810,-0.015617910
1640787311.805060,-0.518282950,0.148226720,10.415825840,-0.005628170,-0.015172360,0.004158910
1640787311.806730,0.003771500,0.324340730,9.084579470,-0.025890770,-0.023363540,-0.001990800
1640787311.809960,0.075207890,0.464544920,9.623199460,0.028932100,-0.040960310,0.002376740
1640787311.811630,-0.103120010,0.578503370,9.760949130,0.026525560,0.071302060,-0.019593540
1640787311.815000,0.089970740,0.458467010,9.904926300,0.042408700,-0.025929510,-0.021541120
1640787311.816530,-0.290828850,0.383199070,10.354148860,0.024366380,-0.048176940,-0.013785070
1640787311.820270,-0.080810820,0.183373640,9.042655940,-0.008498130,-0.068536390,-0.022704900
1640787311.821520,-0.257582550,-0.027496050,9.645501140,0.020371380,-0.040233140,-0.004488230
1640787311.825740,-0.352484050,-0.029440420,9.549579620,0.023481250,0.051774080,-0.029371680
1640787311.826560,-0.263289570,0.083053980,10.106253620,0.031732020,-0.054278970,-0.021331010
1640787311.829930,-0.211574550,0.342645440,10.049554820,-0.006657840,-0.027899450,-0.006397070
1640787311.831500,0.251410010,0.491017760,9.190087320,-0.027222940,-0.026360150,-0.019449000
1640787311.835430,0.144886840,0.806171660,10.073142050,-0.015297530,0.007861850,0.003518160
1640787311.836510,0.382563920,0.923610270,9.345725060,-0.057052080,0.058089200,-0.004452470
1640787311.840050,0.220612060,0.485581730,10.006356240,-0.032927100,-0.050508980,0.007732210
1640787311.843640,-0.056126070,0.160407110,9.875382420,0.030328340,-0.010129810,0.009660420
1640787311.845050,-0.040477780,-0.312363300,9.080177310,0.054444380,-0.048388540,-0.012707710
1640787311.846550,-0.527301970,-0.426733670,9.937076570,0.017203390,-0.020979340,0.005735460
1640787311.849970,-0.145624730,-0.294399890,9.108489990,-0.063011050,0.069507960,-0.006262960
1640787311.851560,-0.103152730,-0.302601340,9.793337820,-0.040300180,0.009673830,-0.012478230
1640787311.855010,-0.026270240,0.376238290,9.856362340,0.002287330,0.050622230,-0.013557080
1640787311.859040,0.155399560,0.544864000,9.525452610,0.001168250,-0.014869870,-0.020521880
1640787311.861430,-0.244090530,0.369392840,10.154393200,0.024522840,-0.031068920,-0.005941090
1640787311.862370,-0.144800780,0.387959690,9.335059170,0.054281950,-0.013029580,-0.028026110
1640787311.864950,-0.358109920,0.056707550,9.752176280,0.069962450,-0.028267500,-0.021447240
1640787311.866540,-0.277605500,0.165546180,9.559588430,0.031197070,0.051636990,0.008207560
1640787311.870340,-0.101683800,0.391034310,9.814865110,-0.040191410,0.010249020,0.002931060
1640787311.871560,-0.108812250,0.391320320,10.014432910,-0.083555290,0.013771660,0.013238190
1640787311.877170,0.214505120,0.614206610,9.404054640,-0.043804940,-0.020711120,0.005023180
1640787311.878250,-0.110215040,0.457460520,10.103851320,0.031834840,-0.002434850,-0.038269160
1640787311.879980,-0.058208280,0.523063900,9.474599840,0.044818230,0.007012490,-0.022180380
1640787311.881590,-0.287593420,0.424176100,9.970617290,-0.011922420,-0.064945240,-0.009940570
1640787311.884990,-0.267010780,0.077929060,9.573284150,-0.084121530,0.039027630,-0.008028750
1640787311.886860,-0.066309590,0.232945470,9.457126620,-0.066906210,-0.000387430,0.005708630
1640787311.890070,-0.473572130,0.279189080,10.392274860,-0.049851840,0.006993120,0.002299250
1640787311.893990,0.068995660,0.235485370,9.107800480,-0.050209460,-0.021336970,0.010506810
1640787311.894980,-0.012585120,0.283369150,9.740260120,-0.011405350,-0.045658650,0.008711220
1640787311.896550,0.079808510,0.176997660,9.422896390,-0.026749070,0.077007720,0.000004470
1640787311.900000,0.444240210,0.281418090,9.386843680,-0.049819060,0.021396580,0.020045040
1640787311.901540,-0.024896780,0.130593780,10.455583570,-0.074385100,0.036278360,0.020088250
1640787311.905000,0.239773380,-0.040219460,9.383933070,-0.048002610,-0.004427140,0.007672610
1640787311.906950,-0.227082390,-0.049448970,9.874150280,0.021669270,-0.073385250,0.001005830
1640787311.911460,-0.337776060,-0.067482900,9.047171590,-0.009308750,0.029754640,-0.017151240
1640787311.912310,-0.218471320,-0.075493720,9.388471600,-0.011892620,0.037258870,-0.009992720
1640787311.914920,-0.523824330,0.066525270,10.165809630,-0.014904140,0.048072640,-0.006212300
1640787311.916520,-0.041853130,0.268831940,9.452926640,-0.016017260,-0.015906990,0.001254680
1640787311.920290,-0.137564510,0.510675670,9.946499820,-0.028848650,0.009144840,0.026394430
1640787311.921560,-0.073618670,0.432428480,9.563762660,-0.066033010,0.028455260,0.010901690
1640787311.925160,-0.063077990,0.100332110,9.984082220,0.018990040,-0.030714280,0.015503170
1640787311.928330,-0.217570530,-0.046340220,9.555975910,0.073176620,0.008599460,-0.009815390
1640787311.929920,-0.046811450,-0.214519960,9.395790100,0.082947310,-0.027583550,-0.018131730
1640787311.931630,-0.197348180,0.036603990,9.974672320,0.010189410,0.042456380,0.006070730
1640787311.934980,0.104410780,0.291250740,9.335239410,-0.097557910,0.027702750,0.005637110
1640787311.936840,-0.010926570,0.494158360,10.259880070,-0.082749140,-0.020882480,0.023894010
1640787311.944280,0.058900830,0.858309750,9.571381570,-0.019589070,0.054417550,-0.004498660
1640787311.944880,-0.059179740,0.840425610,9.782475470,0.020353500,-0.051216790,-0.019465390
1640787311.945330,-0.436641840,0.838362630,10.090962410,-0.001198050,0.000034270,0.010795890
1640787311.946530,-0.133251070,0.431982900,9.064528470,-0.056333840,-0.003570320,-0.002174080
1640787311.949930,-0.392069160,0.055403170,10.071823120,-0.042690330,-0.015439090,0.020973380
1640787311.951560,-0.184685070,0.219926160,9.405931470,-0.066328060,0.074169050,0.028029090
1640787311.955010,0.019302700,0.013935180,9.700289730,-0.094336270,-0.016777220,0.031052540
1640787311.956770,-0.005229910,0.029452170,10.042249680,-0.071181360,0.025136770,0.034835930
1640787311.960030,0.436163960,0.147527380,9.125587460,-0.041390950,0.011061130,-0.007727740
1640787311.962060,0.197832990,-0.030774580,9.813835140,-0.014774500,0.028930600,0.003635880
1640787311.964990,0.211415900,0.208855020,9.573143960,-0.029201810,0.083924830,0.007765000
1640787311.966570,-0.079354520,0.098988520,10.052512170,-0.046367940,-0.025257470,0.000645220
1640787311.970330,-0.338555810,0.082879960,9.608480450,-0.052699460,-0.019338730,0.023454430
1640787311.971720,-0.245843320,0.186968860,9.018226620,-0.040087110,0.007942320,0.017449260
1640787311.975120,-0.545793890,-0.098900850,9.878011700,-0.015370550,0.069610760,-0.009301300
1640787311.977690,-0.207716900,0.076030950,9.465573310,0.021706520,0.063474480,-0.003477930
1640787311.979920,-0.320332590,0.152603190,10.159666060,0.021404030,0.004597010,-0.004781780
1640787311.981560,-0.037389000,0.176850070,9.441491130,-0.038786230,0.034940250,0.007161500
1640787311.984960,-0.013061750,0.392127870,9.693161010,-0.058276950,-0.017775600,0.014162060
1640787311.986850,-0.280317750,0.170204830,10.092583660,-0.039075310,0.044067220,0.000365080
1640787311.990100,0.077931750,0.080942240,9.278896330,0.037075580,-0.005735460,0.013461710
1640787311.991670,-0.402441260,0.094367320,10.257514000,0.084568550,-0.009514390,-0.009660420
1640787311.994960,-0.178569850,0.154735640,9.356882100,0.019428130,0.033921000,0.001169740
1640787311.996590,-0.218777640,0.424774800,9.823858260,-0.046256190,-0.051073730,0.032278900
1640787311.999940,-0.379664540,0.559117970,9.851387020,-0.106322770,0.040473050,0.004667040
1640787312.001560,0.146133420,0.732581500,9.178704260,-0.067906080,0.001782180,0.012937190
1640787312.005200,-0.383204580,0.862275240,10.503726960,0.007854400,0.019693380,0.007456540
1640787312.006580,-0.157431960,0.674786980,9.621980670,-0.023455920,0.002284350,0.001832840
1640787312.010410,-0.111249660,0.329193030,9.717116360,-0.035330650,-0.078573830,0.030128660
1640787312.011510,-0.215474050,-0.112000260,9.367431640,-0.049044200,0.038926300,0.012959540
1640787312.014940,0.150125400,-0.340309590,9.296944620,-0.022508210,0.041873760,0.026991970
1640787312.016530,-0.201076920,-0.229181020,10.331091880,-0.019687420,0.029635430,0.048884760
1640787312.020060,0.104254610,-0.235113340,9.448078160,-0.069014730,-0.039678820,0.022593140
1640787312.021680,0.130220650,-0.130896450,9.629667280,-0.030183790,-0.024826830,0.015933810
1640787312.025840,-0.067060900,0.149289820,9.260143280,-0.014634430,0.063042350,-0.017516310
1640787312.026580,-0.124134540,0.077079080,9.847537990,0.023514030,-0.008121130,-0.026826560
1640787312.029920,-0.352741360,0.279948470,9.982956890,0.038692360,0.022217640,-0.009787080
1640787312.031570,-0.285739570,0.288630780,9.320047380,0.004461410,-0.058858100,-0.001892450
1640787312.035120,-0.485766200,0.189075110,9.880047800,-0.012268130,-0.024296340,0.041110810
1640787312.036770,-0.348601730,0.238268960,9.204320910,-0.029402970,0.049135080,0.030224030
1640787312.040370,-0.309704600,0.023456260,10.036513330,0.019468370,-0.035636130,0.018087030
1640787312.041530,-0.094921500,0.188924850,9.690073010,0.048953290,0.041808190,0.009335580
1640787312.044970,0.233636010,0.229434620,9.227071760,0.020810960,-0.022175910,-0.002098080
1640787312.046580,-0.191419500,0.179427820,10.494064330,-0.008112190,-0.004425640,0.008721650
1640787312.049950,-0.050763740,0.422776760,9.340401650,-0.039483610,-0.017197430,-0.006291270
1640787312.051920,-0.400399510,0.268043370,9.952540400,-0.011761490,-0.119590780,-0.009994210
1640787312.055280,-0.333500060,0.421810330,9.464285850,0.023192170,0.023239850,0.006936490
1640787312.056600,-0.098019840,0.511805180,9.452431680,0.027658050,0.004531440,-0.000163910
1640787312.060260,-0.362906630,0.529489040,10.580891610,-0.021639470,0.005695220,0.029896200
1640787312.061570,0.197964650,0.682578860,9.267662050,-0.090207160,-0.003968180,0.043712560
1640787312.064990,0.012806630,0.409347710,9.859119420,-0.075143580,-0.058135390,0.024376810
1640787312.066680,-0.058217390,0.457406220,9.547010420,-0.028578940,0.002218780,0.018894670
1640787312.069970,0.046163920,0.485918940,9.331817630,-0.025856500,-0.050260130,0.006373230
1640787312.071610,-0.226576250,-0.027939820,9.984390260,-0.066207360,0.006233160,0.007751580
1640787312.075100,0.024583320,-0.116681990,9.497594830,-0.027580560,0.028878450,0.011536480
1640787312.076530,-0.325312320,-0.221890540,10.289790150,0.001989310,-0.021682680,0.009948020
1640787312.079930,-0.230597790,-0.126081880,9.424659730,-0.041213640,-0.038877130,0.029791900
1640787312.081510,-0.190732930,0.109322670,9.288493160,-0.071620930,-0.064167390,0.028978280
1640787312.085000,-0.205965430,0.012266280,9.313333510,-0.063285240,0.037190320,0.001756850
1640787312.086610,0.170001390,0.296046970,9.279139520,0.004372000,0.023579600,-0.005897880
1640787312.090020,-0.166382070,0.450352010,10.413781170,0.016997750,0.032353400,-0.010414420
1640787312.091720,0.058994660,0.202688990,9.794137950,-0.014935430,-0.026139620,0.003300610
1640787312.094960,-0.261843140,0.167989310,10.082814220,0.003027920,-0.115549590,0.019225480
1640787312.096530,-0.364129160,-0.086742300,9.119785310,-0.014299160,-0.009788570,0.004921850
1640787312.100070,-0.190445600,-0.218483630,9.117308620,0.019422170,-0.022743640,0.015720730
1640787312.101630,-0.563865780,-0.002272160,10.232753750,0.033792850,0.058011710,-0.001026690
1640787312.104960,-0.137940560,0.136619000,9.630116460,-0.001648070,-0.040079660,-0.008255240
1640787312.106620,-0.266307980,0.362010450,10.133619310,-0.002893810,-0.112332390,0.022935870
1640787312.109960,-0.165148510,0.512313370,9.388537410,-0.019715730,0.000499190,-0.006313620
1640787312.111630,-0.175308720,0.521415590,9.982953070,0.009840720,-0.051259990,-0.002540650
1640787312.115050,-0.471164020,0.706985120,10.251158710,0.020936130,-0.036911670,0.007082520
1640787312.116870,-0.020909340,0.500445780,9.283291820,-0.009505450,-0.091592970,-0.012575090
1640787312.120400,-0.083325300,0.524032590,9.753795620,-0.013625620,-0.039148330,0.023551290
1640787312.121520,0.024120080,0.570339920,9.371230130,-0.059179970,0.024604800,0.022500760
1640787312.125030,0.057727660,0.306264460,10.100008960,-0.078536580,-0.075674060,0.027315320
1640787312.126680,0.064354190,0.311082070,9.646547320,-0.045020880,-0.030964610,0.034867230
1640787312.129920,0.106963910,0.097677100,9.489489560,-0.004369020,-0.069460260,0.002498920
1640787312.131810,-0.212297830,0.034720820,10.101705550,0.002270940,-0.022950770,0.006340440
1640787312.135050,-0.075414390,0.057209320,9.125990870,-0.050956010,-0.035120550,0.005534290
1640787312.137260,-0.214986470,-0.143395500,9.917070390,-0.041274730,-0.075295560,-0.000979010
1640787312.139990,-0.114737620,0.064965490,9.322884560,-0.009447340,0.036819280,0.007154050
1640787312.141520,-0.136005800,0.264896720,9.645839690,0.005064910,-0.068315860,-0.003425780
1640787312.144970,-0.308068900,0.307983010,10.292654990,-0.046958030,-0.046542290,0.013081730
1640787312.146550,0.251631350,0.428508700,8.818824770,-0.049883130,-0.026392940,0.006172060
1640787312.149910,-0.136343090,0.247412470,10.107585910,-0.006520750,-0.032365320,-0.007554890
1640787312.151640,0.090333430,0.300144310,9.494336130,0.009532270,0.040404500,0.002661350
1640787312.155000,-0.019303020,0.183505860,9.751176830,0.011786820,-0.102886560,-0.004017350
1640787312.156650,-0.460977260,-0.069311890,10.131758690,-0.028321150,-0.060504680,0.009024140
1640787312.160060,-0.130117120,-0.170332060,8.907932280,-0.012934210,-0.054979320,0.006313620
1640787312.161590,-0.610124230,-0.239749760,10.110982890,0.045332310,-0.053934760,-0.013983250
1640787312.164990,-0.299329130,0.089550850,9.644593240,0.037871300,0.018733740,-0.008445980
1640787312.166580,-0.225239710,0.472212490,9.960726740,0.001499060,-0.072613340,-0.001634660
1640787312.170220,-0.167343440,0.681248610,9.931822780,-0.078462060,-0.055414450,0.005562600
1640787312.171560,0.250856280,0.810372290,9.334711070,-0.046841810,-0.050701210,0.006438790
1640787312.175270,-0.223428290,0.755792980,10.134456630,0.024153290,-0.036501890,-0.006948410
1640787312.176640,-0.105839250,0.622657660,9.762512210,0.015069550,-0.082938370,-0.001858170
1640787312.180450,-0.150188430,0.315658330,9.802320480,0.005038080,-0.096917160,0.030963130
1640787312.181540,-0.031552680,-0.087936980,9.172840120,-0.030295550,-0.017891830,0.013564530
1640787312.184960,0.049543250,-0.093156060,9.769617080,-0.030148030,-0.004352630,0.022020940
1640787312.187520,-0.177826240,0.041529420,10.009500500,-0.054948040,0.005194540,0.029091540
1640787312.190020,0.071090710,-0.145216360,9.646600720,-0.044958290,-0.113634770,0.012116130
1640787312.192940,-0.228756100,-0.003433970,9.910538670,0.035646560,-0.066423420,0.007285180
1640787312.195030,-0.118030570,0.129849520,8.965926170,0.037242470,-0.034239890,-0.018523640
1640787312.196630,-0.270087210,0.054843980,9.997384070,0.021965800,-0.064113740,0.001630190
1640787312.199960,-0.210477690,0.218432440,9.658545490,0.003659730,0.042299930,0.000643730
1640787312.201560,0.062168550,0.171119820,9.644765850,0.006008150,-0.089906150,0.006316600
1640787312.205000,-0.243849260,0.346536370,10.073429110,0.017152730,-0.044414390,0.035989280
1640787312.206670,0.110137670,0.411092220,8.911390300,-0.010463600,-0.034996870,0.001312790
1640787312.209960,-0.212502640,0.157457370,10.201135640,0.011993950,-0.069530310,0.007213650
1640787312.211940,-0.112512710,0.213651820,9.482326510,0.046114630,0.013150270,0.008937720
1640787312.214970,-0.006775260,-0.011258800,9.746382710,0.071464490,-0.078821190,-0.016781690
1640787312.216570,-0.402954130,0.124115040,10.413859370,0.036300720,-0.039164730,0.008814040
1640787312.220020,-0.202487660,0.317426500,9.318399430,-0.026610500,-0.074739750,0.015713270
1640787312.221670,-0.508571620,0.092277640,10.122706410,-0.025929510,-0.109833490,0.012674930
1640787312.225910,-0.282983010,0.350135620,9.255989070,0.034894050,-0.010989610,0.004522500
1640787312.227020,-0.120341090,0.533158120,9.749732970,0.087162860,-0.062756240,-0.006797910
1640787312.229980,-0.065390950,0.675822910,10.175455090,0.017490980,-0.000689920,0.022138660
1640787312.231590,0.413673370,0.812829670,9.349448200,-0.064264250,-0.056973100,0.033561890
1640787312.234950,0.210384100,0.543886420,10.267457010,-0.069358940,-0.037290160,0.026281180
1640787312.236860,0.298670710,0.462391640,9.524636270,-0.021013620,-0.018922980,0.020790100
1640787312.240020,-0.086149190,0.281423810,9.888440130,0.036722420,-0.121291000,0.021266940
1640787312.241600,-0.150076970,-0.111031870,9.399272920,0.000335280,-0.034679470,0.009846690
1640787312.245320,0.013899810,-0.323010150,9.042230610,0.011321900,-0.017938020,0.007607040
1640787312.246550,-0.348983470,-0.283812790,10.200403210,0.009424990,0.029698010,0.005427000
1640787312.249890,0.023434220,-0.006930630,9.698808670,-0.042419140,0.000327830,0.021052360
1640787312.251650,-0.249308910,0.273788600,10.180706980,-0.046645110,-0.082740190,0.031271580
1640787312.254930,-0.121134810,0.316757170,9.484084130,-0.026015940,-0.033579770,0.010323520
1640787312.256630,-0.037751830,0.236561520,9.324450490,0.063049820,-0.037382550,-0.009179120
1640787312.259980,-0.312214290,0.206079450,9.767707820,0.097852970,0.025600190,-0.011432170
1640787312.261790,0.065257390,-0.008234280,9.822792050,0.064875200,-0.005908310,-0.008504090
1640787312.264950,-0.152288090,-0.053520310,10.177942280,0.041297080,-0.037907070,0.023201110
1640787312.266580,0.128793630,0.140124220,9.344417570,-0.005753340,-0.040653350,0.028020150
1640787312.270120,0.041787760,0.181075530,9.834600450,-0.003424290,-0.007732210,0.025388590
1640787312.271570,-0.098082820,0.411773740,9.552585600,0.027544800,0.032390650,-0.004567210
1640787312.275100,-0.089186140,0.467566640,10.081456180,0.068636250,-0.060546400,-0.015175340
1640787312.278330,-0.342701080,0.430157420,10.033543590,0.084559620,-0.010474030,-0.009863080
1640787312.279960,-0.140904550,0.429684940,9.332371710,0.058449810,-0.061064960,-0.010488930
1640787312.281540,-0.509506580,0.430122670,10.556089400,0.009562080,-0.008338690,0.005917250
1640787312.285000,-0.231278430,0.448346790,9.232379910,-0.033545500,0.020140410,0.020760300
1640787312.286870,-0.092506510,0.360489990,9.952886580,0.008539860,-0.088135910,0.013601780
1640787312.290050,0.115026100,0.489174960,9.681702610,0.033536550,0.081484030,0.005212430
1640787312.293600,0.527128220,0.523957970,9.232324600,0.033858420,0.010874870,-0.002047420
1640787312.294980,0.129512160,0.295059950,10.869756700,-0.003984570,0.000597540,0.018242000
1640787312.296630,0.442312480,0.154773430,9.053053860,-0.018329920,0.027701260,-0.001479690
1640787312.299940,-0.013801070,-0.095863030,10.025207520,0.058203940,-0.087821480,0.017626580
1640787312.301560,-0.465397360,-0.041750580,9.822080610,0.060786310,0.047440830,0.015358630
1640787312.305020,-0.299365310,-0.058764800,8.994032860,0.015759470,-0.037835540,-0.004361570
1640787312.306690,-0.592921380,-0.071566190,10.182476040,0.008058550,0.012785200,0.003091990
1640787312.310670,-0.090485850,0.202377260,9.159937860,0.026345250,0.104339420,-0.025242570
1640787312.312120,-0.063618050,0.433817600,10.118925090,0.066190960,0.001308320,-0.015328820
1640787312.314980,-0.062957660,0.654524030,10.179560660,0.025706000,0.042669480,0.005978350
1640787312.316600,0.217701450,0.455458820,9.424485210,0.015294550,-0.041247910,-0.009471180
1640787312.320230,-0.032511160,0.150593340,9.709222790,0.061242290,-0.005072360,-0.001950560
1640787312.321540,0.024579950,-0.070158310,9.383318900,0.107532750,0.063690550,-0.016561150
1640787312.325060,-0.304852930,-0.354744340,10.151238440,0.131888690,0.026091930,-0.021746760
1640787312.327380,-0.168525920,-0.156024020,9.817764280,0.087429580,-0.009608270,-0.007255380
1640787312.329940,-0.229928780,0.045376260,9.701389310,0.025163590,-0.005073850,-0.015747550
1640787312.331570,-0.178080870,0.308064640,9.548443790,0.003735720,0.061115630,-0.017422440
1640787312.334960,-0.165841190,0.797171120,10.131502150,0.052811210,0.019676980,-0.032684210
1640787312.336930,-0.386711540,0.978322330,10.308678630,0.082281240,0.005659460,-0.034052140
1640787312.340450,0.029296460,0.900161390,9.277154920,0.074748690,-0.046585500,-0.013628600
1640787312.341570,-0.202514140,0.592169880,10.004116060,0.074057280,0.017859040,-0.013291840
1640787312.345000,-0.079169680,0.327392160,9.446236610,0.054910790,0.084137940,-0.008113680
1640787312.346650,0.002215600,0.158750470,10.046770100,0.026084480,-0.034175810,0.010566410
1640787312.349940,-0.129922720,-0.031298510,9.933752060,0.002850590,0.036814810,0.001926720
1640787312.351610,0.395844220,-0.082760040,9.098582270,0.035326180,0.009863080,-0.008168820
1640787312.355060,-0.064706580,0.063647030,10.257419590,0.065007810,0.027774280,-0.017833710
1640787312.359800,0.125666530,0.170227130,9.297119140,0.025811790,0.065737960,-0.032469630
1640787312.361360,0.164426830,0.094860460,9.889655110,0.033067170,0.000658630,-0.025805830
1640787312.361790,-0.230232120,0.119665310,9.954101560,0.062485040,0.070492930,-0.024642050
1640787312.364940,-0.124790020,0.079206230,9.440153120,0.104586780,-0.021474060,-0.009745360
1640787312.366630,-0.570098220,0.045979810,10.036228180,0.086866320,0.002729890,-0.006406010
1640787312.370210,-0.241102650,0.051762760,8.984318730,0.052662200,0.042954090,-0.020775200
1640787312.371600,-0.185556500,0.034072790,9.890892980,0.086608510,0.041958690,-0.010745230
1640787312.375260,0.005686920,0.282088430,9.723389630,0.085453680,0.124731650,-0.027143950
1640787312.376680,0.157663400,0.400153130,9.986783980,0.092141320,-0.003242490,-0.024215870
1640787312.379950,-0.053298640,0.443040100,10.231910710,0.058954960,0.010295210,-0.009942060
1640787312.381580,-0.008409260,0.307493510,9.127805710,0.057183210,-0.016129020,-0.020116570
1640787312.384960,-0.453470650,0.014072310,10.023095130,0.124022370,-0.011266770,-0.023368000
1640787312.386980,-0.431249770,0.041377690,9.550072670,0.147607920,0.071683530,-0.034534930
1640787312.390070,-0.487003560,0.058061220,9.978729250,0.128009920,-0.036026540,-0.018157070
1640787312.391580,-0.354294300,0.254352810,9.941029550,0.046765810,0.039801000,0.002190470
1640787312.394960,0.098398660,0.474674850,9.359460830,0.009843710,0.045508140,-0.014057750
1640787312.396600,-0.172132420,0.674441280,10.544148450,0.053656100,0.030480330,-0.011417270
1640787312.399930,0.145291780,0.958103240,9.728870390,0.071063640,0.018671160,-0.017176570
1640787312.401600,-0.030173340,0.744041500,9.844812390,0.072570150,-0.071109820,-0.015646220
1640787312.405110,-0.099855430,0.473042760,9.523424150,0.073640050,0.021564960,0.005955990
1640787312.407090,-0.008453470,0.171548400,9.506904600,0.068478290,0.039869550,-0.003868340
1640787312.411040,-0.420221000,-0.078005950,10.307298660,0.049842900,0.022150580,0.018693510
1640787312.411570,-0.017805410,-0.054574300,9.530035020,0.020460790,-0.009320680,0.022096930
1640787312.414980,-0.121560550,-0.033455890,9.875123020,0.029829150,-0.005403160,-0.010147690
1640787312.416640,0.014509440,0.271651210,9.375953670,0.037007030,0.046066940,0.003881750
1640787312.420070,0.166332350,0.377243160,9.815093990,0.038200630,0.036588310,-0.009098650
1640787312.421890,0.030061900,0.233873010,10.009184840,0.046695770,0.074534130,-0.026007000
1640787312.425140,0.266883190,0.247148960,9.592473030,0.088258090,-0.018446150,0.003428760
1640787312.427110,-0.199712280,0.079287600,10.101758000,0.093087540,0.026313960,0.010058280
1640787312.429980,-0.136221110,-0.198906630,9.198056220,0.053913890,0.029714410,0.017587840
1640787312.431620,-0.297072170,-0.323355080,9.950407980,0.095447910,-0.028365850,0.013360380
1640787312.435190,-0.187486920,-0.297318850,9.270574570,0.110921260,0.107474630,-0.014476480
1640787312.436680,0.185810690,-0.049762990,9.377159120,0.115327520,0.047621130,-0.007240470
1640787312.440160,-0.179591690,0.285854460,10.580756190,0.078682590,0.096052880,-0.010155140
1640787312.441620,0.139005040,0.350990530,9.501230240,0.053077940,0.010922550,-0.015634300
1640787312.444940,-0.294859230,0.337593320,10.201929090,0.117370490,-0.075070560,0.004276630
1640787312.446630,-0.307989480,0.299994890,9.236371990,0.149028020,0.055649880,-0.019754470
1640787312.449930,-0.288151530,0.061523300,9.730912210,0.181236860,0.035388770,-0.015012920
1640787312.451960,-0.605476140,0.196231950,10.541744230,0.152125950,0.067833070,-0.001484160
1640787312.455330,-0.019223510,0.294426020,9.427775380,0.071211170,-0.002613660,-0.012229380
1640787312.456670,0.036809230,0.396170380,9.850551610,0.048109890,0.008183720,0.026375060
1640787312.459960,0.238685550,0.760155560,9.348522190,0.050401690,0.106914340,-0.003114340
1640787312.461600,0.154867720,0.761279110,10.185898780,0.080101190,0.026324390,-0.003272290
1640787312.464940,-0.036287690,0.712596000,10.104182240,0.094777350,0.014580790,0.005795060
1640787312.466570,-0.018128420,0.420179870,9.503440860,0.094731160,-0.048753620,-0.015805660
1640787312.469940,-0.353106710,0.113267910,9.908525470,0.090454530,0.041115280,0.008633730
1640787312.471920,-0.266187550,0.054714540,9.257859230,0.044929980,0.078108910,0.018998980
1640787312.475060,-0.445904250,-0.125247080,10.216607090,0.042423620,0.005061930,0.011946260
1640787312.476740,-0.098320670,0.108460630,9.470817570,0.045719740,0.061082840,0.025890770
1640787312.479920,0.102247440,0.349261520,9.512537960,0.052116820,0.012707710,0.013504920
1640787312.481560,-0.078907700,0.342483610,10.247106550,0.033533580,0.063961740,0.002719460
1640787312.485000,0.448888450,0.485981170,9.150196080,0.048713390,0.048163530,-0.000838940
1640787312.486650,0.091525560,0.327816580,10.052425380,0.080391750,0.029560920,-0.014005600
1640787312.489960,0.151059960,0.312191900,9.463427540,0.066363810,0.085903700,0.004801150
1640787312.491680,-0.086041290,0.179394830,9.740230560,0.052045290,-0.010511280,0.023031230
1640787312.494990,-0.494500310,-0.217880520,9.923550610,0.045444080,0.018106400,0.022025410
1640787312.496610,-0.152685840,-0.254970610,9.065435410,0.083619360,0.035138430,0.016987320
1640787312.500600,-0.562295140,-0.197868820,9.983839040,0.096577410,0.079420220,-0.001277030
1640787312.501560,-0.197724070,-0.010342610,9.705268860,0.077117980,0.090549890,-0.001516940
1640787312.504950,-0.177394970,0.324702320,10.114902500,0.065970420,0.012767310,0.001676380
1640787312.506700,-0.207096200,0.436148610,9.635406490,0.035274030,0.017829240,0.000417230
1640787312.509930,0.051827720,0.486703400,9.465672490,0.061291460,-0.007466970,0.002959370
1640787312.511600,-0.277185110,0.447641400,10.001179700,0.109255310,0.083936740,-0.004570190
1640787312.515010,-0.179765400,0.259972210,9.820328710,0.119619070,0.002232190,0.005218390
1640787312.516610,-0.281404850,0.322352740,10.261816020,0.102868690,-0.024107100,0.017409030
1640787312.520240,-0.057130470,0.400377810,9.285934450,0.003831090,0.047558550,0.013864040
1640787312.521570,0.056596760,0.455000250,9.836720470,-0.009673830,0.003968180,0.030030310
1640787312.525120,-0.086164590,0.626475160,9.973093990,0.003896650,0.096315150,0.022342800
1640787312.526590,0.114812000,0.510991100,9.528291700,0.026479370,-0.027866660,-0.005182620
1640787312.529920,-0.266844120,0.416698720,10.305268290,0.078360740,-0.034073000,0.015555320
1640787312.532040,-0.170845460,0.155615580,9.291264530,0.056718300,0.038525470,-0.015014410
1640787312.534950,-0.318677660,-0.193710790,10.023376460,0.047069780,-0.035649530,0.013713540
1640787312.537010,-0.384620430,-0.197771730,9.845026020,0.036579370,0.053970520,0.020879510
