timestamp,accel_x,accel_y,accel_z,gyro_x,gyro_y,gyro_z
1640781377095650048,-0.270912410,0.389018710,10.169784550,-0.088502460,-0.027863680,-0.008629260
1640781377097319936,-0.042805160,0.238679350,9.265520100,-0.001978870,-0.058041520,-0.030744080
1640781377100559872,-0.226855100,0.346428780,10.232173920,0.045262280,0.005754830,-0.022549930
1640781377101379840,-0.310319810,0.731692140,10.041040420,0.019781290,0.045652690,-0.005719070
1640781377105979904,-0.385123790,0.429814160,10.255491260,-0.060132140,-0.099200000,-0.015272200
1640781377107079936,-0.335511920,0.387709890,10.001204490,-0.072480740,-0.069686780,0.006835160
1640781377110819840,-0.094301450,0.463790540,9.101709370,-0.011593100,-0.006248060,-0.015459960
1640781377112119808,-0.125419810,0.569201170,10.193363190,-0.033678110,0.008726120,-0.036180020
1640781377115680000,-0.066140710,0.697215440,10.306570050,-0.065407160,0.023509560,0.003618000
1640781377116669952,0.152472700,0.328290220,9.906886100,-0.066737840,-0.055414450,-0.004261730
1640781377120600064,-0.005734110,0.180327490,10.202924730,-0.033189360,-0.060278180,-0.012925270
1640781377121369856,-0.152288910,0.440732870,9.690770150,-0.036619610,-0.027480720,0.024107100
1640781377127559936,-0.115859490,0.312468650,9.556319240,-0.107720490,-0.046195090,0.006395580
1640781377128849920,-0.097330170,0.012549420,9.796756740,-0.093810250,0.014182920,-0.002081690
1640781377130589952,0.090859460,0.137257290,9.686100010,-0.016635660,0.028429930,-0.014090540
1640781377131399936,0.092364940,0.330448000,10.035504340,-0.010237100,-0.004297490,-0.027580560
1640781377135789824,-0.286529600,0.308382690,10.430542950,-0.078266870,-0.045907500,0.003644820
1640781377136699904,-0.207990650,0.142900300,9.596674920,-0.104725370,-0.076794620,0.014017520
1640781377140649984,-0.187226040,-0.105901870,9.244205470,-0.020124020,-0.041760520,-0.017243630
1640781377141319936,-0.254590960,0.041018790,9.688600540,0.020812450,0.059795380,-0.016570090
1640781377150089984,-0.142838420,0.396582250,10.042235370,-0.032685700,0.050304830,-0.014586750
1640781377150859776,-0.322120460,0.076907890,10.661673550,-0.064633790,-0.094233450,-0.007142130
1640781377151219968,-0.139533390,-0.058377370,9.718589780,-0.032798950,-0.093717870,-0.006772580
1640781377151599872,-0.005246430,0.100460360,9.185435300,0.041142110,-0.016042590,-0.024107100
1640781377156420096,-0.325474650,0.187024430,10.264225010,0.015415250,0.033067170,-0.028397150
1640781377157999872,-0.280105440,0.551988010,10.323773380,-0.062163180,-0.027774280,-0.013634560
1640781377160539904,-0.181268230,0.423668180,9.926698680,-0.044313080,-0.116004030,-0.009851160
1640781377161370112,-0.128826010,0.247688550,9.584045410,0.004175300,-0.046423070,-0.009930130
1640781377166040064,-0.037541230,0.662674370,9.650429730,0.025793910,0.018487870,-0.005546210
1640781377166970112,-0.239526240,0.615995110,10.442347530,-0.034073000,-0.003197790,0.000597540
1640781377170799872,-0.286099140,0.303366240,10.395644190,-0.072447940,-0.094068060,0.010778010
1640781377171689984,-0.033488740,0.311275150,9.709447860,-0.018100440,-0.116243970,0.000973050
1640781377175949824,-0.125278430,0.347551230,9.482442860,-0.016248230,-0.009658930,-0.018137690
1640781377177239808,-0.058773780,0.463619650,9.866306300,-0.067983570,-0.012332200,-0.008402770
1640781377180759808,0.005042220,0.384098770,10.147664070,-0.065530840,-0.002908710,0.003495810
1640781377181360128,0.013792270,-0.015402940,9.903665540,-0.024612250,-0.075085460,-0.009742380
1640781377185580032,0.104154460,0.147857250,9.875838280,0.025077160,-0.084842730,0.012627240
1640781377186390016,-0.086171150,0.316229520,9.599418640,-0.031466770,0.000213090,0.005549190
1640781377191079936,-0.176271750,-0.040061470,9.889045720,-0.103175650,-0.068821010,-0.003387030
1640781377193019904,-0.177401440,-0.004182060,10.025885580,-0.028617680,-0.020919740,-0.003920500
1640781377195600128,-0.057858400,0.066244050,9.255322460,0.049939740,-0.026546420,-0.039279450
1640781377197049856,-0.191055160,0.362511490,10.135841370,0.009064380,-0.067605100,-0.027272110
1640781377200559872,-0.235432420,0.537163500,9.998412130,-0.074808300,0.008064510,0.008063020
1640781377201319936,-0.236165550,-0.083925500,9.792892460,-0.047434870,-0.104399030,-0.005286930
1640781377205689856,-0.306890490,-0.037031290,10.184024810,0.078208750,-0.074526670,0.000888110
1640781377206349824,-0.011631360,0.325265350,8.996311190,0.077004750,0.019824510,-0.019215050
1640781377210670080,-0.242592930,0.371627510,10.300761220,-0.048241020,-0.053572660,-0.017908220
1640781377211350016,-0.334648580,0.414348810,10.549672130,-0.090533490,-0.038598470,-0.008606910
1640781377215569920,0.021137860,0.172207950,9.206453320,0.016959010,-0.120212150,-0.025656820
1640781377216369920,-0.291244060,0.367902850,10.239518170,0.088790060,-0.096853080,-0.036464640
1640781377220729856,-0.168310080,0.843375740,9.647310260,0.007650260,0.044907630,-0.014220180
1640781377222939904,-0.292565940,0.612320780,10.272422790,-0.096710030,-0.096866490,0.008623300
1640781377226009856,-0.419851660,0.346047880,10.665676120,-0.066304190,-0.118899350,0.004605950
1640781377226759936,0.070612800,0.363859680,8.922119140,0.033479930,-0.064156960,-0.008048120
1640781377230639872,-0.049926350,0.567689660,9.795353890,0.023373960,-0.058780610,-0.024153290
1640781377231329792,-0.122995530,0.643973830,10.281545640,-0.073377800,0.015282630,0.006207820
1640781377235719936,0.082509750,0.309297080,9.981096270,-0.099320710,-0.108666730,0.022426240
1640781377236460032,-0.018374730,-0.008273340,10.142456050,-0.020210440,-0.121580090,-0.007103380
1640781377241129984,0.043027680,0.081252760,9.429378510,0.033095480,-0.042973450,-0.003285710
1640781377242279936,0.101176030,0.339482550,9.568053250,-0.041972100,-0.022685530,-0.003628430
1640781377245600000,-0.132445450,0.142084880,10.122397420,-0.096364330,0.003908570,-0.017733870
1640781377246379776,-0.018644630,-0.014610670,9.901014330,-0.042682890,-0.088842220,-0.001214440
1640781377250680064,-0.020338370,0.224937590,9.533308030,0.043089690,-0.073552130,-0.003339350
1640781377251799808,-0.290861070,0.236049090,9.746538160,0.015941260,-0.034533440,-0.005716090
1640781377255599872,-0.258269430,0.177543880,10.142575260,-0.060254340,-0.020854180,0.011506680
1640781377257910016,-0.355940640,0.052303290,10.005853650,-0.010064240,-0.043682760,-0.011555850
1640781377260699904,-0.203935240,-0.046112560,9.735640530,0.029070680,-0.091066960,-0.024537740
1640781377261390080,-0.021390310,0.378473370,9.518387790,0.034415720,0.000479820,-0.011242930
1640781377265740032,-0.180693400,0.399436740,9.997732160,-0.017280870,-0.015084440,-0.015360120
1640781377266969856,-0.079278710,0.110452230,10.336997030,-0.031089780,-0.084050000,0.017811360
1640781377270659840,-0.009165420,0.247732130,9.664472580,0.054653000,-0.062635540,0.003860890
1640781377271319808,-0.091169340,0.296241610,9.864495280,0.046035650,-0.038132070,-0.035864120
1640781377275759872,-0.249120640,0.627922060,10.386636730,-0.035437940,-0.021326540,0.002235170
1640781377276589824,-0.285993100,0.648968520,10.039396290,-0.051325560,-0.085407500,-0.008490680
1640781377280539904,-0.138376920,0.254982890,9.764129640,-0.017821790,-0.089128320,-0.016868110
1640781377281319936,-0.004714920,0.493647070,9.538160320,0.054800520,-0.003837050,-0.001850720
1640781377285609984,-0.096408430,0.621695340,10.123589520,0.019177790,0.014582280,-0.006650390
1640781377286370048,-0.195295740,0.347740320,10.620074270,-0.088045010,-0.074180960,0.016203520
1640781377290619904,0.015212280,0.243868630,9.763483050,-0.043582920,-0.111731910,0.025801360
1640781377292440064,0.104053980,0.076794860,9.335631370,0.018602610,-0.031730530,-0.027541820
1640781377295919872,0.091105480,0.303068700,9.768889430,0.015655160,0.019015370,-0.008852780
1640781377296699904,0.077066610,0.485134960,10.082073210,-0.033766030,0.034485760,0.002267960
1640781377300740096,0.016658900,0.104933630,10.120278360,-0.058461730,-0.079759960,-0.014919040
1640781377301359872,-0.083374010,0.176840250,9.906007770,0.002938510,-0.097905120,0.018596650
1640781377305689856,-0.093916350,0.262377410,9.317417140,0.023816530,0.004367530,0.013814870
1640781377306399744,-0.278401460,0.046038230,10.008290290,-0.013121960,-0.011509660,-0.016981370
1640781377310710016,-0.398411210,0.223375250,10.377696040,-0.019429630,-0.010102990,-0.013640520
1640781377311460096,0.090354990,0.311275840,9.266582490,-0.005559620,-0.034891070,-0.027258690
1640781377315889920,-0.074929810,0.299158160,10.082143780,-0.000001490,-0.029130280,-0.018504260
1640781377316570112,-0.171243910,0.464193880,10.116490360,-0.002610680,0.013998150,0.012502080
1640781377320580096,-0.020104010,0.149819080,9.728466030,0.016039610,-0.081112990,0.002118950
1640781377321379840,-0.264890310,0.112531660,10.207988740,0.040733810,-0.055742260,0.002482530
1640781377325799936,0.013234050,0.477434040,9.363666530,-0.006075200,0.030280650,0.001142920
1640781377326589696,-0.146955180,0.484583200,10.307662010,-0.058262050,-0.029392540,-0.024873020
1640781377330689792,-0.303173840,0.567431630,10.630885120,-0.055907670,-0.033056740,-0.027386840
1640781377331409920,0.124374610,0.673298120,9.348383900,0.005044040,-0.059549510,-0.017331540
1640781377335670016,-0.113213030,0.663748560,10.010762210,0.024218860,-0.018996000,-0.024276970
1640781377336419840,-0.192526740,0.888471310,10.053677560,-0.058378280,0.032670790,0.011096890
1640781377340940032,-0.079301990,0.660569730,10.130741120,-0.116707400,-0.060965120,0.033439700
1640781377341859840,-0.147970840,0.091427880,10.065118790,-0.063560910,-0.052912540,0.006128850
1640781377345600000,0.165480410,0.139558490,9.237884520,0.018553440,-0.000806150,-0.002098080
1640781377346419712,0.120985490,0.371403430,9.887589450,-0.020393730,0.038521000,-0.014424320
1640781377350550016,-0.061454620,0.282432320,10.213255880,-0.127223150,0.035171210,0.010812280
1640781377351399936,0.090507880,0.023757200,10.204885480,-0.111240150,-0.084902350,0.028491020
1640781377355639808,-0.004909660,-0.075072360,9.681711200,0.018702450,-0.025436290,-0.000111760
1640781377356469760,-0.121197780,0.141667530,9.402304650,0.029183930,0.005160270,-0.004413720
1640781377360679936,-0.138834820,0.433843970,10.068870540,-0.062891850,0.058093670,0.009457770
1640781377361359872,-0.258601400,0.223472480,10.047786710,-0.104045890,0.027067960,-0.000478330
1640781377365710080,-0.036161530,0.117485270,9.946113590,-0.031466780,-0.086300080,0.001697240
1640781377367079936,0.044998090,0.410346540,9.514012340,0.030846900,0.033545500,0.019130110
1640781377370579968,-0.010958400,0.249524590,9.667296410,-0.014974180,0.055372730,0.000083450
1640781377371389952,-0.223735110,0.189487760,10.785748480,-0.059846050,0.004598500,0.016038130
1640781377375660032,-0.158551950,0.253248600,9.725124360,-0.031365460,-0.026917460,0.015060610
1640781377378059776,-0.079418100,0.132943090,9.614232060,-0.016801060,-0.072664020,-0.002950430
1640781377380899840,-0.079820920,0.593299210,9.929533000,-0.032939010,0.088316200,0.008381900
1640781377381499904,-0.057237300,0.604379120,9.866668700,-0.060899560,0.055807830,0.000503660
1640781377385550080,-0.199952480,0.353333090,10.809846880,-0.048118830,-0.050215430,0.019307430
1640781377386419968,-0.009137940,0.605933900,9.689238550,-0.005468730,-0.005634130,0.015783310
1640781377390869760,-0.035725780,0.670590520,9.446761130,-0.050427020,-0.017470120,0.014168020
1640781377392480000,-0.199375350,0.634234730,10.350235940,-0.130495430,0.050365930,0.041285160
1640781377395879936,0.157555640,0.306220740,9.552397730,-0.089687120,0.072409220,0.035360460
1640781377397149952,0.108472790,0.004057760,10.130784990,-0.001369420,-0.005812940,0.008839370
1640781377400770048,0.089417830,0.303464320,10.007537840,-0.004813080,0.044630470,0.024789570
1640781377401399808,0.115479630,0.375913110,9.364411350,-0.110255170,0.025174020,0.045168390
1640781377405649920,-0.187927010,-0.102581070,10.253095630,-0.157171500,-0.009882450,0.033722820
1640781377406370048,-0.096140340,-0.231780320,9.677436830,-0.029774010,0.065359480,0.014184420
1640781377411419904,0.042615970,0.139734610,9.370938300,0.052009530,0.030206150,-0.008641180
1640781377413199872,-0.205655400,0.427802590,10.170945170,-0.039665400,0.078637910,0.006777050
1640781377415539968,-0.208413230,0.409470170,10.113767620,-0.133670840,0.059966750,0.031480190
1640781377416369920,-0.204535540,0.089524720,9.990000720,-0.081855060,-0.044730310,0.031803550
1640781377420589824,-0.193034780,-0.087023100,9.590338710,0.062564020,0.005176660,0.028218330
1640781377421370112,0.032211780,0.285129900,9.368591310,0.045615430,0.097456570,0.026759510
1640781377427589888,-0.090643700,0.452231940,10.365920070,-0.073774160,0.110633680,0.018510220
1640781377428629760,-0.195557700,0.066512440,10.761551860,-0.116226080,0.002886350,0.031071900
1640781377431709952,0.112804170,0.167429240,9.570277210,-0.022806230,-0.051735350,0.010384620
1640781377432879872,-0.008897610,0.386159270,9.405322070,0.054195530,0.034438080,-0.005672870
1640781377435539968,-0.166087810,0.580115910,10.019132610,-0.029157100,0.121229880,0.026835500
1640781377436379904,-0.257549020,0.670503080,10.347745900,-0.096203410,0.049771380,0.058397660
1640781377440599808,-0.356242810,0.173580940,10.438791280,-0.049841420,-0.052380560,0.055271400
1640781377441560064,-0.001584150,0.262501540,9.487293240,0.001864140,0.014276800,0.054818390
1640781377446400000,0.019524500,0.565909800,9.574580190,-0.004403290,0.095897910,0.045412780
1640781377448219904,-0.060579610,0.355460200,10.368324280,-0.089164080,0.093601650,0.043325130
1640781377450559744,0.200403350,0.147261870,10.001081470,-0.077050920,0.027140980,0.063547490
1640781377451350016,0.159283220,0.089319610,9.766614910,0.000113250,-0.014182930,0.031779710
1640781377455639808,0.039100810,0.202758770,9.650221820,-0.020022690,0.051492460,0.040496900
1640781377456800000,-0.038151490,0.330374660,9.779310230,-0.070558480,0.056391950,0.068713710
1640781377460889856,-0.055248670,0.021051040,9.961243630,-0.070394580,0.092519830,0.039257110
1640781377461999872,-0.015227980,-0.004856840,9.931715970,-0.007940830,0.068837410,0.039096180
1640781377465570048,-0.060750400,0.393083210,9.990223880,0.037458540,0.050312290,0.058259070
1640781377466409984,-0.178162250,0.212151470,9.769729610,-0.046156350,0.061388320,0.043562060
1640781377470579968,-0.333315340,-0.060351640,10.047289850,-0.057424610,0.007234520,0.062048440
1640781377471399936,-0.226098210,-0.102556800,9.621114730,0.037707390,0.058063860,0.038726630
1640781377476079872,-0.046281660,-0.074472930,9.379058840,0.052937870,0.079905990,0.013828280
1640781377477399808,-0.157086370,0.385777260,10.557142260,-0.002770130,0.106599930,0.045149020
1640781377480710144,-0.064256100,0.402180110,10.247058870,-0.054349010,0.071918970,0.045664620
1640781377481590016,-0.117796510,0.085600690,10.064973830,-0.009340050,-0.062292810,0.057131060
1640781377485549824,-0.218866970,0.378126110,9.718694690,0.079739100,0.033147630,0.065340110
1640781377486349824,-0.125776740,0.494920880,9.125599860,0.045040250,0.093281270,0.049205120
1640781377490729728,-0.508733630,0.602269590,10.796480180,-0.060677530,0.034835940,0.064890090
1640781377492559872,-0.268053950,0.591559410,10.248463630,-0.082908580,0.043267020,0.076425080
1640781377495659776,0.058208520,0.202692480,9.513384820,0.014106930,-0.028270480,0.046662980
1640781377496759808,-0.117651340,0.503845810,10.327054020,0.056213140,0.062429920,0.036947430
1640781377500559872,0.103814530,0.740500090,9.594347950,-0.033591680,0.118692200,0.079886620
1640781377501420032,-0.021540230,0.156067710,10.336901660,-0.090183330,-0.039052970,0.088417530
1640781377505549824,-0.043650660,0.005091180,10.089545250,-0.025105470,0.020213420,0.076986830
1640781377506459904,0.212018590,0.172100780,8.907099720,0.029718880,0.051200400,0.070750730
1640781377510729984,-0.157077790,0.215942810,10.394796370,-0.027666990,0.060909990,0.058203940
1640781377511369984,-0.161989210,0.268880070,10.192667960,-0.067405400,0.113044680,0.070656840
1640781377515519744,0.029445960,0.085014850,9.767135620,-0.024423010,-0.035588450,0.067622960
1640781377516359936,-0.201676370,0.166165160,10.048773770,0.028811400,0.030450530,0.052727760
1640781377520570112,-0.181003320,0.330964740,9.475638390,0.007915500,0.087533900,0.069022160
1640781377521359872,-0.269827070,0.142903490,10.039234160,-0.046265130,0.015248360,0.062248110
1640781377525699840,-0.342112030,-0.072953570,9.971913340,-0.011752550,0.036694120,0.045898570
1640781377527379968,0.057174710,0.043876150,9.332931520,0.032590330,0.022664670,0.057223450
1640781377531030016,-0.069941950,0.333148030,10.100328450,0.023244330,0.096434350,0.051735350
1640781377531529984,-0.157618240,0.187485990,10.530075070,-0.022411350,0.048868360,0.074632470
1640781377535519744,-0.026636510,0.105367930,10.070224760,-0.002643470,-0.024232270,0.085580360
1640781377536379904,-0.189034800,0.054900780,9.572585110,0.077207400,-0.000458960,0.060942780
1640781377540570112,-0.194958630,0.237467630,9.688913350,0.040610150,0.047990690,0.054295370
1640781377541400064,-0.201120360,0.718502100,10.029451370,-0.042308870,0.082732750,0.055147720
1640781377546389760,-0.291569620,0.560333130,10.355879780,-0.053548820,0.010252000,0.056374080
1640781377547159808,-0.071730800,0.365757470,10.094843860,0.017018620,-0.010180470,0.061714650
1640781377550579968,0.005933130,0.685473080,9.682355880,0.088016700,0.036183000,0.053498150
1640781377551349760,-0.229055020,0.652033630,10.269353870,-0.003668670,0.045435130,0.071847440
1640781377555759872,-0.096123850,0.441972760,10.106437680,-0.098787250,0.034366540,0.111730400
1640781377556579840,0.020045410,0.067130100,9.808975220,-0.035667420,-0.007706880,0.083093350
1640781377560940032,0.100679880,-0.208630440,9.653000830,0.045402350,0.042772290,0.051772600
1640781377561750016,0.171348010,0.227507620,9.658126830,0.048473480,0.075472900,0.054170190
1640781377565539840,-0.088025030,0.384027390,10.318268780,-0.052016980,0.059136760,0.060628350
1640781377566360064,-0.119786130,-0.095555440,10.250041010,-0.089763100,-0.019276140,0.066854070
1640781377570669824,-0.096824320,-0.004587790,9.785531040,0.041358180,-0.018446150,0.062607240
1640781377572239872,-0.269522730,0.212251860,9.535634990,0.087556250,0.062298780,0.042347610
1640781377576069888,-0.337495570,0.214599450,9.888975140,0.001780690,0.050257150,0.045502190
1640781377576989952,-0.392418120,0.326167520,10.250957490,-0.037452580,0.042188160,0.047850610
1640781377580559872,-0.212030440,0.053853960,9.595004080,0.001958010,-0.027854740,0.048418340
1640781377581379840,-0.083895960,0.096683490,9.877843860,0.067935900,0.001707670,0.066363820
1640781377585600000,-0.118586410,0.341406490,9.973554610,0.048097970,0.102338190,0.067172950
1640781377586429952,-0.177048620,0.016787460,10.341284750,0.005745890,0.004670020,0.061236330
1640781377590579968,-0.238690110,-0.005871990,10.582897190,0.024431950,-0.034154950,0.063768040
1640781377591369984,0.024365890,0.213265510,9.083760260,0.054432450,-0.004367530,0.036753720
1640781377595680000,-0.072268750,0.358499320,9.775285720,0.030574200,0.018265850,0.028009710
1640781377596580096,-0.249109120,0.658137560,10.406199460,-0.007916990,0.092661390,0.035724050
1640781377600559872,-0.106734690,0.596781790,9.852844240,0.009509920,-0.031551720,0.045950710
1640781377601339904,-0.223460020,0.350207950,10.449881550,0.060674550,-0.062406060,0.055313110
1640781377605649920,-0.193822460,0.642671820,9.653761860,0.061491140,0.060704350,0.054915250
1640781377606439936,-0.246350090,0.630923990,9.927513120,-0.028429930,-0.008344650,0.066323590
1640781377610710016,-0.225061420,0.097846010,10.354307170,-0.058323150,0.009708110,0.075550380
1640781377611460096,0.210650640,-0.076690150,9.196634290,0.049756470,0.040557980,0.038392830
1640781377615579904,0.177700330,0.190079550,9.875665660,0.092306730,0.014775990,0.017307700
1640781377616430080,-0.044235650,0.375628440,10.238526340,-0.003451110,0.040875370,0.044575330
1640781377620600064,0.007772830,0.221506420,9.812298770,-0.081939990,-0.033327940,0.052508720
1640781377621369856,-0.018057840,-0.094602350,9.780770300,-0.001679360,-0.009918210,0.032526250
1640781377625569792,-0.093657750,-0.061428330,9.675119400,0.120568280,0.055359310,0.019554790
1640781377626859776,-0.103401560,0.563539860,9.801082610,0.065128510,0.067636370,0.013318660
1640781377631109888,-0.273256150,0.466050860,10.253686900,-0.047536200,0.009591880,0.033102930
1640781377631609856,-0.446786790,-0.053331230,10.212464330,-0.037978600,-0.047267980,0.038275130
1640781377635619840,-0.199521660,-0.015195610,9.181714060,0.106884550,-0.025962290,0.023595990
1640781377636399872,-0.333397600,-0.001305960,9.641387940,0.154380520,0.018009540,0.011430680
1640781377640529920,-0.282362430,0.307477180,10.229499820,0.018733740,0.087504090,0.014686590
1640781377641379840,-0.080992450,0.354694310,10.199549670,-0.057952110,0.006677210,0.022053720
1640781377645689856,-0.238547590,-0.039981280,10.422369000,0.037667160,-0.098964590,0.015850370
1640781377647519744,0.041950080,0.360902490,9.275216100,0.131189810,-0.014959270,-0.000932810
1640781377650679808,0.002922370,0.794956210,9.551514630,0.086493800,0.026635830,-0.002996620
1640781377651869952,-0.402440220,0.679868700,10.656685830,-0.035902860,0.047922130,0.020805000
1640781377655589888,-0.166637230,0.494880800,10.112400050,-0.036828220,-0.064069030,0.034497680
1640781377656399872,-0.139463690,0.394920350,9.832878110,0.077277420,-0.084199000,0.015859310
1640781377660699904,-0.249266180,0.481819420,9.667480470,0.081476580,0.024671850,-0.014305120
1640781377661479936,-0.069058890,0.609952930,9.833242420,-0.019454960,0.028696660,0.012496120
1640781377665609728,-0.285218980,0.223085000,10.359074590,-0.036031010,0.000548360,0.016796590
1640781377666400000,-0.094500150,-0.243932710,9.939758300,0.035396220,-0.076110660,0.007803740
1640781377670579968,0.031457640,0.123086010,9.596976280,0.092069800,-0.055877860,0.015488270
1640781377671419904,-0.128341300,0.274439010,9.627376560,0.018122790,0.021100040,0.000925360
1640781377676009984,0.069294430,0.019195640,10.048675540,-0.060835490,0.013607740,0.003512200
1640781377677229824,0.003670730,0.115339810,10.181745530,0.033202770,0.002017620,-0.011163950
1640781377680589824,0.029498100,0.212394700,9.701890950,0.109960130,-0.054888430,-0.038360060
1640781377681419776,-0.075923490,0.532423140,9.789744380,0.040631000,-0.020360950,-0.002034010
1640781377685649920,-0.357419730,0.536146220,9.661168100,-0.025853510,-0.007815660,0.001111630
1640781377686380032,-0.359899040,-0.175126790,9.876850130,0.001481180,-0.042544300,-0.023394820
1640781377690579968,-0.356111620,-0.040158560,9.835323330,0.125817950,-0.010687110,-0.016847250
1640781377691409920,-0.317789850,0.264172320,9.678332330,0.120063130,-0.014664230,-0.034675010
1640781377695659776,-0.325821670,0.199724910,10.377320290,-0.013150280,-0.016936660,-0.018160050
1640781377696440064,-0.340492550,0.090895010,10.192877770,-0.015690920,-0.031787160,-0.001855190
1640781377700809984,-0.220777020,-0.136781310,9.727123260,0.114196550,-0.097279250,-0.032240160
1640781377701419776,-0.133329960,0.176219670,9.578258510,0.152635570,-0.060516600,-0.043453280
1640781377705609984,-0.099575890,0.752476570,9.761150360,0.059182940,0.026710330,-0.040303170
1640781377706409984,-0.166287090,0.689479110,10.435295100,-0.051088630,-0.018061700,-0.042837860
1640781377710609920,-0.113269430,0.478910270,10.447018620,0.007191300,-0.130873930,-0.014531610
1640781377711389952,0.077180010,0.510238770,9.642457010,0.134187920,-0.074775510,-0.036385650
1640781377715629824,0.047702820,0.709211290,9.581781390,0.101263840,0.007940830,-0.046747930
1640781377716429824,-0.370358200,0.640847090,10.719285960,-0.014971200,-0.036673250,-0.002513830
1640781377720529920,-0.331879560,0.303433240,9.953477860,-0.040525200,-0.103694200,-0.008293990
1640781377721410048,-0.014215980,-0.003200920,9.098694800,0.036203860,-0.141213850,-0.028581920
1640781377725600000,-0.165353270,0.093162100,10.014924050,0.100706510,0.026899580,-0.043627620
1640781377727899904,0.045109350,0.448777710,9.742980960,0.037039820,0.049354140,-0.054351990
1640781377733959936,-0.162383900,0.244248420,10.844289780,-0.031270090,-0.116086010,-0.024421510
1640781377734659840,-0.167251380,0.007679770,10.278445240,0.001704690,-0.097878280,-0.026851890
1640781377735520000,0.125255660,0.189961980,8.745596890,0.081254550,-0.105197740,-0.043737900
1640781377736440064,-0.215781230,0.349111230,9.862366680,0.071012980,-0.030876690,-0.039759280
1640781377740559872,-0.006254100,0.419953410,9.584058760,-0.008554760,0.089585790,-0.051896270
1640781377741359872,-0.065963480,0.268946770,10.347151760,0.001426040,-0.078299630,-0.050072370
1640781377745659904,-0.265833650,0.050197150,10.525993350,0.080415610,-0.120160000,-0.047633060
1640781377748199936,-0.012398160,0.247102510,9.030946730,0.094032300,-0.078037380,-0.045183300
1640781377750799872,-0.270705640,0.355866340,9.921230320,0.018729270,-0.018578770,-0.048151610
1640781377751799808,-0.425741550,0.023563760,10.386970520,-0.002768640,0.020210450,-0.053770840
1640781377755579904,-0.315133090,0.177843840,10.010227200,0.064477330,-0.123862940,-0.048680610
1640781377756470016,-0.147181990,0.434515030,9.640461920,0.098955640,-0.117577610,-0.057613840
1640781377760949760,-0.099790050,0.577369510,9.561120990,0.028607250,-0.022850930,-0.052174930
1640781377764139776,-0.047709920,0.813755750,10.311002730,-0.049619380,-0.009687240,-0.041835010
1640781377766929920,-0.105436430,0.480103310,10.578137400,0.014416870,-0.064849850,-0.044818220
1640781377768029952,-0.098108410,0.335153250,10.160433770,0.095623730,-0.150463000,-0.050534320
1640781377770560000,0.109983850,0.772054970,9.326365470,0.061106680,-0.078624490,-0.050486620
1640781377771459840,-0.122447790,0.713274540,9.705405240,-0.065031660,-0.004729630,-0.052031870
1640781377775679744,-0.084710930,0.365141330,10.173142430,-0.106208040,-0.025616590,-0.035400690
1640781377777540096,0.108118560,0.067858640,9.759787560,0.046621270,-0.069989260,-0.043174620
1640781377780699904,-0.102230030,0.022857650,9.976823810,0.129866610,-0.082486850,-0.059120360
1640781377781389824,-0.117969100,0.415114250,9.869151120,0.004279610,-0.050951540,-0.022052230
1640781377785539840,-0.297575380,0.208258390,9.926554680,-0.106835370,-0.058698660,-0.025798380
1640781377786409728,-0.346073060,-0.344759320,10.032602310,-0.051759190,-0.074490900,-0.070139770
1640781377790599936,-0.085620710,-0.005430300,9.485475540,0.123868910,-0.043483080,-0.079286110
1640781377791379968,-0.156369880,0.553584640,9.593358990,0.125168230,-0.042998780,-0.084368880
1640781377795759872,-0.140460880,0.767472860,9.941509250,-0.071772940,-0.039987270,-0.053243350
1640781377797199872,-0.036877210,0.515417640,10.106422420,-0.117735560,-0.064115210,-0.012679400
1640781377800559872,-0.151856630,-0.055268570,10.042384150,0.050416590,-0.081582350,-0.044983620
1640781377801449984,-0.187170310,0.148262280,9.864464760,0.175470130,-0.105303530,-0.059655300
1640781377805519872,-0.177174850,0.686478730,9.819909100,0.050771240,-0.039030620,-0.054803490
1640781377806469888,-0.312502000,0.508043290,10.108904840,-0.149238110,-0.030201680,-0.066360840
1640781377810669824,-0.186139930,0.204257670,10.401945110,-0.104671730,-0.115248580,-0.045412790
1640781377811439872,-0.056650750,0.311855610,9.571336750,0.104442240,-0.070793910,-0.066195440
1640781377816689920,-0.088344180,0.614767610,9.612776760,0.113517030,-0.072790670,-0.074553470
1640781377817270016,-0.183567580,0.953126910,10.439019200,-0.065480180,-0.019735100,-0.014838580
1640781377820559872,-0.225828890,0.483619810,10.037328720,-0.156377240,-0.070960800,-0.007604060
1640781377821389824,-0.072933840,-0.179763000,10.009640690,-0.028859080,-0.168441240,-0.033982100
1640781377825559808,-0.000173880,0.206994770,9.516390800,0.110228370,-0.025671720,-0.065374380
1640781377828649984,0.066648780,0.521258950,9.387284280,0.020986800,-0.017882880,-0.075964630
1640781377830599936,-0.057902530,0.318373380,10.724123950,-0.139398870,-0.038439050,-0.032258030
1640781377831439872,-0.017162670,-0.040915090,9.955380440,-0.092492990,-0.067807730,-0.026644770
1640781377835569920,-0.036805340,-0.267640170,9.657660480,0.069692740,-0.177754460,-0.053791710
1640781377836459776,-0.222641650,0.168569790,9.732143400,0.087846820,-0.053253770,-0.034904480
1640781377840620032,-0.148378010,0.439232770,9.230298040,-0.042185190,0.011834500,-0.042739500
1640781377841410048,-0.233426290,0.150469420,10.548522950,-0.109431160,-0.057853760,-0.053487720
1640781377845809920,-0.173805820,0.177976670,10.179914470,-0.003682080,-0.079873200,-0.051110990
1640781377846679808,0.079754110,0.505392790,9.260156630,0.096666820,-0.117008390,-0.042283540
1640781377850560000,-0.166594540,0.636864660,10.128175740,0.012606380,-0.047354400,-0.034032760
1640781377851399936,-0.189930560,0.487804230,9.947880740,-0.071342300,-0.021432350,-0.017011170
1640781377855579904,-0.078272690,0.163885220,10.079025270,-0.039841230,-0.099939110,-0.035783650
1640781377856449792,-0.162025230,0.200108160,10.131092070,0.035612290,-0.078663230,-0.054772200
1640781377861209856,-0.120887320,0.656107070,9.741494180,0.014588240,-0.067511200,-0.041325390
1640781377862219776,-0.024057220,0.744427680,9.854488370,-0.096847110,-0.059133760,-0.043317680
1640781377865619968,-0.087010980,0.438394670,10.100809100,-0.090928380,-0.048814710,-0.009906290
1640781377866400000,0.065169270,0.240557480,9.993496890,0.016848740,-0.064994380,-0.008337200
1640781377870539776,0.129586220,0.422504070,9.851428030,0.050273550,-0.068606440,-0.031219430
1640781377871439872,-0.078265140,0.597318050,10.217062950,-0.062961880,-0.058372320,0.004565720
1640781377875670016,0.151385280,0.355685110,9.778705600,-0.162816050,-0.027522450,0.002364810
1640781377877969920,0.076972480,-0.133280960,9.734251020,-0.051212310,-0.056737670,-0.039315220
1640781377881179904,0.019085110,0.069718080,9.768545150,0.061611830,-0.045670560,-0.040553510
1640781377881729792,0.083448690,0.539751470,9.471039770,0.000447030,-0.001892450,-0.013914700
1640781377885540096,-0.398892310,0.225642620,10.446173670,-0.128513590,-0.072132050,0.009711090
1640781377886380032,-0.297275600,-0.231839850,10.133224490,-0.096069280,-0.083288550,0.016261640
1640781377891239936,-0.191999790,-0.199926320,9.425430300,0.068402300,-0.062792000,-0.018374620
1640781377892659968,-0.322199910,0.142624360,9.927831650,0.062613190,-0.003643330,-0.039410590
1640781377895649792,-0.161363110,0.578956960,10.129456520,-0.079265240,0.005954500,-0.020316240
1640781377896519936,-0.155875890,0.501692000,10.225523950,-0.118376330,-0.112961260,-0.005251170
1640781377900529920,-0.013187190,0.219446350,9.823538780,-0.039072330,-0.097054250,-0.003628430
1640781377901379840,0.141773160,0.507471680,9.533432010,0.070177010,-0.026415290,-0.000160930
1640781377905570048,-0.199519560,0.704737540,10.390827180,0.011299550,-0.008918350,0.001037120
1640781377906489856,-0.268442030,0.476660520,10.456159590,-0.123180470,-0.087851290,0.023019310
1640781377910599936,-0.094466170,0.209487840,9.840664860,-0.094722200,-0.133638100,0.029629470
1640781377912119808,-0.089808040,0.112157320,9.466323850,0.002145770,-0.045463450,-0.017023090
1640781377915779840,-0.038546450,0.375493350,9.921765330,0.006586310,-0.005456810,-0.004634260
1640781377916450048,-0.190151290,0.640237450,10.424169540,-0.065597900,-0.023268160,0.022967160
1640781377920569856,-0.215042670,0.079157520,10.129596710,-0.105926400,-0.131547450,0.027206540
1640781377921440000,0.002129870,-0.087940600,9.710973740,-0.021353370,-0.123225160,0.042787190
1640781377925580032,0.009759380,0.234021380,9.185772900,0.021627550,-0.000809130,0.012591480
1640781377926429952,0.026982110,0.128221180,9.968252180,-0.058342510,-0.007714330,0.010967250
1640781377930689792,0.050076660,0.087464670,10.584821700,-0.070790930,-0.012713670,0.027677420
1640781377932349952,0.059405790,-0.071127880,9.797292710,-0.008589030,-0.110875070,-0.000679490
1640781377935579904,-0.032998580,-0.042069580,9.829870220,0.040401520,-0.145320590,0.022020940
1640781377936409856,-0.184407060,0.245694820,9.474061010,0.003415350,-0.001442430,0.028139350
1640781377940640000,-0.194975500,0.031180600,9.707924840,-0.055529180,-0.020994250,0.004158910
1640781377941399808,-0.381561220,-0.094281620,10.743787770,0.004521010,-0.063763570,0.017431380
1640781377945609728,-0.100280400,0.207329790,9.403822900,0.079421710,-0.080096720,-0.002104040
1640781377946459904,-0.070279630,0.442000960,9.771400450,0.022032860,-0.102244340,0.005367400
1640781377950539776,-0.247068610,0.414540470,10.425120350,-0.052066150,0.010591750,0.029161570
1640781377951399936,-0.061655530,0.248790700,9.862884520,-0.005120040,-0.073392680,0.012542310
1640781377955739904,-0.052525160,0.235055360,10.292618750,0.071659680,-0.137375310,0.017152730
1640781377957449984,0.096412730,0.520153340,9.528101920,0.050346560,-0.019580130,0.023505090
1640781377960939776,0.156107440,0.841173530,9.800982480,-0.069317210,-0.022386010,0.023950630
1640781377962349824,-0.098159890,0.495772000,10.657819750,-0.106938190,-0.052700940,0.042781230
1640781377965580032,0.075669130,0.219492580,9.828732490,0.014220180,-0.094015900,0.028216840
1640781377966429952,0.130748230,0.520593580,9.692591670,0.078368190,-0.073543200,0.008855760
1640781377970670080,-0.175855730,0.672624650,10.149256710,-0.023846330,-0.000904500,0.029955810
1640781377971559936,-0.134901510,0.484048580,10.169583320,-0.148247150,-0.052925940,0.056575230
1640781377975589888,0.108581040,0.021703380,9.783406260,-0.080175700,-0.058121990,0.039321180
1640781377976480000,0.083335050,-0.163961810,9.640674590,0.070802870,-0.031739480,0.015051670
1640781377980640000,0.222267720,0.422383930,9.666866300,0.044640900,0.020213430,0.018613040
1640781377982519808,0.017970660,0.442832770,10.129716870,-0.100426400,-0.010702020,0.040306160
1640781377985619968,-0.082586020,-0.121698970,10.381022450,-0.133289410,-0.070908670,0.047315660
1640781377986749952,0.089490650,-0.217129170,9.660023690,0.022897120,-0.029738250,0.026871260
1640781377990520064,-0.134785710,-0.021057390,9.573590280,0.121974940,-0.016379350,0.006550550
1640781377991399936,-0.106811130,0.313845220,9.892577170,-0.010842080,0.031653050,0.010634960
1640781377995630080,-0.111906230,0.343419940,10.009943010,-0.108148160,0.014759600,0.029146670
1640781377996679936,-0.261187080,-0.094684620,10.254871370,-0.041116770,-0.077639530,0.021907690
1640781378000589824,-0.101458980,-0.079365970,9.743511200,0.104564440,-0.042580080,0.029750170
1640781378001509888,-0.130844520,0.422550380,9.637573240,0.115767130,-0.000987950,0.022317470
1640781378005519872,-0.281070920,0.322493020,10.408210750,-0.046332180,0.035478170,0.022193790
1640781378006409984,-0.129919780,0.175332340,10.334656720,-0.081689660,-0.029851500,0.036294760
1640781378010959872,-0.051328950,0.238867220,9.890735630,0.050577510,-0.089524680,0.020429490
1640781378011889920,0.068151970,0.317998650,9.538791660,0.083602970,-0.008556250,0.005795060
1640781378015569920,-0.045492130,0.696216700,10.087360380,0.017313660,0.038653620,0.028190020
1640781378016480000,-0.261319820,0.511642990,10.499384880,-0.046563150,-0.005440410,0.031897430
1640781378020629760,-0.039170740,0.061970010,10.029740330,-0.018268820,-0.110814000,0.040994590
1640781378021449984,0.077510730,0.441424370,9.703769680,0.050325700,-0.011499230,0.034293530
1640781378025539840,0.106733500,0.530304430,9.681611060,0.007158520,0.075052680,0.016544760
1640781378026469888,0.049979340,0.319960860,10.538047790,-0.045177350,-0.002725420,0.037898130
1640781378030690048,0.067319650,0.240298150,9.978148460,-0.000622870,-0.016392770,0.037287180
1640781378032749824,0.172650650,-0.125078570,9.472962380,0.055375700,-0.063483420,0.023950640
1640781378035929856,-0.190975760,0.171073760,10.219019890,0.042597950,0.012585520,0.035406650
1640781378036619776,-0.130124690,0.281696170,9.656754490,-0.046381350,0.054280460,0.030042230
1640781378040580096,-0.107864890,-0.212068360,10.186907770,-0.039869550,-0.023318830,0.004053120
1640781378041389824,-0.157317820,0.029193960,10.169638630,0.071573260,0.044423340,-0.005450850
1640781378045699840,0.121736090,0.376341880,9.195478440,0.101068620,0.001417100,0.002479550
1640781378047419904,-0.200338240,0.388767300,10.332732200,-0.000339750,-0.019474330,0.033238530
1640781378050679808,-0.138873200,0.184098810,9.864431380,-0.040549050,0.054453320,0.041836500
1640781378051519744,0.077090020,-0.179283780,9.794147490,0.064511600,-0.020332640,0.026035310
1640781378055569920,-0.244567680,-0.064958360,10.536745070,0.151053060,0.013937050,0.002194940
1640781378056429824,0.003873370,0.451511140,9.660843850,0.060461460,0.035694240,-0.002752240
1640781378060999936,-0.090444620,0.504366220,10.174960140,-0.059016050,-0.011086460,0.012265150
1640781378062180096,-0.282641020,0.183293150,10.278039930,-0.015099350,0.010131300,0.004905460
1640781378065649920,-0.019757270,0.252838340,9.576611520,0.114311300,-0.020456320,0.010544060
1640781378066680064,-0.068760120,0.606252070,9.907115940,0.132657600,0.032958390,-0.000312920
1640781378070589952,-0.260631980,0.762683930,10.501494410,-0.017532710,0.057138500,0.021500890
1640781378071460096,-0.036591000,0.547119260,10.367471690,-0.108174980,-0.009357930,0.049363080
1640781378075549952,0.021797580,0.050517050,9.815933230,0.026841460,-0.029307610,0.017310680
1640781378076470016,0.096658710,0.086483460,9.662231450,0.132879600,0.038087360,-0.000131130
1640781378080600064,0.206890570,0.616694210,9.639577870,0.056304040,0.094740090,0.017507370
1640781378081559808,-0.166088450,0.256908300,10.531748770,-0.062534210,0.023324790,0.018650290
1640781378085799936,-0.052432560,-0.185106750,10.329092030,-0.060951710,-0.037699940,0.013619660
1640781378086720000,0.115639890,-0.018210530,9.357677460,0.095699710,-0.001814960,-0.003461540
1640781378091980032,-0.084136390,0.235229430,9.777799610,0.113688420,0.087562210,-0.037111340
1640781378092409856,-0.028434080,0.540697040,10.098046300,-0.014649330,0.116048770,-0.004100800
1640781378095660032,-0.199853580,0.315529170,10.375772480,-0.043128420,-0.000695880,0.008289510
1640781378096900096,-0.132691550,-0.188388180,9.838242530,0.044436750,-0.049465910,-0.011812150
1640781378101270016,-0.023047780,0.024686340,9.111339570,0.150132210,0.032895810,-0.006420910
1640781378101809920,-0.264487450,0.204586740,9.814695360,0.092530240,0.111585860,-0.026702880
1640781378105600000,-0.278075640,-0.009265530,10.430948260,-0.019717210,0.062280890,-0.036410990
1640781378106489856,-0.165192130,0.118819880,10.255055430,0.036552550,-0.035214420,-0.022359190
1640781378110980096,-0.027129660,0.119194060,9.576320650,0.114531820,0.016944110,-0.051493950
1640781378112310016,-0.140668840,0.349151220,9.848078730,0.119763630,0.049570200,-0.031293930
1640781378116910080,-0.407995640,0.591323550,10.430351260,0.074316570,0.053878130,-0.014586750
1640781378118729728,-0.305071830,0.311729850,9.819396970,0.034844880,-0.031912330,-0.030568250
1640781378120549888,-0.182483580,0.310396430,9.894237520,0.074666750,-0.043617190,-0.012873110
1640781378121420032,-0.048003410,0.656744360,9.710419650,0.099232790,0.123338420,-0.037437680
1640781378125579776,-0.131774950,0.674804990,10.380651470,0.038208070,0.036613640,-0.052167480
1640781378126459904,-0.124275920,0.676074090,10.782549860,0.012482700,-0.022251900,-0.020027160
1640781378130640128,0.192692370,0.406270380,9.239930150,0.052547460,0.012601910,-0.039638580
1640781378131840000,0.044638330,0.357337030,9.843199730,0.074195850,-0.003173950,-0.047059360
1640781378136229888,-0.201156990,0.563615320,10.224352840,0.028808410,0.089097030,-0.018872320
1640781378136819712,0.018599730,0.151937890,9.465991970,-0.015701360,-0.008530910,-0.036886340
1640781378140579840,0.008781440,-0.126309950,10.196434020,0.032632060,0.016793610,-0.039540230
1640781378141440000,0.092122740,0.126521320,9.598200800,0.096420930,0.130717460,-0.040467090
1640781378147699712,-0.026175800,0.378559380,10.024966240,0.042414660,0.011296570,-0.057214500
1640781378150589952,-0.394563380,0.369493190,10.630707740,-0.032868990,0.006814300,-0.040933490
1640781378151059968,-0.085838050,0.021500890,9.132536890,0.020416080,0.011421740,-0.054337080
1640781378151539968,-0.250153810,0.060006950,9.671948430,0.120611500,0.009997190,-0.093351300
1640781378155639808,-0.278075100,0.406543310,9.938091280,0.099864600,0.111117970,-0.082875790
1640781378156430080,-0.044681980,0.479243930,9.936041830,-0.006434320,0.061221420,-0.075876700
1640781378160569856,-0.229792060,0.197236750,10.696499820,-0.016421080,-0.006434320,-0.067335370
1640781378162149888,-0.080670500,-0.103693310,9.845226290,0.098770880,-0.011263790,-0.050538790
1640781378165639936,-0.019870960,0.171000720,9.463380810,0.152842700,0.010192400,-0.061133500
1640781378166419968,-0.214797770,0.362895970,10.135917660,0.059829650,0.069165240,-0.072658070
1640781378170569984,-0.239086290,0.344746710,10.371829990,-0.041377550,0.038765360,-0.050966450
1640781378171449856,-0.050612820,0.258351480,9.973106380,0.017850100,-0.026077030,-0.069291890
1640781378175539968,-0.102383580,0.213500200,9.955023770,0.139972580,-0.011797250,-0.094272200
1640781378176450048,0.037519680,0.800495150,9.700697900,0.103107090,0.049385430,-0.081442300
1640781378180630016,0.000677560,0.909939290,9.992918010,-0.013975800,0.062458220,-0.061669940
1640781378181609984,-0.264024970,0.331711920,10.685870170,-0.040879850,-0.007739660,-0.033918020
1640781378185590016,0.011995990,0.167234600,9.692089080,0.073572980,-0.040547550,-0.046442440
1640781378186519808,-0.002635640,0.243899050,9.469101910,0.137613730,-0.002321600,-0.072902440
1640781378190579968,-0.006056950,0.243948770,9.831944470,0.023262200,0.098997360,-0.058119000
1640781378191500032,0.139651160,0.134980500,9.995725630,-0.037212670,0.075264280,-0.050623710
1640781378195670016,-0.008397950,-0.334491670,10.388515470,0.046791150,-0.019653140,-0.074170540
1640781378197360128,0.076059740,-0.153880600,9.589092250,0.133727490,-0.024376810,-0.071547930
1640781378201239808,-0.091530610,0.398769500,9.529897690,0.099803510,0.017374750,-0.065003340
1640781378201849856,-0.381117790,0.113944720,10.018661500,-0.014410910,0.057932730,-0.073276450
1640781378205499904,-0.310271020,0.072004750,10.023866650,0.028675790,0.016713140,-0.085876870
1640781378206490112,-0.219103200,0.336837170,9.837220190,0.143222510,-0.001309810,-0.098389390
1640781378210889728,-0.065161710,0.520381810,9.665452960,0.111031540,0.030100350,-0.093224640
1640781378212790016,-0.047557710,0.697272720,10.235280990,0.027076910,0.045372560,-0.065255170
1640781378215629824,-0.125928670,0.320362810,10.241487500,0.019791720,0.033749640,-0.077070300
1640781378217589760,-0.093579190,-0.051438800,9.973798750,0.112302600,-0.063215200,-0.070649390
1640781378220529920,-0.071353130,0.297758610,9.768124580,0.154539960,0.007927420,-0.085346410
1640781378221400064,-0.052089100,0.600781440,9.559628490,0.030335780,0.073574480,-0.103630130
1640781378225629952,-0.182663570,0.520960750,10.700056080,-0.052347780,0.013495980,-0.069883470
1640781378231739904,-0.050769950,0.465988370,10.143899920,0.031010810,0.004415210,-0.097294150
1640781378232819968,0.064095730,0.331087530,9.515100480,0.141431390,-0.048398980,-0.106234850
1640781378233239808,-0.084744140,0.711600540,10.162828450,0.109291080,0.041641300,-0.087976440
1640781378235569920,-0.177058350,0.911271690,9.752260210,-0.045074530,0.061708690,-0.075963130
1640781378236450048,-0.208693980,0.170663060,10.321037290,-0.080080320,-0.077828760,-0.054906300
1640781378240559872,0.050513640,-0.045621020,9.719264980,0.075343240,0.040467080,-0.089795890
1640781378241509888,0.228291570,0.194479990,9.177816390,0.141732390,0.036923590,-0.122340030
1640781378249029888,-0.006819120,0.356604700,10.536939620,0.032481550,0.038209560,-0.081604730
1640781378249619968,0.066653440,0.247936530,9.785663600,-0.070765610,0.048708920,-0.081345450
1640781378250520064,-0.017613910,-0.245005470,9.952036860,-0.007992980,-0.089414430,-0.093887750
1640781378251399936,-0.280652550,-0.235295460,10.036879540,0.150211160,0.007237490,-0.088247660
1640781378255739904,-0.131574790,0.207684860,8.905776980,0.151366000,0.039117040,-0.121209030
1640781378256649984,-0.421216160,0.437203410,10.455167770,-0.015981500,0.022168460,-0.109691930
1640781378260630016,-0.406758430,0.275697470,10.347197530,-0.054258110,0.050789120,-0.089029980
1640781378261689856,-0.042263370,0.095913950,9.540040970,0.083173810,-0.095970940,-0.116390010
1640781378266199808,-0.221930940,0.356609460,10.081460000,0.177384930,-0.008139010,-0.095877060
1640781378266870016,-0.035015440,0.530124430,9.528635980,0.093913090,0.078821180,-0.083817540
1640781378270540032,-0.233520980,0.388996990,10.567305560,-0.020556150,-0.033099950,-0.091987870
1640781378271479808,-0.343713250,0.066261940,10.460797310,0.014677640,-0.070352840,-0.079472360
1640781378276179968,0.048866190,0.169709350,9.107271190,0.112639390,-0.067599120,-0.110897430
1640781378276969984,-0.192728500,0.616741060,9.948125840,0.103998190,0.004485250,-0.123044850
1640781378280740096,-0.222677280,0.685911660,10.234572410,0.003816190,0.038391340,-0.091232350
1640781378281469696,-0.031912460,0.570636630,10.151150700,-0.015243890,-0.059476500,-0.084598360
1640781378285529856,-0.183866460,0.366205870,10.179077150,0.056503720,-0.085331500,-0.091275580
1640781378286479872,-0.073635240,0.483910470,9.627710340,0.100667770,-0.040441760,-0.090174380
1640781378290789888,-0.092492350,0.776406710,9.761257170,0.016066430,-0.011596080,-0.086362670
1640781378292339968,-0.130002600,0.287320200,10.057258610,-0.047084690,-0.010988120,-0.092501950
1640781378295679744,0.151636730,0.085299260,9.829447750,0.018687550,-0.024662910,-0.091323260
1640781378299219968,0.158838320,0.256604110,9.677797320,0.095957530,-0.037145610,-0.113223490
1640781378300570112,-0.009618650,0.257310000,9.958970070,0.036834180,-0.024308270,-0.095424080
1640781378301479936,-0.121042910,0.226810950,9.978916170,-0.041677060,-0.045599040,-0.078456110
1640781378305579776,-0.269948240,-0.265813140,9.823241230,0.012288990,-0.070560000,-0.093974190
1640781378306530048,-0.179552210,-0.258204730,9.640086170,0.094801170,-0.040397040,-0.117665540
1640781378310729984,-0.157262860,0.455585270,9.650328640,0.084193050,0.018148130,-0.125224860
1640781378312269824,-0.325592760,0.426647810,10.323575020,-0.019466880,-0.022938850,-0.110197070
1640781378315640064,-0.203807040,0.344406960,10.244724270,-0.023803120,-0.085175040,-0.090938810
1640781378316509952,-0.108020280,0.342496400,9.457264900,0.097993030,-0.088435420,-0.094941270
1640781378320600064,-0.098520960,0.301284220,9.723598480,0.106872630,-0.043471160,-0.090360640
1640781378321449984,-0.014069840,0.692590890,10.056531910,0.024187560,0.021834670,-0.097905120
1640781378325600000,-0.166390970,0.581683990,10.383397100,-0.046613800,-0.054593390,-0.108645860
1640781378326479872,-0.072568130,0.231365560,10.176875110,-0.017611680,-0.123193860,-0.100532170
1640781378330739968,0.020756590,0.497996330,9.260397910,0.096778570,-0.083729630,-0.123977680
1640781378331480064,-0.094357010,0.619310620,9.594739910,0.033251940,-0.028933590,-0.119107960
1640781378335549952,-0.154133590,0.568418150,10.231234550,-0.052773950,0.021046400,-0.058680770
1640781378336489984,-0.180687260,0.246129480,10.312722210,-0.019496680,-0.087119630,-0.078602130
1640781378340569856,-0.087411110,-0.114537800,10.074090960,0.047981740,-0.134420390,-0.080153350
1640781378341430016,-0.028197260,0.245313470,9.452469830,0.068315870,-0.042985380,-0.089120860
1640781378348290048,0.119187350,0.361804370,9.455029490,-0.037924960,0.002810360,-0.121986890
1640781378349110016,0.139630990,0.181323870,10.142382620,-0.083185740,0.002118940,-0.101895630
1640781378350579968,0.244274690,0.311669530,9.856204990,0.028090180,-0.054840740,-0.101217630
1640781378351419904,0.180771470,0.341365640,9.735136990,0.063145170,-0.089424860,-0.117032230
1640781378355699968,-0.114583610,0.443941830,9.777151110,0.008034710,-0.048080100,-0.059662770
1640781378356499968,-0.127851170,0.098762850,9.576664920,-0.029920040,-0.010545550,-0.077612710
1640781378360969984,-0.338363410,-0.248865040,10.183584210,0.011919440,-0.039713080,-0.109313440
1640781378362049792,-0.272916590,0.158419090,9.843953130,0.079162420,-0.041720270,-0.091864180
1640781378365819904,-0.080908260,0.334591060,9.526923180,0.018273300,-0.033053760,-0.115753730
1640781378366469888,-0.291551860,0.293094780,10.272847180,-0.038816030,-0.023762880,-0.094805670
1640781378370529792,-0.092305820,0.324049200,9.930208210,0.002087650,-0.041787330,-0.083808610
1640781378371559936,-0.057876900,0.176974250,9.825010300,0.080576550,-0.091461830,-0.108908120
1640781378375569920,-0.006843870,0.602194670,9.796648030,0.059093550,-0.036868450,-0.097927470
1640781378376479744,0.163466710,0.941508530,9.713350300,-0.070758160,0.038340690,-0.090163950
1640781378380640000,-0.106020390,0.438028990,10.645101550,-0.077793010,-0.052532550,-0.080475220
1640781378382429952,-0.011513640,0.398168210,9.921678540,0.036029520,-0.101149080,-0.075508660
1640781378385589760,0.145563480,0.606175070,9.006237980,0.068221990,-0.075432650,-0.092338010
1640781378386599936,-0.193677930,0.531256740,9.917296410,-0.037001080,0.025002660,-0.061717630
1640781378390599936,-0.263273090,0.430187940,10.306651120,-0.121940660,0.025878850,-0.038827950
1640781378391439872,-0.280362250,-0.128904420,10.282811160,-0.035440930,-0.140160340,-0.065265600
1640781378395709952,-0.066186510,-0.105969940,9.549337390,0.065799060,-0.078147660,-0.083565700
1640781378396529920,0.242163570,0.545410450,9.044813160,0.005719070,0.040464110,-0.088270020
1640781378400519936,0.064406100,0.330945580,10.292436600,-0.102491680,0.042316320,-0.070108470
1640781378401479936,0.129138280,0.136451540,10.302760120,-0.080320230,-0.043472640,-0.052940850
1640781378405570048,0.204100830,0.126208830,9.532112120,0.056546930,-0.115978730,-0.061801080
1640781378406459904,-0.047396830,0.117091260,9.449415210,0.066356370,-0.043748320,-0.066810850
1640781378410919936,-0.126985330,0.381498930,9.601238250,-0.050356980,0.046832860,-0.062417980
1640781378411889920,-0.312467960,0.105202030,10.187244420,-0.085145240,0.006072220,-0.077968840
1640781378415529984,-0.203419850,-0.158360910,10.190258980,0.001266600,-0.066362330,-0.092981760
1640781378416499968,-0.018710680,0.382138640,9.447238920,0.085769610,-0.039011240,-0.079521540
1640781378420610048,-0.125290200,0.352328540,9.807620050,0.020000330,0.007480380,-0.063908100
1640781378421499904,-0.184765800,0.262851000,10.263954160,-0.065718590,-0.006771090,-0.051581870
1640781378425590016,-0.128117370,0.210304220,9.867249490,-0.001986330,-0.065650050,-0.047904260
1640781378426489856,0.055407700,0.071509590,9.656784060,0.038668520,-0.057543810,-0.073947010
1640781378431379968,0.017139030,0.596486810,9.837038040,0.028671320,0.038027770,-0.078579780
1640781378432269824,-0.064146080,0.734316230,10.183867450,-0.052900620,-0.007162990,-0.082784890
1640781378436049920,0.015649180,0.433426170,10.299926760,-0.084155800,-0.069996720,-0.065271560
1640781378436829952,0.108370790,0.503055810,9.434510230,0.023257730,-0.020542740,-0.060166420
1640781378440539904,-0.053995520,0.386959140,9.826961520,0.031191120,-0.023397810,-0.070209820
1640781378441459968,-0.312250880,0.574843760,10.279340740,-0.043068820,0.002394620,-0.019377470
1640781378445699840,-0.129070270,0.311067550,9.637320520,-0.090193750,-0.061571600,-0.017422440
1640781378446579968,0.043057770,-0.275607710,9.812125210,-0.042743980,-0.032544140,-0.034311410
1640781378450569984,0.274585070,0.041906770,9.424194340,0.051835170,0.082103900,-0.042358040
1640781378451599872,0.333660690,0.190155820,9.978340150,0.006747250,0.038020320,-0.061446440
1640781378456249856,-0.015916080,0.086085410,10.760908130,-0.070917610,-0.022313000,-0.026927890
1640781378456909824,0.137558520,0.045491730,9.300536160,-0.035209960,-0.082550940,-0.027868160
1640781378460969984,-0.043723880,-0.152795370,9.356552120,0.032676750,-0.047069790,-0.056463480
1640781378461989888,-0.167061150,0.185548480,9.539381980,0.048519670,0.118860600,-0.046893950
1640781378465560064,-0.117082750,0.351764020,9.938752170,-0.002622600,0.053872180,-0.058639050
1640781378466480128,-0.322465660,0.108268920,10.698066710,-0.028108060,-0.054611260,-0.039598340
1640781378470589952,0.082939180,0.167580320,9.153186800,0.033156570,-0.021865970,-0.029407440
1640781378471419904,-0.003431480,0.098320820,9.580347060,0.061354040,0.004847350,-0.030002000
1640781378475509760,-0.240621750,0.011280720,10.310851100,0.056900090,0.090540950,-0.014777480
1640781378476489984,0.022775410,0.087851730,9.841161730,0.021506850,-0.017504400,-0.031936170
1640781378480579840,-0.037949230,0.020557300,10.036584850,0.024656950,-0.041957200,-0.052927430
1640781378481519872,0.066632770,0.275611700,9.524750710,0.034873190,0.037075580,-0.058574970
1640781378485659904,0.008484120,0.700294440,9.895970340,0.015826520,0.012324750,-0.062811370
1640781378486670080,-0.218479200,0.605142120,10.277576450,0.012946130,0.015346710,-0.041662160
1640781378490540032,0.074497810,0.592446450,9.704200740,0.032323600,-0.006935000,-0.014370680
1640781378491430144,0.020310800,0.600729880,9.906779290,0.037904090,0.023831430,-0.029346350
1640781378495640064,-0.131304700,0.531877880,10.143063550,-0.001570580,0.045873220,-0.018444660
1640781378496649984,0.012290520,0.437255380,10.050142290,-0.043347480,-0.016118590,0.000341240
1640781378500809984,0.049445720,0.003781760,9.560340880,0.002972780,0.001831350,-0.026698410
1640781378501989888,0.356921290,-0.024337490,9.271579740,0.046236810,0.056804720,-0.033618510
1640781378505559808,0.327533190,0.275418010,9.920027730,0.022156540,0.131818670,-0.031065940
1640781378506479872,0.026270610,0.115032190,10.428698540,-0.042733550,0.026290120,-0.010859970
1640781378510929920,0.112372220,-0.066172490,10.062215810,-0.016349550,-0.057072940,-0.002138320
1640781378511759872,0.034660440,-0.056437650,9.080203060,0.061906890,0.055888310,-0.037844480
1640781378515509760,-0.113925960,0.244012970,9.589563370,0.046165280,0.090020900,-0.044375660
1640781378516489984,-0.168698160,0.431079360,10.289428710,-0.006560980,0.132600980,-0.036442280
1640781378520560128,-0.205210780,0.192987520,9.965162280,-0.009053950,0.010183450,-0.025844570
1640781378521440000,-0.108842020,0.136424660,10.039975170,0.055593240,-0.033338360,-0.018468500
1640781378525639936,-0.145234570,0.204792650,9.239314080,0.092989190,0.084412090,-0.014026460
1640781378531239936,-0.167025600,0.071271520,9.802783970,0.031793120,0.053913900,-0.019261240
1640781378532290048,-0.113807780,0.124896420,10.479511260,0.005301830,0.113184760,-0.024579470
1640781378533519872,0.068550210,0.029586700,9.737542150,0.037151580,0.031761830,-0.037667160
1640781378535579904,0.075694770,0.179980290,10.156540870,0.079257790,-0.011254850,-0.032915170
1640781378536509952,0.032537360,0.599441050,9.504853250,0.057420140,0.107181070,-0.043177600
1640781378540539904,-0.140107350,0.482369900,9.901553150,-0.019963080,0.016546250,-0.031608340
1640781378541459968,-0.363277910,0.452007090,10.521927830,0.022171440,0.034073000,0.002394620
1640781378545699840,-0.058767460,0.468865690,9.222957610,0.075028840,0.033719840,-0.025986140
1640781378548059904,-0.207629170,0.632035080,10.358529090,0.032034520,0.031402710,-0.014938410
1640781378552079872,-0.109935690,0.898844540,10.099426270,-0.043918200,0.129480690,0.003516670
1640781378552669952,0.125835880,0.244927820,9.761667250,-0.052006540,-0.005792080,-0.018996000
1640781378555539968,0.070803840,0.075962270,10.149294850,0.065386280,0.038307900,-0.000350180
1640781378556519936,0.315416540,0.227578980,8.982241630,0.092633080,0.098775330,-0.018382070
1640781378560869888,-0.003520890,0.146239030,10.250295640,-0.021205840,0.026753540,0.005108120
1640781378561619968,-0.006601410,0.172074630,10.073192600,-0.079458960,0.089977690,0.022353230
1640781378566309888,0.231587750,-0.322995690,9.347987170,0.000663100,0.030145050,-0.038181250
1640781378567059968,-0.115785640,-0.014648470,10.216774940,0.115771590,0.065539780,-0.035539270
1640781378570579968,0.100991900,0.650942030,9.157315250,0.056323420,0.141130400,-0.037778910
1640781378571509760,-0.150928480,0.405949090,10.285152440,-0.079695900,0.022076070,-0.019703810
1640781378575629824,-0.313393830,0.292231260,10.203127860,-0.038707260,0.076320770,0.007008020
1640781378577509888,0.031572130,0.106238400,9.027648930,0.098134590,0.028580430,-0.019419200
1640781378582979840,-0.368835060,0.140264020,10.339598660,0.115545100,0.085373220,-0.017450750
1640781378583600128,-0.131968740,0.504918930,9.653202060,0.005301830,0.149023530,-0.020356480
1640781378585499904,-0.163018470,0.192699640,10.355748180,-0.062626610,-0.018563870,-0.019651650
1640781378586479872,-0.086531240,0.114426700,10.055171970,-0.000266730,0.059558460,-0.007256870
1640781378590550016,0.269449710,0.371392700,9.095817570,0.091271100,0.082439190,-0.027865170
1640781378591480064,-0.158389230,0.451406180,10.622914310,0.066432360,0.080248710,-0.009240210
1640781378595739904,-0.139182090,0.629311140,9.920134540,-0.025409460,0.075383470,0.010517240
1640781378596740096,-0.059965920,0.453426960,9.818847660,-0.048722330,-0.043170160,0.003159050
1640781378600559872,-0.246260360,0.351629670,10.098333360,0.004139540,0.081075740,-0.008369980
1640781378601469952,-0.053349860,0.831659140,9.511457440,0.014486910,0.090155020,-0.022821130
1640781378605589760,-0.164496330,0.764950390,10.488549230,-0.039032100,0.044155120,0.001056490
1640781378606489856,0.023691590,0.389809730,9.749941830,-0.041233000,0.088709600,0.015637280
1640781378610810112,0.132069740,0.352782850,9.544245720,0.001651050,0.001154840,0.008416180
1640781378612130048,-0.128493130,0.226872010,10.105903630,-0.011745100,0.071340810,0.029669700
1640781378616289792,0.059717740,0.042495050,9.430644990,-0.054967400,0.069473690,0.042946640
1640781378616879872,0.004041390,-0.109671440,10.196486470,-0.032922630,0.042699280,0.007735190
1640781378620499968,0.055915930,-0.098060180,9.780507090,0.006569920,0.101004560,-0.011661650
1640781378621479936,0.244256720,0.396953880,9.504869460,-0.004562740,0.056162480,-0.009748340
1640781378625619968,-0.183511060,0.458720060,10.292391780,-0.061985850,0.092805910,-0.012496110
1640781378627389952,-0.174208750,0.258330670,9.693150520,-0.050587960,0.009939070,0.018711380
1640781378630659840,-0.219703050,0.156878140,9.603719710,0.052383540,-0.012581050,0.019271670
1640781378631510016,-0.235873090,0.164896920,9.433537480,0.038729610,0.115206840,-0.001333650
1640781378635569920,-0.239702030,0.353411910,10.140192030,-0.034958130,0.092719500,0.013570490
1640781378636519936,-0.380897760,0.175045460,10.649599080,-0.063467030,0.040882820,0.007821620
1640781378640519936,-0.077045650,-0.030127260,9.624942780,-0.002126400,-0.016327200,0.002102550
1640781378644809984,-0.057895740,0.191030670,9.576625820,0.076490650,0.033003090,0.015957650
1640781378645890048,-0.088818350,0.374415130,9.725194930,0.013551120,0.106620800,0.004243850
1640781378646509824,-0.149963480,0.502946080,10.434751510,-0.063151130,0.041937830,0.027689340
1640781378650550016,-0.179494370,0.400117400,10.204294200,-0.038433080,-0.012674930,0.027322770
1640781378651469824,-0.027961530,0.362168910,9.549106600,0.013460220,-0.017622120,-0.004912910
1640781378655559936,-0.043667830,0.914409400,9.838189130,0.016999240,0.072282540,0.015708800
1640781378656610048,-0.035431060,0.896912160,9.916351320,-0.090964120,0.090929870,0.018177930
1640781378660689920,-0.035210480,0.519063530,10.340854640,-0.090190780,0.008736550,0.039209430
1640781378662509824,0.040262170,0.407984380,9.858722690,0.010401010,0.002212820,0.035201010
1640781378666359808,-0.021892040,0.323260250,9.381513600,0.002223250,0.006259980,0.035093730
1640781378666839808,-0.162532020,0.365905400,10.096718790,-0.073716040,0.053660580,0.057820980
1640781378670509824,-0.001188320,-0.043063810,9.667846680,-0.126735870,0.073935100,0.032168630
1640781378671449856,0.083725420,-0.233840530,9.939058300,-0.041598090,0.007140640,0.014685100
1640781378675689984,0.155409250,0.263429490,9.803450580,0.023618340,0.085923100,0.014951830
1640781378676489728,-0.017069800,0.368851690,9.680273060,-0.060606010,0.032858550,0.016610320
1640781378680579840,-0.288757090,0.235451620,10.384343150,-0.097849990,-0.023917860,0.044631960
1640781378682339840,-0.104178400,0.117516740,9.224976540,-0.049057600,0.028739870,0.019571180
1640781378685570048,-0.130725530,0.073419230,9.582180980,0.013735890,0.022488830,0.009080770
1640781378686529792,-0.191893150,0.514763060,10.192108150,-0.011692940,0.141245140,0.011463460
1640781378690850048,-0.110161390,0.417800340,10.018499370,-0.102698810,0.016969440,-0.004039710
1640781378691699968,-0.213885960,0.153126220,10.326574330,-0.072763860,-0.065661970,0.038598480
1640781378695689984,0.003098630,0.116982850,9.066864970,0.011172890,0.039403140,0.014486910
1640781378696620032,-0.190006690,0.070875340,9.759634970,0.016205010,0.018423800,0.019760430
1640781378700599808,-0.331784810,0.374427050,10.517417910,-0.040325520,0.075325380,0.038363040
1640781378701479936,-0.093550940,0.244266410,9.914662360,-0.102987890,-0.015334790,0.009602310
1640781378705539840,-0.249049070,0.210134480,10.272443770,-0.034108760,-0.065936160,0.015966590
1640781378706519808,-0.001566790,0.719189290,9.332331660,-0.005382300,0.048594180,-0.002165140
1640781378712100096,0.023994780,0.780996740,9.624115940,-0.071677570,0.013403590,0.014521180
1640781378712899840,-0.254962980,0.714605510,10.573978420,-0.093670180,0.037807220,0.049911430
1640781378715589888,0.157470930,0.468195170,9.612873080,-0.066180520,-0.024577970,0.031194090
1640781378716499968,-0.095438630,0.341428910,10.145199780,-0.038233400,-0.040209290,0.048507740
1640781378720539904,-0.038991720,0.542500260,9.719977380,-0.086195770,0.053460900,0.053626310
1640781378721479936,0.122152020,0.111954060,9.603616710,-0.125974420,0.013393170,0.034883620
1640781378725900032,-0.038131810,-0.082253580,10.198159220,-0.074933480,0.018711390,0.041641300
1640781378726529792,0.337106760,0.144767630,9.220512390,-0.032980740,0.050258640,0.024533270
1640781378730639872,-0.021331320,0.061946820,10.264084820,-0.064665080,-0.007714330,0.037530060
1640781378731510016,-0.118868370,0.084401850,10.016187670,-0.108368700,0.025385620,0.051257020
1640781378735579904,0.081362580,-0.023058320,9.265686990,-0.076416120,-0.029470020,0.016680360
1640781378736499968,-0.140004780,0.029086730,9.817926410,-0.025990610,0.042766330,0.016582010
1640781378740569856,0.126316620,0.449614470,9.405070300,-0.051036480,0.121335690,0.016173720
1640781378741430016,-0.190576170,0.263447820,10.510951040,-0.070014600,0.008840860,0.023466350
1640781378745659904,-0.262447420,0.072668220,10.145108220,-0.045770410,-0.029100480,0.058642040
1640781378746500096,-0.031850430,0.097671440,9.016716000,0.013719500,-0.033415860,0.049133610
1640781378750530048,-0.241701770,0.017509410,9.756885530,-0.011429190,0.062556570,0.023382900
1640781378751459840,-0.154506860,0.208689480,9.948291780,-0.076015290,0.110474230,0.022892660
1640781378755980032,-0.201670480,0.154614430,10.447884560,-0.047147270,-0.024381280,0.007125730
1640781378757029888,-0.086398420,0.126958240,9.876601220,-0.005109610,-0.043070320,0.006204840
1640781378760859904,0.063385360,0.609319450,9.190839770,-0.003021960,0.009454790,0.018569820
1640781378762159872,-0.164694250,0.684789180,10.104599950,-0.070610650,0.070245570,0.026434660
1640781378765760000,-0.211873370,0.522640230,10.380658150,-0.092343990,0.031277540,0.062480560
1640781378766539776,-0.033139240,0.456571670,9.916414260,-0.016775720,-0.066964320,0.055520240
1640781378770680064,0.059244190,0.401761050,9.604679110,-0.007970630,0.020682810,0.022810700
1640781378771759872,0.162321820,0.691825030,9.575894360,-0.082759570,0.069785130,0.052893170
1640781378775559936,0.017102570,0.412696450,10.292881970,-0.126156210,0.046928240,0.051383680
1640781378776480000,0.091405000,-0.000662310,9.973195080,-0.079499190,-0.010807810,0.040937960
1640781378780619776,0.165921330,0.254854620,9.488008500,0.016644600,-0.022056700,0.039331620
1640781378782820096,-0.133918760,0.344721590,9.761607170,-0.051255530,0.046265120,0.045450030
1640781378785539840,-0.085655090,0.169683070,9.815373420,-0.144511480,0.050920260,0.056874760
1640781378786520064,-0.065307810,0.004646100,9.923609730,-0.087116660,0.028812890,0.039964920
1640781378791329792,0.045718330,-0.042376670,9.600683210,-0.008779770,0.028431420,0.013990700
1640781378791839744,0.127785770,0.389865100,9.683916090,0.001519920,0.051984200,0.030824550
1640781378795609856,-0.098248320,0.431576970,10.005941390,-0.098302970,0.057074430,0.028608740
1640781378796499968,-0.129815970,-0.023884500,10.017289160,-0.118342060,-0.009007750,0.037907060
1640781378800659968,-0.043992710,-0.019650370,9.462967870,0.009226800,0.025568910,0.032378740
1640781378801479936,0.018184970,0.060885300,9.342937470,0.025983150,0.073225780,-0.004661080
1640781378805569792,-0.139257270,0.360724450,10.211012840,-0.047399110,0.093738730,0.026226050
1640781378806499840,-0.189441520,0.338520050,10.098132130,-0.114512440,0.020557640,0.028434400
1640781378810540032,-0.053618410,-0.082087640,9.737737660,-0.049404810,-0.045411300,0.033631920
1640781378811630080,-0.096730370,0.174418180,9.520931240,0.056129700,0.068898510,0.033949320
1640781378815729920,-0.142575140,0.312854440,9.768484120,0.001193580,0.085416420,0.006306170
1640781378816640000,-0.394871770,0.411762210,10.728534700,-0.072139500,0.024136900,0.035344060
1640781378820570112,-0.169392650,0.490132990,9.693825720,-0.090196740,-0.008283560,0.033722820
1640781378821519872,-0.066983580,0.375000600,9.423724170,-0.040103500,-0.012406710,0.006234650
1640781378825520128,-0.098369790,0.743681070,9.833749770,-0.005833800,0.103700170,0.025667250
1640781378826479872,0.070224910,0.769395650,9.704813000,-0.059454150,0.081332030,0.027383870
1640781378830720000,-0.152102830,0.382068400,10.628371240,-0.077423450,-0.035303830,0.056004520
1640781378831549952,0.119459960,0.376207860,9.565301900,-0.064229970,0.022579730,0.042016800
1640781378835759872,0.094019460,0.235542580,9.446379660,-0.077691670,0.018526620,0.042863190
1640781378837299712,-0.100751920,0.107187930,10.265905380,-0.069758300,0.092922140,0.060367580
1640781378840509952,0.225566240,0.009140030,9.424270630,-0.064438590,0.072440510,0.019419200
1640781378841500160,0.094538950,-0.038316790,9.975826260,-0.044244520,-0.008735060,0.034458930
1640781378845639936,0.131877380,0.187259470,9.623326300,-0.049902500,0.098451980,0.047439340
1640781378846540032,-0.029917260,0.128419650,9.627958300,-0.085709990,0.024232270,0.028964880
1640781378850699776,-0.338960170,-0.005780580,10.340516090,-0.054125490,0.001150370,0.041700900
1640781378851859712,0.082381260,0.127118770,8.946557040,-0.015076990,0.095506010,0.012408200
1640781378855609856,-0.069805910,0.299792140,9.723482130,-0.028280910,0.066442790,0.003851950
1640781378856559872,-0.199393230,0.527274490,10.312197690,-0.069093700,0.124666120,0.034184760
1640781378860529920,-0.011358140,0.211364110,9.586276050,-0.070662800,-0.008958580,0.026963650
1640781378861979904,-0.267569010,-0.065086980,9.940966610,0.012807550,-0.026810170,0.051735350
1640781378865729792,0.023010840,0.051352590,8.973093030,0.038546320,0.116787860,0.052443150
1640781378866749952,-0.126135570,0.001642840,9.969830510,-0.016218420,0.075581680,0.027477740
1640781378870609920,-0.368872640,0.131147700,10.826619150,-0.077581410,0.070488450,0.027461350
1640781378871459840,0.026555190,0.192225740,9.439539910,-0.051711500,-0.022283200,0.012330710
1640781378875510016,-0.212643580,0.218192650,9.772686000,0.029176480,-0.014707450,-0.010544060
1640781378876489984,-0.107518230,0.805291530,9.522758480,0.004345180,0.107580450,0.003336370
1640781378880610048,-0.126943810,0.951409220,9.947519300,-0.070807340,0.045385960,0.026851890
1640781378881529856,-0.367484900,0.646123470,10.579772950,-0.090776380,0.001899900,0.054132940
1640781378885629952,0.047664570,0.627486770,9.344419480,-0.039365890,-0.001987820,0.045548380
1640781378886550016,-0.070278080,0.564570960,9.757738110,-0.010737780,0.023883580,0.042399770
1640781378890599936,-0.085943680,0.531768920,9.967103960,-0.088699170,0.082868340,0.051322580
1640781378891470080,0.212401020,0.293742810,9.686091420,-0.108060230,0.026516610,0.046132500
1640781378895719936,0.046535700,-0.145610720,10.062238690,-0.062257060,0.015287100,0.034369530
1640781378896539904,0.160737220,0.153048400,9.484939580,-0.024540720,0.034129620,0.031235820
1640781378900529920,-0.123420290,0.232103440,9.935636520,-0.061243780,0.012172760,0.033165520
1640781378901589760,-0.213599710,0.013592900,9.827928540,-0.123395030,0.019954140,0.024162230
1640781378905519872,0.062554350,0.181859460,9.350056650,-0.065730520,0.043834750,0.010249020
1640781378906489856,0.005638030,0.280455980,9.756615640,-0.026707350,0.091248750,0.002665820
1640781378910629888,0.001341870,0.538445410,9.919299130,-0.058366350,0.066876400,0.019295510
1640781378911670016,-0.088136800,0.403194550,10.113234520,-0.086142130,-0.013332070,0.032721460
1640781378915789824,-0.064896730,-0.140520010,9.376162530,-0.054009260,-0.007985530,0.038646160
1640781378919379968,-0.020718800,-0.109638620,9.328630450,0.017996130,0.041028860,0.032645470
1640781378920559872,-0.111208100,-0.050465090,9.901254650,-0.014796850,0.123459090,-0.004149970
1640781378921509888,-0.192192670,-0.015616200,10.300794600,-0.083155920,0.036235160,0.003848970
1640781378925499904,-0.151141320,0.025258820,10.117959980,-0.040081140,-0.039011240,0.012944640
1640781378926499840,-0.070295070,-0.001642530,9.175637250,0.003999470,0.014175470,0.001251700
1640781378930889728,-0.161553440,0.309184550,9.620623590,0.020515920,0.035350020,0.011384490
1640781378931619840,-0.274622710,0.584419730,10.089328770,-0.024811930,0.082901130,0.003147130
1640781378935969792,-0.266347050,0.486927420,9.984431270,-0.075094400,-0.028198960,0.020974870
1640781378936689920,-0.145186350,0.631743550,10.047115330,-0.025491420,-0.039085750,0.022868810
1640781378940559872,-0.042669580,0.727906350,9.407838820,-0.018072130,0.056557360,-0.015048680
1640781378941479936,-0.045324210,0.748560010,9.900575640,-0.058230760,0.015836960,0.017896290
1640781378945669888,0.016290940,0.638222810,10.028356550,-0.076481700,0.066491970,0.040446220
1640781378949809920,0.117374610,0.041546270,9.537812230,-0.061126060,-0.012941660,0.023624300
1640781378951479808,-0.044464160,0.085037280,9.960005760,-0.004276630,-0.032249100,0.040052830
1640781378951949824,-0.096138940,0.176286830,9.331146240,-0.057755410,0.042772290,0.026455520
1640781378955510016,-0.074743320,-0.214324380,9.747153280,-0.116072600,-0.007984040,0.027857720
1640781378956640000,0.010758050,0.019297420,9.935867310,-0.047126420,0.083783290,0.007165970
1640781378960989952,0.227377280,0.147443940,9.440000530,-0.009027120,0.038719180,-0.018097460
1640781378962400000,-0.051778060,0.504914280,10.216622350,-0.031490620,-0.001454350,0.022892660
1640781378965619968,-0.128058140,0.601800500,9.467895510,-0.093211240,0.023683910,0.009728970
1640781378967619840,-0.233840610,0.057084430,9.463973050,-0.067698960,-0.074653330,0.029534110
1640781378970579968,-0.274129210,0.136146980,9.453131680,0.028963390,0.053130090,0.024685270
1640781378971510016,0.002606450,0.252504500,9.145368580,-0.010116400,0.094525520,-0.020055470
1640781378975549952,-0.247596710,0.095565160,10.872089390,-0.075541420,0.040102000,0.025551020
1640781378976539904,-0.096408340,-0.106233610,10.019672390,-0.054599350,0.012178720,0.010272860
1640781378980790016,-0.018469930,-0.378147690,9.463265420,0.041411820,-0.109049690,-0.002662840
1640781378981769984,-0.240945100,0.024318030,9.507113460,0.056062640,0.024102620,0.023128090
1640781378985619968,0.037632020,0.252950070,9.001519200,-0.037917490,0.081184510,-0.008305910
1640781378986500096,-0.359862570,0.178413970,10.911861420,-0.062581900,0.001984830,0.002130870
1640781378990649856,-0.125679280,0.492424990,9.926589970,0.006517770,-0.015923380,0.001065430
1640781378991520000,0.128792840,0.642945470,9.257580760,0.044041880,-0.091317290,-0.024960940
1640781378995679744,-0.214268270,1.004896520,10.024749760,-0.015664100,0.051775590,0.005820390
1640781378997259776,-0.057966690,0.886143090,9.414039610,-0.088985260,0.061702720,0.019985440
1640781379000519936,-0.320961650,0.219337930,10.563008310,-0.044208770,-0.095716130,0.027140970
1640781379001609984,-0.109057410,0.235000860,9.440194130,0.033162530,-0.019553300,0.028283890
1640781379005479936,0.144771740,0.178785980,8.995285990,-0.002135340,-0.011834500,0.026939810
1640781379006500096,-0.178001750,-0.111800720,10.466516490,-0.084555160,0.067743660,0.028882920
1640781379010669824,0.098754280,-0.202875630,9.516261100,-0.063206260,0.022186340,0.014455620
1640781379011780096,0.087137840,-0.438933730,9.881284710,0.045397870,-0.110118090,0.000445540
1640781379015589888,0.004400410,0.128520920,9.308279990,0.052565340,0.032401090,-0.004360080
1640781379016539904,-0.041034590,0.542768180,9.221780780,-0.056815160,-0.006663800,0.007736680
1640781379020489984,-0.415592640,0.119392550,10.543545720,-0.085116920,-0.007478890,0.000891090
1640781379021479936,-0.178738420,0.273921430,9.320571900,0.026446580,-0.006958840,-0.013373790
1640781379025619968,-0.084311880,0.574557190,9.485692020,0.088036080,-0.062493990,-0.015901030
1640781379027200000,-0.236016010,0.576068160,9.811494830,-0.015021860,0.071296100,0.010281800
1640781379031929856,-0.104791370,0.474395540,9.689322470,-0.087158380,-0.027766820,0.035516920
1640781379032669952,-0.195196260,-0.146225320,10.200008390,-0.008638200,-0.061780220,0.029459600
1640781379035539968,-0.001111350,-0.313379140,9.233115200,0.095979870,0.000329320,0.016516450
1640781379036539904,-0.064372570,0.176541330,9.783129690,0.063070660,-0.022736190,-0.002969800
1640781379040509952,-0.305222630,0.237325420,10.246181490,-0.071440630,0.017581880,-0.002984700
1640781379041499904,-0.044651680,0.224190410,9.642283440,-0.088618700,-0.069519880,0.016258660
1640781379045979904,-0.088233780,0.319376050,9.836649890,0.036072730,-0.049524020,-0.011199710
1640781379046949888,-0.004469150,0.620135780,9.316635130,0.076654540,0.006893280,-0.014871360
1640781379050569984,-0.001522190,1.061371560,9.884506230,-0.013369320,-0.011982020,0.029070680
1640781379051489792,-0.237756400,0.672278170,10.303030970,-0.106172250,-0.008262690,0.043840710
1640781379055609856,0.048040130,0.112439300,9.596899990,-0.046911840,-0.081843150,0.049763920
1640781379056630016,0.018827460,0.217581790,9.495430950,0.064367060,-0.024242700,0.023888050
1640781379060619776,0.066366960,0.173272970,9.288619040,0.008155410,0.047612190,0.014069680
1640781379061570048,0.106652220,0.120385160,10.062771800,-0.074930500,0.025919080,0.032751260
1640781379066720000,-0.032500010,-0.123458670,10.083545680,-0.059159110,-0.022090970,0.019957130
1640781379067180032,0.086921170,-0.264137090,9.514739040,0.018757580,-0.078466540,0.019751490
1640781379070530048,-0.131676450,0.227718430,9.547715190,0.049401820,-0.007911030,0.017611680
1640781379071470080,-0.202357950,0.255227480,9.317829130,-0.028511880,0.031128530,0.005848710
1640781379075599872,-0.237356220,0.192019450,9.956933980,-0.051787500,-0.009958450,0.007982550
1640781379076499968,-0.210776880,0.431040590,9.476043700,0.029261410,-0.005009770,-0.007790330
1640781379080649728,-0.118817560,0.429107670,9.465907100,0.028458240,-0.054281960,0.006702540
1640781379081569792,-0.218802180,0.519111220,9.995455740,-0.007694960,0.016368920,0.040002160
1640781379085589760,-0.236169580,0.170466940,9.680539130,-0.020857150,-0.015926360,0.023144490
1640781379086540032,-0.236130040,-0.177212370,10.105201720,0.027796630,-0.085198890,0.028997670
1640781379092550144,0.000307810,0.082989370,9.192337040,0.051952900,0.006894770,0.006501380
1640781379093149952,-0.066450520,0.150395050,9.643522260,-0.018970670,-0.013802950,-0.005953010
1640781379095929856,-0.201159550,0.394768920,10.419268610,-0.050826370,-0.020903350,0.016146900
1640781379096709888,0.011744690,0.412092920,9.237859730,0.005084280,-0.081595780,-0.004182760
1640781379100539904,-0.087747150,0.444549050,9.837012290,0.028528270,-0.083182740,0.006790460
1640781379101489920,-0.126418520,0.903232690,9.669626240,0.009825830,0.062870990,0.027672950
1640781379105499904,-0.304810260,0.762934330,10.104017260,-0.071081530,-0.069467720,0.018510220
1640781379106569984,-0.273427310,0.554723680,10.309851650,-0.084233290,-0.101397950,0.055922570
1640781379110599936,0.137312430,0.383831080,8.670754430,-0.000709300,-0.031258170,0.021877890
1640781379111699712,0.099311400,0.281892000,9.615318300,-0.004211070,-0.016759340,0.009287890
1640781379115840000,0.091880020,0.420534280,9.950695990,-0.055579840,0.074405980,0.053492200
1640781379116609792,0.162065910,-0.092823630,9.798163410,-0.085251020,-0.096793470,0.042513020
1640781379120579840,-0.024158410,-0.223326400,10.162770270,-0.035297870,-0.122055410,0.046843290
1640781379121479936,0.114446670,0.065999930,8.741128920,0.001296400,0.003020470,0.037570300
1640781379125519872,-0.108138990,-0.029957410,9.683638570,-0.043904770,-0.011417270,0.006718930
1640781379126499840,-0.288165840,0.282508490,10.230893140,-0.051075230,0.058124970,0.010205810
1640781379132079872,0.011539010,0.318506210,9.258554460,-0.022268300,-0.085051370,0.012287500
1640781379132969984,-0.294568990,0.382561890,9.864250180,-0.006890300,-0.099647070,0.014029450
1640781379135529984,-0.215468720,0.539359330,9.081493380,-0.018951300,0.017286840,0.040605660
1640781379136529920,-0.228810520,0.182246240,9.687564850,-0.044697530,-0.055621580,0.025571890
1640781379140709888,-0.322552830,0.126048150,10.276632310,-0.005161760,-0.010719890,0.026744600
1640781379141479936,0.202830840,0.235783710,9.187774660,0.006569920,-0.030255320,0.028041010
1640781379145769728,-0.074849180,0.210673990,10.127962110,-0.038960580,-0.049045670,0.023116170
1640781379146589952,-0.163361030,0.278039540,9.863389970,-0.057317310,-0.022347270,0.035227830
1640781379150560000,-0.042299950,0.131591220,9.281974790,-0.024411080,-0.100456200,0.020875040
1640781379151609856,-0.302284060,0.196974400,9.706042290,0.018368670,-0.064560770,0.016032160
1640781379155920128,-0.037740020,0.701914250,9.410582540,-0.033836070,0.015152990,0.013868510
1640781379157719808,-0.135593500,0.809480430,10.222118380,-0.120113800,-0.021569430,0.022651260
1640781379160579840,-0.135199030,0.480304990,10.366227150,-0.096693620,-0.047038490,0.038863710
1640781379162409984,0.246404950,0.489845720,9.224557880,-0.007447600,-0.073264550,0.026367600
1640781379166060032,0.087857770,0.473101500,9.290774350,0.007012490,-0.037539010,0.029259930
1640781379166669824,-0.015606330,0.417218300,9.676229480,-0.085191420,0.018802290,0.057013330
1640781379170639872,0.049210880,0.161946590,9.691967960,-0.153134760,-0.048123300,0.066801910
1640781379172089856,-0.021200040,-0.408500080,9.768727300,-0.053785750,-0.067208710,0.047650930
1640781379175529984,0.226030680,-0.146003990,9.288464550,0.026567280,0.011321900,0.020110600
1640781379176529920,0.083056380,0.197600320,9.645848270,-0.020177660,0.032804900,0.015306470
1640781379180599808,-0.208328570,0.088950870,10.343066220,-0.123181930,-0.023977450,0.032772130
1640781379181569792,-0.002584020,0.087345370,9.502170560,-0.091314320,-0.080578030,0.035864120
1640781379185560064,-0.096626050,-0.080834790,9.052748680,0.029842560,-0.052556400,0.021083660
1640781379186629888,-0.155796140,0.335602160,9.440663340,0.032864510,0.044819720,0.008672480
1640781379190860032,-0.175692500,0.557408990,9.770746230,-0.050909820,0.038701300,0.018331410
1640781379191579904,-0.310547740,0.188712730,10.226578710,-0.097829120,-0.071734190,0.025722390
1640781379195909888,0.011459580,0.138565760,9.425481800,-0.012485680,-0.069424520,0.036779050
1640781379196849920,-0.060509360,0.184975160,9.265427590,0.056867310,-0.005438920,0.026866800
1640781379200529920,-0.229530860,0.248703700,10.085424420,-0.018951300,0.016038120,0.028297310
1640781379201509888,-0.131252320,0.221367210,9.921693800,-0.055688620,-0.014933940,0.036171080
1640781379205539840,-0.191884520,0.024652190,9.787437440,-0.036825240,-0.101816650,0.013883410
1640781379206549760,0.003098960,0.267934560,9.441241260,-0.004550810,-0.042992830,0.014850500
1640781379210520064,-0.022181530,0.687296690,9.485795970,-0.009261070,0.017401580,0.009684260
1640781379211719936,-0.162957980,0.661292670,10.189647670,-0.093148650,-0.019130110,0.008739530
1640781379216729856,-0.019583970,0.611110090,9.951691630,-0.068043180,-0.040061770,0.031700730
1640781379217579776,-0.037333750,0.548279050,9.521741870,-0.008592010,-0.075508650,0.016860660
1640781379220529920,-0.132714330,0.689160290,9.666317940,-0.048264860,-0.034274160,0.028598310
1640781379221560064,-0.086352940,0.658016500,9.640962600,-0.104355810,-0.005042550,0.050599880
1640781379225549824,-0.000175080,0.121573110,9.659931180,-0.130668280,-0.028109550,0.033615530
1640781379226569984,0.202677640,-0.050713220,9.647430420,-0.023357570,-0.014482440,0.044164060
1640781379230619904,0.282538290,0.150732850,9.438387870,0.003729760,0.017564000,0.025227670
1640781379231599872,0.044452960,0.184403210,9.933446880,-0.110071900,-0.032436850,0.036270920
1640781379236120064,-0.047095860,-0.036637340,9.973649980,-0.136241300,-0.050799550,0.060233480
1640781379237009920,-0.004484320,-0.276580390,9.086671830,-0.048671670,-0.041769460,0.004632770
1640781379240519936,-0.169625550,0.074438770,9.594895360,0.027224420,-0.014032420,0.002655390
1640781379241499904,-0.109505670,0.658505440,9.618672370,-0.052754590,0.091777760,0.015409290
1640781379245740032,-0.203224640,0.525381920,10.069446560,-0.154681500,-0.033055250,0.008836390
1640781379246559744,-0.222736060,0.328795580,10.209885600,-0.091134000,-0.085271900,0.042812530
1640781379250530048,0.071007000,0.226456700,8.801738740,0.017692150,-0.019018350,0.039906800
1640781379251600128,-0.121595400,0.133677750,9.767892840,0.022789840,-0.013799970,0.020346050
1640781379255569920,-0.162598220,0.390133200,10.153976440,-0.081163630,0.068581100,0.046476710
1640781379256589824,0.050969150,0.106832330,9.673641200,-0.141882900,-0.071327380,0.039549180
1640781379260569856,-0.085731450,0.006797160,10.137179370,-0.057199600,-0.091139980,0.043295320
1640781379261679872,0.197043930,0.464670450,8.875892640,-0.001807510,0.040666760,0.030195720
1640781379265859840,-0.023338980,0.607160930,9.848430630,-0.060176850,-0.015582140,0.027465820
1640781379266539776,-0.248610480,0.630690930,10.534631730,-0.123809280,0.025650860,0.061890490
1640781379270510080,0.117344410,0.379276130,9.284840580,-0.099869070,-0.060157480,0.042963030
1640781379271509760,-0.202753530,0.463291080,10.134812360,-0.039765240,-0.077207390,0.027798120
1640781379275509760,-0.066144350,0.768572930,9.390028950,-0.089460620,0.059282780,0.053596500
1640781379276540160,0.114841340,0.362027760,9.409027100,-0.138910080,-0.004531440,0.054407120
1640781379280659968,-0.096319080,-0.069677030,10.286309240,-0.086295590,0.008556250,0.060656660
1640781379281609984,0.380628790,-0.033590720,9.000709530,-0.019940740,0.011703370,0.064547370
1640781379285809920,-0.055740050,0.008280430,10.049140930,-0.062431400,-0.033725800,0.058072810
1640781379286989824,-0.234832380,-0.103380680,9.951868060,-0.145742270,0.012026730,0.050225850
1640781379290599936,0.008107140,-0.237106490,9.196956630,-0.103379810,-0.050748890,0.026379530
1640781379291539968,-0.185457040,-0.084160340,9.718685150,-0.009714070,0.010696050,-0.002099570
1640781379295939840,0.118890580,0.501416560,9.282397270,-0.024306770,0.076295440,0.012212990
1640781379301359872,-0.178536120,0.749536510,10.270947460,-0.114136930,-0.001339610,0.040766600
1640781379302320128,-0.320832700,0.288777200,10.063649180,-0.123777990,-0.053720180,0.061151390
1640781379302709760,-0.025699380,0.029769570,9.168571470,-0.001098220,-0.079713770,0.065188110
1640781379305529856,-0.317666170,0.110216290,9.474163060,0.054432450,0.043006250,0.029504300
1640781379306560000,-0.246229720,0.237774070,9.839868550,-0.063601120,0.043563540,0.022928410
1640781379310569984,-0.263379870,0.291818380,10.382977490,-0.142163050,-0.029990080,0.037176910
1640781379312280064,-0.140799210,-0.008712560,9.655936240,-0.086390990,-0.063177940,0.019501150
1640781379318019840,-0.027138750,0.048086920,9.486782070,0.034044690,-0.059954830,0.015522540
1640781379318929920,-0.184304400,0.665581350,9.536615370,0.022459040,0.016008320,0.028248140
1640781379320499968,-0.158046350,0.491969470,9.829124450,-0.114357470,0.003640350,0.063945350
1640781379321529856,-0.157676290,0.289292480,10.379752160,-0.118777160,-0.047893830,0.080326200
1640781379325499904,0.037695410,0.179697390,9.387819290,-0.006628040,-0.044937430,0.043727460
1640781379326530048,0.144008710,0.142685290,9.458444600,0.024028130,-0.048387050,0.028333070
1640781379330739968,0.152741860,0.529280070,9.480495450,-0.042310350,0.074711430,0.035613770
1640781379331800064,0.096824120,0.102355100,9.679011340,-0.111198430,-0.002235170,0.030298530
1640781379335660032,-0.011084210,-0.284267750,10.296505930,-0.037150090,-0.074467080,0.043854120
1640781379336560128,0.047865000,0.020839370,8.967311860,0.053370000,-0.018402940,0.023379930
1640781379340529920,-0.181224170,-0.088314290,9.668430330,-0.004644690,-0.036169590,0.028313700
1640781379341509888,-0.328395840,0.063862610,10.018311500,-0.063800810,0.073431430,0.032454730
1640781379345860096,-0.131508420,-0.011362230,9.403311730,-0.030186780,-0.037153070,-0.003768500
1640781379346609920,-0.091430070,0.052826250,9.976861950,0.039400150,-0.062388180,0.023286040
1640781379352619776,0.183808460,0.538879220,8.909646990,0.032328070,0.078263860,0.037236510
1640781379353029888,0.030122850,0.276990530,10.049558640,-0.028051440,-0.011517110,0.036363300
1640781379355579904,-0.235472800,0.031780850,10.539733890,-0.002309680,-0.008517500,0.042013830
1640781379356549888,0.156222090,0.142247390,8.894647600,0.054807960,-0.070610640,0.004912910
1640781379360539904,-0.038814000,0.358568280,9.773774150,0.019218030,-0.015659630,-0.000697370
1640781379362200064,-0.114223320,0.641752120,9.788890840,-0.055196890,0.113242870,0.016513470
1640781379367709952,-0.036672260,0.526006100,9.965438840,-0.066031520,-0.044475500,0.011391940
1640781379368640000,-0.258353290,0.320407750,10.225300790,0.025223200,-0.066725920,0.039722030
1640781379370519808,0.021347820,0.437873420,8.880661010,0.060763970,-0.010743740,0.041180850
1640781379371579904,-0.257367070,0.656200170,9.947178840,-0.033947830,0.005425510,0.034861270
1640781379375490048,-0.372413780,0.398107530,10.279068950,-0.121462350,0.022621450,0.070752210
1640781379376590080,0.104393110,0.053608130,9.588140490,-0.053620350,-0.052845480,0.032427910
1640781379381409792,0.210742190,0.171907570,9.583830830,0.055493410,0.010980660,-0.002655390
1640781379382319872,0.256101970,0.459375320,9.493797300,0.014083090,0.051990150,0.024954980
1640781379385569792,0.148710800,0.524585660,9.892168050,-0.100071740,0.005982820,0.046958030
1640781379386550016,-0.018194050,-0.004308710,9.849419590,-0.094957630,-0.049287080,0.051106520
1640781379390609920,0.018151050,-0.196932020,9.356132510,0.009329620,-0.040984150,0.043451800
1640781379391549952,-0.087857210,0.130602580,9.284926410,0.066593300,0.062961870,0.003750620
1640781379396199936,-0.270924030,0.153897700,9.976448060,-0.034683950,0.062000760,-0.001026690
1640781379398039808,-0.323637250,0.215332670,10.239255910,-0.098636750,-0.015224520,0.025300690
1640781379400640000,-0.187100440,-0.023707600,9.358874320,-0.017055870,-0.072842840,0.018714370
1640781379402449920,-0.099723350,-0.020373040,9.192453380,0.054548680,-0.005069380,0.039519370
1640781379405509888,-0.110927510,0.253480230,9.618856430,0.064684460,0.087261200,0.042475760
1640781379406560000,-0.181832030,0.043990130,10.210224150,-0.003676120,0.008371470,0.027056040
1640781379410699776,-0.040743180,0.044274160,9.996168140,-0.024718050,-0.071261820,0.034715240
1640781379411990016,0.173867050,0.213166460,9.098507880,0.032445790,-0.011408330,0.005784630
1640781379415680000,0.023778520,0.400064410,9.678728100,0.012974440,0.034858290,-0.000701840
1640781379416620032,-0.127457620,0.782645700,10.203751560,-0.005486610,0.024484100,0.030294060
1640781379420489984,-0.043698700,0.563887950,9.739479060,-0.002661350,-0.035308310,0.031028690
1640781379421609984,-0.102820200,0.325829890,9.702769280,0.013326110,-0.052459540,0.044949360
1640781379425590016,-0.127717330,0.601407590,9.578055380,0.031040610,0.042402750,0.051313640
1640781379426630144,-0.237000230,0.485027310,9.931239130,-0.052002080,0.021509830,0.037117310
1640781379430919936,-0.158243050,0.166556450,10.089117050,-0.062486530,-0.037598610,0.044427820
1640781379431759872,0.180987570,0.099520920,9.239089010,0.025138260,0.011777880,0.007568300
1640781379435549952,0.325361880,0.150348590,9.348920820,0.033135710,0.048632930,-0.010049340
1640781379436600064,0.019582430,0.459552940,10.306906700,-0.023685400,0.055573880,0.049948700
1640781379440539904,0.110699700,0.164867850,9.720992090,-0.080910330,-0.038142510,0.040438770
1640781379441540096,0.091219510,-0.172475680,9.445211410,-0.009961430,-0.074538600,0.030405820
1640781379446050048,0.082627890,0.132740020,9.189362530,0.070215770,0.082561370,0.015798210
1640781379447239936,0.087425620,0.248731330,9.447824480,0.020149350,0.110134480,-0.009438400
1640781379451139840,-0.345926080,0.272066860,10.840908050,-0.039945550,-0.006811320,0.019834940
1640781379451649792,-0.109735750,0.220603050,9.528085710,-0.031954050,-0.032500930,0.016292930
1640781379455559936,-0.162977050,0.004921050,9.090933800,0.048677630,-0.054015220,0.014679130
1640781379456589824,-0.478531600,0.070049360,9.823545460,0.076337160,0.076892980,0.018963220
1640781379460659968,-0.130143250,0.269687180,9.398509980,0.020843740,0.078912090,-0.002993640
1640781379461560064,-0.293607770,0.067701820,10.445206640,-0.012005860,-0.037100910,0.008735060
1640781379465629696,0.063409960,0.153610570,9.658350940,0.017735360,0.019556280,0.010079150
1640781379466569984,0.200445580,0.375125140,9.291418080,0.062116980,-0.011345740,0.006191430
1640781379470520064,-0.166649070,0.365679030,10.294779780,0.040723390,0.018313530,0.013075770
1640781379471569920,0.095203690,0.441623210,9.561362270,0.018224120,0.041912510,0.024908780
1640781379475689984,-0.107717100,0.387419340,9.965306280,0.035570570,-0.036911670,0.011013450
1640781379476630016,-0.178869630,0.516457020,9.787342070,0.009584430,0.005768240,-0.003068150
1640781379480759808,-0.095206330,0.814124580,9.619049070,-0.029701000,0.013720990,0.006988650
1640781379481599744,-0.255175950,0.603685500,10.041885380,-0.032766160,0.013031070,0.005775690
1640781379485570048,0.008961650,0.353158440,9.571212770,0.020484630,0.015315420,0.020261110
1640781379486609920,0.177819310,0.465396050,9.654562950,0.049233440,0.032533710,0.024990740
1640781379490569728,0.008020190,0.437629280,9.964985850,-0.026771430,0.060708820,0.028871000
1640781379491699968,0.077066940,0.156308890,10.110439300,-0.087730610,-0.019153950,0.052419310
1640781379495559936,0.154581260,-0.131357640,9.495297430,-0.006791950,-0.002855060,0.017029050
1640781379497179904,0.272296130,-0.141853150,9.062253000,0.054405640,0.039716060,-0.027941170
1640781379500989952,0.280717190,0.427640910,9.792233470,0.015760960,0.108636920,-0.012713670
1640781379501539840,0.097714280,0.567557330,9.914808270,-0.088220840,0.095722090,-0.005024670
1640781379505570048,-0.070703010,0.072163160,10.368950840,-0.073911250,-0.067044800,0.013782080
1640781379507360000,-0.119367500,0.114218240,9.381276130,0.074066230,0.012119110,0.024059410
1640781379510530048,-0.211516950,0.113488080,8.886278150,0.105267790,0.046294930,-0.002400580
1640781379511559936,-0.391176430,0.150513200,10.311815260,-0.008539860,0.110571110,0.011397900
1640781379515679744,-0.170253350,0.163502160,9.727683070,-0.071631370,0.107389710,-0.008879600
1640781379517779712,-0.082771440,-0.239182800,10.126708030,0.008307400,-0.051277870,-0.014498830
1640781379520539904,0.026035220,0.123449060,9.585838320,0.117966560,0.066390650,-0.001659990
1640781379521539840,0.111068530,0.362695630,9.090810780,0.076811040,0.057347130,-0.007446110
1640781379525590016,-0.188254430,0.229681690,10.701961520,-0.021825730,0.050409150,0.014741720
1640781379526579968,-0.014790090,0.264577180,9.677124980,-0.004053120,0.056397910,0.022955240
1640781379530700032,0.090545850,0.214070800,9.620729450,0.065535310,-0.044770540,-0.017741320
1640781379531589888,-0.232325900,0.631523850,10.167380330,0.068500650,0.096640000,-0.010214750
1640781379535660032,-0.067127540,0.869139670,9.458591460,-0.007666650,0.051702560,-0.005532800
1640781379536800000,-0.185254080,0.599445940,10.252321240,-0.045405330,-0.008802120,-0.005282460
1640781379540519936,-0.053210780,0.353949820,9.568673130,0.023092330,0.070999550,0.011198220
1640781379541509888,0.134041670,0.487312940,9.527804370,0.067001570,0.053618840,0.003595650
1640781379545840128,-0.240685870,0.459321080,10.556297300,0.001484160,0.059774530,0.016993290
1640781379547329792,0.072823230,0.135248850,9.592710490,-0.065341590,0.000835960,0.036361820
1640781379550749952,0.308655260,-0.103505250,9.272893910,-0.000794230,0.042040650,-0.006099050
1640781379551569920,0.244061440,-0.073076390,9.503531460,0.071577730,0.134979190,-0.024291870
1640781379555869696,0.211508710,0.337507670,10.009925840,0.028614700,0.088444350,-0.002819300
1640781379557119744,-0.045902480,0.275627580,10.235446930,-0.031051040,0.029993060,-0.003428760
1640781379560529920,-0.057028630,-0.167369100,9.550486560,-0.006994610,-0.007142130,0.006060300
1640781379561529856,-0.081330960,0.052496180,9.348855970,0.079761450,0.073915730,-0.010734800
1640781379565649920,-0.240038470,0.186505810,9.568909650,0.074778500,0.144498070,-0.036408010
1640781379566589952,-0.301397440,0.233992520,10.332626340,0.001861160,0.069004300,-0.020889940
1640781379570599936,-0.175103170,0.284196620,9.842475890,0.009477140,0.031505530,-0.011539460
1640781379571630080,0.015245240,-0.082271650,9.201590540,0.073854610,0.025303660,-0.011001530
1640781379575539712,-0.080629270,0.095659230,9.923856740,0.112199810,0.104573380,-0.001840290
1640781379576549888,-0.045038240,0.279528650,9.833544730,0.083507580,0.112558910,-0.016388300
1640781379580950016,-0.108098310,0.086735190,10.214225770,0.013719500,-0.004185740,-0.022643810
1640781379581699840,-0.006702960,0.325629060,9.702367780,0.034292050,0.040918590,-0.022383030
1640781379585559808,0.070244170,0.450953690,9.357719420,0.076924270,0.080023710,-0.052416330
1640781379586629888,-0.244979100,0.667093040,10.375457760,0.055255010,0.054982310,-0.037209690
1640781379590560000,-0.006389890,0.796933290,9.674371720,0.043675300,0.064839430,-0.002828240
1640781379591539968,0.074921630,0.315886500,9.651772500,0.027140970,0.040481980,-0.002688170
1640781379596029952,-0.119828080,0.368971770,10.276442530,0.054816900,0.088983780,-0.001758340
1640781379600719872,-0.091139770,0.578378920,9.852710720,0.048658260,0.071005520,-0.005292890
1640781379601129984,-0.138153300,0.227113490,9.953810690,-0.018320980,-0.009110570,-0.003267830
1640781379601659904,0.050808330,0.182130550,9.528713230,0.015811620,0.086803740,-0.011211630
1640781379605559808,0.325858740,0.229470150,9.226349830,0.052729250,0.130501400,-0.041210650
1640781379606599680,0.104073770,0.270986290,10.308753970,0.044180460,0.095732510,-0.021034480
1640781379610519808,0.034198580,0.409444900,10.151782990,0.007624920,0.057443980,0.000958140
1640781379611559936,0.135783960,0.064123930,9.449886320,-0.012534860,-0.006860500,-0.015695390
1640781379615579904,-0.123483520,-0.085258950,9.659816740,0.067865860,0.061661010,-0.020305810
1640781379617740032,0.077348120,0.260853830,9.181376460,0.067091000,0.173136590,-0.049482290
1640781379621249792,-0.088849360,0.271929800,10.122538570,0.011798740,0.120057170,-0.050188600
1640781379622089984,-0.226838110,0.179136010,10.555446620,0.010252000,0.054089720,-0.035344060
1640781379625509888,0.100359180,0.142447610,9.134885790,0.057204070,0.023050610,-0.037080050
1640781379626579968,-0.273122550,-0.037593520,9.639622690,0.108529610,0.046445430,-0.025792420
1640781379630679808,-0.210901750,-0.031115160,9.739852910,0.068092350,0.156864520,-0.027719150
1640781379631559936,-0.147517740,0.022948850,9.855550770,0.048819190,0.087565190,-0.042767820
1640781379635599872,-0.275469780,-0.120969400,10.345495220,0.068706270,0.039871040,-0.055757160
1640781379636649728,0.077079010,0.246685650,9.449234960,0.076429550,0.075128670,-0.063359740
1640781379640559872,-0.168411400,0.527998510,9.861227990,0.079344210,0.055579840,-0.067226590
1640781379641579776,-0.254692200,0.532641290,10.144877430,0.037276740,0.073154270,-0.049167880
1640781379645509888,-0.067592960,0.590317550,9.614002230,0.070582320,0.053422150,-0.027480720
1640781379647019776,-0.243898970,0.512394610,9.994044300,0.097581740,0.035083300,-0.043846670
1640781379654029824,-0.132272650,0.616589550,9.935325620,0.036658350,0.084300330,-0.040133290
1640781379654529792,-0.127894680,0.667422410,10.001050950,0.009545680,0.044612590,-0.021536650
1640781379655469824,-0.063486230,0.227022450,9.971633910,0.003635880,0.045678020,-0.043869020
1640781379656630016,0.179022950,0.124317530,9.636862750,0.072056060,0.077523300,-0.049962110
1640781379660539904,-0.044653890,0.380403400,10.023585320,0.087545800,0.082610550,-0.052595140
1640781379661549824,-0.241943630,0.243366440,10.099402430,-0.000324850,0.025230640,-0.024800000
1640781379665669888,-0.165087600,0.076479800,9.675812720,-0.016599900,-0.022450090,-0.006528200
1640781379666599936,-0.014104840,-0.082649370,9.165426250,0.058265030,0.075170400,-0.045050670
1640781379671099904,0.091203630,0.010118930,9.735966680,0.105744610,0.121068950,-0.047884880
1640781379671739904,0.025376220,0.482422920,10.364078520,0.075860330,0.124622890,-0.033855440
1640781379675459840,-0.067605960,0.246323020,10.169855120,-0.002728400,-0.007507210,-0.042766340
1640781379676559872,-0.095602100,0.051941160,9.791273120,0.031127040,-0.040403010,-0.013706090
1640781379680699904,-0.038179770,0.106164790,8.840901370,0.117601450,0.095963490,-0.037662680
1640781379681689856,-0.202509630,0.009867390,9.755263330,0.109516100,0.091964010,-0.054809460
1640781379686499840,-0.264387340,0.209616360,10.342146870,0.067238510,0.106173760,-0.026078530
1640781379687089920,-0.042831800,-0.050861900,9.672159190,0.054392220,0.013318660,-0.048530100
1640781379690589952,-0.209823430,-0.175825640,10.098107340,0.111368310,-0.011213120,-0.026583670
1640781379691569920,-0.230062190,0.163567930,9.397183420,0.141702560,0.077474100,-0.024680800
1640781379695969792,-0.336819830,-0.026299930,9.726453780,0.115737320,0.009198490,-0.046406690
1640781379697319936,-0.444541390,0.101862810,10.306308750,0.109963130,0.035896900,-0.035452840
1640781379700649984,-0.015593490,0.386036400,9.201579090,0.115941480,0.042365500,-0.047388680
1640781379703099904,-0.173368590,0.475990030,10.272746090,0.118194520,0.008457900,-0.060223050
1640781379705469952,-0.234018310,0.827473520,10.162331580,0.080542270,0.059951850,-0.043898820
1640781379706579968,0.003063190,0.703701200,9.517759320,0.091786680,-0.044217710,-0.042763360
1640781379710469888,-0.242358210,0.359908760,10.096883770,0.128637270,-0.015018880,-0.030404330
1640781379711549952,0.085990280,0.620226030,9.245077130,0.111041950,0.073897840,-0.029547510
1640781379715729920,-0.127111020,0.502462630,10.300574300,0.054220850,0.017984210,-0.018961720
1640781379716859904,-0.205136330,0.054506680,10.419651990,0.034780800,-0.004158910,-0.015117230
1640781379720499968,0.241666240,0.027070750,9.115847590,0.110736500,-0.041931870,-0.042702260
1640781379721550080,0.000478680,0.017963240,9.697293280,0.141790520,0.040403020,-0.052428250
1640781379725570048,-0.013087870,0.227190420,9.750941280,0.073452300,0.086884200,-0.036217280
1640781379726599936,-0.197028130,0.338069620,10.339504240,0.028923160,-0.035944580,-0.033287700
1640781379730649856,-0.206111740,-0.082364290,9.875080110,0.071051720,-0.046378390,-0.031425060
1640781379731770112,0.015731470,0.166865330,9.156190870,0.157293660,-0.001907350,-0.043646980
1640781379735589888,-0.136402670,0.556213200,9.749512670,0.135210140,0.078764540,-0.049369030
1640781379737059840,-0.094558940,0.306319480,10.020807270,0.037875770,0.067581240,-0.033603610
1640781379740499968,-0.115521070,0.186958770,10.391740800,0.077411530,-0.055123880,-0.019013890
1640781379741550080,-0.034572810,-0.062452290,9.518614770,0.156720000,-0.029763580,-0.030240420
1640781379745900032,-0.105698690,-0.009186960,9.390642170,0.163809970,-0.018163030,-0.034160920
1640781379747320064,-0.299576160,0.223895300,10.075799940,0.101868810,0.067377100,-0.040753190
1640781379750609920,-0.291843300,-0.039183800,9.934136390,0.058576480,-0.003774460,-0.065501040
1640781379752219904,-0.282401890,0.132500650,10.198339460,0.131520630,-0.092911740,-0.047546640
1640781379755559936,-0.071178470,0.567942980,9.323678970,0.165449100,0.025543570,-0.066865990
1640781379756649984,-0.190853270,0.684145690,9.935714720,0.092159210,-0.007702410,-0.055719920
1640781379760550144,-0.353074340,0.890757920,10.661201480,0.055782500,0.009684270,-0.020729000
1640781379761580032,-0.119487080,0.535134260,9.530355450,0.085945430,-0.074759130,-0.037693980
1640781379765910016,-0.114073270,0.516825380,9.919580460,0.132253780,-0.087158400,-0.027543310
1640781379766949888,0.055724020,0.930588130,9.523784640,0.082404910,0.082203750,-0.024850670
1640781379770579712,0.122342170,0.441647410,9.977094650,-0.007949770,-0.014978650,-0.027357040
1640781379771589888,0.037056630,0.184783310,10.578087810,0.039485100,-0.024253130,-0.019854310
1640781379775499776,0.330904300,0.099767920,9.096147540,0.124922400,-0.024591390,-0.055350370
1640781379776599808,-0.019555480,0.214810460,9.928166390,0.099568080,-0.075240430,-0.046671920
1640781379781219840,-0.246104880,0.570269640,9.921763420,-0.017119950,0.051024560,-0.013422970
1640781379782359808,-0.068318310,0.058819160,9.581883430,-0.034725670,-0.048804280,-0.042273110
1640781379786119936,-0.253570080,-0.032338000,10.314967160,0.106132030,-0.029212240,-0.043059880
1640781379786629888,0.222766320,0.486570240,8.944159510,0.154152560,0.069239750,-0.060246890
1640781379790540032,-0.013717650,0.627644720,10.183271410,0.032441320,-0.007532540,-0.044140220
1640781379791669760,-0.242939170,0.459137830,10.460088730,-0.053758920,-0.003601610,0.003983080
1640781379795579904,0.219504030,-0.105543750,8.976028440,0.050596900,-0.089406970,-0.024050470
1640781379796589824,-0.157520040,-0.235619960,9.755887990,0.180715340,-0.008574130,-0.044459100
1640781379800609792,-0.076439330,0.277669820,9.511322980,0.123947860,0.104774560,-0.038066510
1640781379801829888,-0.156555210,0.228537010,10.329271320,-0.003854930,-0.027924770,-0.047826760
1640781379805499904,-0.241015810,-0.087433270,10.229653360,-0.005237760,-0.050498550,-0.043381750
1640781379806680064,0.076968540,0.056991800,9.057976720,0.133733470,-0.043775140,-0.048626960
1640781379810639872,-0.310113400,0.300878200,9.940705300,0.184841450,0.015816090,-0.051535670
1640781379812000000,-0.429833200,0.597195030,10.147163390,0.075654690,0.014024980,-0.029401480
1640781379815599872,-0.265297530,0.673808930,10.097977640,0.002785030,-0.082652270,-0.012731550
1640781379816589824,-0.160017040,0.410792830,9.719962120,0.035834310,-0.033949320,-0.022159520
1640781379820519936,0.111711860,0.625192110,9.584048270,0.117683410,0.003498790,-0.037434700
1640781379821660160,0.100343420,0.936271790,10.155683520,0.101141640,0.038054590,-0.035877530
1640781379825539840,0.077940920,0.692351880,10.003091810,0.002607700,-0.031021240,-0.013208390
1640781379826680064,0.174642820,0.357625370,9.870554920,0.003232060,-0.085654840,-0.002723930
1640781379830939904,0.073402140,0.261814890,9.375343320,0.065781180,-0.004807120,-0.018881260
1640781379831800064,-0.141846930,0.233826790,9.764083860,0.053837910,-0.014272330,-0.014460090
1640781379835510016,-0.145033610,0.299736800,10.118728640,0.010831650,0.027474760,-0.007927420
1640781379836589824,-0.042682470,0.031253120,9.553802490,0.001232330,-0.002111490,-0.029879810
1640781379840459776,-0.024004820,0.135848360,10.022880550,0.054898860,-0.039929150,-0.021158160
1640781379841559808,-0.038955180,0.583760140,9.535802840,0.045014920,0.048555430,-0.022041800
1640781379845539840,-0.149195880,0.349004720,9.800760270,-0.009021160,-0.054630640,-0.010147690
1640781379846560000,-0.107971080,0.272466300,9.984540940,0.020149350,-0.004242360,-0.002688170
1640781379850649856,0.134817590,0.301334200,8.956598280,0.065867610,0.020447370,-0.036092110
1640781379852239872,-0.031103020,0.321370600,10.181115150,0.047644980,-0.004482270,-0.032414500
1640781379855549696,0.024531850,0.578481380,9.979314800,-0.001004340,0.080034140,-0.025741760
1640781379856629760,-0.043200470,0.213520150,9.859947200,-0.021000210,-0.090721260,-0.022515660
1640781379860579840,-0.223097530,-0.015900780,10.098630910,0.062610230,-0.039298840,0.001016260
1640781379861600000,0.005297650,0.163020580,8.808835980,0.098860270,0.040246550,-0.022125240
1640781379865569792,-0.444830480,0.255474570,10.453358650,0.032666330,-0.021883850,-0.019851330
1640781379866619904,-0.465687840,0.445271220,10.324224470,-0.044102970,0.035013260,-0.009736420
1640781379870479872,-0.158651410,0.319240300,9.391872410,-0.012177230,-0.108009590,-0.035595900
1640781379871660032,-0.273389430,0.480387870,10.098814960,0.071232010,-0.029246510,-0.034901500
1640781379875589888,0.102121220,0.890928330,9.224960330,0.039541720,0.102934250,-0.023084880
1640781379876610048,-0.066184500,0.855153620,10.425647740,-0.034095350,-0.046718120,0.002212820
1640781379880479744,-0.122810820,0.513278310,10.429079060,-0.043316190,-0.035303830,0.024758280
1640781379881880064,0.321914940,0.399796190,8.900310520,0.007167460,-0.063291200,0.000552830
1640781379885679872,-0.066882390,0.391596200,9.960992810,0.018642840,-0.012615320,0.001777710
1640781379886659840,0.088815580,0.342344400,9.527696610,-0.042948140,0.087118160,0.013390190
1640781379890629888,0.087288620,0.106458530,9.884214400,-0.042794650,-0.027941170,-0.005270540
1640781379891919872,-0.183565100,-0.112341960,10.215412140,0.010465080,-0.028814380,-0.009001790
1640781379895469824,-0.053476510,0.169716670,9.219350810,0.018623470,-0.029227140,-0.012482700
1640781379896689920,-0.474954550,0.237442420,9.842244150,-0.027662520,-0.028377770,-0.012922290
1640781379900659968,-0.394561620,0.122403830,9.668533330,-0.062127420,0.015085940,-0.024788090
1640781379901700096,-0.133804400,0.281317770,9.540942190,-0.000154970,-0.007160010,-0.019522010
1640781379905580032,-0.112128030,0.399951790,9.831411360,0.032144790,0.031571090,-0.016558170
1640781379906790144,0.084258930,0.529083250,9.910561560,-0.008836390,0.004717710,-0.004892050
1640781379910490112,0.006846260,0.487250510,10.064257620,-0.035506490,-0.043022630,0.019569700
1640781379911589888,0.094262400,0.035181650,9.514190670,-0.017525260,-0.023403770,0.014309590
1640781379915709952,0.032071040,0.108434800,9.802091600,0.040508810,-0.006552040,0.015242400
1640781379916630016,-0.146330580,0.399160470,9.863655090,0.012226400,0.037930910,-0.025524200
1640781379920610048,-0.282242830,0.401189740,10.147542000,-0.068117680,-0.037038330,-0.030429660
1640781379921639936,-0.295274850,0.562639240,9.987593650,-0.051258510,-0.040622060,-0.008763370
1640781379925560064,-0.222030420,0.483751950,9.264171600,-0.009012220,-0.023351610,-0.030837960
1640781379926669824,-0.183409960,0.632007900,9.896572110,0.006726380,0.000004470,-0.007802250
1640781379930469888,-0.005040630,0.858899120,9.825374600,-0.042875110,0.076057020,0.021520260
1640781379931670016,-0.030898750,0.237266930,10.291154860,-0.076787170,-0.038295980,0.017488000
1640781379936839936,-0.000931430,0.124066510,10.188809390,-0.011491780,-0.057913370,0.023791190
1640781379937430016,0.279361100,0.183579670,8.803606030,0.002957880,-0.022771950,-0.013953450
1640781379940579840,0.156201240,0.065334860,9.752643590,-0.053380430,0.038252770,-0.011055170
1640781379941589760,0.138135330,0.210621790,9.905288700,-0.073769690,0.126318630,0.000716750
1640781379945519872,0.051239920,-0.001856290,10.024991990,-0.015623870,-0.067690010,-0.012330710
1640781379946599936,-0.154024810,0.185458510,10.057052610,0.031393770,-0.060051690,0.020769240
1640781379950690048,-0.109076920,0.420832280,8.881211280,-0.016802550,0.044327970,0.011630360
1640781379951609856,-0.570198360,0.057043720,10.213287350,-0.050057480,-0.000166890,-0.005093220
1640781379955539968,-0.515033660,0.152313040,9.942605970,-0.001598890,0.016137960,-0.015941260
1640781379956679936,-0.123248190,0.378914590,9.063947680,0.033740700,-0.045599040,-0.037598610
1640781379960559872,-0.287080170,0.458510130,10.211869240,-0.004312400,0.028432910,-0.027444960
1640781379961589760,-0.014741190,0.608904900,9.809364320,-0.064590570,0.049293040,0.006441770
1640781379965890048,-0.077015930,0.192532480,10.147486690,0.000707810,-0.082337860,0.017678740
1640781379966759936,-0.033470880,0.006861490,9.825809480,0.057536370,-0.032880900,0.003245470
1640781379970629888,0.176394240,0.483993170,9.136991500,0.026009980,0.014407930,0.001271070
1640781379971689984,-0.216430140,0.431104660,10.327348710,-0.066915150,0.016938150,0.002267960
1640781379975489792,-0.134631960,0.357004940,10.057510380,-0.094962110,-0.018325450,0.001317260
1640781379976610048,-0.078072860,0.434547810,9.641614910,0.026592610,-0.069101160,-0.015914440
1640781379980480000,-0.176838490,0.549522460,9.713478090,0.043296820,0.009281930,-0.038039690
1640781379981710080,-0.214581440,0.933224500,9.851604460,-0.054496530,0.037017460,0.002965330
1640781379985649920,-0.426511940,0.720180570,10.336098670,-0.110414630,-0.034567710,0.027485190
1640781379986699776,-0.153033570,0.159851670,9.685832020,-0.074045350,-0.076231370,0.022761520
1640781379990829824,0.127149250,0.278434160,9.228674890,0.038763870,0.006739790,0.010244550
1640781379992179968,0.126025080,0.257817600,9.694712640,0.006419420,0.085943940,-0.009532270
1640781379995499776,0.160031680,0.055498560,10.227063180,-0.080554190,0.022290650,0.020024180
1640781379996610048,0.135219130,-0.035319670,10.051049230,-0.053726140,-0.054155290,0.020614270
1640781380000679936,0.237289070,-0.253002670,9.334172250,-0.010390580,-0.037708880,0.001221900
1640781380001750016,-0.071239960,0.028167530,9.597163200,0.030151010,0.031605370,0.012092290
1640781380005740032,-0.218242410,0.224615920,9.680641170,-0.010530650,0.064767900,-0.021350390
1640781380006670080,-0.378219810,0.122928870,10.095483780,-0.030073520,-0.029072170,-0.016494100
1640781380010510080,-0.395554720,0.442007930,9.656889920,0.021155180,-0.043234230,-0.006368760
1640781380011659776,-0.160345850,0.545448720,9.166419980,0.005322700,-0.003141170,-0.020320710
1640781380016120064,-0.403178960,0.403493970,10.214950560,0.002735850,0.043305750,0.025650860
1640781380017560064,-0.246271420,0.289805620,10.151192670,0.030511620,0.027747450,0.013628600
1640781380020740096,-0.229883690,-0.030819380,10.020515440,0.056141620,-0.092341010,0.014521180
1640781380021590016,-0.108812120,0.133405310,9.508316040,0.037388510,-0.038525470,0.012819470
1640781380028059904,0.129508900,0.405718890,9.255588530,-0.036001210,0.053471340,-0.020153820
1640781380028559872,-0.155457440,0.273796260,10.455014230,-0.044175990,0.012683870,0.001654030
1640781380030489856,0.112721850,0.380173920,10.048101430,0.041130190,-0.013397630,-0.005510450
1640781380031659776,0.172045130,0.580593410,9.666069030,0.087140510,-0.048381090,-0.015497210
1640781380035739904,-0.217680660,0.729779420,10.068617820,0.019727650,-0.009559100,0.025756660
1640781380037179904,-0.242442820,0.869568710,9.774814610,-0.093239550,0.002035500,0.036104020
1640781380040489984,-0.281077830,0.363800050,9.714848520,-0.059859450,-0.049778820,0.020512940
1640781380041570048,-0.171320970,0.186130910,9.498927120,0.061938170,-0.003822150,0.011336800
1640781380045519872,0.094552220,0.556057570,9.346796990,0.071330370,0.043568020,-0.008445980
1640781380046629888,-0.147110400,0.356894820,10.139860150,-0.045129660,0.023360550,0.015476350
1640781380051309824,-0.119653280,0.113404520,10.281414030,-0.099404140,-0.045870240,0.035402170
1640781380052519936,0.060582490,-0.309745760,9.404535290,0.027298930,-0.053511560,0.015552340
1640781380057740032,0.004975890,-0.308051080,9.361520770,0.112211710,0.007307530,-0.003916020
1640781380058379776,0.013432330,0.316135500,9.712071420,0.040912620,0.092482550,-0.012817980
1640781380060480000,-0.154368490,0.202062120,9.997106550,-0.059974200,0.014132260,-0.017359850
1640781380061590016,-0.158171850,0.073016940,10.012127880,-0.022733210,-0.099614270,-0.004856290
1640781380065819904,-0.028624600,0.308061480,9.013083460,0.104531650,-0.003151600,-0.002528730
1640781380067589888,-0.267865690,0.395740390,9.586400030,0.097762070,0.016310810,0.001105670
1640781380070629888,-0.400740650,0.495526110,10.558499340,0.007474420,0.036878890,0.020213430
1640781380071800064,-0.191964820,0.307236760,9.768690110,0.003686550,-0.010390580,0.008352100
1640781380075510016,-0.266478150,0.076763810,10.023752210,0.044244530,-0.087939200,-0.010566410
1640781380076619776,-0.191893100,0.549136580,9.433035850,0.084641580,0.020539760,-0.013290350
1640781380080549888,-0.072710080,0.618766130,9.328143120,0.017260020,-0.006929040,-0.026352710
1640781380081590016,-0.195833950,0.489781440,10.379056930,-0.027325750,-0.001822410,0.007720290
1640781380085889792,0.073837240,0.443159400,9.604705810,0.044247510,0.016580520,0.014151630
1640781380086739968,-0.019200430,0.350844030,10.026261330,0.075583160,-0.070513790,0.001147390
1640781380090540032,-0.245458300,0.833067480,10.163937570,0.016422570,-0.005248190,0.024496020
1640781380092069888,-0.005715440,0.641288820,9.332187650,-0.079111750,-0.023169820,0.023826960
1640781380095490048,-0.140711950,0.101742730,9.939554210,-0.028033550,-0.019936260,0.007928910
1640781380096699904,0.079378980,0.310798140,9.376853940,0.104291750,0.046792630,-0.002963840
1640781380101189888,0.117654760,0.598638650,9.575684550,0.056646760,-0.009496510,-0.007762010
1640781380102599936,-0.360706930,0.476376950,10.434179310,-0.073809920,-0.026750560,0.031708180
1640781380105849856,-0.065518980,0.022353140,9.495286940,-0.067670640,-0.043559080,0.026768450
1640781380106599680,-0.177706210,-0.204090570,9.571881290,0.071696950,-0.039903830,-0.007480380
1640781380110550016,-0.159997090,0.093293600,9.527927400,0.115393100,0.048655280,-0.016091760
1640781380111609856,-0.028821810,0.497311090,9.747656820,-0.010024010,0.042155390,-0.005500020
1640781380115599872,-0.381975200,0.113564960,10.363413810,-0.072214010,-0.042381880,-0.000409780
1640781380116729856,-0.129243340,-0.119981850,9.426768300,0.029589240,-0.102919330,0.007219610
1640781380120600064,-0.178404140,0.077160610,9.172142980,0.150741670,-0.029103460,-0.006824730
1640781380122249728,-0.298412620,0.296412260,9.656021120,0.091348590,0.049406290,-0.017985700
1640781380125499904,-0.252855840,0.472413930,10.492277150,-0.035911800,0.010696050,-0.000502170
1640781380126609920,-0.255347460,0.297579140,10.067561150,-0.006972250,-0.053295500,-0.009956960
1640781380130699776,-0.024676970,0.259487720,9.477602010,0.084534290,-0.107678780,-0.019873680
1640781380132009984,-0.068349030,0.693531750,9.506868360,0.115948930,0.017979740,-0.001275540
1640781380135639808,-0.229056840,0.662313040,9.645647050,0.027146940,0.004707280,-0.011926890
1640781380136659968,-0.273400010,0.425491060,10.423871990,-0.023046140,-0.073760750,0.020177660
1640781380140509952,-0.109582680,0.372409020,9.595497130,0.041331350,-0.037842990,0.011348730
1640781380141659904,-0.099286830,0.399217010,9.769959450,0.060039750,-0.054797530,-0.012660030
1640781380145519872,-0.219199430,0.728955330,10.294697760,0.010642410,0.010286270,0.015868250
1640781380146739968,0.042149940,0.512953940,9.313432690,-0.024975840,-0.038930770,0.002372260
1640781380150539776,0.145676850,0.080932050,9.889464380,0.020027160,-0.056065620,-0.001184640
1640781380151799808,0.258256410,0.484656810,9.412927630,0.068721180,0.058127940,0.003591180
1640781380157769984,0.069188010,0.537475650,9.821328160,0.001581010,-0.044016540,0.002230700
1640781380158360064,-0.159530220,0.281470750,10.492774960,-0.062966350,-0.059050320,0.045542420
1640781380160499712,0.106605020,0.112954010,8.911546710,0.006657840,-0.005614760,0.007788840
1640781380161609984,-0.134429900,-0.006007100,9.831789020,0.080774730,-0.041069090,-0.016246740
1640781380165529856,-0.154146890,0.505038800,9.665829660,0.041820110,0.095517940,-0.001469250
1640781380166689792,-0.066657270,0.421720650,9.546682360,-0.041979560,-0.034044680,0.002518300
1640781380170619904,-0.388643830,-0.037281170,10.538848880,-0.015299020,-0.065055470,0.011536480
1640781380171739904,-0.095648540,0.125214700,8.950057980,0.094322860,-0.009389220,0.011378530
1640781380175479808,-0.173003760,0.158940760,9.600761410,0.092715050,-0.035078830,-0.007128720
1640781380176610048,-0.334697130,0.227278500,10.229525570,0.005717580,0.084561110,-0.010906160
1640781380180589824,-0.135980380,0.257312240,9.843693730,-0.013510890,-0.039966400,-0.006802380
1640781380181599744,-0.239674340,0.090521280,10.149279590,0.064387920,-0.101420280,-0.011284650
1640781380185639936,0.013262040,0.341929440,9.010211940,0.092922140,-0.000467900,-0.012359020
1640781380186699776,-0.040966400,0.666729990,9.752336500,0.048336390,0.006170570,0.000782310
1640781380190850048,-0.299354370,0.422747160,10.476927760,-0.002892320,0.037458540,0.007224080
1640781380191629824,-0.170029830,0.373289410,9.929273610,0.027227400,-0.100404030,0.016492610
1640781380196069888,-0.172554120,0.512314020,9.709180830,0.081658350,-0.080232330,-0.007052720
1640781380196879872,-0.111676070,0.597070280,9.234741210,0.024621190,0.027872630,-0.012692810
1640781380200960000,-0.104215300,0.694163800,10.015065190,-0.026279690,0.013433400,0.017182530
1640781380202109696,-0.107783890,0.246789280,10.072369580,0.019891560,0.017021600,0.007472930
1640781380205539840,0.050796350,0.064881090,9.722356800,0.081950430,-0.098161410,-0.002810360
1640781380206720000,-0.002153420,0.425538480,9.801708220,0.068469350,-0.024004280,0.022628910
1640781380210569984,0.026149820,0.143815530,9.345941540,-0.044538080,0.014473500,0.015641750
1640781380211689984,0.041233760,-0.118157850,10.040042880,-0.016921760,-0.024187570,0.019790230
1640781380215510016,0.211862890,0.069100800,9.407763480,0.098198660,0.050877030,-0.019149480
1640781380216610048,0.160436570,0.291811320,9.559279440,0.089120870,-0.032545630,-0.022171440
1640781380220589824,-0.186829240,0.592101570,10.169975280,0.015936790,0.003901120,0.027766830
1640781380222400000,-0.129100740,0.244007920,9.324521060,-0.027310850,-0.022588670,-0.008323790
