# timestamp,accel_x,accel_y,accel_z,gyro_x,gyro_y,gyro_z
1640789987.092069,-0.744445320,-0.660643340,9.002349850,-0.095422570,0.079783800,0.079336760
1640789987.095049,-1.078244450,-0.696584460,9.529669760,-0.083194670,-0.036200880,0.062024590
1640789987.097010,-1.335112810,-0.403219550,10.194313050,-0.030717260,0.019483270,0.055956840
1640789987.098970,-0.605836390,0.021892300,8.939645770,-0.021804870,-0.009928640,0.030203170
1640789987.102039,-0.680657150,0.125317840,10.387125970,0.010569390,-0.049595530,0.030785800
1640789987.103720,-0.035035500,0.300959890,9.376207350,0.035122030,0.065587450,0.039283920
1640789987.106999,0.358724620,0.257342790,9.505629540,0.053647160,-0.082345310,0.052870810
1640789987.108719,0.273187040,0.053382230,10.152726170,0.045213100,0.006631020,0.108891730
1640789987.112079,0.852863130,-0.089786630,8.816285130,0.031511490,-0.003141160,0.104051840
1640789987.113740,0.258744330,-0.424458560,10.281220440,0.070315600,-0.063964730,0.088177620
1640789987.117300,0.341657040,-0.276088540,9.144308090,0.078849490,0.056494770,0.058399140
1640789987.118700,0.111244350,-0.106575460,9.458207130,0.064393890,-0.043742350,0.018265840
1640789987.122089,-0.702528300,-0.015054940,10.501174930,0.050129000,0.012151900,0.025142730
1640789987.123809,-0.475104720,0.257829550,8.925827980,0.078424820,-0.044447180,0.030173360
1640789987.127060,-1.226791500,0.241742980,10.347985270,0.117874150,-0.119981170,0.027474760
1640789987.130190,-1.147342440,0.363592180,9.338997840,0.099384780,0.008453430,0.052668150
1640789987.132239,-0.801833090,0.314311950,9.449212070,0.106772800,-0.106914340,0.076094280
1640789987.135470,-0.808232490,-0.043538160,10.532265660,0.109131640,-0.032518800,0.083778810
1640789987.136989,0.487249020,0.041832040,8.695338250,0.148315730,-0.022356210,0.076715660
1640789987.139760,0.567259190,0.198917170,10.310956000,0.144572570,-0.056643780,0.052505740
1640789987.142410,0.868188200,0.431530980,9.705022810,0.042708220,0.064009430,0.062997650
1640789987.143890,1.019393320,0.437631220,9.475458150,0.026556850,-0.123983630,0.066037480
1640789987.148010,0.084282990,0.142026450,10.556927680,0.101231050,-0.096294280,0.033205750
1640789987.152900,0.145736900,0.186840560,8.395702360,0.185041130,-0.071588150,0.032284860
1640789987.153689,-0.697837470,0.130303590,9.802677150,0.186189990,-0.114057970,0.043627610
1640789987.154080,-1.021492720,-0.015939480,9.782496450,0.076541310,0.058628630,0.064796220
1640789987.157090,-0.654397490,-0.040702060,9.313656810,0.069741900,-0.088687250,0.065067420
1640789987.159299,-1.148722290,0.036672640,10.743337630,0.138999520,-0.106221460,0.050401700
1640789987.164130,-0.207017360,0.402932670,8.347517970,0.137339550,-0.051227220,0.034944710
1640789987.164919,-0.057630590,0.403559030,9.580300330,0.117355590,-0.104858000,0.016839800
1640789987.167060,0.033644680,0.269299540,10.120821950,0.094740100,0.052298610,0.014646350
1640789987.168769,0.671872620,-0.097849530,9.312189100,0.174416620,-0.110518930,0.027292970
1640789987.172140,0.079496680,-0.451660720,10.771693230,0.277435810,-0.141510380,0.047117470
1640789987.173750,0.313369450,-0.532000480,8.843807220,0.213122400,-0.037637360,0.048802790
1640789987.177140,-0.072803390,-0.655559120,9.570547100,0.162799670,-0.150118770,0.061559680
1640789987.178900,-0.634254280,-0.455603930,10.064478870,0.169920920,-0.022342800,0.034001470
1640789987.182489,-0.148681850,-0.010735250,8.710365300,0.220622120,-0.106015800,-0.001484160
1640789987.184949,-0.732218860,0.694457950,10.528361320,0.259816620,-0.121034680,-0.011813640
1640789987.187019,-0.554895280,1.403327940,9.471915250,0.143434120,-0.022095440,-0.014923510
1640789987.188710,-0.487023440,1.394174930,9.964365960,0.099103160,-0.205819310,0.027060510
1640789987.192479,-0.725993690,1.070469980,10.386979100,0.160621120,-0.104771560,0.046896930
1640789987.193820,0.002519140,0.645257350,8.790896420,0.227062420,-0.110225380,0.019335750
1640789987.197150,-0.283727230,0.136061030,10.434312820,0.242115590,-0.148378360,0.055439780
1640789987.198750,0.212955010,-0.214930460,9.288645740,0.150254350,-0.048969690,0.064390890
1640789987.202119,0.741387370,-0.725736620,9.261347770,0.096948440,-0.148779150,0.041893130
1640789987.203660,0.227671530,-0.559002760,10.377278330,0.148554150,-0.045630340,0.028292830
1640789987.207039,0.431253340,-0.147110190,9.205627440,0.182022120,-0.117632740,-0.017693640
1640789987.209020,-0.351242930,0.002532390,10.410616870,0.192743540,-0.232730820,-0.005032120
1640789987.212210,-0.608438010,0.328289930,9.278134350,0.187234580,-0.110876560,-0.010609630
1640789987.213790,-0.570611950,0.212221830,9.129880910,0.221247970,-0.159996760,-0.005479160
1640789987.217440,-1.115060210,0.357974020,10.262566570,0.262054740,-0.093872840,0.019399820
1640789987.218700,-0.384847340,0.748627960,8.897449490,0.202737720,-0.110079360,0.014440710
1640789987.222020,-0.290930000,0.471256760,10.170251850,0.127485380,-0.173732620,0.040361280
1640789987.223739,-0.013976750,0.484131750,9.521625520,0.136621300,-0.077624630,0.034986440
1640789987.227190,0.553533320,0.189251880,9.245038030,0.211560770,-0.179000200,-0.007878240
1640789987.228950,0.158382040,-0.115825540,10.409416200,0.257965950,-0.099180640,-0.021472580
1640789987.232110,0.347407610,-0.080331880,9.295409200,0.230295960,-0.103735920,-0.025278330
1640789987.233719,-0.087818200,-0.506038130,10.349558830,0.200127110,-0.244398440,-0.021797420
1640789987.237030,-0.491809520,-0.487584350,9.551803590,0.219990360,-0.147932770,-0.011658670
1640789987.238760,-0.324299720,-0.173107460,8.862808230,0.248286110,-0.199359630,-0.033307070
1640789987.242190,-0.963797690,0.053413090,10.616980550,0.257270040,-0.106425570,-0.015816090
1640789987.243870,-0.510515510,0.676257130,9.362333300,0.227424500,-0.112546990,-0.004436080
1640789987.247170,-0.199412470,0.920476200,10.094268800,0.216709080,-0.223252190,-0.002849100
1640789987.248750,-0.184923840,1.088029740,9.890814780,0.199098900,-0.079530480,-0.011016430
1640789987.252009,0.335166540,1.289504050,9.084219930,0.171904270,-0.178951000,-0.013430420
1640789987.253719,-0.060429520,0.780875330,10.595492360,0.173965100,-0.172677620,0.000628830
1640789987.257050,0.120470700,0.190086350,9.199347500,0.203412790,-0.151650610,-0.006546080
1640789987.259040,0.137701060,-0.295920460,9.648767470,0.259901580,-0.262482490,-0.017125900
1640789987.262200,-0.182273370,-0.684337260,9.647662160,0.246489050,-0.079895540,-0.014944380
1640789987.263749,0.193161170,-0.531064210,8.958666800,0.176022960,-0.129097700,-0.022287670
1640789987.267000,-0.140074760,-0.368756890,10.557957650,0.151766850,-0.134630500,-0.020395220
1640789987.268720,-0.048713460,-0.049855310,9.431089400,0.182390210,-0.112596160,-0.038643180
1640789987.272019,-0.073323760,0.417272480,9.652885440,0.256936280,-0.255085560,-0.048728290
1640789987.274020,-0.559708180,0.579251290,9.821308140,0.269961300,-0.138054800,-0.050286950
1640789987.277540,-0.340287600,0.492798780,9.013755800,0.237363590,-0.161060660,-0.052075090
1640789987.279080,-0.566939530,0.264860870,10.359136580,0.269970300,-0.166177760,-0.015570230
1640789987.282189,-0.382479880,0.168896900,9.533505440,0.275146960,-0.131642820,-0.012505060
1640789987.283720,0.095541400,0.214832810,9.503756520,0.230240870,-0.217147200,-0.004541870
1640789987.286980,0.041670470,0.340853750,9.899114610,0.171661380,-0.093063720,-0.001807510
1640789987.288730,0.400813910,0.273039580,9.360296250,0.155138980,-0.143593550,-0.037992000
1640789987.292490,0.201005210,0.198294390,10.299825670,0.260859760,-0.186415000,-0.052069130
1640789987.293929,0.013659880,0.386385530,9.547701840,0.301730660,-0.150078540,-0.082629930
1640789987.297890,-0.254279970,0.284520270,9.960220340,0.241109770,-0.226976010,-0.061962020
1640789987.298760,-0.752695740,0.339351650,10.083871840,0.183734310,-0.167499480,-0.019994380
1640789987.301999,-0.642970500,0.085921440,9.378206250,0.160320100,-0.205805930,-0.030967600
1640789987.303720,-0.625191750,0.178327460,10.055019380,0.244569810,-0.176563870,-0.019182260
1640789987.308179,-0.401042460,0.610087450,9.460769650,0.264857740,-0.113090870,-0.037410860
1640789987.309510,0.098599660,0.690075040,9.687789920,0.165857370,-0.211767900,-0.035423040
1640789987.312100,0.439077050,0.713345530,9.661273960,0.127816170,-0.108702480,-0.008642670
1640789987.313769,0.742767630,0.528863250,9.373510360,0.155219420,-0.117553770,-0.042700770
1640789987.316980,0.418586880,0.409637120,10.528212550,0.215575130,-0.161208230,-0.021426380
1640789987.318709,0.109417380,0.178232480,9.590005870,0.215701800,-0.178383290,-0.018079580
1640789987.322360,-0.148084730,-0.412757040,9.479446410,0.181140020,-0.265428450,-0.052759060
1640789987.323720,-0.598440290,-0.504974480,9.555005070,0.211189700,-0.123065710,-0.047838690
1640789987.327119,-0.526678440,-0.379477710,8.949554440,0.225530610,-0.108742730,-0.073878470
1640789987.330150,-0.703887940,0.015157870,10.400984760,0.194603200,-0.164248060,-0.060358640
1640789987.331970,-0.301767950,0.559431490,9.552355770,0.147758420,-0.103299320,-0.039088720
1640789987.333660,0.000378980,0.583656670,9.834413530,0.152824830,-0.210486350,-0.047750770
1640789987.337000,-0.141738240,0.632974620,10.344235420,0.231090160,-0.131739660,-0.035260610
1640789987.339140,0.188191530,0.508915250,9.125961300,0.263175370,-0.165201740,-0.056801740
1640789987.341980,-0.082671200,0.280072810,10.280378340,0.236143200,-0.219841330,-0.050491110
1640789987.343870,-0.105573630,0.081429060,9.484661100,0.185215470,-0.120566790,-0.028654940
1640789987.347519,0.105384450,-0.069859360,9.324393270,0.163817410,-0.212807970,-0.043152280
1640789987.348680,-0.384852680,0.123371840,10.491924290,0.186672820,-0.125657020,-0.050051510
1640789987.352010,-0.126429100,0.541908140,9.286477090,0.165350740,-0.128912930,-0.054791570
1640789987.353780,-0.294946640,0.675957680,10.406620980,0.140412170,-0.246679780,-0.047962370
1640789987.357020,-0.386327000,0.629405440,9.940724370,0.161634400,-0.120398400,-0.056679550
1640789987.358990,-0.010519570,0.596669970,9.127080920,0.200088370,-0.202260940,-0.068967050
1640789987.362589,-0.343650700,0.639553790,10.331309320,0.177271680,-0.169719770,-0.054118040
1640789987.363740,-0.035035060,0.358783900,9.194940570,0.101973140,-0.097300130,-0.021073220
1640789987.366999,0.096176600,-0.095367840,10.074952130,0.127276780,-0.218807180,-0.027832390
1640789987.368759,-0.144852730,-0.167548150,10.315732000,0.211977970,-0.138056280,-0.033824150
1640789987.372100,0.438823550,-0.169724150,8.644660950,0.202877860,-0.175426920,-0.045870240
1640789987.373900,0.114754070,0.004739520,10.050032620,0.150151550,-0.128957640,-0.046898420
1640789987.377090,0.086416310,0.142920580,9.620797160,0.095464300,-0.040230150,-0.051945460
1640789987.379429,0.120203900,0.144680200,9.836907390,0.149296240,-0.240360200,-0.047329070
1640789987.382059,-0.554362950,0.300134720,10.195943830,0.241276670,-0.187794880,-0.062344980
1640789987.383730,-0.431381820,0.259432670,8.929842000,0.200353580,-0.168080630,-0.087113690
1640789987.387159,-0.814581040,0.239814730,10.266736980,0.190658880,-0.194473560,-0.054760280
1640789987.388769,-0.745681940,0.082354140,9.834764480,0.166809570,-0.097551940,-0.061768300
1640789987.392520,-0.037963760,0.111994930,9.526389120,0.198091570,-0.186483560,-0.051923100
1640789987.393760,-0.125186000,0.632599410,10.351248740,0.200687380,-0.139331830,-0.032778080
1640789987.397060,0.417462230,0.731252610,9.281991000,0.084686300,-0.120107840,-0.052395470
1640789987.398749,0.389554800,0.798946140,10.071947100,0.082571800,-0.203347220,-0.037655230
1640789987.402130,0.023761440,0.578231810,9.973729130,0.154560820,-0.152978320,-0.068058070
1640789987.403770,0.158785760,0.250741240,9.468631740,0.222031790,-0.198848550,-0.085419420
1640789987.407130,-0.518040060,0.390045850,10.307630540,0.219759320,-0.169816600,-0.060759490
1640789987.409030,-0.555136020,0.111895490,9.595493320,0.072501610,-0.154893100,-0.059232130
1640789987.412130,-0.394867630,-0.022336240,9.796819690,0.055895750,-0.181755420,-0.036488480
1640789987.413770,-0.540776910,0.362858000,9.971438410,0.113786780,-0.123845060,-0.067797310
1640789987.417130,-0.058619140,0.525364580,9.519183160,0.128571660,-0.169016410,-0.070481010
1640789987.418759,0.005355060,0.838323950,9.738839150,0.127145650,-0.175555070,-0.047530230
1640789987.422010,0.256268620,0.680459200,9.459717750,0.056156530,-0.126327590,-0.068350140
1640789987.423699,0.395485250,0.278555990,9.923982620,0.088299820,-0.124357660,-0.044783950
1640789987.427080,0.076819700,0.338203490,10.013351440,0.155177730,-0.139397380,-0.044338410
1640789987.429499,0.052917410,0.038403080,9.684805870,0.106087330,-0.212162750,-0.048743190
1640789987.431939,-0.113867720,-0.114596430,9.552572250,0.067609560,-0.137817870,-0.040882830
1640789987.434800,-0.265090350,-0.177248980,9.388404850,0.072661050,-0.113639240,-0.076696280
1640789987.437600,-0.276316610,-0.216120150,9.935284610,0.133061410,-0.138553990,-0.080879040
1640789987.438840,-0.292296230,0.215306710,9.650457380,0.166888540,-0.106689360,-0.089633460
1640789987.442119,-0.229270590,0.409872260,9.900524140,0.076881060,-0.172437740,-0.083313880
1640789987.443990,-0.388740780,0.441912320,10.346345900,0.055046390,-0.147126620,-0.050508990
1640789987.447019,-0.240055800,0.380810560,9.392598150,0.108194340,-0.167027100,-0.067181880
1640789987.448799,-0.318746750,0.370374680,10.110072140,0.154164420,-0.203473870,-0.075420740
1640789987.452100,-0.255200090,0.456869840,9.653721810,0.140182670,-0.090490300,-0.051745780
1640789987.455140,0.052795070,0.354326640,9.574110980,0.079932800,-0.177972020,-0.054901840
1640789987.456960,0.024412320,0.320499870,10.394466400,0.064367050,-0.131292640,-0.035034110
1640789987.458870,0.397696350,0.406170960,9.144492150,0.073146830,-0.090262310,-0.051848600
1640789987.462180,0.160035310,0.583889480,10.291403770,0.062969330,-0.186365840,-0.069464750
1640789987.463780,-0.225099340,0.584405180,10.107436180,0.037555400,-0.103372340,-0.055706510
1640789987.467620,-0.074340750,0.321373580,9.204827310,0.043749810,-0.213061270,-0.073499960
1640789987.468770,-0.637213830,0.090561690,10.413468360,0.115045890,-0.184340760,-0.077357870
1640789987.472040,-0.412343170,0.034630610,8.948674200,0.118668380,-0.064265740,-0.065504010
1640789987.473729,-0.294498380,0.110680330,9.895841600,0.059877340,-0.174525370,-0.043766200
1640789987.477259,-0.397702690,0.076619630,10.452776910,0.008752940,-0.073468690,-0.016346580
1640789987.478760,0.376419960,0.079184100,9.041829110,0.029872360,-0.150500210,-0.029267370
1640789987.482060,0.178365650,0.274334790,10.322551730,0.110606850,-0.169245900,-0.052255400
1640789987.483960,0.351140800,0.396190020,9.192095760,0.086791820,-0.033217670,-0.074967750
1640789987.486970,0.465472130,0.390340060,9.578061100,0.048974170,-0.163644550,-0.074341890
1640789987.488740,-0.316277060,0.184196560,10.696878430,0.067314510,-0.103442380,-0.059714910
1640789987.492280,-0.085907440,0.053836490,8.966927530,0.089468060,-0.162313880,-0.060439110
1640789987.493770,-0.619991720,0.046558160,10.184509280,0.105360160,-0.204274060,-0.049380960
1640789987.497079,-0.768403530,0.084277870,9.526494980,0.060369070,-0.045600540,-0.054991250
1640789987.499040,-0.290462850,0.125378310,9.517733570,0.056996950,-0.138077140,-0.053374470
1640789987.502030,-0.523815930,0.387669500,10.648107530,0.089603650,-0.098425150,-0.063692040
1640789987.503800,0.190838080,0.726456110,9.128101350,0.054302810,-0.114427510,-0.078113380
1640789987.507269,0.184875860,0.903726940,10.209916110,0.032863020,-0.163547690,-0.058996680
1640789987.509869,-0.044383260,0.877621890,10.008485790,-0.010417400,-0.071340810,-0.040073690
1640789987.512080,0.180563820,0.422119080,9.757898330,0.039854640,-0.203780820,-0.036472080
1640789987.514119,-0.321964590,0.227441730,10.369166370,0.111638030,-0.156325130,-0.037768490
1640789987.517030,-0.100454870,0.146137830,9.070489880,0.066116460,-0.116930920,-0.039184090
1640789987.518730,-0.085756870,0.029021800,10.018852230,-0.009812410,-0.118419550,-0.019568200
1640789987.521979,-0.091602580,0.245366780,9.814379690,-0.066350400,-0.025445220,-0.030079480
1640789987.523759,0.196041960,0.275769410,9.700264930,-0.034348670,-0.139933840,-0.051370270
1640789987.527180,-0.052282070,0.646457610,10.263162610,0.037613510,-0.108139220,-0.058996680
1640789987.529760,0.086732640,0.782593430,9.194320680,-0.007261330,-0.118348010,-0.067231040
1640789987.532070,-0.194954990,0.320251380,10.267100330,-0.016359990,-0.153102000,-0.039651990
1640789987.533759,-0.269506720,0.072413330,9.663930890,0.024741890,-0.056111820,-0.038367510
1640789987.537000,-0.121409700,-0.180865090,9.569186210,0.053949660,-0.156065820,-0.032113490
1640789987.538780,-0.281926160,-0.133345010,10.204750060,0.034010410,-0.076532370,-0.001263620
1640789987.542490,0.192325100,-0.021338550,9.159528730,-0.058719510,-0.055345890,-0.019563730
1640789987.543929,0.040992890,-0.076470170,10.475617410,-0.046639140,-0.135822590,-0.021652880
1640789987.547230,0.231843310,0.220750510,9.591115950,0.033666190,-0.028339030,-0.044882300
1640789987.550140,0.325812190,0.425888510,9.502038000,0.062394150,-0.120708370,-0.077739360
1640789987.552120,-0.284797220,0.613838910,10.819336890,0.024534770,-0.072997820,-0.043928620
1640789987.553750,-0.048794280,0.664443730,9.267131810,-0.050225850,-0.091049080,-0.029473010
1640789987.557200,-0.533921300,0.223701480,10.292059900,-0.026965140,-0.198817270,-0.025403500
1640789987.558790,-0.537880300,0.227614580,9.712882040,0.037457050,-0.016203520,-0.014185910
1640789987.562379,-0.194509760,0.368076090,9.375679020,0.037780400,-0.084844230,-0.032274430
1640789987.564010,-0.537924650,0.289219410,10.904657360,-0.022508210,-0.097906590,-0.004819040
1640789987.567080,0.383673340,0.482895230,9.026294710,-0.077883900,-0.048407910,-0.007689000
1640789987.569020,0.426110060,0.343235580,9.929730420,-0.055111950,-0.109297060,-0.033183400
1640789987.571990,0.250919160,0.523343860,10.229517940,-0.020498030,0.008054080,-0.023645160
1640789987.573760,0.457666720,0.600295540,9.425287250,-0.030750040,-0.107912730,-0.023229420
1640789987.577440,-0.203801810,0.025975050,10.642992970,-0.046469270,-0.145791490,-0.007782880
1640789987.578860,-0.005939150,-0.168344720,9.159909250,-0.006909670,-0.044333940,-0.003494320
1640789987.582199,-0.212205500,-0.322223720,9.619389530,0.049287080,-0.078260910,-0.022667650
1640789987.583950,-0.440184620,-0.182532920,10.129882810,-0.014543530,-0.002582370,-0.017061830
1640789987.586990,0.031641370,0.183789510,9.439821240,-0.075331350,-0.047656900,-0.001913310
1640789987.588719,-0.262248400,0.182386370,10.414847370,-0.076505550,-0.077083710,-0.022155050
1640789987.592000,-0.022823750,0.413307960,9.612249370,-0.002026560,-0.057895490,-0.026562810
1640789987.594110,-0.118366670,0.509928760,9.716159820,0.056448580,-0.106659540,-0.043547150
1640789987.597119,-0.318718850,0.378109370,10.041695590,0.006000700,-0.036805870,-0.045192250
1640789987.598840,-0.111910020,0.258968060,9.810319900,-0.011888150,-0.067894180,0.011482840
1640789987.601970,-0.235428410,0.006029040,10.224483490,0.000213090,-0.086663670,0.005960460
1640789987.603710,0.072096300,0.035112340,9.539647100,0.004985930,-0.056661680,0.002537670
1640789987.607030,0.021906750,0.501468600,9.956954000,-0.010631980,-0.059463090,0.014305120
1640789987.608810,0.029536920,0.538443620,10.024025920,-0.091362010,-0.016894940,0.001944600
1640789987.612429,0.142318800,0.521028760,9.938411710,-0.065828870,-0.097015490,0.007888670
1640789987.613780,-0.143490230,0.509534720,10.193395610,0.027520960,-0.079190740,-0.015160440
1640789987.616979,0.007227290,0.459921930,9.468571660,0.010837620,-0.050571560,-0.017121430
1640789987.618729,-0.359485360,0.440210160,10.104893680,-0.035758310,-0.074511750,0.030115240
1640789987.621980,-0.408726750,0.039137790,9.951808930,-0.086861840,-0.046350060,0.033782420
1640789987.623760,-0.063860810,-0.250181500,9.613360400,-0.031641120,-0.089810800,0.040043890
1640789987.627230,-0.205110010,-0.063729960,9.922793390,0.058753790,-0.056463480,0.027325750
1640789987.629599,0.349670170,0.096545720,9.205274580,-0.020182140,-0.000728670,0.002683700
1640789987.632020,0.287069680,0.258437510,10.115633960,-0.079312940,-0.007708370,0.023853780
1640789987.634009,0.183043810,0.344133530,10.222308160,-0.065240260,-0.021289290,0.016427040
1640789987.637019,0.231329930,0.250301210,9.902322770,-0.004597010,-0.117823490,0.003442170
1640789987.638810,-0.414748250,0.232559650,9.858908650,0.057911880,-0.080855200,0.014743210
1640789987.642160,-0.380198810,0.024853520,9.337780000,0.024174150,-0.054968900,-0.005951520
1640789987.643800,-0.649364290,-0.217570950,10.024638180,0.015726690,-0.035737460,0.016616280
1640789987.647150,-0.444424960,-0.041405930,9.612677570,0.018392500,-0.007729230,0.016535820
1640789987.649170,0.027160120,0.218391950,9.931002620,-0.002345440,-0.046472250,0.012415650
1640789987.652010,-0.042144660,0.521548870,10.204217910,-0.035072860,0.003659730,0.027236340
1640789987.653720,0.250043690,0.733441050,9.804604530,-0.043593350,-0.074951360,0.016705690
1640789987.656980,0.012782670,0.573577760,10.360369680,0.000093880,-0.079391900,0.006574390
1640789987.659240,-0.127528340,0.403884410,9.514955520,0.064755980,-0.048330430,0.002449750
1640789987.663080,-0.218653930,0.307044360,10.002026560,0.067068640,-0.113549840,0.012385850
1640789987.663790,-0.397646610,0.127628850,9.960373880,-0.010731820,-0.005963440,0.038386890
1640789987.667369,-0.005083410,0.074643910,9.332216260,-0.063087050,-0.034926830,0.045385950
1640789987.668749,-0.119398840,0.309134240,10.601546290,-0.041091450,-0.019662080,0.036723910
1640789987.672060,0.116410270,0.565704700,9.517291070,-0.037617990,0.011537970,0.027202070
1640789987.674749,0.138616430,0.620909210,10.101919170,-0.023384390,-0.121691820,0.028279430
1640789987.676999,-0.082575980,0.419518920,10.047809600,-0.015927850,-0.001277030,0.020827350
1640789987.679030,0.084449460,0.142358540,8.987437250,0.019975010,-0.059005620,0.014072660
1640789987.682040,-0.420660470,-0.012674460,10.597722050,0.045645240,-0.059188910,0.037822130
1640789987.683719,-0.219334290,-0.281881150,9.412974360,-0.006316600,0.036694110,0.044937420
1640789987.686980,-0.105328460,-0.414702530,9.956286430,-0.001281500,-0.113669050,0.062459710
1640789987.688779,-0.248599230,-0.215408820,10.348062520,0.030164420,0.019386410,0.042979410
1640789987.692010,0.474380970,0.001475120,8.607417110,0.019381940,0.010274350,0.022554390
1640789987.693750,0.060391330,0.302095560,10.671917920,0.036598750,-0.026361640,0.023601950
1640789987.697189,0.111200720,0.526390430,9.814338680,0.013270970,0.060771410,0.020594900
1640789987.701380,0.053427000,0.234587700,9.810960770,0.056163970,-0.147467870,0.038030740
1640789987.702010,-0.629545990,0.187594490,10.523780820,0.113399340,-0.062659380,0.040063270
1640789987.703760,-0.284811380,-0.035712640,8.812623020,0.071662660,0.011354680,0.029544530
1640789987.707190,-0.769414600,-0.179239330,10.657297130,0.074914110,-0.055728860,0.045716770
1640789987.708809,-0.576816380,0.057528150,10.174351690,0.062394150,0.030849880,0.038708750
1640789987.712460,0.137889180,0.165455590,9.230056760,0.056830050,-0.092566000,0.037734210
1640789987.713790,-0.006212350,0.675540630,10.186308860,0.049573190,-0.007943810,0.041688980
1640789987.717029,0.461202500,1.064042690,9.264856340,-0.016810000,0.080148880,0.025530160
1640789987.718789,0.178298120,0.752268430,10.702020650,0.003561380,-0.092065330,0.057685380
1640789987.722250,-0.036284390,0.498932750,10.315620420,0.095091760,-0.058099630,0.038842860
1640789987.723790,0.159544990,0.208961250,9.034724240,0.125202540,-0.071111330,0.008468330
1640789987.727039,-0.413538690,-0.102842190,10.121635440,0.076961510,-0.012491640,0.053118160
1640789987.729290,-0.208863960,-0.102455910,9.441335680,-0.011596080,0.071278210,0.053563720
1640789987.732950,-0.135077610,-0.331468250,10.093344690,0.000092390,-0.038790710,0.061009820
1640789987.733719,-0.236429270,-0.044042670,10.090392110,0.073310740,-0.013943020,0.066503890
1640789987.736990,0.172361020,0.387483720,9.272350310,0.087323780,-0.036887820,0.036503370
1640789987.739140,-0.138824670,0.340676370,10.180340770,0.036905710,-0.001546740,0.024390220
1640789987.742040,-0.034265450,0.433460530,9.778365140,0.038804120,0.035738950,0.031879540
1640789987.743749,-0.156124490,0.243159500,10.185729030,0.106519460,-0.071768470,0.020189580
1640789987.747480,-0.312244090,0.189821450,9.847164150,0.126163680,-0.039637080,0.043265520
1640789987.748829,-0.107160610,0.426221220,9.272207260,0.073172160,-0.027669970,0.055067250
1640789987.752020,-0.401958730,0.171307370,10.314885140,-0.006628040,0.012253220,0.049145520
1640789987.753929,-0.071946240,0.225211560,9.724924090,0.023673480,0.009021160,0.055347390
1640789987.757030,-0.020836520,0.390254260,10.219042780,0.113074480,-0.057052080,0.016403200
1640789987.758750,-0.014879230,0.537374140,9.979463580,0.083714730,0.019784270,0.002180040
1640789987.762440,0.087419990,0.858272430,9.587992670,0.008295480,-0.051784520,0.031639640
1640789987.763780,-0.366763860,0.536510470,10.522309300,-0.043162700,-0.043815380,0.026026370
1640789987.767040,-0.156091780,0.207473010,9.514557840,0.020878020,-0.009687240,0.028578940
1640789987.768780,-0.464666460,0.225514170,10.219060900,0.138819220,-0.093325980,0.030718740
1640789987.772040,-0.480957810,0.150709120,10.013834950,0.076611350,-0.007405880,0.024871530
1640789987.773860,0.177291040,0.142446230,9.010829930,-0.018402940,-0.023370980,0.052998960
1640789987.777010,0.037864390,0.182947230,10.487551690,-0.035014740,0.027261670,0.032617140
1640789987.778910,0.476052050,0.311529370,9.628185270,-0.011372570,0.069597360,0.025583810
1640789987.782980,0.350610230,0.533940670,10.008688930,0.065399710,-0.094753510,0.035208460
1640789987.783810,-0.108408220,0.439208810,10.317267420,0.028045480,-0.030618910,0.014241040
1640789987.787040,0.054253930,0.036467120,9.059828760,0.016249720,-0.033660230,0.025704500
1640789987.788740,-0.609302220,-0.260797560,10.200242040,0.105649240,-0.062960390,0.021220750
1640789987.791960,-0.530025660,-0.305903170,9.590022090,0.092111540,0.059276820,-0.006945430
1640789987.793800,-0.304603520,-0.045438230,9.619137760,0.053001940,-0.035591420,0.030408800
1640789987.797230,-0.479454280,0.126879810,10.518827440,-0.003017490,-0.005671380,0.035862620
1640789987.798910,0.211266470,0.285710220,9.281739230,0.000253320,0.005497040,0.008615850
1640789987.802330,0.019778100,0.481370330,10.040582660,0.109133150,-0.058706120,0.004878640
1640789987.803969,0.052648660,0.581176280,10.170456890,0.104309610,0.034099820,-0.010509790
1640789987.807220,0.157640370,0.523040350,9.835061070,0.071711840,-0.057919330,0.003381070
1640789987.808820,-0.344953950,0.234704420,10.372090340,0.062976790,-0.085972250,0.033809250
1640789987.812359,-0.012412580,0.016573300,9.387914660,0.054211930,-0.009249150,0.014273820
1640789987.813830,-0.308758290,0.105330060,9.918126110,0.075562300,-0.020249190,0.016330180
1640789987.816969,-0.412423910,0.244931100,10.238430980,0.043256580,-0.007326900,0.022329390
1640789987.819180,0.041061160,0.318060640,9.689892770,0.024327630,-0.028711560,0.009216370
1640789987.821980,-0.035153650,0.442657530,9.987695690,0.066006170,-0.037486840,0.006243590
1640789987.823720,0.196035240,0.666882870,9.712533950,0.055414440,0.016106670,-0.007624930
1640789987.827030,0.081339490,0.773929060,9.905870440,0.018946820,-0.016795100,-0.000861290
1640789987.829059,-0.154825670,0.424333420,10.057920460,0.005960460,-0.045643750,0.033786900
1640789987.832739,-0.137995000,-0.072383300,9.939256670,0.063192850,-0.059400500,0.011302530
1640789987.833730,-0.359850880,-0.301381680,9.790286060,0.148142860,-0.038041170,0.001423060
1640789987.837000,-0.153775470,-0.316476820,9.439176560,0.115938490,-0.011566280,0.015282630
1640789987.838790,0.013041310,-0.184737280,9.798789980,0.023891030,0.047571960,-0.006252530
1640789987.841980,0.138880640,-0.001756060,9.913211820,-0.009427960,0.034077470,0.007154050
1640789987.843770,0.235024120,0.373371660,10.164952280,0.065869080,-0.059051820,0.004734100
1640789987.847119,-0.008376580,0.564178350,9.813482280,0.118197500,-0.035874550,-0.021274390
1640789987.850020,-0.081366610,0.658564570,9.381563190,0.089059770,-0.047057880,-0.018937890
1640789987.852140,-0.565383200,0.447348000,10.365174290,0.082845990,-0.017416480,-0.006881360
1640789987.853740,-0.636287750,-0.033520630,9.864640240,0.101438180,-0.002296270,-0.009486080
1640789987.856989,-0.427678730,0.084714640,9.932559010,0.138236580,-0.105045730,-0.006304680
1640789987.858810,-0.430013330,0.360332520,9.983503340,0.071832550,0.006587800,-0.011220580
1640789987.862310,0.175476480,0.519540370,9.239352230,-0.046621270,0.025470560,-0.001050530
1640789987.863799,0.119859420,0.785304610,10.694018360,-0.015325850,-0.028100610,0.000098350
1640789987.867309,0.224339720,0.699169100,9.956630710,0.052860380,-0.000815090,-0.035662950
1640789987.868770,0.465535280,0.694865230,9.549602510,0.112344320,-0.096972270,-0.036282840
1640789987.872030,-0.116514060,0.690658870,10.304011340,0.078927000,-0.022405390,-0.016061960
1640789987.873780,0.070119340,0.104493880,9.231579780,-0.030231480,0.027014320,-0.007419290
1640789987.876979,-0.191846520,-0.116627770,10.281189920,0.010591750,-0.060468920,0.005356970
1640789987.879089,-0.500718300,-0.058742140,10.078905110,0.063939390,0.013984740,-0.021876390
1640789987.883690,-0.068802570,-0.000066130,9.202544210,0.046931210,-0.058251630,-0.008277600
1640789987.884359,-0.333496510,0.415358870,10.142365460,0.004585090,-0.024417050,-0.013181570
1640789987.886989,0.033120860,0.319674610,9.416505810,-0.041553380,0.066185010,-0.043489040
1640789987.888769,0.301985950,0.343073520,9.967914580,0.041590630,-0.020262600,-0.033989550
1640789987.891970,-0.167172330,0.471397400,10.526813510,0.100399560,0.015266240,-0.027671460
1640789987.893750,0.142054600,0.106823790,9.427981380,0.052015480,-0.068490210,-0.023081900
1640789987.897100,-0.290323530,0.033555910,9.970894810,0.050731010,-0.075496730,0.004787740
1640789987.898939,-0.363229870,-0.182822440,9.451555250,0.038465850,0.013716520,-0.019723180
1640789987.902259,-0.120103480,-0.168913870,9.651512150,0.063773990,-0.008466840,-0.023983420
1640789987.903800,-0.363597180,0.451667520,10.392242430,0.066225230,0.030048190,-0.029142200
1640789987.906980,0.043057090,0.634321510,9.914006230,-0.006310640,-0.030675530,-0.040492420
1640789987.908820,0.012027630,0.811205510,10.228569980,-0.001257660,-0.055354840,-0.022277240
1640789987.912299,-0.154719250,0.896762850,9.759243970,0.033065680,-0.012627240,-0.053916880
1640789987.913820,-0.162352620,0.595198390,9.934229850,0.057168310,-0.066916640,-0.036388640
1640789987.917410,-0.385015880,0.389305000,9.962451930,0.076341620,-0.020948050,-0.009058410
1640789987.918860,-0.200352740,0.077084530,9.595325470,0.019548840,-0.049085920,-0.036041440
1640789987.921980,-0.073445570,-0.087895040,10.047761920,0.009681290,-0.015591090,-0.004586580
1640789987.923740,0.075886380,0.070537910,9.483968730,0.006081160,0.037546450,-0.034579630
1640789987.927060,0.190516100,0.244902040,10.069952960,-0.028878450,-0.053767860,-0.046662990
1640789987.929020,0.059992840,0.269593810,10.104033470,-0.006133320,-0.006747250,-0.012955070
1640789987.932129,0.170358000,0.111699000,9.399975780,0.060339280,-0.056815150,-0.057408210
1640789987.934350,-0.215467630,0.113578390,10.343297000,0.104348380,-0.058972850,-0.070545080
1640789987.937000,-0.294222440,0.221440110,9.349145890,0.047947460,0.033769000,-0.053013860
1640789987.938820,-0.349003140,0.141375850,9.970070840,-0.021000210,-0.088797520,-0.056187820
1640789987.941969,-0.495317850,0.133904640,10.379386900,0.003403430,0.003302100,-0.020927190
1640789987.943830,0.082883330,0.343032390,8.875012400,0.064837930,-0.018627940,-0.026650720
1640789987.947320,-0.165317670,0.447488400,10.656549450,0.070402030,-0.049273670,-0.037057700
1640789987.948840,0.020775020,0.678844450,9.844496730,0.000724200,0.067020960,-0.023868680
1640789987.952119,0.188959520,0.573812540,9.765384670,-0.025774540,-0.117288540,-0.042580070
1640789987.953740,-0.263971690,0.385100990,10.732133870,0.016582010,-0.052824620,-0.048786400
1640789987.957000,0.129042570,0.450247620,8.770493510,0.057843330,-0.007891650,-0.059828150
1640789987.958830,-0.290440650,0.411424550,10.358470920,0.034162390,-0.099278980,-0.047555560
1640789987.962159,-0.372964620,0.394452690,10.071313860,-0.047534710,0.056076050,-0.019338730
1640789987.964270,0.096658120,0.183898260,9.341920850,-0.044240060,-0.053904950,-0.008714200
1640789987.967890,-0.426054480,0.137014550,11.140931130,0.040869420,-0.069431960,-0.026527050
1640789987.968789,0.109226770,0.493524310,8.996737480,0.030615930,0.009745360,-0.024241210
1640789987.972060,0.214913400,0.473031250,9.562732700,-0.041472920,-0.097925970,-0.031617280
1640789987.973899,0.045339120,0.396244700,10.317975040,-0.081086160,0.078803310,-0.037951770
1640789987.978210,0.463297780,0.334058400,9.248799320,-0.014881790,0.015066570,-0.043334070
1640789987.980320,-0.227223380,0.200340110,10.999374390,0.066126890,-0.110593420,-0.047647960
1640789987.981999,-0.212078500,0.213306320,9.468805310,0.001332160,-0.023560220,-0.038459890
1640789987.984279,-0.021195150,-0.008019470,9.050285340,-0.029818720,-0.091928240,-0.027211010
1640789987.987380,-0.437201830,-0.202666130,10.245631220,-0.008980930,0.063203280,-0.039005280
1640789987.988819,0.135748250,0.133231640,9.079339030,0.026266280,0.064271700,-0.044231130
1640789987.992010,0.041559640,0.341278610,10.524270060,0.024761260,-0.053186720,-0.043541190
1640789987.994170,0.054191540,0.520047010,10.097854610,-0.046603370,0.029440220,-0.034247330
1640789987.997530,0.104486110,0.512871440,9.521406170,-0.035485630,-0.087167330,-0.029039380
1640789987.999280,-0.478013870,0.122323240,10.437902450,0.036756690,-0.040887290,-0.047241140
1640789988.002440,-0.334664610,0.089005540,9.425674440,0.074951360,-0.003509220,-0.061716150
1640789988.003790,-0.459467530,0.059888550,10.178161620,0.074769560,-0.067050760,-0.044351820
1640789988.007030,-0.323402640,0.050055230,9.971041680,-0.012321770,0.029744210,-0.026531520
1640789988.008810,0.150538610,0.337642970,9.523510930,-0.043340020,-0.019252300,-0.019128620
1640789988.012100,0.066002530,0.649124560,10.382745740,-0.036643450,-0.010208790,-0.022277240
1640789988.013990,0.388199510,0.913687410,9.556319240,-0.044649850,0.013530260,-0.020071870
1640789988.017079,0.050421170,0.742821100,10.307717320,0.010225180,-0.085505870,-0.023770340
1640789988.018960,-0.085976640,0.460928620,9.967024800,0.041444600,-0.034996870,-0.035166740
1640789988.022030,-0.121570210,0.230584620,9.486624720,0.031955540,-0.067773460,-0.028635560
1640789988.023739,-0.471803190,0.016682740,10.190611840,-0.026343770,-0.013937060,-0.002527240
1640789988.027010,-0.037070410,-0.146169070,9.451711650,-0.090610980,0.033278770,0.007475910
1640789988.028839,-0.067808050,-0.170753450,10.198192600,-0.013042990,-0.025479500,0.004041190
1640789988.032150,0.084348310,0.199396280,9.912593840,0.030958650,-0.004161890,-0.012046100
1640789988.033840,0.395680610,0.453202610,9.203360560,-0.020372870,-0.032411520,-0.020630660
1640789988.036939,-0.054157930,0.463566540,10.078578000,-0.053463880,-0.009815400,-0.018924480
1640789988.038800,0.093195380,0.388310130,9.656413080,-0.048296150,0.007715820,-0.031635170
1640789988.042039,-0.277261440,0.193643120,10.233577730,0.049233430,-0.071808680,-0.011995440
1640789988.043929,-0.466831770,0.227808160,9.924701690,0.056286160,-0.040321050,-0.002239640
1640789988.047370,-0.243186620,0.086820640,9.548103330,-0.030109290,-0.037248430,-0.003270800
1640789988.048879,-0.544408500,-0.032629250,10.153080940,-0.041513150,0.000560280,0.015345220
1640789988.052130,-0.089284930,0.089809620,9.727440830,-0.007899110,-0.013895330,-0.005799530
1640789988.053779,0.113804640,0.415461840,9.896349910,0.031556190,-0.033655760,-0.019814080
1640789988.056949,0.183495370,0.814157190,9.668443680,-0.028653440,-0.000078980,-0.014355780
1640789988.058820,0.407197800,1.006301520,9.871885300,-0.125224900,-0.014276800,0.000795720
1640789988.062019,-0.037801000,0.622952340,10.440354350,-0.093889230,-0.006538630,0.013031070
1640789988.063789,-0.111727770,0.368646410,9.987806320,0.025035440,-0.097410400,-0.005681810
1640789988.067080,-0.382589940,0.244646650,9.939808850,0.052218130,-0.096081190,-0.004972520
1640789988.069860,-0.422263230,-0.040775030,9.134093280,-0.042986880,-0.007709860,0.032585860
1640789988.071990,-0.119010240,-0.092926660,9.717267990,-0.116820650,-0.008499620,0.032466650
1640789988.074100,-0.094867680,-0.024580750,10.154045100,-0.089393560,0.051648920,0.019092860
1640789988.077000,0.339775440,0.413940370,9.444834710,-0.056335330,-0.038735570,0.008133050
1640789988.078770,0.249159050,0.742103870,10.390657420,-0.066852570,-0.055319070,0.002777580
1640789988.082029,0.225253280,0.483971660,9.511114120,-0.085876870,0.017447770,-0.005735460
1640789988.083840,0.090332410,0.239313650,9.891777040,-0.015154480,-0.102046140,-0.001159310
1640789988.086939,-0.407814500,-0.072292290,10.238928790,0.031092760,0.009958450,0.004893540
1640789988.088830,-0.187422540,-0.213033680,8.956854820,-0.009906290,-0.036224730,0.026607520
1640789988.092000,-0.531079050,-0.189287170,10.597726820,-0.053773830,-0.071381030,0.057822480
1640789988.093780,-0.270308670,-0.202420230,9.498526570,-0.085909670,0.056901570,0.042331220
1640789988.097380,0.125933690,0.108393300,9.418323520,-0.035659960,-0.094805670,0.014388560
1640789988.098850,-0.234567700,0.505255940,10.747687340,0.003677610,0.025160610,-0.007109340
1640789988.102480,0.279421780,0.634500500,9.189025880,-0.023768840,0.012712180,-0.018070640
1640789988.103750,-0.181176780,0.618566510,10.796731950,-0.008930270,-0.154851380,0.009019670
1640789988.108359,-0.263462870,0.476393610,9.810190200,-0.023865700,-0.017020110,0.016175210
1640789988.109069,0.034211510,0.159976500,9.043552400,-0.021094080,-0.084330130,0.027719140
1640789988.111970,-0.681939540,0.156998320,11.013682370,-0.012011830,-0.022874770,0.043460730
1640789988.113780,-0.164149730,-0.002404670,9.435910220,-0.045277170,0.000940260,0.040057290
1640789988.117040,0.063186790,-0.013371020,9.857738490,-0.009982290,-0.145648430,0.039273500
1640789988.119210,0.037611470,0.381632210,9.987263680,-0.014211240,0.029356780,0.013317170
1640789988.122010,0.641648110,0.675708060,8.907339100,-0.094984490,0.008985400,0.007937850
1640789988.123780,0.150980670,0.780052240,10.767923360,-0.097469980,-0.062496950,0.043019650
1640789988.126989,0.165236670,0.566298130,9.879878040,-0.076685850,-0.011025370,0.031204520
1640789988.128800,0.037632810,0.150411750,9.827560420,0.031134490,-0.126142800,0.028303270
1640789988.132370,-0.650295790,0.045483960,10.231939320,0.044019520,-0.063076620,0.040385130
1640789988.133819,-0.296627040,-0.275009990,8.860844610,-0.054113580,-0.025817750,0.040951370
1640789988.136999,-0.223485990,-0.493313190,9.882572170,-0.064934800,-0.021022560,0.052618980
1640789988.139950,0.026313250,-0.108373400,9.911972050,-0.040316590,0.063183900,0.037369140
1640789988.142020,0.422497840,0.272408900,9.808196070,-0.012642150,-0.046978890,0.035962450
1640789988.143810,0.197531100,0.526206610,10.346962930,-0.033275790,-0.048801300,0.033631920
1640789988.147220,0.294775780,0.675424520,9.384385110,-0.071214140,-0.054100160,0.018413370
1640789988.149040,-0.087126780,0.238955590,10.012477870,0.008389350,-0.073871000,0.023247300
1640789988.152370,-0.312880580,0.165288310,9.775987630,0.073607270,0.002849100,0.014942890
1640789988.153940,-0.367503050,0.219437520,9.784774780,0.046531860,-0.065185130,0.029377640
1640789988.156999,-0.542601880,0.161009740,10.237388610,-0.066332500,-0.027507540,0.064882630
1640789988.158769,-0.123672840,0.339852040,9.383756640,-0.133951020,-0.021620090,0.056178870
1640789988.161980,-0.195953090,0.303646590,10.325657840,-0.059689590,-0.050094730,0.035808980
1640789988.163810,0.070293500,0.608162220,9.878923420,0.020012260,0.010316070,0.007992980
1640789988.167870,0.215602430,0.885968090,9.784293170,-0.001521410,-0.073122990,0.010758640
1640789988.168900,-0.068168100,0.594357370,10.394355770,-0.078828640,-0.059655310,0.044903160
1640789988.172459,0.266907810,0.331272040,9.190999980,-0.097472970,-0.033576790,0.044898690
1640789988.173910,-0.158163350,0.128188070,10.059926030,-0.034268200,-0.085362780,0.044694540
1640789988.176999,-0.267020340,0.145218910,9.846930500,-0.036604710,-0.003553930,0.061321270
1640789988.178779,-0.030920450,0.087166170,9.524939540,-0.072531400,-0.074376170,0.061601400
1640789988.182190,-0.273267270,-0.055069100,10.306793210,-0.077131390,-0.041228530,0.038111210
1640789988.183889,0.238091080,0.178660600,9.252045630,-0.061087310,0.021635000,0.026708840
1640789988.187029,0.099313750,0.384558140,9.928442960,-0.049281120,-0.042416150,0.015164910
1640789988.188840,-0.047223450,0.348449620,10.145202640,-0.077231230,-0.009514390,0.039123000
1640789988.191990,0.258285310,0.304808800,9.507630350,-0.069096680,-0.068487230,0.046606370
1640789988.193770,-0.318077890,-0.109381460,10.163148880,-0.004188720,-0.086723270,0.049978510
1640789988.197080,-0.180022930,-0.281257330,9.435178760,0.024172670,-0.021007660,0.042107710
1640789988.199050,-0.326858400,-0.103518650,9.916242600,0.007879730,-0.044988100,0.019507120
1640789988.204330,-0.391756590,0.045590920,10.134555820,-0.061611840,-0.024576490,0.035160780
1640789988.207209,0.149832530,0.354664500,9.564031600,-0.081163640,-0.047504910,0.041317940
1640789988.207769,-0.033091430,0.690856460,10.052627560,-0.042641160,-0.036168100,0.019593540
1640789988.208840,0.090631130,0.887085860,9.789012910,-0.042586030,-0.024363400,0.022426250
1640789988.212050,-0.027692160,0.948395850,10.144051550,-0.032204390,-0.078257920,0.040359800
1640789988.214140,-0.302275210,0.407538290,10.044567110,-0.042581560,-0.074283790,0.039049980
1640789988.217260,-0.092039190,0.154543730,9.659296040,-0.004585090,-0.095164780,0.043737890
1640789988.219010,-0.266332860,0.127805590,9.885950090,-0.011783840,-0.030581660,0.036463150
1640789988.222090,-0.000900560,0.096739570,9.385314940,-0.117568670,-0.019928810,0.035521390
1640789988.223919,0.198836450,0.343359440,10.042370800,-0.151869670,-0.030860300,0.049985960
1640789988.227140,0.146788730,0.267132850,10.004648210,-0.101727270,0.000238420,0.027196110
1640789988.228890,0.284768730,0.309055750,9.757210730,-0.013481080,-0.119276340,0.024159250
1640789988.232360,-0.005571630,0.497889580,9.844066620,0.013545160,-0.066182020,0.033414370
1640789988.233960,0.030978100,0.187307250,9.137107850,-0.092031060,-0.007317960,0.028067830
1640789988.237160,-0.123868380,-0.030693040,10.173721310,-0.096738350,-0.028856100,0.064507130
1640789988.240130,-0.399631860,-0.117129040,10.181561470,-0.027677420,0.001171230,0.042970480
1640789988.241999,-0.071964640,-0.088772770,9.368324280,-0.004296010,-0.110930230,0.041626390
1640789988.243810,-0.225670070,0.253249620,9.960108760,-0.026066600,-0.054839260,0.054089730
1640789988.247020,0.094225790,0.207181230,9.085300450,-0.094190250,0.055731840,0.021037460
1640789988.249220,0.240139660,0.294994410,10.025278090,-0.060944260,-0.039285410,0.028699640
1640789988.252139,0.005549760,0.557187910,10.462219240,0.008128580,0.009705130,0.020040570
1640789988.253860,0.274917220,0.520036400,9.466303830,-0.032611190,-0.076508530,0.007680060
1640789988.257030,-0.320589510,0.636150720,10.443033220,-0.077027090,-0.117032230,0.057578090
1640789988.258790,-0.366458150,0.269469260,9.364964490,-0.094966600,-0.016996260,0.042054060
1640789988.262019,-0.301733670,-0.120316390,9.680319790,-0.016555190,-0.070160630,0.027404730
1640789988.263870,-0.614835380,0.283753960,10.557489400,0.039924680,-0.005878510,0.039654970
1640789988.267259,0.069399840,0.295273810,9.345134740,-0.065910820,-0.021778050,0.032205880
1640789988.272580,0.208047940,0.469879810,10.143181800,-0.143733620,-0.066013640,0.054660450
1640789988.273450,0.294375510,0.715595660,9.793340680,-0.131723300,0.027619300,0.031475720
1640789988.273939,0.577349130,0.559997740,9.599152570,-0.080800060,-0.051544610,0.010968750
1640789988.277020,0.015400790,0.639050720,10.470816610,-0.014987590,-0.068408240,0.042478730
1640789988.278829,0.053022940,0.233420030,9.389642720,-0.041407350,-0.065089780,0.024759770
1640789988.282490,-0.041892070,-0.199496750,9.745974540,-0.049325820,-0.070361790,0.035288930
1640789988.284530,-0.384199770,0.023720920,9.813560490,-0.060634320,0.040221220,0.051495430
1640789988.287190,-0.086506970,-0.015110130,9.554123880,-0.112776470,-0.015181300,0.051411990
1640789988.288830,-0.185880960,0.117733870,10.340443610,-0.120204710,-0.034186240,0.061504550
1640789988.291990,-0.026647670,0.296712220,9.552014350,-0.071455520,-0.017364320,0.029598180
1640789988.293789,0.035577740,0.095703420,9.946002010,-0.004425640,-0.067476940,0.011549890
1640789988.297250,-0.266876730,0.185807500,9.990735050,0.014320020,0.007565320,0.002817810
1640789988.299250,-0.014248620,0.166190920,9.486014370,-0.038653620,-0.059929490,0.000505150
1640789988.302100,-0.140471880,-0.046750170,10.285351750,-0.054363910,-0.048315530,0.036327540
1640789988.303850,0.047296770,0.233835270,9.222257610,-0.038005420,0.007134680,0.047616660
1640789988.307260,0.159805120,0.378409240,9.947708130,-0.043691710,-0.051601230,0.047495960
1640789988.308810,-0.029790970,0.537300230,10.301931380,-0.061218450,0.046262150,0.043426450
1640789988.311980,0.125276490,0.742090940,9.535955430,-0.068622810,-0.067730250,0.025707490
1640789988.314930,-0.247910870,0.531943920,10.591638570,-0.041672580,-0.095035140,0.014591220
1640789988.317180,-0.164780240,0.564873930,9.325931550,-0.026397410,0.007624920,0.005427000
1640789988.318820,-0.219046580,0.653797090,9.906859400,-0.063386570,-0.084504490,0.014378130
1640789988.321950,-0.396027090,0.419900060,10.579388620,-0.138685080,0.015248360,0.035734470
1640789988.323799,0.122982650,0.318640200,9.170642850,-0.130717460,-0.036972760,0.043605270
1640789988.326969,-0.070086640,0.259333370,10.648691180,-0.060434640,-0.078888240,0.028128930
1640789988.328820,0.161345170,0.329451590,9.544393540,-0.069645050,0.041629370,0.035223360
1640789988.332700,0.511371730,0.446274400,9.211289410,-0.121536860,-0.092126420,0.037416820
1640789988.333870,0.200085100,0.268067960,10.485781670,-0.151866670,0.025916100,0.032605230
1640789988.337299,0.491212580,0.236579980,8.975054740,-0.129261630,0.060848900,0.018773970
1640789988.338879,-0.125891370,0.282569200,10.679714200,-0.075617440,-0.112462060,0.018222630
1640789988.342020,-0.492428240,0.032023020,10.245175360,-0.088128460,0.009779630,0.020685800
1640789988.343829,-0.238683070,-0.084604490,8.923986430,-0.077849630,-0.103220340,0.020979350
1640789988.347499,-0.684057530,-0.144501540,10.525923730,-0.054791580,-0.035819420,0.015899540
1640789988.349360,-0.039099280,0.095701740,8.899983410,-0.090815130,0.140109660,0.006097560
1640789988.352850,0.188331840,0.499696550,10.179604530,-0.110590480,-0.048822180,0.020883980
1640789988.353790,0.079191230,0.607674900,10.804001810,-0.139623880,0.037799780,0.040578840
1640789988.356940,0.688090800,0.572397050,8.809148790,-0.122143340,-0.063328440,0.018720330
1640789988.358780,-0.032895060,0.237303390,10.594066620,-0.029301650,-0.098888590,0.007188320
1640789988.362450,-0.214678620,-0.038408560,9.740177150,-0.013679260,0.070562960,-0.011183320
1640789988.363890,-0.255768980,-0.179594430,9.675786020,-0.019484760,-0.102058050,0.001205500
1640789988.367050,-0.737007020,-0.205360730,10.767321590,-0.067923960,-0.031085310,0.019204610
1640789988.368840,0.010917300,0.160915080,8.752065660,-0.132089870,0.045488770,0.008839370
1640789988.372020,-0.090390430,0.706800700,10.352981570,-0.133183610,-0.045049190,0.021480020
1640789988.373870,-0.126159890,1.081778410,10.443536760,-0.149926560,0.061668450,0.019809600
1640789988.377159,0.347203080,1.058638330,9.385375980,-0.115057820,-0.083287050,0.007112320
1640789988.379710,-0.160719220,0.775710580,10.710547450,-0.021755700,-0.102151940,0.005795060
1640789988.382360,0.046466660,0.459131690,9.222954750,-0.045393410,0.009351970,-0.005242230
1640789988.383870,0.095621690,0.151059600,9.545545580,-0.112512720,-0.057236860,0.023476780
1640789988.386979,-0.067143260,-0.116328350,10.318313600,-0.174905370,0.059507790,0.046648090
1640789988.388830,0.392160330,-0.145318930,9.412307740,-0.156484530,0.029140710,0.022475420
1640789988.391960,0.088300830,0.135443430,10.395156860,-0.096865010,-0.069911790,0.027948620
1640789988.393999,0.048357560,0.299502400,9.525239940,-0.125579540,0.009942060,0.006119910
1640789988.396960,0.065788660,0.280974000,9.333987240,-0.133314740,-0.051051390,-0.019875170
1640789988.399070,-0.352235200,0.126389470,10.311818120,-0.083230440,0.016970930,-0.016151370
1640789988.401980,-0.169930730,0.095487690,9.598032950,-0.050120060,0.018252430,-0.028865040
1640789988.403839,-0.402858020,0.112060670,10.383182530,-0.059899690,-0.065787140,0.003090500
1640789988.407080,-0.292474930,0.083216620,9.838501930,-0.123248980,-0.010101500,0.032806390
1640789988.408840,0.029649640,0.016430090,9.274728780,-0.127317030,-0.033740700,0.017239160
1640789988.412040,-0.008313770,0.024471950,9.969690320,-0.055314600,0.028665360,0.004470350
1640789988.413830,0.344166960,0.338661790,9.512960430,-0.023595990,0.039660930,-0.021907690
1640789988.417080,0.150807500,0.559949990,10.417049410,-0.068461900,-0.052258380,-0.034132600
1640789988.419380,0.179894130,0.639314170,9.926158910,-0.146192300,-0.012736020,-0.010380150
1640789988.421949,0.106090430,0.495327950,9.612078670,-0.133626130,-0.055217740,-0.022023910
1640789988.423810,-0.477207540,0.273721400,10.442511560,-0.043955450,-0.013495980,-0.028201940
1640789988.427219,-0.406033930,0.344491360,9.556470870,-0.026625390,-0.016891960,-0.013028080
1640789988.428810,-0.542409720,0.102061390,10.057273860,-0.074811290,-0.080083310,-0.001589950
1640789988.432299,-0.232291500,-0.037081960,9.676055910,-0.117166340,0.026121740,0.001972910
1640789988.433970,0.361153360,0.293890090,9.246322630,-0.114277030,0.022149090,-0.005020200
1640789988.436990,0.148217140,0.427839960,10.641312600,-0.127851980,0.033712390,-0.004555280
1640789988.438910,0.637078400,0.590648590,9.709314350,-0.138664260,0.015431640,0.003428760
1640789988.442060,0.354956150,0.386339490,10.047389980,-0.087147970,-0.092606260,-0.015321380
1640789988.443840,-0.057473220,0.050014090,9.916952130,-0.040502840,-0.025984650,-0.023032720
1640789988.447010,0.059851420,-0.089014830,8.859952930,-0.032466650,-0.013387200,-0.017578900
1640789988.449100,-0.585022990,-0.251113300,10.289357190,-0.064814100,-0.006578860,-0.028941040
1640789988.452690,-0.203962580,-0.095946450,9.566935540,-0.120036300,0.054062900,-0.017334520
1640789988.453780,-0.068190530,0.197646260,9.794658660,-0.104942930,-0.017641480,-0.011378530
1640789988.456950,-0.292799200,0.340040030,10.333130840,-0.094828020,0.015728180,-0.030693410
1640789988.459040,0.214910840,0.531483890,9.375944140,-0.071050230,-0.005722050,-0.028875480
1640789988.462010,-0.110958000,0.410878510,10.060516360,-0.027586520,-0.035856670,-0.034596030
1640789988.463810,-0.021834120,0.209268000,9.581043240,-0.029692050,0.025105480,-0.037178400
1640789988.467100,0.138894270,0.229160670,9.675313950,-0.034980480,-0.017447770,-0.012607870
1640789988.469610,-0.266024290,0.086814390,10.235996250,-0.082282720,-0.002583860,-0.015231970
1640789988.472010,0.105731120,0.189071850,9.566534040,-0.118748840,-0.005631150,-0.010652840
1640789988.475119,-0.129702390,0.361241790,10.110689160,-0.080919270,-0.015568740,-0.009688740
1640789988.476990,-0.217474820,0.305763360,10.039708140,-0.048615030,0.008785720,-0.040587780
1640789988.478819,-0.092936370,0.724178140,9.926034930,-0.032608220,-0.037024920,-0.033830110
1640789988.482450,-0.363620220,0.707621040,9.939676280,-0.080786650,-0.026293100,-0.026796760
1640789988.483840,-0.010965430,0.485046360,9.491164210,-0.128763930,-0.022089490,-0.027580560
1640789988.486940,-0.037480440,0.612145190,9.958994870,-0.086879730,0.016590950,-0.011168420
1640789988.488900,-0.029309500,0.407439950,9.901144030,-0.084716090,0.029547510,-0.009417530
1640789988.492300,0.150587500,0.298601510,10.142869950,-0.096483530,-0.048270820,0.008237360
1640789988.493800,0.008603140,0.121535800,9.939219470,-0.085799400,-0.012815000,-0.001081820
1640789988.497049,0.319887790,-0.165078360,9.250683780,-0.090725710,-0.026796760,-0.033326440
1640789988.499080,0.133205550,0.128600820,9.782479290,-0.064349170,0.037826600,-0.029739740
1640789988.502009,0.114350480,0.194965380,9.530227660,-0.114314260,0.055171550,-0.056257850
1640789988.503810,0.085654890,0.076240550,10.146663670,-0.133518890,-0.043393670,-0.035759810
1640789988.508020,-0.330855610,0.185389460,10.244935990,-0.041776890,-0.019298500,-0.016528370
1640789988.508839,-0.274965230,-0.104017510,9.348177910,-0.005817410,-0.063554950,-0.029690570
1640789988.511999,-0.552673940,-0.109280500,10.140377040,0.004075470,-0.033810740,-0.019647180
1640789988.513990,-0.448951930,0.076595690,9.611646650,-0.042738020,0.051696600,-0.037656730
1640789988.517000,0.007789930,0.020310850,9.839866640,-0.081530210,-0.032751270,-0.026446580
1640789988.518950,0.021080520,0.540709500,10.290559770,-0.049161910,0.022822620,-0.021004680
1640789988.522130,0.550617690,0.833455860,9.329422950,-0.066497930,0.005404650,-0.047266480
1640789988.524099,0.293316190,0.884747800,10.558355330,-0.082467500,-0.046323240,-0.026515130
1640789988.527010,0.075833800,0.918671190,9.960815430,-0.075948240,0.005804000,-0.023205580
1640789988.528859,0.236370920,0.321024330,9.556584360,-0.045512620,-0.076107680,-0.034146010
1640789988.532169,-0.299406050,0.224635000,10.426262860,0.003966690,0.024665890,-0.022675100
1640789988.533870,-0.161705000,0.348393740,9.300195690,-0.076425080,0.032861530,-0.016474720
1640789988.536960,-0.116014940,0.107618500,10.041585920,-0.174970920,-0.053331260,0.006596740
1640789988.539039,-0.212178660,0.160970140,9.809095380,-0.149169580,0.066095590,-0.010970240
1640789988.541990,0.132744580,0.301308450,9.450925830,-0.062927610,-0.013822320,-0.046962500
1640789988.543820,-0.175543670,0.307377310,10.605987550,-0.014483930,-0.023497640,-0.029990080
1640789988.547250,0.097025840,0.361768130,9.346632960,-0.065247720,0.019769370,-0.034630300
1640789988.548890,0.332968740,0.184075440,9.804151540,-0.101105860,-0.024034080,-0.025056300
1640789988.551930,0.042386800,0.113337650,10.052077290,-0.089487430,0.089693070,-0.010764600
1640789988.554400,0.365428720,0.326711420,9.281264310,-0.076986830,-0.005201990,-0.018082560
1640789988.556949,-0.008321820,0.203539680,10.444578170,-0.074113910,-0.023663050,-0.009691720
1640789988.558859,-0.024642330,0.159656990,9.264219280,-0.079995420,0.038911410,-0.016312310
1640789988.562300,-0.102620970,0.106621390,9.749887470,-0.037673120,-0.046454370,-0.042517490
1640789988.566069,-0.491314710,0.014972650,10.288311960,-0.029535590,0.062945490,-0.046435000
1640789988.567570,-0.184708420,0.240191530,9.378088000,-0.048455600,-0.001327690,-0.051021580
1640789988.568889,-0.404026630,0.254007700,10.691930770,-0.086617480,-0.046706200,-0.036193430
1640789988.572160,-0.085912930,0.188405010,9.383137700,-0.087217990,0.047107040,-0.017689170
1640789988.576040,0.055822090,0.250374140,9.713372230,-0.006057320,-0.058569030,-0.021158160
1640789988.577000,-0.203843580,0.300945940,10.551658630,0.004003940,0.046493120,-0.027826430
1640789988.579130,0.286328320,0.487148110,9.093727110,-0.054721540,-0.016769770,-0.005069380
1640789988.582069,0.072319630,0.428045930,10.525830270,-0.078116360,-0.063097480,-0.001920760
1640789988.584250,0.297093990,0.522249940,9.587710380,-0.095465790,0.096678730,-0.023286050
1640789988.587060,0.280147190,0.728167410,9.658095360,-0.070212780,-0.033518680,-0.022521620
1640789988.588820,-0.231332570,0.681877320,10.886375430,-0.085748740,0.008313360,-0.025133790
1640789988.591960,0.101301970,0.467686500,9.049793240,-0.099624720,0.016090280,-0.021746750
1640789988.593809,-0.404993530,0.195450340,10.263485910,-0.015479320,-0.105445090,-0.019022820
1640789988.599069,-0.375590530,0.203952150,9.691283230,-0.048945860,0.055769090,-0.022615500
1640789988.600580,0.225293520,0.262418450,8.828267100,-0.122389200,0.011710820,0.003141160
1640789988.602090,-0.012459330,0.241022800,10.730710980,-0.138904150,0.058721000,0.019252300
1640789988.603799,0.517302450,0.314284920,9.762030600,-0.131832080,0.104776040,-0.000226500
1640789988.607010,0.300801070,0.368430850,10.115914340,-0.041343280,-0.100842130,0.001175700
1640789988.608860,-0.066816250,0.251905200,10.034775730,-0.046114630,-0.035390260,-0.008112190
1640789988.612210,0.149517830,0.021052370,8.760862350,-0.076694790,0.018452110,-0.029017040
1640789988.613860,-0.453251030,-0.171725850,10.035121920,-0.042834880,0.004719200,-0.013278430
1640789988.617050,-0.273619120,-0.118019260,9.839219090,-0.046414140,0.076057020,-0.024469200
1640789988.619230,-0.109623630,0.207059260,9.799030300,-0.060546410,-0.004360080,-0.008194150
1640789988.622030,-0.363246770,0.469738300,10.374278070,-0.110289480,-0.014212730,0.012448430
1640789988.623849,-0.042659250,0.458725360,9.686517720,-0.123487430,-0.005280970,0.002643470
1640789988.627020,-0.208499040,0.324205610,9.870915410,-0.019043680,-0.025354330,-0.016927720
1640789988.629140,-0.176897110,0.329093720,9.953078270,0.043481590,0.005783140,-0.023722650
1640789988.632130,-0.146534290,0.376771180,10.045207980,-0.000290570,-0.020965930,-0.017164650
1640789988.633970,-0.108518650,0.418545040,9.777360920,-0.108361240,-0.039590900,0.012682380
1640789988.636979,0.173703800,0.360308110,9.750937460,-0.155708190,-0.022131210,0.020749870
1640789988.638850,0.120527980,0.363880540,10.005043980,-0.098392370,0.055529180,0.001700220
1640789988.641990,0.196658490,0.560179350,9.868537900,-0.031988320,-0.018495320,0.001119080
1640789988.643890,0.054866840,0.418210600,10.377946850,-0.024563070,-0.037722290,-0.000402330
1640789988.647060,0.070737690,0.198143600,9.432752610,-0.052401420,-0.007496770,-0.010143220
1640789988.650679,0.105145550,0.149125610,9.548272130,-0.078618530,-0.038820510,0.000417230
1640789988.653149,-0.264276500,0.064297590,10.086647990,-0.087596480,0.060857830,0.008459390
1640789988.653839,0.075188610,0.194064970,9.282059670,-0.096777090,0.004065040,0.016857690
1640789988.656940,-0.157441090,0.154579770,10.562263490,-0.065973410,-0.051990150,0.006805360
1640789988.658870,-0.081680480,0.152116240,9.557392120,-0.033399470,0.028501450,-0.007180870
1640789988.662289,0.272423920,0.209069880,9.214316370,-0.024110080,-0.046034150,-0.020059940
1640789988.663869,-0.115553350,0.276951580,10.457759860,-0.050617750,0.076310340,-0.025078650
1640789988.667379,0.325959980,0.355826800,9.294123650,-0.095264600,0.072518000,-0.008702280
1640789988.669299,0.162160370,0.290494650,10.405072210,-0.060480830,-0.075602520,0.016778710
1640789988.671970,-0.069882640,0.289333020,9.736325260,-0.038489700,0.047804420,0.007057190
1640789988.673820,0.190004530,0.163689170,9.157332420,-0.041216610,-0.017519300,0.002603230
1640789988.676970,-0.495211210,-0.021778110,10.930028920,-0.011144580,0.016291440,-0.003223120
1640789988.679109,-0.189007100,-0.027969770,9.447087290,-0.012618300,0.045770410,-0.019600990
1640789988.682230,-0.024148730,0.202827320,9.984250070,0.004523990,-0.063967700,-0.016015760
1640789988.685510,-0.067378350,0.765859010,9.920488360,-0.086517640,0.098812580,-0.006407500
1640789988.686980,0.400704620,1.122135640,9.276653290,-0.173890590,0.042842330,0.001645090
1640789988.688880,0.086911890,1.092280860,10.790058140,-0.131708380,0.003810230,0.016652050
1640789988.691929,0.122794370,0.789610090,9.656066890,-0.045076010,0.041605530,-0.003080070
1640789988.693820,0.035699360,0.482452990,9.874523160,0.048321490,-0.084976850,-0.002910200
1640789988.697049,-0.235237630,0.183462170,9.838521000,-0.015424190,0.054644050,0.015158950
1640789988.699040,0.185553220,-0.095276550,9.038003920,-0.161531570,0.064662110,0.005356970
1640789988.701990,0.087529530,-0.098945000,10.386069300,-0.173860790,0.066815320,0.022603570
1640789988.703820,0.329957430,0.074105520,9.598805430,-0.127051790,0.118291390,-0.002555550
1640789988.707010,0.267831980,0.350847900,9.954161640,-0.058892380,-0.032310190,-0.021342930
1640789988.708910,-0.056986680,0.471411910,10.140011790,-0.062292830,0.025290250,-0.011201200
1640789988.712260,0.022279590,0.178042960,9.125955580,-0.080631660,0.028175120,-0.030094390
1640789988.713950,-0.507834430,-0.027013300,10.338518140,-0.012795630,0.010982160,-0.012184680
1640789988.717419,-0.348672570,0.127796320,9.618358610,-0.019198660,0.098307450,0.000816580
1640789988.718900,-0.220770340,0.267686690,9.808044430,-0.080616780,-0.018335880,0.021743780
1640789988.721959,-0.211810040,0.487661540,10.178402900,-0.144320740,0.053915390,0.035747890
1640789988.723870,0.376705470,0.524004100,9.107465740,-0.128680470,0.075468430,0.013509390
1640789988.726990,0.019651630,0.421432670,10.592939380,-0.024197990,0.007860360,-0.023062520
1640789988.729179,0.222953130,0.628123160,9.956538200,0.007061660,0.070402030,-0.032912200
1640789988.732080,0.190620540,0.538332520,9.702528950,-0.055886810,-0.030837950,-0.020690260
1640789988.734759,-0.253336790,0.229220140,10.295004840,-0.124889630,0.007598100,0.009749830
1640789988.736940,0.171604830,0.223858450,9.012523650,-0.135913480,0.066348900,0.013972820
1640789988.738920,-0.225188300,0.157763590,10.152311330,-0.070796910,0.026912990,0.019103290
1640789988.741979,-0.197669250,0.352720860,10.105361940,-0.060145560,0.080263620,0.032341480
1640789988.743870,0.154312100,0.403103890,9.600438120,-0.086402880,-0.007061660,0.022652740
1640789988.747180,-0.025184310,0.217951370,10.030323030,-0.089368220,0.023652620,0.013937060
1640789988.748950,0.367232020,0.442933620,9.220272060,-0.086288160,0.098292530,0.002333520
1640789988.752080,0.088339960,0.420192300,9.984409330,-0.093431760,0.065140430,0.004401800
1640789988.753830,-0.018424930,0.251399340,10.087606430,-0.102661570,0.029724840,0.024305290
1640789988.756960,0.066158510,0.120413780,9.679475780,-0.056959690,-0.013135370,0.024154780
1640789988.758880,-0.336394940,-0.201473760,9.620179180,-0.028404600,0.023286040,0.020724540
1640789988.762440,-0.173209000,-0.225048180,9.410189630,-0.022265320,0.042632230,0.014658280
1640789988.764320,-0.282945900,-0.056669970,10.041685100,-0.037682050,0.083914390,0.000551340
1640789988.768750,-0.013312950,0.163671700,9.684114460,-0.089740760,0.055496390,0.012645130
1640789988.769660,0.198999080,0.554802180,10.059693340,-0.080229350,0.010059770,0.025509300
1640789988.771950,0.081680720,0.736862480,9.838871960,-0.074993080,0.073637080,0.014953320
1640789988.773909,0.149611090,0.648668290,9.729528430,-0.061479220,0.004197660,0.009921190
1640789988.777050,-0.310311050,0.555097340,10.484446530,-0.001989310,0.017109510,0.020137430
1640789988.779029,-0.208389890,0.112660440,9.330353740,-0.002792480,0.018179420,0.002466140
1640789988.782169,-0.172217800,0.016566780,9.917330740,0.000999870,-0.027990340,0.031583010
1640789988.783900,-0.225117620,0.339424040,9.901702880,-0.070798380,0.136148910,0.020758800
1640789988.786980,0.289662540,0.505173500,9.370071410,-0.175371800,0.033319000,0.038832440
1640789988.788869,0.108851640,0.728186370,10.671704290,-0.143262740,0.026473400,0.051514800
1640789988.791980,0.334916890,0.752891900,9.430542950,-0.077265510,0.093159070,0.000672040
1640789988.793939,0.127603250,0.626787420,9.989004140,-0.000874700,-0.066369760,0.015991930
1640789988.797469,-0.335088310,0.490830600,10.092351910,-0.025010110,0.039741400,0.032694640
1640789988.798890,0.063479050,-0.000700830,8.832285880,-0.114229340,0.039947040,0.015433130
1640789988.802080,-0.187161250,-0.238420990,10.393771170,-0.095169250,0.039625170,0.057290490
1640789988.803850,-0.049969840,-0.046901900,9.752019880,-0.071470440,0.148905830,0.024843220
1640789988.807020,0.282091230,0.112499710,9.682771680,-0.081683680,-0.012278560,0.024880470
1640789988.808900,-0.001138480,0.437407430,10.282013890,-0.090484310,0.031851230,0.034549820
1640789988.812950,0.427620020,0.360878440,8.831949230,-0.109326840,0.087183710,-0.001926720
1640789988.814220,0.062122610,0.161427870,10.107909200,-0.019763410,0.016000870,0.004136560
1640789988.817520,-0.166302200,0.268266740,9.927770610,0.022251900,0.086589150,0.014910100
1640789988.818940,-0.068706480,0.023458680,9.679738040,-0.020816920,-0.006376210,0.007942320
1640789988.821980,-0.570627330,0.019707830,10.454717640,-0.073608780,0.004976990,0.050981350
1640789988.823850,-0.270023580,0.076190830,9.322134020,-0.077317650,0.061203530,0.026658180
1640789988.827050,-0.241519140,0.105972840,10.033646580,-0.022131200,0.014717880,-0.005620720
1640789988.828879,-0.094641350,0.634133100,9.971776960,-0.004673000,0.093513730,0.011035800
1640789988.834499,0.400375660,0.882645490,9.514331820,-0.052876770,0.038082900,0.015816090
1640789988.835070,0.293556660,0.729285420,10.211907390,-0.092339520,0.035859650,0.030124190
1640789988.836979,0.495346460,0.774290620,9.462079050,-0.076985360,0.064793240,0.029185420
1640789988.838930,0.139302130,0.579976920,10.199485780,-0.047738850,0.000067060,0.013566020
1640789988.842140,-0.185344890,0.188655590,9.965315820,-0.053976480,0.034827000,0.048531590
1640789988.844050,-0.046105900,-0.044417530,9.382287030,-0.044667720,-0.010019540,0.038845840
1640789988.847119,-0.237888560,-0.360605870,9.941601750,-0.023345650,0.074696550,0.017289820
1640789988.848919,0.045056830,-0.151454780,9.373252870,-0.035487120,0.120179360,0.019580130
1640789988.851970,-0.094750910,0.283072740,10.171689990,-0.070332000,0.025524200,0.019559260
1640789988.853809,0.067139540,0.235654740,9.760765080,-0.116764010,0.073565540,0.023327770
1640789988.857010,0.194777850,0.273571670,9.521741870,-0.034545370,0.003498790,0.028485060
1640789988.858899,-0.306087320,0.165345400,10.336812020,0.071254380,0.029097500,0.003319980
1640789988.862089,-0.000387560,0.011608670,9.203688620,0.058443840,0.051282340,-0.012202560
1640789988.863920,-0.200993980,0.131069060,9.969376560,0.015485290,0.015901030,0.023627280
1640789988.866979,-0.129371110,-0.048125660,9.946252820,-0.058676310,0.118479150,0.030511620
1640789988.868860,0.264929380,0.071737130,9.536224370,-0.026290120,0.028602780,0.039108100
1640789988.871980,-0.094282310,0.567790330,10.229659080,0.026398900,0.016516450,0.029076640
1640789988.874390,0.297261180,0.735631640,9.218585970,-0.038655100,0.088952470,0.000280140
1640789988.877070,-0.068419620,0.800452350,10.198212620,-0.043720010,0.019912420,0.021629040
1640789988.879200,-0.440234960,0.496116190,10.461077690,-0.001762810,0.030864780,0.001198050
1640789988.882040,-0.046989210,0.195599690,9.387150760,0.049550820,-0.025181470,0.004564230
1640789988.883810,-0.458279670,0.296335940,10.019688610,0.056181860,0.032913690,0.030265750
1640789988.887009,-0.136496810,0.200980450,9.535437580,-0.069502000,0.100314620,0.033482910
1640789988.888870,0.066861880,0.064631620,10.104828830,-0.089631970,0.027871140,0.061261660
1640789988.891950,0.057908070,0.271352110,10.046844480,-0.003045800,0.023143000,0.034126640
1640789988.893819,0.604813990,0.442479820,9.196870800,0.021417440,0.003400440,0.011093910
1640789988.897009,0.381101520,0.647758780,9.614156720,-0.006051360,0.076071930,0.029380620
1640789988.899730,0.305947070,0.540696020,9.774656300,-0.077234220,0.099562110,0.020179150
1640789988.901919,0.170541150,0.158788280,10.418580060,-0.034116210,0.005361440,0.037269300
1640789988.903820,-0.298981670,0.006046990,9.769911770,0.061059000,-0.009059910,0.034353140
1640789988.908779,-0.276250870,-0.162539820,9.253159520,0.059276820,-0.039307770,0.011087950
1640789988.909320,-0.460829680,-0.219085440,9.709885600,0.000219050,0.096033520,0.013865530
1640789988.912220,-0.155501370,-0.077440280,9.329597470,-0.026436150,0.100363810,0.001911820
1640789988.913930,0.072262180,0.127276760,10.443992610,0.012864180,0.033822660,-0.004825000
1640789988.917640,0.382656190,0.605098370,9.668427470,0.035558640,0.107355420,0.009520350
1640789988.918929,0.460841770,0.895301460,9.747047420,-0.002722440,-0.014701490,0.011488790
1640789988.922180,0.038037770,0.722942950,10.469566350,-0.027048590,0.028692190,0.031885500
1640789988.923830,0.061203330,0.339124740,9.055078510,0.022764500,0.047931080,0.029937920
1640789988.927050,-0.316280780,0.049379050,10.370059010,0.109864770,-0.040648880,0.004298990
1640789988.928959,-0.333442870,0.035394750,9.791023250,0.085458160,0.132605450,0.009375810
1640789988.932799,0.118440160,0.281760780,9.164931300,-0.021034480,0.034771850,0.030641260
1640789988.933849,-0.042960800,0.443587780,10.778844830,-0.095072390,0.079408300,0.028808420
1640789988.937049,0.589331330,0.613437060,9.003718380,-0.077827280,0.151248280,0.013840200
1640789988.939000,0.344171430,0.828549620,10.308117870,0.042679900,-0.014676150,-0.000210110
1640789988.942020,0.027844890,0.805157720,10.356778140,0.053906440,0.089226670,0.009471180
1640789988.943879,0.346850600,0.349214910,8.695457460,-0.001592930,0.010909140,0.011345750
1640789988.947090,-0.293393430,-0.127539980,10.598246570,0.033210220,0.024309760,0.022073090
1640789988.948890,-0.020650820,-0.297872070,9.186220170,0.013023610,0.195904090,0.022543970
1640789988.951949,0.088485500,-0.179607270,9.629692080,0.013935560,0.033125280,0.037162000
1640789988.953970,-0.197102470,0.077322760,10.764436720,-0.023467840,0.107494020,0.031249230
1640789988.956980,0.576906260,0.316323760,8.591297150,-0.052575770,0.114141410,0.000889600
1640789988.958870,0.170870840,0.417960520,10.221179960,0.032936040,0.030867760,-0.013123450
1640789988.962450,0.095109810,0.517401810,9.815834050,0.063195820,0.185459850,-0.035390260
1640789988.963930,0.208543750,0.407400160,9.393692970,0.068135560,0.042225420,-0.022277240
1640789988.967000,-0.511201920,0.246599970,10.787117000,0.058865550,0.037807230,0.005954500
1640789988.968950,-0.264235260,0.073496710,9.188177110,0.008758900,0.103425960,0.008583070
1640789988.972250,-0.436112110,-0.117287410,9.803606990,0.041674080,0.009152290,0.016838310
1640789988.973899,-0.531995590,0.127734050,10.230143550,0.041690470,0.140795130,0.001494590
1640789988.976990,-0.017678190,0.322202320,9.505969050,0.032265480,0.096975250,-0.009325140
1640789988.979009,-0.036874190,0.465756390,10.346312520,0.058528790,0.021661820,-0.002355870
1640789988.982380,0.311320900,0.743577660,9.627255440,0.029954310,0.114318710,-0.020518900
1640789988.983850,0.376537800,0.851420760,9.698465350,-0.000412760,0.064668060,-0.015074020
1640789988.987049,-0.055019980,0.749390300,10.398859980,-0.012488660,0.073115530,0.012977420
1640789988.988920,0.034416980,0.390910180,9.755687710,0.022719800,0.035005810,0.008843840
1640789988.991940,-0.292023150,-0.056041640,9.967822070,0.103300820,-0.004023310,0.007288160
1640789988.994150,-0.236379700,-0.054411130,9.496026040,0.098133090,0.076532350,0.004765390
1640789988.997079,-0.106327790,0.050701530,9.532054900,-0.003439190,0.103268020,0.001248720
1640789988.998890,0.002732340,0.116254950,9.928053860,-0.062589350,0.128056120,0.013276930
1640789989.002240,0.276812430,0.336644500,10.019660000,-0.025232140,0.063493850,-0.005254150
1640789989.004109,0.201363740,0.492555590,9.939418790,0.073042500,0.032241650,-0.030833480
1640789989.006990,0.323260370,0.554844500,9.304322240,0.086282190,0.038056080,-0.027531390
1640789989.008890,0.011863450,0.407664000,9.987397190,0.048095000,0.072580600,-0.038667030
1640789989.012040,-0.186425920,0.002342360,9.886627200,0.028502950,0.116975630,-0.015632810
1640789989.015060,-0.056226170,-0.064508300,9.831510540,0.077642520,0.017710030,0.005683300
1640789989.016940,-0.347951950,0.068218330,10.095334050,0.084234780,0.073194500,0.010032950
1640789989.019019,0.080572130,0.286255330,9.056265830,0.005230310,0.085274870,0.005620720
1640789989.021979,-0.061046180,0.489064690,10.304639820,-0.006602710,0.062599780,-0.001405180
1640789989.023820,-0.047166470,0.468053100,9.947366710,0.030182300,0.133441400,-0.032995640
1640789989.027599,0.254351080,0.589612130,9.787384990,0.106199100,0.009548670,-0.051781540
1640789989.028960,-0.308216390,0.766510070,10.609098430,0.105661160,0.050775710,-0.047326080
1640789989.036239,-0.082822370,0.725329640,9.182357790,-0.022035840,0.052015480,-0.029437250
1640789989.036900,-0.109961780,0.591695430,9.900624280,-0.049689420,0.004696850,0.007964670
1640789989.037240,-0.317111400,0.453707220,10.101864810,-0.011098380,0.144848230,-0.003890690
1640789989.038910,0.214258240,0.470087020,9.593352320,0.039003790,0.057248770,0.004664060
1640789989.041970,-0.024805500,0.641505240,10.629985810,0.040936470,0.031624730,0.019820040
1640789989.044099,0.391593340,0.515882790,9.365481380,-0.064641240,0.096899270,-0.004164880
1640789989.047000,0.613996150,0.348271160,9.662631990,-0.067308530,0.064922860,0.003913040
1640789989.048879,0.010996990,0.392334640,10.454763410,-0.016264620,0.136567650,-0.031313300
1640789989.051999,0.126501930,0.370314780,9.499974250,-0.015032290,0.015154480,-0.026485330
1640789989.053860,-0.184743780,0.244293540,10.040803910,-0.001052020,-0.017100570,0.001132490
1640789989.056910,-0.292162630,0.036067300,9.329066280,-0.026363130,0.127887740,-0.022590160
1640789989.058879,-0.070631440,-0.047607110,9.588842390,-0.006210800,0.075612970,-0.005771220
1640789989.062189,-0.157922830,0.183638750,10.216251370,0.008247790,0.147072970,0.001980360
1640789989.064780,0.280498300,0.348231020,9.573277470,-0.049395870,0.106139500,-0.006870930
1640789989.067750,0.277572510,0.436644730,10.292003630,-0.039054450,0.046457350,0.013551120
1640789989.068970,0.160937620,0.420806230,9.516731260,-0.016297400,0.096938020,-0.023837390
1640789989.074299,0.176772740,0.215007230,9.408627510,0.025105480,0.027780240,-0.042498110
1640789989.074849,-0.192964610,0.134091080,10.142308240,0.056594610,0.118875510,-0.024893880
1640789989.076959,-0.169112430,-0.088740510,9.660277370,0.024667380,0.114884970,-0.030353670
1640789989.079069,-0.349602580,-0.156382310,10.524452210,0.036303700,0.002154710,0.001011790
1640789989.083330,-0.201187280,0.078852090,9.473935130,0.024150310,0.102603440,0.002621110
1640789989.084650,0.064410750,0.284917980,9.391146660,-0.015835470,0.075583160,-0.024698680
1640789989.086969,-0.156404610,0.692373750,10.629283910,-0.007589160,0.126355900,-0.017265980
1640789989.088909,0.202867570,0.830628510,9.439571380,0.008445980,0.085279340,-0.033950800
1640789989.091960,0.056848780,0.815046010,10.259024620,0.054813930,-0.023515530,-0.048440700
1640789989.094200,-0.014408430,0.971740370,9.798022270,0.014153120,0.134797410,-0.027902420
1640789989.097119,0.042017330,0.716857790,9.611558910,-0.051936510,0.070442260,-0.008915360
1640789989.100180,-0.413970920,0.305293650,10.944570540,-0.035096710,0.041429700,0.010874870
1640789989.101960,0.137762860,0.211251290,9.153493880,0.003434720,0.099338590,0.001776220
1640789989.103860,0.104608400,0.226475340,9.795412060,0.021022550,0.032542640,-0.020225350
1640789989.107010,0.051340170,0.453540270,10.150711060,-0.055360800,0.150389970,-0.006617610
1640789989.108880,0.597593370,0.559849320,9.105350490,-0.117976960,0.102919340,-0.018714370
1640789989.112020,0.038075820,0.382751290,10.760188100,-0.069430480,0.052587700,-0.022378560
1640789989.116860,0.074610950,0.482470270,9.892560960,0.000482800,0.103761260,-0.033748150
1640789989.117400,-0.056745480,0.406707080,9.507788660,0.024344030,-0.018675630,-0.039818880
1640789989.118909,-0.574891090,0.080660630,10.120021820,-0.026465950,0.066436830,-0.020980830
1640789989.122000,-0.014312350,0.059762310,8.885805130,-0.068014870,0.146484390,-0.010634960
1640789989.123849,-0.244500400,-0.126705470,10.246411320,-0.016751880,0.083585080,-0.016209480
1640789989.127440,-0.056569710,0.112162690,10.046890260,0.008739530,0.129264590,-0.002199410
1640789989.133420,0.390259650,0.431105020,9.370760920,-0.025834140,0.048857930,-0.018018480
1640789989.134349,-0.091365710,0.241104270,10.348737720,-0.053979450,0.067192300,-0.029276310
1640789989.134860,0.221494380,0.252668500,9.532756810,-0.008019810,0.091061010,-0.040756180
1640789989.136920,-0.150695100,0.170262250,10.071095470,0.081478060,0.040018560,-0.062020130
1640789989.138939,-0.377158050,0.216304300,10.035871510,0.070773070,0.062003740,-0.051136310
1640789989.142010,-0.157651510,0.493986850,9.585176470,-0.007179380,0.042174750,-0.028850140
1640789989.144100,-0.441374570,0.462234200,10.050809860,-0.082381080,0.076247750,-0.025384130
1640789989.147699,-0.077448530,0.575003330,9.763690950,-0.055857010,0.087790190,-0.021503870
1640789989.148880,-0.038750070,0.834140660,10.265035630,0.025141240,0.058099630,-0.042994320
1640789989.151980,-0.008451520,0.864911910,9.879983900,0.009715560,0.067526100,-0.038881600
1640789989.153890,0.278202120,0.795725820,9.761512760,-0.039467210,0.032949450,-0.010548530
1640789989.156930,0.108327380,0.391541930,9.900521280,-0.061549260,0.101669130,-0.009082260
1640789989.159200,0.267141160,-0.041739870,9.612649920,-0.030098860,0.076070430,-0.031709670
1640789989.162060,-0.071150530,0.080136970,10.417936330,0.027759380,0.045876200,-0.018419330
1640789989.164170,-0.204579990,-0.182544620,9.595977780,-0.020289420,0.064061570,-0.026248400
1640789989.167070,0.052173790,-0.250200840,9.476171490,-0.030313440,-0.002945960,-0.034350160
1640789989.168949,-0.141933780,0.096805590,9.943896290,-0.002998110,0.150167960,-0.054691730
1640789989.173349,0.192450000,0.251457540,9.344540600,-0.006248060,0.125955050,-0.062355410
1640789989.173960,-0.080886730,0.708790840,10.796456340,0.005669890,0.041969120,-0.038653620
1640789989.178010,-0.135716390,0.717499730,9.866172790,-0.043118000,0.086578730,-0.037038330
1640789989.178949,-0.063901830,0.330809470,9.493658070,-0.002363320,-0.046461820,-0.035706160
1640789989.183310,-0.501705650,0.286796780,10.110499380,0.083415210,0.078524650,-0.043867530
1640789989.183990,-0.108920700,0.013821150,9.029726980,0.053173310,0.124241410,-0.057223440
1640789989.186920,-0.187857990,-0.094334610,10.542075160,0.033921000,0.032612690,-0.021746760
1640789989.188910,-0.149895380,0.105211340,10.220225330,-0.015839940,0.116279720,-0.041170420
1640789989.192610,0.370101060,0.110102410,9.269439700,-0.022381540,-0.006039440,-0.039531290
1640789989.193889,-0.141722430,0.404415700,10.576775550,0.036877400,0.037819160,-0.049008440
1640789989.197280,-0.000111890,0.742328700,9.459676740,0.020684300,0.100745260,-0.090110300
1640789989.199479,-0.161181730,0.568549040,10.176945690,0.039631140,-0.053034730,-0.051146750
1640789989.201990,-0.408340720,0.497507240,10.329750060,0.069266570,0.065122550,-0.048229100
1640789989.203830,0.040852800,0.387139770,9.222709660,0.043743850,0.054056940,-0.061230370
1640789989.207039,-0.375998440,0.467598020,10.618400570,0.017805400,0.015242400,-0.021362300
1640789989.209169,-0.185996320,0.607880890,9.676337240,-0.065551710,0.086213630,-0.031737980
1640789989.212119,0.192801610,0.354312840,9.516416550,-0.050543240,-0.021916630,-0.031818450
1640789989.215580,-0.001530500,0.287072690,10.259161950,0.060381000,0.050911310,-0.047500440
1640789989.216990,0.361287890,0.358264890,9.263217930,0.073464220,0.086915490,-0.095108150
1640789989.218940,0.145356270,0.249751540,10.264069560,0.025765600,0.014024970,-0.056289140
1640789989.222010,-0.020857650,0.081955450,10.194531440,-0.033648320,0.074176500,-0.033625960
1640789989.223860,-0.018921730,-0.220223260,9.828125950,-0.001923740,-0.010384620,-0.050383810
1640789989.227270,-0.365717560,-0.170223160,9.941325190,0.092044470,-0.025597220,-0.042350590
1640789989.228960,-0.149296020,0.026097820,8.983880040,0.091323260,0.065001850,-0.074285280
1640789989.232309,-0.251472410,0.145821710,9.913789750,0.035838780,0.074726340,-0.087562190
1640789989.233929,-0.250709500,0.315728040,10.391426090,0.002864000,0.073042520,-0.058312710
1640789989.236990,0.022629650,0.438825730,10.082318310,0.051589310,-0.027464330,-0.062662360
1640789989.238920,-0.060511310,0.441538810,9.938937190,0.101825600,0.003074110,-0.061188640
1640789989.242149,0.022853370,0.617048860,9.579153060,0.070695580,0.052417810,-0.058951970
1640789989.244190,-0.338936450,0.439576540,10.341901780,0.040857490,0.015522540,-0.052995980
1640789989.247010,-0.184212130,0.136753380,9.755841260,0.062525270,0.000031290,-0.044506800
1640789989.249660,0.057807580,0.239928690,9.587738990,0.103628640,-0.031648580,-0.067608060
1640789989.251969,-0.126256660,0.422534110,10.049398420,0.071015960,0.080256170,-0.073879960
1640789989.253890,0.185139780,0.749272880,9.740817070,-0.021350380,0.040161610,-0.056037310
1640789989.257170,-0.158029300,0.692847370,10.787008290,-0.037828090,-0.026695430,-0.050543250
1640789989.258999,-0.006710230,0.567397180,9.764714240,0.024080270,0.007933380,-0.064311910
1640789989.264940,0.098346580,0.616720680,9.663928990,0.102788220,-0.047190490,-0.071512170
1640789989.265400,-0.355001720,0.431030060,10.164735790,0.091539330,0.046063960,-0.049991910
1640789989.266919,0.131980420,0.276914480,9.107663150,-0.014834110,0.045508150,-0.021633510
1640789989.268950,-0.060481500,0.024107460,10.438670160,-0.029733780,0.000686940,-0.010082130
1640789989.271940,-0.138809200,-0.090565490,10.014545440,0.028336050,0.051717460,-0.023993850
1640789989.274000,0.250255200,0.129866210,9.465276720,0.081510840,-0.075216600,-0.050997740
1640789989.276990,-0.177321300,0.297469080,10.079964640,0.045941760,0.025035440,-0.070099530
1640789989.279130,0.212461080,0.375111160,9.075548170,-0.019055610,0.084869580,-0.075455030
1640789989.282800,0.067815730,0.351269390,10.511604310,0.025203830,0.009652970,-0.073717520
1640789989.283880,-0.163341080,0.438186620,10.208621030,0.073288370,0.031656020,-0.062915670
1640789989.286939,0.103927490,0.591471550,9.287176130,0.062817340,-0.083255750,-0.041021410
1640789989.288879,-0.410512920,0.444005250,10.180419920,-0.017267470,0.006707010,-0.032198430
1640789989.292019,-0.137630920,0.268899410,9.135214810,-0.023609400,0.068976000,-0.029663750
1640789989.295810,-0.094368930,0.137464090,10.400059700,0.076407180,-0.020839270,-0.041598070
1640789989.296990,-0.101357610,0.225557890,10.209180830,0.086307530,0.061182690,-0.053073470
1640789989.298960,0.327404020,0.518386130,9.411687850,0.011983510,-0.030268730,-0.046949100
1640789989.301980,-0.178869400,0.591021420,10.793800350,-0.068724140,-0.003400440,-0.039070840
1640789989.303870,-0.052699990,0.483097550,9.459188460,-0.053420670,0.011536480,-0.033615540
1640789989.307260,-0.110383530,0.564784820,9.988386150,0.065086790,-0.122508410,-0.052960220
1640789989.310350,-0.236450670,0.601587300,9.898249630,0.074459610,0.065825890,-0.045850870
1640789989.311980,0.184188290,0.716885630,9.235687260,-0.012335180,0.032408540,-0.015918910
1640789989.314329,-0.170192690,0.619108680,11.229151730,-0.088407110,0.000855330,-0.006017090
1640789989.316959,0.136838820,0.516071440,9.712485310,-0.108128790,0.037027900,-0.015738610
1640789989.318910,0.068733260,0.622632980,9.788365360,-0.012920800,-0.142632420,-0.019349160
1640789989.322090,-0.217053320,0.578903200,9.988883020,-0.016549230,0.006029010,-0.042176250
1640789989.323969,0.326686110,0.404999410,8.691568370,-0.069685290,0.060731170,-0.033907590
1640789989.327119,-0.169462410,0.056886590,10.881484030,-0.032426420,0.009143350,-0.014375150
1640789989.328950,-0.010716490,-0.059583800,10.220605850,-0.026924910,0.047215820,-0.019231440
1640789989.331940,0.168459090,0.089980770,9.418097500,-0.016596910,-0.100666280,0.002409520
1640789989.333910,-0.308020230,0.061159550,10.183094020,-0.065445910,-0.016367440,-0.004674490
1640789989.337060,0.117097850,0.135717350,9.115707400,-0.090941790,0.053024300,-0.026321410
1640789989.339059,-0.168995630,0.262466100,9.965451240,0.004528460,-0.024642050,-0.034169850
1640789989.341970,-0.187445430,0.394218890,10.151432040,0.016495590,0.007779900,-0.054459280
1640789989.344620,0.055500500,0.553351760,9.816096310,-0.013245640,-0.015525520,-0.023616850
1640789989.348219,-0.424216690,0.444249330,10.384202960,-0.054121020,-0.050716090,-0.003424290
1640789989.348950,-0.184749950,0.167502080,9.806215290,-0.056290630,-0.064033290,-0.003741680
1640789989.351940,-0.136166230,0.152302220,9.486448290,0.019238890,-0.023531920,-0.008374450
1640789989.354159,-0.114712430,0.275733650,9.779696460,0.010974700,0.021389120,-0.033044810
1640789989.356950,0.013337970,0.444324970,10.424240110,-0.033320490,-0.004211070,-0.008960070
1640789989.359059,0.071233360,0.581096950,9.926346780,-0.077193980,-0.046424570,-0.009457770
1640789989.362350,0.149536650,0.485789300,9.963415150,-0.084200490,-0.090682490,-0.028751790
1640789989.363950,-0.154965280,0.607225420,10.192386630,-0.014829640,-0.001266600,-0.016768280
1640789989.366940,-0.234583060,0.520173790,9.692993160,-0.014095010,-0.043579940,-0.030604010
1640789989.368940,-0.328413520,0.284395900,10.428028110,-0.035852200,-0.106942650,-0.003358720
1640789989.372000,-0.141523480,0.283727140,9.535696030,-0.041319430,-0.004439060,0.012987850
1640789989.373979,0.159915390,0.065045160,9.452923770,-0.069430480,-0.039038060,-0.015673040
1640789989.379690,-0.085101250,0.347932370,10.725734710,-0.051666800,-0.003139670,0.022253400
1640789989.380460,0.274729730,0.473793420,9.452259060,-0.088569540,-0.024311250,0.013139840
1640789989.382079,0.185787160,0.100585360,10.274669650,-0.070494420,-0.133898870,-0.002901260
1640789989.383910,0.015717600,0.236103220,9.939497950,0.000838940,0.006309150,-0.007292630
1640789989.387189,0.295573090,0.068771120,8.966876030,0.006131830,-0.037504740,-0.038918860
1640789989.388919,-0.220494430,0.028756240,10.597023010,-0.015135110,-0.036044420,-0.002498920
1640789989.392279,-0.066235560,0.195696670,9.752799990,-0.075931850,0.037808720,0.002144280
1640789989.393890,-0.085573670,-0.177458440,9.979229930,-0.045430660,-0.123582800,0.015486780
1640789989.399760,-0.379612620,0.012052900,10.110733990,0.036266450,-0.069679300,0.014691050
1640789989.400480,0.144352060,0.309443240,8.813314440,0.019343200,0.003951790,-0.024151810
1640789989.402099,-0.208039020,0.182963860,10.516468050,-0.019927320,-0.011271240,0.001592930
1640789989.404590,-0.157945870,0.344662960,10.434410100,-0.019297010,-0.010833150,0.004628300
1640789989.407100,0.099216650,0.280601110,9.776062010,0.016264620,-0.140443440,-0.009177630
1640789989.409010,-0.157705930,0.281806920,9.957079890,0.040280820,-0.068083410,0.016947090
1640789989.412400,-0.082877300,0.476086050,9.616909980,0.002133850,-0.004538890,0.010959810
1640789989.413910,-0.298149260,0.296082290,10.359534260,-0.019934780,-0.064186750,0.023786730
1640789989.417060,-0.064549160,0.271695550,9.941325190,0.006486480,-0.085549060,0.032787030
1640789989.418969,0.209561360,0.511300680,9.770659450,0.028742850,-0.059211270,0.008904940
1640789989.421960,0.044120460,0.571617840,10.064520840,-0.009743870,0.005431470,0.017151240
1640789989.423940,0.201969300,0.866770390,10.006187440,-0.075173380,-0.068807610,0.030362610
1640789989.427100,-0.045651790,0.567736510,10.436032300,-0.076830390,-0.084218390,0.034634770
1640789989.429250,0.087510610,0.248979360,9.471850400,0.006000700,-0.071708860,0.028344990
1640789989.431959,-0.060453520,0.326266260,9.973546030,0.065194080,-0.098009410,0.026270750
1640789989.434000,-0.191289370,0.134363070,9.711256980,-0.011505190,0.014561410,0.040486460
1640789989.436950,0.259314540,0.079217610,9.391193390,-0.101526100,-0.033946340,0.060638800
1640789989.439060,-0.131930230,-0.057845560,10.907526020,-0.064730640,-0.029768060,0.058813390
1640789989.442180,0.130324770,0.026806030,9.457109450,0.012359020,-0.040970740,0.031559170
1640789989.443950,0.126598920,0.324290540,9.752367020,0.043737880,-0.157743660,0.018662210
1640789989.447250,-0.260403810,0.319187430,9.931103710,-0.031328210,0.023539360,0.011549890
1640789989.449050,0.101728250,0.194680170,9.351689340,-0.047279890,-0.019106270,0.014971200
1640789989.452000,-0.410886440,0.113122280,11.032010080,0.034382940,-0.103391720,0.027045610
1640789989.453850,-0.087180730,0.217310760,9.272953990,0.065122540,-0.041404360,0.038138020
1640789989.457140,0.157042150,0.365280690,9.536118510,0.021740790,-0.101804740,0.046415630
1640789989.458969,-0.296793190,0.411282720,10.492396350,-0.066588800,0.036615130,0.054973360
1640789989.462319,0.293159310,0.389398490,9.357054710,-0.065198550,-0.052514680,0.048077110
1640789989.463879,0.036982380,0.368761330,10.552257540,0.045470900,-0.120843970,0.024381280
1640789989.467120,0.072060040,0.509568570,9.506125450,0.051382200,0.004383920,0.014749170
1640789989.468959,0.056782010,0.505116220,9.765728950,0.002007190,-0.093342360,0.033539540
1640789989.471959,-0.475113270,0.269973960,10.729937550,-0.059504810,-0.045551360,0.054696200
1640789989.473960,-0.094316320,0.120478180,9.223913190,-0.031599410,-0.087788700,0.053471330
1640789989.477100,-0.272909820,0.206130250,10.176425930,0.048622500,-0.098876670,0.038185720
1640789989.479730,-0.150409710,0.510541980,9.638206480,0.010629000,0.032643970,0.043916710
1640789989.482060,0.297964630,0.739523650,9.556186680,-0.057889520,-0.071232010,0.060099360
1640789989.483929,0.225479780,0.668494520,10.523090360,-0.091126570,-0.022256370,0.042709710
1640789989.486970,0.612539410,0.678746520,9.351065640,-0.062224270,-0.000700350,0.039678820
1640789989.488890,0.141847820,0.641987140,10.502364160,0.015147030,-0.110185170,0.036223230
1640789989.492220,-0.053108690,0.273007010,9.856184010,-0.022231040,-0.036127870,0.039160250
1640789989.493929,0.111909270,-0.045974730,9.046824460,-0.035375360,-0.101490330,0.044080620
1640789989.497249,-0.238978530,-0.268896160,9.993526460,-0.018785900,0.014567380,0.034484270
1640789989.498989,0.197554170,-0.155910240,9.124305730,-0.037215660,0.082927960,0.023663050
1640789989.501960,-0.061439270,0.183056010,10.427997590,-0.040119890,-0.059838600,0.045186280
1640789989.503890,-0.054330960,0.268796680,10.191025730,-0.080291930,-0.013758240,0.035069880
1640789989.507279,0.185502510,0.213326860,9.305359840,-0.031842300,-0.072388350,0.018203260
1640789989.509070,-0.372299700,0.119124620,10.233744620,0.080105670,-0.047333540,0.006105010
1640789989.512050,-0.089278360,0.033352190,9.437102320,0.076791640,0.025334960,-0.010415910
1640789989.513970,-0.184196440,0.110229700,9.861848830,0.042709710,-0.046633180,0.023350120
1640789989.517210,-0.094478470,0.189878340,9.949585910,-0.036427370,-0.013299280,0.033107390
1640789989.518970,0.362400950,0.303708400,9.427679060,-0.040620580,-0.001043080,0.036571920
1640789989.521960,0.108348300,0.617190360,10.102025030,0.012846290,-0.004886090,0.023673470
1640789989.523909,0.214022960,0.838298920,10.035252570,0.000776350,-0.009217860,0.000849370
1640789989.527109,0.089884120,0.796613220,9.954747200,0.005741420,-0.044550000,0.012093780
1640789989.530930,-0.144584980,0.516888320,9.843280790,0.005373360,-0.045213100,0.004617870
1640789989.532470,-0.163843720,0.273410320,9.884534840,0.003941360,-0.033067160,0.004297500
1640789989.533919,-0.447464820,0.202142120,9.775253300,0.009833280,0.004319850,0.018644330
1640789989.536949,-0.286860380,0.093743190,9.781308170,-0.048504770,-0.060206650,0.020655990
1640789989.538970,-0.126014170,-0.026962480,10.102565770,-0.039216880,0.005033610,0.030685960
1640789989.541940,0.135310340,0.173936500,9.500761990,0.018139180,0.011150540,0.010192390
1640789989.544070,0.368647100,0.364676920,10.068149570,0.023628770,-0.053182240,0.007423760
1640789989.547289,0.507747770,0.586616220,9.637224200,-0.034421680,0.072690850,0.023430580
1640789989.549350,0.621504960,0.559339110,9.540396690,-0.073134910,-0.004673000,0.010786950
1640789989.551930,0.027019330,0.298367080,10.768354420,-0.011755530,-0.044420370,0.019678470
1640789989.553910,-0.009996460,0.254117430,8.942101480,0.060477850,-0.025537610,0.000849370
1640789989.556980,-0.306877320,-0.010085920,9.543960570,0.042624780,-0.107777120,-0.021380180
1640789989.559270,-0.617429910,-0.141714250,9.988412860,-0.001734500,0.101836030,-0.001700220
1640789989.562150,-0.113049220,-0.077822130,9.216429710,-0.006546080,0.032919650,-0.022889680
1640789989.565690,-0.278291850,0.119724440,10.912839890,0.018358230,-0.049076970,-0.005121530
1640789989.566910,0.269208190,0.553550900,9.216740610,-0.003613530,0.076736510,0.014169510
1640789989.568980,0.432777080,0.540034410,9.654077530,-0.029437240,-0.046150380,-0.021736320
1640789989.571920,-0.194567100,0.361517580,10.740137100,0.018234550,0.001534820,-0.006785990
1640789989.574010,0.252484290,0.125604360,8.686763760,0.097821650,-0.026501720,-0.033079090
1640789989.582430,-0.184946210,-0.107016950,10.278430940,0.124874720,-0.064471360,-0.048932430
1640789989.583580,-0.329563260,0.171992090,9.951865200,0.039029130,0.102728610,-0.010353330
1640789989.584020,0.117333790,0.337471340,9.406465530,-0.055740780,-0.039529800,-0.004321340
1640789989.584509,-0.236948370,0.447912040,10.680605890,-0.056077540,0.001806020,0.004005430
1640789989.586949,0.333266530,1.015167240,9.012701030,-0.005938110,0.068590040,-0.030232970
1640789989.588960,0.113843080,1.151407120,10.251394270,0.026364630,-0.035534800,-0.035408140
1640789989.591940,-0.199015860,0.949246820,10.316316600,-0.005303320,0.026851900,-0.010377170
1640789989.593950,0.228355120,0.592436190,9.102586750,-0.018769500,-0.053204600,-0.010047850
1640789989.597010,-0.299627160,-0.093872730,10.460256580,0.001768770,-0.014650820,-0.015816090
1640789989.599110,-0.014044150,-0.077092630,9.333248140,0.012008850,0.068272650,-0.001418590
1640789989.601920,0.001817970,-0.133223800,9.991524700,-0.020819900,-0.023311380,-0.005593900
1640789989.603930,-0.060533870,-0.252524820,10.262079240,-0.070486960,0.050628190,-0.009644030
1640789989.606979,0.558724700,0.163907160,9.051208500,-0.025491420,0.000329320,-0.033418830
1640789989.609000,0.236133930,0.370353310,10.035230640,0.011740620,0.040429830,-0.045923890
1640789989.612140,0.472015320,0.544133250,9.352670670,-0.019466880,0.102016340,-0.034080450
1640789989.613989,0.091845100,0.500207840,10.329177860,0.010889770,-0.032840670,-0.020147860
1640789989.616959,-0.338601830,0.011796530,10.315610890,0.018823150,-0.002799930,-0.016283990
1640789989.619799,-0.128714200,-0.154801590,9.019584660,0.083519520,-0.031960010,-0.006645920
1640789989.621960,-0.666759010,-0.275051390,10.105488780,0.079995400,0.020036100,-0.028708580
1640789989.623979,-0.193165380,-0.212822110,9.436802860,0.007960200,0.109964620,-0.038933760
1640789989.627070,0.018837390,0.203487100,10.016126630,0.021950900,0.001411140,-0.031463810
1640789989.629150,0.100740810,0.530774950,10.124135970,0.008258220,0.045454500,-0.051580380
1640789989.632949,0.747860670,0.978228810,9.153234480,0.006523730,0.027717650,-0.039939580
1640789989.633920,0.152071120,1.181987050,10.464796070,0.003413860,0.033035870,-0.039733950
1640789989.636920,0.112517090,0.811429200,10.046797750,-0.019437070,0.029046840,-0.045129660
1640789989.638980,-0.005843320,0.470355720,9.795129780,0.061500080,-0.072535870,-0.027173760
1640789989.642170,-0.408939660,0.180596440,9.769444470,0.077198450,0.014518200,-0.042419140
1640789989.645720,-0.013775340,0.098188640,9.202601430,-0.017505890,0.080642110,-0.020658970
1640789989.647339,-0.207544770,0.256193970,10.138574600,-0.090320410,0.072804100,0.003349780
1640789989.649979,0.085725120,0.132933150,9.937538150,-0.104247030,0.041782860,-0.027619300
1640789989.651929,0.356937650,0.397513990,9.881358150,0.007523600,0.006172060,-0.037334860
1640789989.653950,0.133582090,0.678405520,9.682141300,0.039669880,0.053717200,-0.061544780
1640789989.657060,0.265242900,0.432887940,9.703291890,-0.024876000,0.015527010,-0.051890320
1640789989.659020,0.111132120,0.275980410,9.876453400,-0.022050730,0.074294200,-0.046283010
1640789989.662060,0.055942700,0.026857110,9.569026950,-0.006337460,0.049768390,-0.055250530
1640789989.665500,-0.095632010,0.079243180,10.083197590,0.020417570,0.009915230,-0.013734400
1640789989.666950,-0.097527190,0.190449730,9.324561120,-0.025531650,0.083713240,-0.024306780
1640789989.668939,-0.019726000,0.049151970,9.708917620,-0.056084980,0.012958050,-0.033763040
1640789989.671939,-0.177802770,0.201081040,10.180137630,0.003132220,0.080163780,-0.048241030
1640789989.674260,0.183020670,0.189002810,9.112789150,0.020469730,0.077930100,-0.092996660
1640789989.677549,-0.036030730,0.272081350,10.418327330,0.038820500,0.024628640,-0.064364080
1640789989.679060,-0.165179400,0.368792360,10.102443700,0.005610290,0.092092160,-0.053566700
1640789989.682720,-0.084373110,0.079085450,9.562781330,-0.020408630,-0.051416470,-0.050662470
1640789989.683980,-0.455032770,0.113794370,10.139200210,0.039254130,-0.012232360,-0.017860530
1640789989.686980,-0.079894190,0.112897040,8.955947880,0.045764440,0.116671630,-0.058469180
1640789989.688979,-0.128586990,0.252646600,10.263790130,0.038036700,0.033922490,-0.049923360
1640789989.691980,-0.133568450,0.738837900,10.495408060,-0.012202560,0.061731030,-0.033295150
1640789989.694370,0.443093750,0.764915760,9.297580720,-0.061622270,-0.003300610,-0.053168840
1640789989.697019,0.102847160,0.941213490,10.239763260,-0.040929020,0.022822620,-0.050863620
1640789989.698959,0.064230640,1.061187620,9.777084350,-0.045301020,0.095078350,-0.056113310
1640789989.701920,-0.080397020,0.470635800,10.047992710,-0.011420250,-0.034679480,-0.038160390
1640789989.704000,-0.377899910,0.202089100,10.179581640,0.031287960,-0.019674000,-0.048291690
1640789989.708289,-0.118451770,0.070542020,9.198740010,-0.008268660,0.036193430,-0.042659040
1640789989.709020,-0.198199630,-0.108524640,9.875193600,-0.062686200,0.055611140,-0.021331010
1640789989.712080,0.125719430,0.152128290,9.896994590,-0.111167130,0.097115340,-0.025546550
1640789989.713940,0.315917670,0.183413210,10.119514470,-0.080160800,0.034256280,-0.044181950
1640789989.716920,0.237047640,0.289268430,10.044768330,0.004558270,0.009186570,-0.060190260
1640789989.718969,0.267353120,0.532749000,9.438457490,0.004363060,-0.014828150,-0.072933730
1640789989.722060,-0.108485600,0.333260030,9.750554080,-0.029443200,0.034992400,-0.062552100
1640789989.723919,0.023450460,0.184290020,9.431499480,-0.054022670,0.073386720,-0.043299790
1640789989.727090,-0.242033940,0.018784980,10.336139680,-0.012108680,0.034888090,-0.038577620
1640789989.729009,-0.173308250,0.110524290,9.772489550,0.012874600,0.038084390,-0.025869910
1640789989.732020,0.050196950,0.230078270,9.505462650,-0.041911000,0.000643730,-0.039106600
1640789989.734020,-0.289366720,0.116701400,10.167802810,-0.059865420,0.071763990,-0.053291030
1640789989.736980,0.146992680,0.132337500,9.344342230,-0.014244020,0.045362120,-0.070713470
1640789989.739280,0.021850760,0.132113530,10.177729610,0.062344970,0.007045270,-0.090335310
1640789989.742329,-0.069076720,0.303498540,9.762843130,0.043378770,0.077202920,-0.070951890
1640789989.744120,0.080362160,0.415422380,9.854680060,-0.054146360,-0.014646350,-0.063061730
1640789989.746990,-0.395665710,0.253967430,10.405836110,-0.066494940,0.027208030,-0.036904220
1640789989.748979,-0.067746850,0.285765590,9.298194890,0.006118420,-0.002735850,-0.047603240
1640789989.751920,-0.186021060,0.424136790,10.190566060,0.054423510,0.000795720,-0.054924200
1640789989.754099,-0.113359120,0.645878970,9.578447340,0.005531310,0.099475680,-0.036397580
1640789989.756960,0.259660270,0.712140440,9.907862660,-0.094449520,-0.016623730,-0.044506780
1640789989.758940,0.096688760,0.524114370,10.454871180,-0.111953910,0.065892940,-0.042513010
1640789989.762030,0.326821000,0.453861000,9.285968780,-0.032727410,0.020809470,-0.070792430
1640789989.764370,-0.176233690,0.320086030,10.608825680,0.018304590,-0.068452950,-0.079762920
1640789989.766950,-0.121388170,0.089231130,9.226730350,-0.013495980,0.058364880,-0.044892730
1640789989.768970,0.020565920,-0.238105940,9.420547490,-0.031363970,-0.035648050,-0.045469410
1640789989.772040,-0.286936910,-0.358542860,10.499851230,-0.011835990,0.095546250,-0.044938930
1640789989.773970,0.387661990,0.052563710,8.720948220,-0.012215970,0.067903110,-0.033217670
1640789989.777279,0.020524170,0.291134180,10.653940200,-0.047004220,-0.019912420,-0.029383600
1640789989.779090,0.162239780,0.431148350,9.822357180,-0.089705000,0.116440670,-0.032934550
1640789989.781970,0.223731620,0.401539210,9.420114520,-0.000958140,-0.067204240,-0.062888860
1640789989.783970,-0.510626140,0.070469000,10.698738100,0.083170850,-0.000397860,-0.090956710
1640789989.787030,0.012518550,0.196914990,8.671193120,0.066095600,0.086322410,-0.082424280
1640789989.788990,-0.435272130,0.024778410,10.405318260,0.003324450,-0.026346740,-0.051349400
1640789989.791940,-0.362754670,-0.035015190,10.199734690,-0.050574540,0.075371570,-0.021171570
1640789989.794220,0.316707220,0.248317290,8.979842190,-0.008821490,-0.003443660,-0.022217630
1640789989.797000,-0.154027750,0.367713120,10.526491170,0.013586880,0.028420990,-0.045938790
1640789989.798940,0.247252870,0.767984330,9.680603030,0.000227990,0.082756590,-0.042946640
1640789989.802039,-0.054655880,0.659239170,10.314864160,-0.005903840,-0.058218840,-0.063678610
1640789989.804090,-0.214425820,0.362934110,10.090043070,0.008790200,-0.028446320,-0.066196930
1640789989.807000,0.139064100,0.487977210,9.221164700,0.044512750,0.012534860,-0.065696240
1640789989.809000,-0.290017490,0.426333400,10.133769040,-0.020566580,0.070573390,-0.055286300
1640789989.812070,0.047847640,0.465957400,9.884253500,-0.084999210,0.046290460,-0.003011520
1640789989.814980,0.024109340,0.334536050,10.183867450,-0.059786450,-0.003239510,-0.021055340
1640789989.816929,0.249683480,0.170857640,9.410990720,-0.016739970,0.028669830,-0.040358300
1640789989.819200,0.359356580,0.308030280,9.625740050,0.037954750,0.001266600,-0.037606060
1640789989.821910,0.096307580,0.249834390,9.939189910,-0.032807890,0.100044910,-0.049550840
1640789989.823959,0.391472280,-0.005980410,9.582927700,-0.071488330,0.041030350,-0.030358140
1640789989.827370,-0.171085450,-0.014809670,10.635691640,-0.003200770,-0.000318880,-0.033044820
1640789989.832049,-0.156818170,0.037778340,9.346660610,0.018416350,0.017343460,-0.046321750
1640789989.832419,-0.104753080,0.135014560,9.427668570,0.022496280,-0.032618650,-0.028853120
1640789989.834309,-0.450522690,0.245551420,10.015280720,-0.038443510,0.119586300,-0.046785180
1640789989.836939,0.101903100,0.250077430,9.421579360,-0.026549400,0.070795420,-0.045093890
1640789989.839010,0.013977400,0.468741600,10.353070260,0.036050390,0.012196600,-0.040826210
1640789989.842000,0.273581210,0.641750040,9.537844660,-0.004464390,0.100116440,-0.048963730
1640789989.844230,0.272590070,0.588860810,9.880873680,-0.037516660,0.020425020,-0.025609140
1640789989.846979,-0.238805960,0.308501990,10.430409430,-0.049898030,0.031667940,-0.026619440
1640789989.848980,-0.119313390,0.023257410,9.384139060,0.022028380,-0.011147560,-0.035101180
1640789989.851940,-0.402978240,-0.041067120,9.926450730,0.086806710,-0.002811850,-0.043392170
1640789989.853910,-0.360318810,0.200417680,9.629741670,-0.003300610,0.091364970,-0.040923060
1640789989.856900,-0.177349140,0.455533650,9.893490790,-0.085699580,0.015510620,-0.020280480
1640789989.858970,-0.055819830,0.589655280,10.161245350,-0.115107000,0.052072100,-0.028598310
1640789989.862069,0.314751270,0.871969220,9.633214000,-0.064635280,0.033114850,-0.040175020
1640789989.863960,0.068154920,1.041346190,10.290288930,0.002738830,0.006209310,-0.038245320
1640789989.868140,0.201135170,0.808740020,9.679512980,-0.051069260,0.018839540,-0.028371810
1640789989.869000,0.122517240,0.343458680,9.718932150,-0.049190230,0.004443530,-0.006257000
1640789989.871960,-0.014611030,-0.053972360,10.028060910,-0.056815150,0.057220470,-0.015608970
1640789989.874009,0.196784320,-0.161158700,9.463259700,-0.049529980,0.057342660,-0.007872290
1640789989.877400,-0.085513850,0.043832760,9.926763530,-0.060346730,0.017757710,0.004930790
1640789989.878960,0.126348320,0.063370250,9.711133960,-0.128275170,0.052574280,-0.004647670
1640789989.882520,0.188212020,0.214666550,9.581578250,-0.084097690,0.056290630,-0.000460450
1640789989.884029,-0.002319850,0.408587870,9.846557620,-0.031064450,0.048792370,-0.044873360
1640789989.886910,0.041534620,0.446352510,9.920444490,-0.023780760,0.049647690,-0.027047090
1640789989.888929,-0.134741710,0.388563280,9.674039840,-0.038871170,0.069104140,-0.003145640
1640789989.891929,-0.277101810,-0.050555760,10.209107400,-0.058166690,-0.002777580,-0.006699560
1640789989.894029,-0.272778330,-0.194265860,9.756638530,-0.001545250,0.039400160,0.016838310
1640789989.897159,0.077027020,-0.168889490,8.732674600,0.002811850,0.047132380,-0.022898620
1640789989.899260,-0.000165330,-0.061379340,10.231649400,-0.036062300,0.095418100,-0.029169020
1640789989.901939,0.231931540,0.340443550,9.778531070,-0.065724550,0.162902440,-0.015451010
1640789989.903930,0.255283620,0.335570040,10.124352460,-0.052954260,-0.046862670,-0.039133420
1640789989.906989,-0.098662380,0.513142820,10.318799970,0.004826490,0.014685100,-0.019711260
1640789989.909000,-0.046090800,0.594552460,8.902766230,-0.012551250,0.050264590,-0.040335950
1640789989.912079,-0.749185680,0.188511480,10.617735860,0.004366040,-0.009122490,-0.014218690
1640789989.914880,-0.661024090,0.184082110,9.798328400,0.017228720,0.064659120,0.003781910
1640789989.917260,-0.185060100,0.080682760,9.240874290,0.004929300,-0.008618830,-0.010101500
1640789989.918959,-0.293340380,0.328428750,10.309301380,-0.026892130,0.072620810,0.012065470
1640789989.921909,0.313851390,0.787200390,9.397262570,-0.108139220,0.109878200,-0.004194680
1640789989.923980,0.320666310,0.614758250,10.150042530,-0.107979790,-0.010997060,-0.007496780
1640789989.927300,0.319506440,0.613883320,9.988147740,-0.028614710,0.035113100,-0.017900760
1640789989.931480,0.327909020,0.536211730,9.530241970,0.030928850,-0.012300910,-0.027441980
1640789989.934150,-0.167317120,0.131760090,9.824114800,0.011388960,0.004115700,-0.003607570
1640789989.934559,-0.006148760,0.093518730,9.269495010,-0.081589810,0.046670440,0.021700560
1640789989.936950,-0.216093480,-0.335926500,10.033592220,-0.087557740,0.082032380,0.037345290
1640789989.939020,-0.192652880,-0.268271300,9.910960200,-0.022505220,0.065878040,0.026127700
1640789989.942010,-0.174411710,0.147910740,9.934431080,0.022359190,-0.047147270,0.001873080
1640789989.944229,-0.155262500,0.278608260,9.334797860,-0.036127870,0.046539310,-0.012892490
1640789989.947150,0.212091830,0.453846750,9.099481580,-0.087438520,0.056958190,-0.028884410
1640789989.950389,-0.202743460,0.360978250,10.716386800,-0.021320580,0.078539540,-0.024405120
1640789989.951900,0.165233900,0.405501570,9.444047930,0.052002080,0.043070320,0.001502040
1640789989.953920,0.104559470,0.335382700,9.981250760,0.028282410,-0.069856650,0.012205540
1640789989.956940,-0.243151960,0.110107200,9.869016650,-0.048346820,0.106535840,0.039932130
1640789989.958979,0.092721950,-0.125910010,9.133133890,-0.045453020,0.000621380,0.027693810
1640789989.962289,-0.420508530,-0.264940890,10.569073680,0.039790570,0.001282990,-0.000523030
1640789989.963980,0.076901610,0.280757520,8.827431680,0.054727500,0.082011530,-0.020451840
1640789989.968170,0.015626280,0.557446660,10.056211470,-0.031325220,0.000132620,-0.024725500
1640789989.968999,-0.316733870,0.689825120,10.514223100,-0.112251950,0.093247000,0.003749130
1640789989.971979,0.071702930,0.696174920,9.488556860,-0.054387760,-0.040420890,-0.007219610
1640789989.973970,-0.483161390,0.395545010,10.724658010,0.049942730,-0.045788290,-0.006017090
1640789989.977399,-0.194789810,0.609747470,8.945197110,0.058913240,0.037150080,0.019867720
1640789989.979030,-0.180724640,0.283852700,9.791164400,-0.023114680,-0.038599970,0.032866000
1640789989.982720,0.011301320,0.081201150,9.807936670,-0.101475430,0.106149920,0.049765410
1640789989.984880,0.614234920,0.245941090,9.185150150,-0.063638390,0.027202080,0.022390480
1640789989.986950,0.184608010,0.305246500,10.746754650,-0.023469330,0.017412010,0.004439060
1640789989.988960,0.457993720,0.584441720,9.216078760,-0.052644320,0.033696000,0.007535520
1640789989.991959,-0.056542330,0.359808620,10.015501020,-0.053299970,-0.100970280,-0.009165700
1640789989.994500,-0.419891860,-0.074617270,9.834337230,-0.028897820,0.040432810,-0.019903480
1640789989.997120,-0.162479280,-0.049811970,8.880454060,0.044247510,0.014436250,-0.012822450
1640789989.999050,-0.720280230,-0.193680660,10.478403090,0.027337670,0.013318660,0.005395710
1640789990.001910,-0.129018840,-0.101039570,9.542880060,-0.038856270,0.069524360,0.035324690
1640789990.003929,-0.028552800,0.019038520,9.937648770,-0.040628020,-0.037741660,0.039294370
1640789990.007030,-0.014089180,0.068094370,9.992130280,-0.009506940,0.018294160,0.031438470
1640789990.009090,0.433023450,0.399017510,9.250426290,0.040252520,0.004598500,0.000789760
1640789990.016229,-0.079028290,0.491067770,10.179127690,0.025777520,0.014343860,-0.017039480
1640789990.016880,0.058101360,0.455391880,9.829693790,0.013354420,-0.015984480,-0.000578170
1640789990.017279,-0.228392420,0.425131620,10.067961690,0.023011860,-0.059467560,0.011181830
1640789990.019009,-0.366138520,0.295435670,9.493346210,-0.002790990,-0.025251510,0.012935700
1640789990.021940,-0.314676910,0.389454480,9.786406520,-0.008571150,-0.030578670,0.021192430
1640789990.023970,-0.488406840,0.285738770,10.104855540,-0.019651650,0.068134080,0.030826030
1640789990.028990,-0.038179630,0.226490330,9.766668320,0.009351970,-0.055377190,0.028131900
1640789990.029980,-0.020002620,0.360743430,10.280361180,0.046522920,-0.045070060,0.011785330
1640789990.031980,0.386108960,0.509249990,8.937093730,-0.030267240,0.036662820,0.003577770
1640789990.033939,0.280719250,0.605801700,9.971591950,-0.068767380,-0.042036180,0.031676890
1640789990.036970,-0.049430860,0.286087450,10.467253680,-0.053320830,0.032268470,0.029481950
1640789990.039080,0.233111990,0.067846860,9.241925240,0.044414400,-0.082375110,0.013884900
1640789990.042199,-0.294329350,0.084770110,10.251487730,0.100702050,-0.104159120,0.024753810
1640789990.044760,-0.030945520,0.046444360,8.905335430,-0.017721950,0.076624750,0.020983820
1640789990.046970,0.181472640,0.035461820,9.456910130,-0.070008640,0.015757980,0.036813320
1640789990.049010,-0.104426610,0.145781580,10.748879430,-0.040790440,0.064828990,0.022774940
1640789990.051960,0.333769890,0.456663970,9.443515780,0.024463240,-0.022982060,0.017058850
1640789990.053990,-0.029252620,0.556239190,9.802431110,0.044077630,-0.110360990,0.019219510
1640789990.056980,-0.253821850,0.406960960,9.484857560,-0.027678910,0.016231840,0.007794800
1640789990.059749,-0.277986970,0.041564730,9.453189850,0.009951000,0.006498400,0.016716120
1640789990.062219,-0.442114200,-0.321660070,10.274635310,0.077687210,-0.023309890,0.014042850
1640789990.064000,-0.076242900,-0.211760490,9.857672690,0.110286470,-0.001917780,0.015279650
1640789990.066949,0.056856540,0.159042150,9.633539200,0.024598840,0.011034310,0.023008880
1640789990.068980,0.145350230,0.393632650,9.956185340,-0.100025530,0.003086030,0.027830900
1640789990.071980,0.159589440,0.614960490,9.895330430,-0.045894100,-0.012271110,0.033825640
1640789990.074220,0.194709080,0.731414740,9.476871490,0.063896190,-0.038667020,-0.012843310
1640789990.077010,-0.020274050,0.836158160,9.885391240,0.112901630,-0.036053360,-0.002595780
1640789990.079059,-0.345592950,0.886054160,9.864630700,0.029203300,-0.001089270,0.023198130
1640789990.082250,-0.251772310,0.357434750,10.002338410,-0.083445010,-0.042285030,0.034695870
1640789990.083969,-0.412617210,0.121298500,10.208782200,-0.030061610,-0.023193660,0.059075650
1640789990.087020,-0.245899710,0.182434100,9.506482120,0.024393200,-0.017321110,0.010663270
1640789990.089059,-0.026308980,0.249670400,9.656480790,0.008986890,-0.051584840,0.030148030
1640789990.091970,0.200525540,0.479655390,9.198622700,-0.036764150,0.040531150,0.039596860
1640789990.094230,0.510475990,0.260815920,9.678047180,-0.083032250,0.003206730,0.006075200
1640789990.096969,0.424574670,0.340567440,10.140382770,-0.005480650,0.011934340,0.039036580
1640789990.098960,0.380209860,0.370609250,9.501667980,0.020474200,-0.040403020,0.016827880
1640789990.101950,-0.107394010,0.109094110,10.335842130,-0.007686020,-0.070121890,0.028091670
1640789990.103999,-0.291902720,0.046429380,9.416994090,-0.035417080,0.018699470,0.036349890
1640789990.106999,-0.379455830,-0.344281670,9.511165620,0.003378090,-0.082334860,0.004029270
1640789990.109069,-0.543947220,-0.209922510,9.872132300,0.071263310,0.031909350,0.012144450
1640789990.112150,0.007593360,0.293059650,8.877956390,0.025591250,0.040474530,0.013598800
1640789990.113999,-0.175678220,0.361984370,10.666129110,-0.046570600,-0.033411380,0.030346220
1640789990.116910,0.196451440,0.672017100,9.818654060,-0.065971910,0.027219960,0.043146320
1640789990.119000,0.313455340,0.565306660,9.573655130,0.000846390,-0.083680440,0.012904400
1640789990.122200,-0.260399640,0.386502240,10.465571400,0.072729600,-0.020296870,0.000579660
1640789990.123950,-0.020292770,0.455465730,9.224489210,0.050522390,-0.015848880,0.000619890
1640789990.127430,-0.378719480,0.062905680,10.060654640,0.011587140,-0.112709400,0.030906500
1640789990.129000,-0.129956920,0.041282960,9.472140310,-0.019136070,0.016573070,0.039637080
1640789990.132470,0.200149090,0.243872900,9.511844640,-0.036402050,0.024969870,0.020095700
1640789990.133980,-0.168077980,0.452885510,10.618898390,-0.040660800,0.018639860,0.037932400
1640789990.136940,0.208359300,0.695047140,9.875820160,-0.043164190,-0.057140000,0.041824580
1640789990.139119,0.120701640,0.400679740,9.769296650,-0.012050570,-0.079305480,0.014379620
1640789990.142040,0.128939430,0.278826210,9.195489880,0.042442980,0.003491340,0.007824600
1640789990.144199,-0.008226020,0.254002270,9.818224910,0.039701170,-0.009548660,0.005461280
1640789990.146989,-0.253518020,-0.007154130,9.864528660,-0.021849570,0.015512110,0.029535600
1640789990.149240,-0.003162610,-0.032585740,9.626273160,-0.044597690,-0.079271200,0.049075480
1640789990.151950,-0.342408630,-0.097922830,10.319483760,-0.004065040,-0.030043720,0.040815760
1640789990.154280,0.142362770,0.091024470,8.804299350,0.039368870,-0.005207950,0.033660240
1640789990.156920,0.123427910,0.328805920,9.978353500,0.026281180,-0.028768190,0.009910760
1640789990.159000,0.173531610,0.396804690,9.833313940,-0.027772790,0.122374300,0.008966030
1640789990.163810,0.414458750,0.348600360,9.703777310,0.007550420,-0.059875850,0.013245640
1640789990.164420,-0.299301560,0.231081780,10.871345520,0.064410280,-0.099666430,0.011095410
1640789990.166900,0.038659710,0.220507060,8.482782360,0.050400210,-0.037343800,0.023372470
1640789990.169010,-0.324920510,-0.028916220,9.831326480,0.014027960,-0.063669700,0.013314190
1640789990.174250,-0.603895840,-0.098952420,10.320493700,0.015321370,0.095844260,0.024589900
1640789990.174870,0.107022620,0.105674020,9.347188950,0.063771020,-0.051669780,0.019200150
1640789990.177310,-0.184843970,0.388932080,10.696907040,0.054925680,-0.055298210,0.019823020
1640789990.180879,0.337837490,1.009105560,8.984807010,-0.046619770,0.033089520,0.017529730
1640789990.181900,0.268070790,1.010917540,9.829131130,-0.092127930,-0.066255040,0.029875340
1640789990.183970,-0.089193810,0.670690240,10.411307330,-0.034525990,0.033703450,0.024646520
1640789990.187029,0.120273060,0.566023890,9.526933670,0.099316250,-0.080436470,-0.003983080
1640789990.189000,-0.373493250,0.245463970,10.398721690,0.096127390,-0.089356300,0.004841390
1640789990.192010,-0.072904070,0.101837020,9.032620430,-0.045290600,0.026576220,0.032924120
1640789990.194039,-0.008761230,-0.045728360,9.714150430,-0.103604810,-0.010314580,0.049085920
1640789990.197029,0.068571110,-0.155960600,10.074863430,-0.071473430,0.077110550,0.028145320
1640789990.198989,0.478994670,0.436663960,9.402400020,0.031335650,-0.041291120,0.022540990
1640789990.202010,0.094632940,0.604549410,10.163405420,0.003281240,-0.045281650,0.010819730
1640789990.204069,0.387789370,0.487656240,9.177021980,-0.087785710,0.017398600,0.005973880
1640789990.207049,-0.093243760,0.258571510,10.080894470,-0.023247300,-0.022514160,0.010122360
1640789990.209020,-0.382714240,-0.143291970,10.235802650,0.044795870,0.006304680,-0.004467370
1640789990.212129,-0.107174230,-0.096182760,9.300060270,0.076410180,-0.042605410,0.025609140
1640789990.214000,-0.401055340,-0.044451870,9.763177870,0.000676510,-0.008471310,0.032348940
1640789990.216930,0.041036880,-0.090522300,9.586857800,-0.084175190,0.051419440,0.037182870
1640789990.219610,0.140104070,0.107952990,9.786521910,-0.011478360,0.023265180,0.023370980
1640789990.221940,0.176340680,0.363169040,10.057736400,0.027315320,-0.008769330,-0.019279120
1640789990.224000,0.303715290,0.714051010,9.946590420,0.036086140,-0.009290870,-0.002631550
1640789990.227850,-0.004429000,0.757085140,9.744320870,-0.014975670,-0.003133710,0.009851160
1640789990.229009,-0.175678490,0.392139760,10.136046410,-0.040046870,-0.064913930,0.018613040
1640789990.231940,-0.344221140,0.259064700,9.719152450,0.026053190,0.006920100,0.032135840
1640789990.234020,-0.391312780,0.198468030,9.487579350,0.027635690,-0.023967030,0.014825170
1640789990.236940,-0.496624500,0.191501710,10.425589560,0.004751980,-0.029422340,0.056959690
1640789990.238989,-0.064023250,0.321282180,9.345716480,-0.058142850,0.028307740,0.041803730
1640789990.241940,0.299053850,0.258494170,9.776559830,-0.065588950,-0.021275880,0.015339260
1640789990.244210,0.244099900,0.629777610,10.278691290,-0.021421910,0.063149630,0.024279950
1640789990.248180,0.511768340,0.637391210,9.387569430,-0.042003390,0.007024410,0.000511110
1640789990.249029,-0.004992530,0.249938580,10.499070170,-0.015974050,-0.092439350,0.031676890
1640789990.251979,-0.134537310,0.108041020,9.419320110,0.012643640,-0.021344430,0.023376940
1640789990.254030,-0.123574770,-0.332342060,9.098566060,0.031521920,-0.051139300,0.018371640
1640789990.256940,-0.427530440,-0.215178060,9.966482160,0.017981230,0.041787330,0.044383110
1640789990.259240,-0.016347200,0.000967840,9.636171340,-0.053164370,0.085021560,0.039036580
1640789990.261989,-0.068686940,0.041224650,10.438720700,-0.051547590,-0.026634340,0.035932660
1640789990.264020,0.088120890,0.490728080,9.822691920,-0.006453690,-0.029180950,0.024330620
1640789990.267419,0.181652840,0.468914120,9.345108030,0.014552470,-0.041855880,-0.008992850
1640789990.268999,-0.080649550,0.268426270,9.697176930,0.033105910,0.026333330,-0.005738440
1640789990.271890,-0.031488530,0.201577040,9.765145300,0.054425010,-0.005233290,0.007908050
1640789990.274010,-0.305624130,-0.192317870,10.183744430,0.066128400,-0.026138130,0.023041670
1640789990.277380,-0.086396630,-0.040128860,9.517762180,0.045365100,-0.020216410,0.038407740
1640789990.279060,-0.225060760,0.184139640,10.111911770,-0.013101100,-0.013612210,0.043110550
1640789990.284260,-0.251270710,0.289761100,9.844451900,-0.045190750,0.032541150,0.042173260
1640789990.284819,0.061792170,0.488400400,9.708394050,0.015790760,-0.063246470,0.012041630
1640789990.286949,-0.289552030,0.602729800,10.332337380,0.084616230,-0.007675590,-0.019954140
