timestamp,accel_x,accel_y,accel_z,gyro_x,gyro_y,gyro_z
1645453656908189952,-0.210225490,0.337361750,9.917907710,-0.032885370,0.009112060,-0.014670190
1645453656910310144,-0.203701760,0.223217980,9.867328640,-0.009706610,-0.024086240,-0.012473760
1645453656911139840,0.072054150,0.493923400,9.610287670,0.011795760,-0.058537720,-0.001339610
1645453656915209984,0.092335480,0.372609440,9.574980740,-0.012105710,0.030684480,-0.002852080
1645453656917659904,0.214006290,0.204113010,9.794451710,-0.035417080,0.034743550,0.000238420
1645453656920199936,0.078722000,0.328690230,10.252897260,-0.008478760,0.015254320,0.014205280
1645453656920889856,-0.166787530,0.042141670,10.015935900,-0.014902650,-0.042012330,0.011458990
1645453656925169920,-0.159613550,0.043686410,9.439769740,-0.021307170,-0.059376660,0.010791420
1645453656927670016,-0.378906070,-0.028161580,9.423691750,0.002358850,0.018207730,-0.006623570
1645453656930129920,-0.387343020,-0.126430030,9.734539990,0.000897050,0.019603970,-0.031431020
1645453656930419968,-0.192629040,0.277246800,9.793498990,-0.008492170,0.019867720,-0.010135770
1645453656935129856,-0.139675050,0.208467750,9.926998140,-0.038987400,0.024427470,-0.009986760
1645453656937889792,-0.009694970,0.105314790,10.159163480,-0.016929210,-0.000037250,0.006681680
1645453656940419840,-0.134384290,0.304178510,9.889581680,0.050792100,-0.034913410,0.017587840
1645453656940800000,-0.163536030,0.109960720,9.635273930,0.034284590,-0.062276430,0.011487310
1645453656945250048,-0.054733120,0.374012890,9.399832730,-0.018315020,0.031147900,0.007064640
1645453656947709952,-0.305149230,0.476257410,9.974477770,-0.064450500,0.049510600,0.002920630
1645453656950419968,-0.341699450,0.343158100,10.650885580,-0.052766500,-0.017066300,0.000701840
1645453656951229696,-0.234442370,0.671674730,9.676235200,0.011169910,-0.071276730,0.010026990
1645453656956579840,-0.129300700,0.368414670,9.397306440,-0.001361970,-0.038987400,0.001768770
1645453656958099968,0.041615380,0.211059470,9.587308880,-0.034295030,0.087794680,0.010620060
1645453656960189696,-0.026229150,0.173403750,9.867850300,-0.026761000,0.037953260,0.007714330
1645453656960529920,-0.038415510,-0.241401720,10.431723590,-0.029881300,-0.044226650,0.015442070
1645453656965189888,-0.023759300,-0.057339370,9.416599270,-0.005368890,-0.035308310,0.025117400
1645453656967639808,-0.252103060,-0.170540470,9.516252520,-0.021189450,-0.034710760,0.005948540
1645453656970139904,-0.282949150,-0.189677770,9.954359050,-0.016476220,0.036860990,0.001201030
1645453656970409984,-0.262394730,0.233492760,9.451863290,0.019359590,0.005424020,-0.010563430
1645453656975180032,-0.205591400,0.144098550,10.112640380,-0.010074680,-0.022532050,-0.017876920
1645453656977700096,-0.033402810,0.428729090,9.727730750,-0.022894150,0.050924730,0.015100840
1645453656980150016,-0.207496230,0.391848860,9.948743820,0.003856420,-0.045435130,0.014096500
1645453656980449792,-0.226851340,0.192552670,10.218894960,0.021234150,-0.050862140,0.020588930
1645453656985319936,-0.159909070,0.536134480,9.152377130,0.013904280,-0.017493960,0.015813110
1645453656987869952,-0.242209200,0.285432880,9.969511030,-0.044341390,-0.010742250,0.000964110
1645453656990389760,-0.141329440,0.338340700,10.157595630,-0.054131450,0.066666310,0.013218820
1645453656991350016,-0.110546830,0.507624920,9.852420810,-0.007013980,-0.053943690,0.006587800
1645453656995119872,0.059880970,0.252214070,9.963995930,-0.024178620,-0.056572260,0.018233060
1645453656997659904,0.275486860,0.324618220,8.965909960,-0.025740270,0.065378850,0.028496980
1645453657000140032,0.086816890,0.019042250,9.950661660,-0.032803420,0.021232670,0.009079280
1645453657000369920,-0.065157820,0.004046550,10.380914690,-0.029134750,0.021524730,0.027690830
1645453657005400064,-0.201891760,0.184896290,9.524038310,-0.013776120,-0.064793240,0.017450750
1645453657007719936,-0.329945090,-0.010721860,9.770949360,-0.064671050,-0.047199430,0.008711220
1645453657010219776,-0.353145180,0.179494980,9.361393930,-0.042894490,0.073933600,0.018151100
1645453657010589952,-0.412522820,0.164528770,9.893112180,-0.003677610,-0.002436340,-0.013811890
1645453657015120128,-0.208400230,0.265210960,10.154850960,-0.013484060,0.015570230,0.005064900
1645453657017679872,-0.005802670,0.567088780,9.509004590,-0.042961540,0.031621760,0.023490190
1645453657020329984,-0.098412020,0.164129530,10.279684070,-0.077135880,-0.012668970,0.022777920
1645453657021119744,-0.118056730,0.126840350,9.837414740,-0.013259050,-0.010962780,0.040033460
1645453657025270016,-0.113283060,0.205388950,9.490246770,0.031904870,-0.061869620,0.011427700
1645453657027719936,-0.098239880,0.260105790,9.772166250,-0.050579010,0.022715330,0.020015240
1645453657030229760,-0.052092000,0.456141770,9.712574960,-0.090759990,0.075918440,0.029625000
1645453657030629888,-0.140385430,0.199613540,10.494778630,-0.083887580,0.005449360,0.014501810
1645453657035179776,-0.026355850,0.280180190,9.841653820,-0.010646880,-0.029616060,0.033761560
1645453657035499776,-0.025434890,0.344164610,9.318687440,0.015059110,-0.038285550,0.035302340
1645453657040230144,-0.150172110,-0.034549040,9.754785540,-0.060868270,0.029163070,0.026622420
1645453657040529920,-0.171957190,0.030335980,9.692268370,-0.051954390,0.040373210,0.038090350
1645453657045219840,-0.258825960,-0.216014520,10.282032970,-0.033470990,-0.017385180,0.019533930
1645453657047659776,-0.170404030,-0.167915460,9.789342880,-0.012196600,0.001592930,0.021529200
1645453657050139904,-0.193308790,0.139006110,9.639649390,0.001937150,0.001783670,0.006477540
1645453657050380032,-0.259941220,0.009911920,10.016217230,-0.036647920,0.016884510,0.008310380
1645453657055559936,-0.060409380,0.306656960,9.424761770,-0.010457640,-0.013598800,0.032892830
1645453657056509952,0.031834030,0.244795040,9.778528210,-0.005586440,0.022518630,0.021645430
1645453657060179968,-0.050776240,0.103726110,10.067250250,-0.014731290,0.068679460,0.026616450
1645453657060459776,-0.171072210,0.291714700,10.211963650,0.022254880,-0.027936700,0.017866490
1645453657065479936,-0.386281400,0.129769180,10.261233330,-0.008592010,-0.054337080,-0.002235170
1645453657065819904,-0.233067860,0.382303510,9.188546180,-0.024497510,-0.043740870,0.013247130
1645453657071539968,-0.260974820,0.457496110,9.667353630,-0.058653950,0.041481850,-0.000575180
1645453657072089856,-0.227408570,0.254218670,10.099075320,-0.040638450,0.090160970,0.010062750
1645453657075389952,-0.049256260,0.480812460,10.054354670,0.013831260,-0.027786200,0.029729310
1645453657076279808,0.005909010,0.332329780,10.089995380,-0.023922320,-0.029949840,0.033101440
1645453657080150016,0.088830330,0.114456950,9.433390620,-0.059854980,0.010532140,0.039888910
1645453657080469760,-0.008351500,-0.007560700,9.953760150,-0.037497280,0.007446110,0.020956990
1645453657085239808,-0.139534100,-0.263936820,10.079117770,-0.001060960,0.026845930,0.004030760
1645453657085600000,-0.073236360,-0.015817180,9.496431350,0.028005240,-0.019313400,-0.007459520
1645453657090210048,-0.190140430,0.279768290,9.744686130,-0.046508020,0.017468630,-0.007396940
1645453657090499840,-0.254018690,0.192303660,9.746088030,-0.087246280,0.045175850,0.017353890
1645453657095219968,-0.262812050,0.236857440,10.061541560,-0.019861760,-0.032164160,0.017258530
1645453657095439872,-0.246322990,0.130034330,9.953725810,0.038969520,-0.000743570,0.013995170
1645453657100169984,-0.155002440,-0.043767330,9.643150330,0.051736820,0.028893350,0.012403720
1645453657100509952,-0.335692050,0.120874100,10.181443210,-0.012990830,0.027796630,-0.001531840
1645453657105209856,-0.357681160,0.145843460,10.131414410,-0.063729290,-0.008694830,0.001892450
1645453657106499840,-0.147265970,0.296749440,9.662276270,-0.043438370,-0.072348120,0.005389750
1645453657111249920,-0.035391510,0.496131450,9.409841540,-0.008632240,0.020322210,0.007192790
1645453657111709952,0.025314540,0.309420290,9.856876370,0.020128490,0.084227350,0.009971860
1645453657115219712,-0.035285150,0.416601720,10.338709830,0.012205540,0.013098120,0.016789140
1645453657115709952,-0.025656590,0.299776290,9.984016420,-0.026811660,-0.049938270,0.035101180
1645453657120179968,0.004614580,-0.049937810,9.641111370,-0.044047830,-0.032354900,0.030806660
1645453657120559872,-0.193846460,0.015890560,9.664403920,-0.020273030,0.039978330,0.002115960
1645453657125209856,-0.303631660,-0.107355560,10.094190600,0.025112930,0.016027690,-0.020435450
1645453657125530112,-0.204679460,0.006379050,9.805330280,0.031207500,-0.004501640,-0.013023620
1645453657130159872,-0.125957850,0.370813430,9.358244900,-0.022037330,0.008727610,-0.006166100
1645453657130429952,-0.153104620,0.091870750,9.972776410,-0.055749710,0.030989950,0.024186080
1645453657135229952,-0.118087720,0.102678250,9.876388550,-0.000832970,0.019691880,0.040495390
1645453657135559936,-0.107662830,0.002482600,9.957009320,0.089290730,-0.050562620,0.013405080
1645453657140199936,-0.028281540,-0.156150040,9.823688510,0.073091690,0.026138130,0.017571450
1645453657140499712,-0.140676830,0.124587900,9.605908390,0.004410740,0.048723820,-0.006626550
1645453657145319936,-0.398465660,0.053127970,10.484271050,-0.035008790,-0.017520790,-0.021871920
1645453657146639872,-0.375109820,0.506603840,9.715405460,-0.009450320,-0.046873100,-0.009353460
1645453657150240000,-0.214955670,0.798877720,9.199392320,0.019350650,-0.061921780,-0.013439360
1645453657150660096,-0.133701010,0.487288920,9.844056130,0.007377560,0.091178720,0.000789760
1645453657155299840,-0.027790610,0.567818880,9.901050570,0.018531090,0.085674240,0.022251910
1645453657155819776,-0.150385620,0.203652980,10.805931090,0.007295610,-0.047174100,0.019586090
1645453657160159744,-0.065714780,-0.002406410,9.818701740,-0.018416350,-0.063358250,0.039991740
1645453657160499712,-0.025925700,0.004288790,9.086158750,-0.021381680,-0.049693890,0.002315640
1645453657165230080,-0.184085190,-0.428502110,9.890499110,-0.010088090,0.049760940,-0.011461970
1645453657165550080,-0.037366410,-0.154071630,9.479143140,0.051419450,0.062774130,-0.023674970
1645453657170179840,-0.038436750,0.077648220,10.067134860,0.039526820,-0.015100840,-0.042623280
1645453657170429952,-0.070668280,0.210153130,9.988142970,-0.033089520,0.023292010,0.015939770
1645453657175239936,-0.060120410,0.334627510,9.554574010,-0.021769110,-0.017246610,0.016759340
1645453657175549952,-0.277070020,-0.011261890,10.261772160,0.045384470,-0.029128790,0.001977380
1645453657180159744,-0.272893730,0.087133720,9.507265090,0.114646550,0.013647970,0.012615320
1645453657180509952,-0.281234590,0.207460490,9.697403910,0.068284560,-0.002788010,-0.030933320
1645453657185369856,-0.450606290,0.162307950,10.264354710,-0.041088460,0.035531820,-0.017753240
1645453657186329856,-0.207979320,0.428571370,9.667067530,-0.028251120,-0.031113630,-0.012746460
1645453657190389760,-0.144972770,0.321096240,9.992918010,0.021925570,-0.038360060,-0.031027200
1645453657191479808,0.068796890,0.379957820,9.568084720,0.064131620,0.050067910,0.000834470
1645453657195360000,0.132765050,0.268038420,9.840960500,0.075486300,0.048238040,-0.014373660
1645453657195959808,-0.135291410,0.010103200,10.552803040,0.010597710,-0.008779770,0.002253060
1645453657200140032,-0.075045480,0.188407720,9.681179050,-0.001111630,-0.069636120,0.034110250
1645453657200359936,-0.208677810,-0.083410020,9.528901100,0.002336500,-0.060696910,-0.002478060
1645453657205369856,-0.244540070,-0.045756770,9.508182530,0.029355280,0.041665130,-0.007635350
1645453657205989888,-0.063247810,0.209905420,9.658823970,0.074113910,0.065901870,-0.036960840
1645453657210259968,-0.148150090,0.166309040,10.306364060,0.039093190,0.021804870,-0.031678370
1645453657210579968,-0.034264770,0.384108660,9.832223890,0.004749000,-0.022941830,0.010646880
1645453657215200000,-0.084193670,0.226552080,9.640859600,0.004276630,-0.036622580,-0.004662570
1645453657215489792,-0.211823690,-0.001372380,9.735584260,0.033514210,-0.011728700,0.010138750
1645453657220140032,-0.147335630,0.070384150,9.686679840,0.106896460,0.022998450,-0.013081730
1645453657220369920,-0.301981960,0.074116550,9.990061760,0.064592060,0.014251470,-0.047056380
1645453657225349888,-0.254243050,0.393348750,9.989404680,-0.016303370,0.005915760,-0.006785990
1645453657227689984,-0.221307670,0.407234100,9.992103580,-0.033102930,-0.011703370,-0.007686020
1645453657230190080,-0.226230310,0.304504130,9.838351250,0.020068890,-0.051985680,-0.005218390
1645453657230530048,0.001363470,0.483753260,9.525383950,0.092442340,-0.003129240,0.006172060
1645453657235200000,-0.092039530,0.276612040,9.786070820,0.067593160,0.050362950,-0.016875570
1645453657235520000,-0.091471810,0.357912540,10.209052090,-0.013847650,0.005751850,0.001381340
1645453657240199936,-0.114219300,0.391098260,10.235764500,-0.046105680,-0.035180150,0.006973740
1645453657240499968,-0.133953870,0.101948960,9.534690860,-0.021618600,-0.067897150,-0.006091590
1645453657245230080,0.044287630,0.149763030,9.262042050,0.051718960,0.005988780,-0.008061530
1645453657245709824,-0.147069860,0.123711960,9.750994680,0.066778060,0.083084400,-0.027592480
1645453657250149888,-0.073447640,0.115977850,10.049239160,0.009486080,0.000062580,-0.004234910
1645453657250370048,-0.024156140,0.165925610,10.070120810,-0.024738910,-0.014205280,0.018253930
1645453657255200000,-0.206067410,-0.157235910,9.804866790,-0.015790760,-0.008928780,0.001473720
1645453657255659776,-0.258563400,-0.162494850,9.834386830,0.055284800,-0.032706560,-0.019814070
1645453657260179968,-0.433788360,0.067355790,9.764595030,0.109770890,-0.014030930,-0.039264560
1645453657260509952,-0.207504630,0.227304470,9.413958550,0.024130940,-0.015901030,-0.045013430
1645453657265209856,-0.037118950,0.572205360,9.848159790,-0.062346470,0.062534220,-0.021727380
1645453657265549824,-0.104109550,0.511398610,10.325314520,-0.044012070,0.052648790,-0.021767620
1645453657270239744,0.001289930,0.402922420,10.321747780,0.054085260,-0.064863270,-0.014206770
1645453657270629888,-0.051934880,0.686793510,9.562452320,0.090442610,-0.053276130,0.003802780
1645453657275259904,-0.081589710,0.316101730,9.349534990,-0.010417400,-0.008113680,-0.002264980
1645453657275699968,-0.140394120,0.117592920,9.914213180,-0.061689320,0.068420170,0.005814430
1645453657280199936,-0.395910530,0.090473540,10.340657230,-0.008556250,-0.000439580,-0.017756220
1645453657280480000,-0.148228210,-0.021741650,9.920825000,0.022430720,-0.080300880,-0.031635170
1645453657285179904,0.030526120,0.350306660,9.173391340,0.010256470,0.028285390,-0.018626450
1645453657285469952,-0.059710310,0.131838520,9.662796970,-0.027817490,0.053979460,-0.017243630
1645453657290200064,0.067218180,0.005170700,10.069279670,-0.011244420,0.028333070,0.000396370
1645453657290479872,-0.018474320,0.259592980,9.771804810,0.040376190,-0.027486680,-0.001233820
1645453657295179776,-0.077771540,-0.009190680,9.917778970,0.002166630,-0.035363440,0.001436470
1645453657295480064,-0.152601270,0.073108420,9.556990620,-0.016355510,0.053961570,0.001856680
1645453657300129792,-0.480145130,0.044831300,10.054882050,0.013114510,-0.017227230,-0.034064060
1645453657300320000,-0.351544410,0.107939340,10.068514820,0.018072130,-0.035966930,-0.027801100
1645453657305239808,-0.125510540,0.632203820,9.184583660,0.011035800,0.011314450,-0.024859610
1645453657305629952,-0.110776370,0.418545450,10.124204640,-0.051482030,0.048030910,-0.024086240
1645453657310519808,0.034019340,0.410834640,10.112438200,-0.019858780,0.076924270,0.010263920
1645453657311499776,-0.153696250,0.466845750,10.072883610,0.051282360,-0.084225830,0.001046060
1645453657315310080,-0.091871060,0.209485950,9.845915790,0.007693470,-0.080220400,0.003527110
1645453657316059904,0.025247190,0.417899520,8.887663840,-0.045910470,0.050286950,-0.004367530
1645453657320229888,-0.219572010,0.183078470,10.348553660,-0.077141820,0.050869590,-0.029414890
1645453657320709888,-0.076340300,0.069096780,10.282098770,-0.025244060,0.053612900,-0.019367040
1645453657325260032,0.012202010,0.353614750,9.490156170,0.025255980,-0.049653650,-0.037024920
1645453657325539840,-0.057773040,0.171283890,9.916813850,-0.044000150,-0.005103650,-0.012986360
1645453657330210048,0.028270440,0.121567280,9.178360940,-0.051227220,0.060990460,0.015343730
1645453657330419968,-0.232276190,-0.140263940,9.983606340,-0.003111360,-0.024525820,-0.013914700
1645453657335189760,-0.207107650,-0.211768970,10.034906390,0.017580390,0.028470160,0.000794230
1645453657335389952,-0.203324450,-0.004581990,9.333765030,0.017805400,0.013594330,-0.016850230
1645453657340179968,-0.426068340,0.044605880,10.446683880,-0.049883130,-0.004889070,-0.043667860
1645453657340469760,-0.286874980,0.361371930,9.683939930,-0.037683550,0.001323220,-0.014893710
1645453657345239808,-0.187957500,0.457787840,9.580561640,-0.006014110,-0.054423510,-0.035038590
1645453657346279936,-0.103513730,0.439742270,9.951237680,-0.011408330,0.055815280,-0.020366900
1645453657350269952,-0.005100840,0.479963600,9.554748540,0.016100710,0.064985450,-0.001722570
1645453657350839808,-0.271411870,0.204101910,10.671126370,-0.001980360,-0.049328820,-0.013282900
1645453657355399936,-0.202900800,0.311803910,9.813211440,-0.033678110,-0.061076870,0.019104780
1645453657356150016,-0.191023810,0.286709700,9.222967150,-0.050672890,-0.037904090,-0.000891090
1645453657360209920,-0.218175260,0.054462050,10.058029170,-0.063090030,0.047247110,-0.017867980
1645453657360600064,-0.073385880,0.130744140,9.675404550,0.011974570,0.058265030,-0.012016300
1645453657365139968,-0.074827660,0.054250670,10.078379630,0.026898090,-0.033517180,-0.030146540
1645453657365360128,-0.011184480,0.196502490,9.736750600,-0.032429400,-0.009317700,0.018209220
1645453657370149888,-0.054230540,0.085024440,9.410144810,-0.054113560,-0.016248220,0.013749300
1645453657370439936,-0.194967300,-0.270279260,10.119787220,-0.033119310,-0.002089140,-0.009252130
1645453657375239936,-0.202419580,-0.141262470,9.754683490,0.077718500,0.016617770,-0.010463600
1645453657375589888,-0.241906690,0.020066290,9.730202670,0.055024040,-0.025530160,-0.049184270
1645453657380159744,-0.260847060,0.245092530,9.743487360,-0.048938390,0.010451680,-0.020991270
1645453657380549888,-0.183448870,0.386826130,9.599892620,-0.060661140,-0.011073050,-0.001226370
1645453657385210112,-0.096001650,0.307764380,9.950826640,-0.014615060,-0.018891700,-0.017435850
1645453657386269696,-0.030595970,0.317822010,9.749667170,0.067876290,0.016222900,0.008936230
1645453657390380032,-0.061247100,0.211714490,9.958768840,0.063531110,0.012350080,-0.022286180
1645453657391239936,-0.275791820,0.219711940,10.235921860,-0.010991100,-0.007225570,-0.002318620
1645453657397100032,-0.284326370,0.304255220,9.840037350,-0.041997440,-0.093023480,0.015777350
1645453657397539840,-0.170070440,0.226947700,9.434753420,-0.056053700,-0.038704270,-0.023518500
1645453657400120064,0.013257380,0.325356720,9.358938220,0.001712140,0.071567300,-0.013551120
1645453657400349952,0.031928280,0.400753170,10.207223890,0.047607710,0.066874930,-0.029890240
1645453657405489920,0.003606020,0.449482260,10.213093760,0.000838940,-0.007051230,-0.011748070
1645453657406370048,0.009854540,0.435972210,9.590889930,-0.041484830,-0.084990270,0.035102670
1645453657410230016,-0.091292080,0.034291440,9.537103650,-0.071771450,-0.010658800,0.006416440
1645453657410810112,-0.248806090,-0.254050940,9.626197810,0.014290220,0.034214560,-0.013180080
1645453657415139840,-0.332305580,-0.198710040,10.120578770,0.087177760,-0.007899110,-0.021997100
1645453657415360000,-0.248568420,-0.011899960,9.811036110,0.019128620,0.013136870,-0.040276360
1645453657420169728,-0.120960510,0.230578710,9.553156850,-0.075240430,0.010532140,-0.016532840
1645453657420549888,-0.186865170,0.161199970,10.154463770,-0.071585190,0.020557640,-0.003165010
1645453657425279744,-0.133299250,0.117061410,9.764885900,0.054618720,-0.031776730,-0.001075860
1645453657426479872,-0.019366130,0.278632490,9.548624990,0.117780270,-0.046412650,0.008770820
1645453657430169856,-0.064433490,0.321005820,9.659176830,0.016555190,0.067876280,-0.008584560
1645453657430439936,-0.219567940,0.342642780,10.138401030,-0.073800980,0.047400600,0.008164350
1645453657435159808,-0.427753720,0.400295670,10.661205290,-0.063520680,-0.060223050,-0.002734360
1645453657435449856,-0.283405100,0.418066500,9.479008670,0.009481610,-0.088185080,-0.023297970
1645453657440579840,-0.113918800,0.430509810,9.122568130,0.044523180,0.000102820,-0.016681850
1645453657441890048,-0.138718280,0.410083090,9.828510280,-0.004057590,0.111308710,-0.012819470
1645453657445259776,-0.017040940,0.212997020,10.114866260,-0.037038330,0.032833220,0.014513730
1645453657445639936,0.057163580,0.065237830,10.162965770,-0.036330520,-0.058236730,0.044043360
1645453657450139904,0.044512470,-0.084270570,9.640841480,-0.016988810,-0.031164290,0.030195710
1645453657450389760,0.007292110,-0.268836410,9.541427610,0.017684700,-0.004187230,0.011907520
1645453657455219968,-0.214662310,-0.161965830,9.728164670,0.044682620,0.030542910,-0.018619000
1645453657455729920,-0.192059000,-0.000028400,9.614138600,0.010679660,0.004006920,-0.035130980
1645453657460199936,-0.146495000,0.296243370,9.736202240,-0.059364740,0.012096760,-0.003084540
1645453657460509952,-0.284680160,0.385165630,9.928108220,-0.040525200,0.011722740,-0.009860100
1645453657465209856,-0.276720460,0.305963160,10.142674450,0.033956770,-0.040522220,-0.003001090
1645453657465590016,-0.281642380,0.461087850,9.774811740,0.069895390,-0.022381550,0.018087030
1645453657470309888,-0.317329260,0.257793750,9.704653740,0.022652750,-0.001586970,-0.004391370
1645453657470710016,-0.316270830,0.152284200,9.990358350,-0.045025350,0.022259350,0.012943150
1645453657475600128,-0.292413180,0.285757120,9.732563970,-0.035360460,-0.023715200,0.011684000
1645453657476159744,-0.144586150,0.110811380,9.823536870,0.010320540,-0.072038170,-0.007516150
1645453657480179968,0.095504540,0.381378560,9.378297810,0.004610420,0.025093550,0.010700520
1645453657480470016,0.124123920,0.255084220,9.730767250,-0.007651750,0.039431460,-0.004939740
1645453657485230080,0.022737950,-0.089823760,10.567222600,-0.014653800,0.025109950,-0.002346930
1645453657485529856,-0.001262020,0.205476000,9.754850390,0.021542610,-0.051289800,0.016464290
1645453657490289920,-0.153315260,-0.040119240,9.619482990,0.000773370,-0.100122380,-0.000175830
1645453657490759936,-0.187798310,0.035817400,9.211061480,-0.039178140,0.037643320,0.006671250
1645453657495239936,-0.219181300,0.115243100,9.434599880,0.011813640,0.036366290,-0.012709200
1645453657495489792,-0.273381320,-0.043201850,10.470912930,0.037029380,0.008927280,-0.023506580
1645453657500219904,-0.025625030,0.538970830,9.543843270,0.015525520,0.017100570,0.014542040
1645453657500689920,-0.150135930,0.305044410,10.041735650,-0.044916570,-0.030641260,0.018064680
1645453657505359872,-0.245412650,0.008582080,10.123581890,-0.028464200,-0.002235170,0.026194750
1645453657506099968,-0.143220810,0.196982760,9.275495530,0.086587670,-0.048594180,0.005911290
1645453657510459904,-0.257811460,-0.042705750,9.964464190,0.067709370,-0.023235380,-0.016812980
1645453657511020032,-0.106633840,0.474338800,9.468691830,-0.030869250,0.074194380,-0.012695790
1645453657517099776,-0.174731090,0.500762760,10.239115720,-0.084860620,-0.008927290,-0.020681320
1645453657517459968,-0.210861730,0.318195730,10.453581810,-0.046798590,-0.032141800,-0.004878640
1645453657520160000,0.033293640,0.649607480,9.077935220,0.056754060,-0.050111130,0.003470480
1645453657520359936,-0.120871420,0.250319330,9.807075500,0.037790840,-0.003594160,0.003397470
1645453657525240064,-0.093776320,0.276684580,9.712212560,-0.039786090,0.071965150,0.026682020
1645453657525549824,-0.043958840,0.114715640,9.911005020,-0.053706770,-0.009627640,0.018763540
1645453657530159872,-0.135338780,-0.327206460,10.332830430,-0.042276080,-0.034871700,0.001540780
1645453657530429952,0.067664170,0.044706360,9.111001010,0.021211800,-0.004564230,-0.014883280
1645453657535229952,-0.097974160,-0.042522010,9.762915610,0.006936490,0.013419980,-0.034481280
1645453657535549952,-0.141424390,0.184382840,9.783270840,-0.032408540,0.049263230,-0.011970100
1645453657540310016,0.054931450,0.438215970,9.544640540,-0.032646950,0.001487140,-0.005868080
1645453657540900096,-0.128664810,0.102472620,10.207079890,-0.037026410,0.011639300,0.010551520
1645453657545369856,-0.174184990,0.314519170,9.750272750,0.022144620,0.023767360,0.013710560
1645453657546729984,-0.383519650,0.120410990,10.056114200,0.045177340,-0.032879410,-0.012040140
1645453657550309888,-0.432579700,0.122341070,9.812186240,-0.001807510,-0.026291610,-0.000758470
1645453657550649856,-0.170165300,0.487778900,9.251363750,-0.051118430,0.016875560,-0.026947260
1645453657555179776,-0.186048250,0.237639170,10.150500300,-0.100681190,0.084789080,-0.027291470
1645453657555909888,0.008978650,0.526652930,10.156102180,-0.013445320,0.035370890,0.004701320
1645453657560160000,0.142238690,0.437578620,9.908360480,0.028924650,-0.046832860,-0.005126000
1645453657560469760,0.224637240,0.220279020,9.392679210,-0.019490720,0.001928210,0.037474930
1645453657565179904,0.138221220,0.223108990,9.460000990,-0.045038760,0.060804200,0.031228370
1645453657565499904,-0.171945750,-0.266531320,10.203387260,-0.053441530,0.038994860,0.016383830
1645453657570159872,-0.206918310,-0.164000240,9.803468700,0.005745890,-0.019559260,0.008061530
1645453657570409984,-0.282752480,-0.086874240,9.617071150,0.027982890,0.002361830,-0.041776900
1645453657575249920,-0.398569640,0.066285230,9.601201060,-0.033764540,0.052195790,-0.025241080
1645453657575539712,-0.318042010,0.491708370,9.745816230,-0.046734520,0.022874770,-0.014941390
1645453657580150016,-0.191663980,0.356456730,9.919272420,-0.044403970,0.025115910,-0.009264050
1645453657580479744,0.015553110,0.282735440,9.661530490,0.011688470,0.039677320,0.035141410
1645453657585280000,-0.047689370,0.106441350,10.037938120,0.063575810,0.039298830,0.011458990
1645453657585789952,-0.208744440,-0.077811340,9.961353300,0.029553470,0.002339480,0.022241470
1645453657590419968,-0.040509590,0.178339350,9.474537850,-0.010584300,-0.050507490,0.025479500
1645453657591640064,-0.102385920,0.148547630,9.600242610,-0.079077470,0.035732980,-0.009989740
1645453657595249920,-0.011786240,0.232987720,9.693621640,-0.062502920,0.087775300,-0.005379320
1645453657595719936,-0.093409540,0.439576240,10.330614090,0.037032360,0.046779210,-0.020779670
1645453657600199936,-0.304405030,0.483420400,10.196295740,0.028692190,-0.026245420,-0.009538230
1645453657600509952,-0.034751420,0.709189770,9.240309720,-0.034372500,-0.040043890,0.035227830
1645453657605259776,-0.267641480,0.390865500,9.612786290,-0.102785240,0.052553430,0.024914750
1645453657605799936,-0.302522840,0.054041560,9.960703850,-0.059126320,0.067789860,0.013348460
1645453657610240000,-0.218845740,0.049076760,10.080327030,0.051650420,0.007218120,0.014570360
1645453657610519808,-0.202381370,0.001210960,9.741134640,0.029060240,-0.002701580,-0.006680190
1645453657615139840,0.104490670,0.130908330,9.335723880,-0.066752740,0.040970740,0.019127130
1645453657615429888,0.011017000,0.109732780,9.804747580,-0.094069550,0.055700550,0.008778270
1645453657620169984,0.074941130,-0.053766180,9.897493360,-0.039602820,0.026719280,0.002041460
1645453657620440064,0.129452350,0.003799080,9.693754200,0.068822500,0.038248290,0.008124110
1645453657625530112,-0.291264740,0.046059070,9.868566510,0.044243040,0.011599060,-0.005738440
1645453657627019776,-0.365237150,0.069987230,9.804792400,-0.034728650,-0.008082390,0.004747510
1645453657630220032,-0.523868020,0.233566940,9.625940320,-0.056666140,-0.005491080,0.003698470
1645453657630609920,-0.474772010,0.285319810,9.715160370,-0.046592940,-0.004208090,-0.022213160
1645453657635299840,-0.207975420,0.365280690,9.786795620,0.012499090,0.083027790,-0.004349650
1645453657635749888,-0.202163820,0.432547420,10.003179550,0.036646430,0.063776970,-0.015860800
1645453657640300032,-0.061509050,0.344616170,10.327455520,0.000002980,-0.017447770,-0.000585620
1645453657640829952,-0.003054210,0.430545360,9.581163410,-0.041189790,-0.033520160,0.038072470
1645453657645220096,0.006640410,0.253148230,9.268112180,-0.077366840,-0.044801820,0.008606910
1645453657645540096,0.063192900,0.027586490,9.703866000,-0.033564860,0.079372510,0.005310770
1645453657650199808,-0.046080430,0.047285770,9.857795720,0.043149290,0.080014760,-0.009144840
1645453657650409984,-0.077800970,0.082816740,10.356070520,0.020916760,-0.031241770,-0.015598540
1645453657655360000,0.009818070,0.273947210,9.523459430,-0.063379120,0.022296610,0.028295820
1645453657656160000,-0.154486970,0.044890120,9.325343130,-0.083495680,0.009939070,0.013777610
1645453657660199936,-0.183355970,-0.138563170,10.021063800,-0.003096460,0.042122610,-0.000368060
1645453657660450048,-0.242168660,-0.025930120,9.504036900,0.097399950,0.042174760,0.003780420
1645453657665230080,-0.331992330,-0.027538280,9.936912540,0.049203640,-0.026988980,-0.037512180
1645453657665519872,-0.312768400,0.253541230,9.859506610,-0.066664820,0.049303480,-0.008811060
1645453657670240000,-0.259689510,0.319788660,9.619529720,-0.072661050,0.003764030,-0.011034310
1645453657670629888,-0.144808990,0.267518820,10.214571950,-0.000113250,-0.010618570,-0.021493430
1645453657675170048,0.055165320,0.565170650,9.434725760,0.064000490,0.061294440,0.015889110
1645453657675599872,0.090059860,0.308787230,9.832887650,0.026446580,0.033228100,0.004452470
1645453657680140032,-0.018127240,0.154382990,10.336515430,-0.029766560,0.060707330,0.030004980
1645453657680419840,-0.157229750,0.141611460,9.681372640,-0.024156270,-0.033228100,0.038559730
1645453657685199872,-0.285832820,-0.070755290,9.925457950,-0.010964280,-0.073489550,-0.009337070
1645453657685509888,-0.304330650,0.204786570,9.299869540,-0.010664760,0.053220990,-0.007179380
1645453657690349824,-0.236370550,0.106338370,9.604828830,0.002424420,0.061555210,-0.031851240
1645453657691099904,-0.186786370,0.084304100,10.406735420,0.013603270,0.065161290,-0.032009180
1645453657695209984,-0.046047820,0.481666360,9.705586430,0.007620450,0.009228290,0.010021030
1645453657695489792,0.083946940,0.155670810,9.730653760,-0.045841940,-0.038883090,0.019280610
1645453657700169984,0.070840660,0.006878210,9.509860040,-0.014807280,0.055406990,0.032179060
1645453657700389888,-0.007974960,-0.223998230,9.695089340,0.078268360,0.035263590,0.016753380
1645453657705730048,-0.172885060,-0.406737980,10.183526990,0.083929300,0.014792380,-0.011003020
1645453657706089984,-0.251822530,0.058856300,9.579667090,0.012771790,0.011351700,-0.008220970
1645453657710539776,-0.329004200,0.035026610,9.913333890,-0.049220030,0.002269450,-0.020699200
1645453657711010048,-0.381639780,0.123916650,9.979369160,-0.009754300,0.008063020,-0.015050170
1645453657715389952,-0.171424730,0.528874520,9.628054620,0.069966920,0.015082960,-0.001741950
1645453657716519936,-0.092988250,0.334228340,9.980145450,0.078235570,0.062307730,-0.007291140
1645453657720239872,-0.180213820,0.582546170,9.939371110,0.037714840,0.038726630,0.010576850
1645453657720589824,-0.224269270,0.501529690,10.062135700,-0.023441020,-0.034168370,0.017358360
1645453657725209856,-0.188676660,0.158915670,9.696901320,-0.013794000,-0.037583710,0.021743770
1645453657725519872,-0.089104190,0.238569080,9.350713730,0.042620300,0.009806450,0.002595780
1645453657730099968,-0.045802210,0.023044320,9.825647350,0.048463050,0.086399920,-0.028228760
1645453657730319872,-0.011594900,0.104957480,9.951296810,0.029692050,0.055207310,0.002887840
1645453657735159808,0.032878320,0.062834060,10.107244490,-0.006149710,0.002634530,0.008943680
1645453657735369984,-0.055682370,-0.291842040,9.763413430,0.006257000,-0.007858870,0.017431380
1645453657740179968,-0.160593960,-0.153519150,9.479660030,0.073602800,-0.033669170,0.016449390
1645453657740499968,-0.189496140,-0.283563410,9.659402850,0.105287130,0.048646330,-0.007621950
1645453657745270016,-0.315799620,-0.055174100,9.822314260,0.071050210,0.059379640,-0.010515750
1645453657745849856,-0.386673870,0.488948140,10.225967410,0.005485120,0.013932590,-0.016336140
1645453657750170112,-0.393850830,0.404352220,9.971863750,-0.021217770,-0.009323660,-0.001190600
1645453657750520064,-0.245029020,0.679282130,9.524181370,0.046111640,-0.054262580,0.004166370
1645453657755389952,-0.120652470,0.649679240,9.642127040,0.090345750,0.038979950,-0.005447860
1645453657756679936,-0.090894880,0.387482730,9.715228080,0.073495510,0.063329940,0.008834900
1645453657760189952,-0.057738240,0.446333650,10.256580350,0.016975400,0.007775420,0.013782080
1645453657760470016,-0.085747060,0.084025930,10.248690610,-0.022001560,-0.004246830,0.021937490
1645453657765179904,-0.071968870,-0.016300400,9.637333870,0.007553400,-0.069464740,0.023415690
1645453657765519872,-0.058316980,-0.039303780,9.441903110,0.049047170,0.008378920,-0.012974440
1645453657770139904,-0.098782580,-0.185535880,9.486289980,0.069092220,0.076209010,-0.016094750
1645453657770469888,-0.019168530,0.202506360,9.890227320,0.047022110,0.029051300,-0.016927720
1645453657775219968,-0.130597620,0.242002920,10.090291980,-0.008523460,0.013569000,0.007678570
1645453657775650048,-0.168149690,0.181962490,9.742907520,-0.011418760,-0.039424010,0.026911500
1645453657780160000,-0.298098390,0.182817030,9.755983350,0.047390160,-0.015483800,0.013509390
1645453657780439808,-0.368278000,-0.050316280,9.620286940,0.107227270,0.020317740,-0.008656080
1645453657785250048,-0.179345560,0.209017470,9.558856960,0.089284780,0.015321370,-0.008727610
1645453657785719808,-0.196292430,0.340665730,9.827166560,-0.000943240,0.051398580,-0.010831650
1645453657790419712,-0.137405470,0.082487550,10.075918200,-0.037905570,0.012540820,0.005379320
1645453657791239936,-0.023161700,0.139266880,9.920753480,0.051452220,-0.026929380,0.000959630
1645453657795179776,-0.156711730,-0.001154080,9.800950050,0.130204860,-0.022408370,-0.013233720
1645453657795480064,-0.085676920,0.076197530,9.657150270,0.102493170,-0.009155270,-0.009043510
1645453657800160000,-0.187748640,0.389686760,9.704510690,0.005052980,0.044210250,-0.012502070
1645453657800320000,-0.314230950,0.231196910,10.270981790,-0.049072500,0.000770390,-0.009091200
1645453657805430016,-0.186267700,0.463782250,9.937672620,0.018374620,-0.028327110,0.002035500
1645453657806619904,-0.171771820,0.529708620,9.434159280,0.094680500,-0.043316190,-0.004197660
1645453657810299904,-0.034295640,0.355920760,9.632602690,0.074116890,0.037217140,0.010152160
1645453657810690048,-0.015295760,0.487437370,9.706862450,0.020459290,0.076487670,0.020582970
1645453657815179776,-0.062487310,0.108657200,10.237500190,-0.017212330,-0.027571620,0.021432340
1645453657815419904,0.021152900,-0.075447220,9.855800630,0.004404780,-0.027194620,0.017359850
1645453657820150016,-0.017638750,-0.021772830,9.143249510,0.059780480,-0.016830860,-0.017316640
1645453657820780032,-0.191874890,-0.161921460,9.866194730,0.060194740,0.017392640,-0.024999680
1645453657825449984,-0.170469730,0.210066770,9.514190670,0.044867400,0.052872310,-0.023737550
1645453657826119936,-0.161503970,0.314347920,9.759994510,-0.001236800,-0.016923250,-0.016291440
1645453657830279936,-0.126459840,0.227051140,10.119528770,-0.020487610,0.050400210,0.015532970
1645453657831419904,-0.199566870,0.321781400,9.672245980,0.052544470,0.028453770,-0.002470610
1645453657835170048,-0.433320640,0.103726660,10.303213120,0.103665910,-0.069934130,-0.008480250
1645453657835799808,-0.301367640,0.408034210,9.266969680,0.067965690,-0.016576050,-0.003126260
1645453657840299776,-0.267412870,0.477789100,9.187539100,-0.032934540,-0.005918740,-0.021131330
1645453657840839936,-0.110584960,0.300391610,10.260600090,-0.075435630,0.093893690,-0.000007450
1645453657845280000,0.025894040,0.498139500,10.016417500,0.025898220,0.046913330,-0.012496110
1645453657845639936,0.015749610,0.394910660,10.416528700,0.072319790,-0.085735310,-0.007463990
1645453657850129920,0.091912630,0.437611250,9.502623560,0.017979740,0.001963970,0.017488000
1645453657850409984,-0.046183900,0.219552590,9.173341750,-0.038716200,0.007352230,-0.011745100
1645453657855389952,-0.297707140,-0.186722060,10.239036560,-0.036057830,0.016279520,0.000712280
1645453657856000000,-0.200258240,0.058847980,9.484596250,0.042575600,0.010222200,-0.003789370
1645453657860169984,-0.166167900,0.106837600,9.718981740,0.018660730,-0.033298130,-0.024247170
1645453657860489728,-0.084123890,0.294185040,9.752691270,-0.044824180,0.076062960,0.012093780
1645453657865219840,-0.149601620,0.284760620,9.711031910,-0.026269260,0.020353500,-0.017435850
1645453657865629952,-0.227188040,0.109856030,10.292605400,0.001229350,-0.048741690,-0.005486610
1645453657870240000,-0.105197020,0.268497470,9.177883150,0.049862280,0.003190340,0.010234120
1645453657872179968,-0.274367030,0.016939970,9.582437520,0.005136430,-0.002971290,-0.013799970
1645453657875350016,-0.292410790,0.070464860,9.976072310,-0.020815430,0.043894350,0.009302790
1645453657875849984,-0.174580440,0.187888620,9.624378200,0.006602700,-0.017717480,-0.015980000
1645453657880199936,-0.116252710,0.197652030,10.069183350,-0.019787250,-0.018136200,-0.018829110
1645453657880479744,-0.028882510,0.409297140,9.532340050,-0.005359950,0.056810670,0.008484720
1645453657885200128,-0.249343870,0.130660220,10.143466950,0.019600990,-0.013335050,-0.031001870
1645453657885449984,-0.344279080,0.209405900,10.060394290,0.031848260,-0.046755380,0.014445190
1645453657890189824,-0.247042340,0.430203050,9.152451520,0.026719270,-0.069360440,0.005048510
1645453657890449920,-0.269451590,0.286644490,9.770154950,-0.077772150,0.012212990,-0.011791290
1645453657895160064,-0.140714620,0.494413140,9.834395410,-0.064760440,0.081482510,0.014963750
1645453657895399936,-0.123523010,0.282376320,10.404254910,0.016963480,-0.024721030,-0.021970270
1645453657900219904,0.083742980,0.363907400,9.817719460,0.016640120,-0.041227040,-0.000178810
1645453657900610048,0.299765260,0.515622620,8.833818440,-0.011898580,-0.006338950,0.022099910
1645453657905319936,0.088686390,-0.018431230,10.011924740,-0.099901870,0.051423910,-0.007225570
1645453657906019840,0.056937690,0.096742970,9.917547230,-0.053741040,0.046539310,0.028085710
1645453657910459904,-0.103569570,-0.208891850,10.062424660,0.035315750,-0.060263280,-0.006487970
1645453657910929920,-0.239049820,-0.172242490,9.712890620,0.005328660,0.007975100,-0.021964310
1645453657915219968,-0.279700250,0.314418760,9.145271300,-0.030259790,0.016111140,0.006695090
1645453657915709952,-0.434273060,-0.028845630,10.069832800,-0.080227850,0.007849930,-0.020004810
1645453657920159744,-0.215531190,0.211684120,9.485107420,-0.029073660,0.028783090,-0.007003550
1645453657920470016,-0.132066790,0.283517750,9.602115630,0.051812830,0.003106890,-0.005222860
1645453657925169920,-0.211082700,0.011428780,10.282476430,0.009895860,0.042602420,-0.014132260
1645453657925469952,-0.133704740,0.372755770,9.704249380,0.009059910,-0.006538630,0.002907220
1645453657930159872,-0.243283350,0.148928570,10.097498890,-0.036905710,-0.078114870,-0.015921890
1645453657930539776,-0.030511920,0.380820690,9.334204670,-0.061756380,0.020085280,-0.008843840
1645453657935190016,-0.015053960,0.528165820,9.515883450,-0.029164550,0.047127900,-0.011444090
1645453657935520000,-0.150220510,0.184158950,10.473839760,-0.014756620,0.038029250,-0.022721290
1645453657940219904,-0.020963120,0.455219690,9.637062070,0.023530420,-0.026305020,0.008617340
1645453657940489984,-0.146748010,0.250979570,9.706760410,-0.022354720,-0.061672930,0.006455180
1645453657945259776,-0.254172180,0.081622160,9.713692670,-0.090250370,0.029015540,0.005869570
1645453657945979904,-0.238222390,0.224312740,9.635896680,-0.055181980,0.020676850,-0.005437430
1645453657950160128,-0.366953190,-0.085737300,10.217289920,-0.012885040,-0.021301210,-0.033199790
1645453657950539776,-0.059461780,0.261306200,9.304644580,0.013428930,0.013025100,-0.020079310
1645453657955469824,-0.041615010,0.342741250,9.507102010,-0.044515730,0.025922060,-0.003287200
1645453657956960000,-0.074352660,0.064945780,10.040748600,-0.088056920,0.013831260,-0.002074240
1645453657960269824,0.106625300,0.108190610,9.602075580,-0.014907120,-0.016425550,0.013262040
1645453657960669952,-0.005588570,-0.208798050,9.838793750,0.031380360,0.000156460,-0.000441070
1645453657965189888,-0.151607690,-0.136456680,9.840973850,0.027248260,0.034050640,-0.017380710
1645453657965499904,-0.293202040,0.119444950,9.815790180,-0.033953790,-0.012862680,-0.021737810
1645453657970119936,-0.365721370,0.154787720,9.763207440,-0.077979270,-0.059609120,-0.029973690
1645453657970459904,-0.124256540,0.426681250,9.234239580,-0.025819240,0.007008020,-0.014752150
1645453657975159808,-0.147453980,0.432206510,9.732334140,0.002455710,0.076988350,-0.013251600
1645453657975539968,-0.242894380,0.392861400,10.405048370,0.023184720,0.027480730,0.000086430
1645453657980150016,-0.173125090,0.391352500,10.209475520,0.010243060,-0.046177210,0.016404690
1645453657980509952,-0.177776410,0.277580470,9.577238080,-0.048495820,-0.069192040,0.001078840
1645453657985440000,-0.051205340,0.302239360,9.363350870,-0.067844990,0.001688300,-0.009445850
1645453657985859840,-0.102891900,0.217306870,9.738556860,-0.057521460,0.081831220,-0.023476780
1645453657990629888,-0.055555200,0.269850110,10.097029690,-0.004950170,0.002641980,-0.030264260
1645453657991360000,0.095859800,0.380044640,9.856779100,0.000303980,-0.021339950,0.008659070
1645453657995209984,0.008681040,0.201545190,9.410243990,-0.059092040,0.004987420,0.025011600
1645453657995599872,-0.085512700,-0.012569250,9.822937970,-0.069589910,0.004495680,0.026309490
1645453658000119808,-0.286785540,-0.186989140,10.017159460,-0.016869610,0.017881390,0.019203130
1645453658000399872,-0.261396320,-0.291782320,9.616404530,0.040525200,-0.026877230,-0.012780730
1645453658005509888,-0.273159560,0.038339050,9.586679460,0.000393390,0.009511410,-0.020577020
1645453658006899712,-0.252930520,0.225480240,9.503432270,-0.080078860,0.060050200,-0.014121830
1645453658010190080,-0.137949230,0.235130310,9.929874420,-0.061176730,-0.008036200,-0.015254320
1645453658010550016,-0.096353750,0.379391280,10.009614940,0.010463590,-0.011217600,0.008977950
1645453658015219968,0.071605380,0.190065130,9.404341700,0.053681430,0.003017490,0.003679100
1645453658015529984,-0.053150460,0.062647500,9.951351170,0.020760300,0.034259260,-0.006611650
1645453658020160000,-0.307662700,0.155040160,10.093547820,-0.023743510,0.024849180,-0.000441070
1645453658020730112,-0.245863990,0.114365150,9.791903500,-0.050370400,-0.091126560,-0.008113680
1645453658025280000,-0.165123240,0.303818140,9.500530240,-0.044855480,-0.024084750,-0.000417230
1645453658025840128,-0.071322050,0.283991780,9.382866860,-0.005231800,0.091683860,-0.017081200
1645453658030190080,-0.168536650,0.188612770,10.426481250,0.029109420,0.050596900,-0.018861890
1645453658030619904,-0.233112690,0.518625860,10.268676760,0.003631410,-0.027211010,0.013712050
1645453658035169792,-0.156760380,0.350967760,9.454610820,-0.053901970,-0.100843620,0.020807980
1645453658035509760,-0.158406300,0.209409460,9.325860980,-0.083580620,-0.007030370,0.015111270
1645453658040249856,-0.140428570,0.154607300,9.486007690,-0.027865170,0.081089150,-0.005725030
1645453658040629760,-0.109582330,-0.152917640,10.253696440,0.041587650,0.020813940,-0.025700030
1645453658045179904,-0.009138970,0.186105450,9.891531940,0.029005110,-0.002706050,-0.006315110
1645453658045509888,0.022417730,0.053927800,9.620392800,-0.058347000,-0.015394390,-0.002056360
1645453658050129920,-0.083226990,-0.228542920,9.851602550,-0.074952850,0.004744530,0.016406180
1645453658050409984,-0.189950060,-0.081712600,9.588795660,0.026695430,0.000025330,0.006721910
1645453658055480064,-0.227626920,-0.268531410,9.857700350,0.085224210,-0.011080500,-0.015302000
1645453658057129984,-0.235641750,0.199342860,9.620450020,0.027567150,0.050862130,-0.010658800
1645453658060169984,-0.377062920,0.426471500,10.140660290,-0.053253770,0.012901430,-0.015521050
1645453658060539904,-0.374701470,0.355811480,10.296743390,-0.067387510,-0.049830970,-0.004522500
1645453658065389824,-0.091773600,0.801120700,9.265851970,0.008183720,-0.044882300,-0.001440940
1645453658065819904,0.020814270,0.443830280,9.636837960,0.027754910,0.037896640,-0.020250680
1645453658070299904,0.048670810,0.392139700,9.785854340,0.025387110,0.100624570,0.003753600
1645453658071569920,-0.042471670,0.419475230,10.174139980,-0.005789100,-0.029221180,-0.001476710
1645453658075189760,-0.142797100,-0.041008220,10.141179080,-0.064677000,-0.074273360,0.017708540
1645453658075739904,0.019130980,0.073545140,8.988525390,-0.044046340,-0.029227140,0.014740230
1645453658080129792,-0.101043540,-0.293481380,9.818021770,0.013090670,0.043454770,-0.021532180
1645453658080430080,-0.132894650,-0.283130200,9.868385310,0.043167170,0.089693080,-0.018714370
1645453658085249792,-0.085857320,0.162856940,9.824831960,0.043910740,-0.004269180,-0.030244890
1645453658085569792,-0.271570350,-0.020880830,10.254749300,-0.050836810,-0.025112930,-0.004962090
1645453658090139904,-0.152365520,0.238633330,9.193384170,-0.040893250,-0.029875340,0.011064110
1645453658090469888,-0.201324790,0.118188350,9.613122940,0.042015330,-0.005280970,-0.020030140
1645453658095189760,-0.251011550,0.095331530,9.939652440,0.088770690,0.081153220,-0.010578330
1645453658095459840,-0.138506320,0.585056190,9.774590490,0.064647210,0.018215180,-0.015604500
1645453658100199936,-0.263694170,0.371294620,10.438613890,-0.059586770,-0.021511320,-0.010994080
1645453658100399872,-0.039420100,0.545035420,9.436571120,-0.072659560,-0.010752680,0.021168590
1645453658105239808,0.081438860,0.380088630,9.501101490,0.014738740,-0.011231000,-0.016200540
1645453658105690112,-0.009407420,0.031136380,9.978985790,0.054922710,0.077669320,-0.017122930
1645453658110199808,0.080536490,0.313816790,9.566487310,0.061321260,0.036543610,-0.019709770
1645453658110689792,-0.188981090,-0.018685570,10.366018300,-0.027500100,-0.030866270,-0.004436080
1645453658115200000,-0.211885440,-0.002654160,9.683988570,-0.065985340,-0.020322210,0.030592090
1645453658115629824,-0.202915680,0.011578470,9.365903850,-0.003521150,-0.010293720,-0.007306040
1645453658120119808,-0.358242660,-0.217927490,9.979684830,0.047187510,0.053606930,-0.024513900
1645453658120539904,-0.095085680,0.273646680,9.420578000,0.086069110,0.060601540,-0.019896030
1645453658125259776,-0.095392290,0.213025850,9.986827850,-0.005324190,0.018186870,-0.022239980
1645453658125609984,-0.018502220,0.283598420,9.868180270,-0.058040030,0.015565750,0.019025800
1645453658130139904,0.038024900,0.383201660,9.559877400,-0.002831220,-0.011906030,0.004856290
1645453658130390016,-0.098928090,0.031764790,9.977944370,0.051417950,-0.001099710,0.001473720
1645453658135160064,-0.087616180,0.311025560,9.596421240,0.091779230,0.049591080,0.000388920
1645453658135389952,-0.285962370,0.236921730,9.973714830,0.003640350,0.025038420,-0.028018650
1645453658140249856,-0.432458790,0.205983500,10.051007270,-0.066293780,-0.003339350,0.004276630
1645453658140539904,-0.256096510,0.369499180,9.474563600,-0.017936530,-0.030609970,-0.009706620
1645453658145390080,-0.247367230,0.214395430,9.670765880,0.025610630,0.005510450,-0.022123750
1645453658145890048,0.022746640,0.476319910,9.603439330,0.049947210,0.068269680,-0.003796820
1645453658150240000,0.065360450,0.388644670,10.035497670,-0.002782050,0.059062240,-0.016757840
1645453658150579968,0.053424300,0.237343280,10.226261140,-0.058721010,0.004728140,0.023931260
1645453658155469824,0.061360460,0.258230690,9.800786970,-0.017635520,-0.033342840,0.023172790
1645453658156859904,-0.158171360,-0.138251390,9.528515820,0.000652670,-0.012497600,-0.005175170
1645453658160140032,-0.119631200,-0.043786750,9.242634770,0.036111470,0.016987320,-0.003759560
1645453658160419840,-0.086707180,0.028494960,9.567742350,0.022856890,0.081908710,-0.029578810
1645453658165169920,-0.115893410,0.015145330,10.021225930,-0.041745600,0.070567440,-0.011825560
1645453658165429760,-0.064157250,0.213970900,10.175041200,-0.021035970,0.010600690,0.004884600
1645453658170139904,-0.275661230,-0.036643460,10.027317050,0.018055740,-0.011798740,-0.005979840
1645453658170609920,-0.276467860,0.033164370,9.362077710,0.076256710,-0.042866180,0.005324190
1645453658175170048,-0.412559990,0.038570530,9.393323900,0.083108230,0.031967460,-0.007948280
1645453658175559936,-0.500647540,0.065215560,9.729944230,-0.007064640,0.059530150,-0.027725110
1645453658180140032,-0.261256610,0.402524230,10.014570240,-0.034764420,0.026576220,-0.005616250
1645453658180399872,-0.219481720,0.339483560,10.277853010,-0.004106760,-0.000418720,-0.026153030
1645453658185149952,0.124041590,0.579667450,9.667482380,0.036330520,-0.015847390,-0.014528630
1645453658186060032,0.145609070,0.601499440,9.744178770,0.053997340,0.041869290,-0.002904240
1645453658190670080,-0.027409990,0.288217540,9.864001270,-0.010623040,0.052404400,-0.015068060
1645453658191099904,-0.016042240,0.300548490,9.797037120,-0.016407670,-0.003618000,0.013411050
1645453658195159808,-0.284659860,0.164297220,9.912149430,-0.005562600,-0.035613780,0.013591350
1645453658195520000,-0.151766970,0.126246140,9.406476970,-0.017210840,-0.016766790,-0.008003410
1645453658200150016,-0.126314770,0.184253200,9.607399940,-0.000777840,0.073614720,-0.005944070
1645453658200379904,-0.201854390,0.055094950,10.170943260,-0.000382960,0.081981720,-0.035239760
1645453658205580032,-0.027487400,0.202638240,10.102308270,0.007820130,0.012987850,-0.006927550
1645453658207229952,-0.182407470,0.243915440,9.758489610,-0.006395580,-0.027991830,0.005219880
1645453658210209792,-0.226825650,0.022672950,9.458099370,-0.031287970,-0.026485330,-0.010398030
1645453658210660096,-0.169085920,0.023999780,9.390909190,0.010432300,0.039561090,-0.008429590
1645453658215219968,-0.264700230,0.019898820,9.726078030,0.046814980,0.040954360,-0.031679870
1645453658215440128,-0.029355230,0.141120200,9.973798750,0.028775630,0.049081440,-0.028228760
1645453658220140032,-0.053932760,0.388600680,9.973214150,-0.030227010,0.055241590,-0.008183720
1645453658220439808,-0.174077690,0.185573090,10.224238400,-0.042863200,-0.029353800,-0.016243760
1645453658225289728,-0.068662060,0.040864210,9.668157580,0.045807660,-0.018580260,0.004218520
1645453658226060032,-0.249353660,0.059611980,9.244853020,0.085833680,0.009343030,-0.015251340
1645453658230259968,-0.293423860,0.086345870,9.805912970,0.030355150,0.039473180,-0.027790670
1645453658230819840,-0.348749610,0.327434870,10.000727650,-0.039428470,0.067335370,-0.014732780
1645453658235280128,-0.449696420,0.443037600,10.256834030,-0.055415920,-0.057788190,-0.027684870
1645453658235589888,-0.162519260,0.530074240,9.870817180,0.002497430,-0.039824840,-0.009377300
1645453658240310016,0.033322720,0.692358490,9.138049130,0.032714010,0.046803070,-0.006853040
1645453658240659968,0.069115230,0.445356880,10.078883170,0.010697540,0.070418420,-0.009118020
1645453658245209856,0.106776950,0.272551980,10.141028400,-0.011381510,0.066348930,0.021073230
1645453658245580032,-0.037938340,0.073675770,9.765790940,-0.021092600,-0.072444980,0.008505580
1645453658250119936,-0.069320900,-0.282554060,9.637949940,-0.021900240,-0.045809150,-0.005929170
1645453658250329856,-0.165649040,-0.235670970,9.116716380,0.005552170,0.062267480,-0.018256900
1645453658255479808,-0.252615180,-0.207758370,10.028134350,0.042448940,0.037471950,-0.043661900
1645453658256609792,-0.201966150,0.095768120,10.120836260,0.020314750,0.056618460,-0.023831430
1645453658260130048,-0.087737460,0.339415850,9.600739480,-0.030630830,0.012768810,-0.003401940
1645453658260409856,-0.218564970,0.120635580,10.235400200,-0.018984080,-0.002199410,0.008666510
1645453658265219840,-0.342195240,0.128880350,9.637412070,0.060200690,-0.004631280,0.008308890
1645453658265629952,-0.301577840,0.139737110,9.433655740,0.107355440,-0.064031790,-0.029811270
1645453658270249728,-0.249458480,0.281338540,9.682119370,0.024111570,0.039312240,-0.030048200
1645453658272409856,-0.113132060,0.465545560,9.597036360,-0.070136800,0.085188460,-0.023050610
1645453658275219968,-0.129978250,0.222623140,10.688705440,-0.037965180,0.005483630,-0.033646820
1645453658275539968,-0.105637970,0.414823560,10.066917420,0.062368820,-0.050884500,-0.011312960
1645453658280119808,0.055110900,0.414978380,9.103703500,0.071609030,-0.064422190,-0.016771260
1645453658280400128,-0.058915630,0.151092780,9.567991260,-0.002400580,0.064754470,-0.008454920
1645453658285179904,-0.219295220,0.135049000,9.823875430,-0.035162270,0.078108910,0.003759560
1645453658285459968,-0.325581370,-0.077895080,10.491989140,0.004859270,-0.054089730,-0.014692540
1645453658290149888,-0.229684310,0.221925350,9.768405910,0.011710820,-0.057213010,-0.011254850
1645453658290459904,-0.049192690,0.383271370,9.134751320,-0.012372430,0.004325810,-0.016094750
1645453658295130112,-0.025399750,0.061605360,9.850785260,-0.010439750,0.080804530,-0.019650160
1645453658295379968,-0.031560010,0.299670640,9.843107220,0.032828750,0.041548910,-0.010803340
1645453658300160000,0.042496070,0.198490050,10.037845610,0.029216710,-0.033518680,-0.005564090
1645453658300480000,-0.058812930,0.145110740,9.697726250,-0.020600860,-0.013275440,0.013621150
1645453658305270016,-0.152529430,0.130085890,9.545988080,-0.014474990,-0.003466010,-0.019577140
1645453658305799936,-0.265717030,-0.116084020,9.972638130,0.024403630,0.010173020,-0.033594670
1645453658310509824,-0.193549160,0.381089330,9.573353770,0.039620700,0.017032030,-0.023621320
1645453658311489792,-0.135536420,0.373055930,9.959548950,-0.025676190,0.034601990,-0.023594500
1645453658317119744,-0.181830970,0.250637860,10.047290800,-0.048756600,0.034384430,0.006902220
1645453658317509888,-0.173916270,0.391342100,9.800721170,0.011177360,-0.039383770,0.004865230
1645453658320209920,-0.221470700,0.106206540,9.867068290,0.043843680,-0.024974350,0.000530480
1645453658320519936,-0.222522480,0.437636320,9.351849560,0.008460880,0.015312430,-0.000074510
1645453658325149952,-0.257473200,0.438746750,10.021636010,-0.061456870,0.025482480,-0.020214920
1645453658325520128,-0.232613880,0.213223410,10.167372700,-0.061653570,0.014308100,-0.001312790
1645453658330129920,-0.027110620,0.506611410,9.554931640,-0.004151460,-0.050869590,-0.005993250
1645453658330439936,0.030856800,0.194963770,9.697498320,-0.002382700,0.008341670,-0.014175480
1645453658335160064,0.104717290,0.221922170,9.344351770,-0.027859210,0.057996810,0.010219210
1645453658335459840,0.063340810,0.115954250,10.002642630,-0.019188230,0.000105800,-0.015033780
1645453658340129792,-0.105618340,-0.180420650,10.105733870,-0.028440360,-0.002397600,-0.000248850
1645453658340459776,-0.131013270,0.084929290,9.333737370,-0.010398030,-0.035494570,-0.009460750
1645453658345469952,-0.386484500,-0.078563860,9.942546840,-0.016291440,0.005403160,-0.036339460
1645453658346289920,-0.424614460,0.120369870,9.627970700,-0.006209310,0.026459990,-0.012439490
1645453658350240000,-0.250279810,0.411039230,9.647644040,0.004352630,-0.026045740,-0.025402010
1645453658351640064,-0.217554350,0.231718690,9.972043040,-0.038461390,0.037863850,-0.002038480
1645453658355340032,-0.083893370,0.378623250,9.658032420,-0.014255940,0.037978590,0.005497040
1645453658356070144,-0.203548420,0.200448860,10.341591840,0.006017090,-0.032179060,-0.015905500
1645453658360209920,-0.252651480,0.198643090,9.810270310,0.013096630,-0.040203330,0.008389350
1645453658360499968,-0.035355060,0.453359540,9.183739660,-0.011573730,-0.042924280,-0.020697710
1645453658365139968,-0.144289780,0.217466430,9.872661590,-0.077381730,0.055816780,-0.029215220
1645453658365469952,-0.037823980,0.362034410,9.844754220,-0.044497850,0.059384110,0.002606210
1645453658370139904,0.035850700,0.194238440,10.085288050,0.012668970,-0.025035440,-0.014162060
1645453658370390016,-0.000191080,0.094555470,9.776865010,0.007747110,-0.030782820,0.017939510
1645453658375170048,0.130664540,0.186545770,9.129293440,-0.013516840,0.005388260,0.019226970
1645453658375500032,-0.140856440,-0.306181460,10.034346580,-0.046494600,0.033238520,-0.000794230
1645453658380159744,-0.251783670,-0.153976110,9.972469330,0.010909140,0.019034740,-0.005081300
1645453658380479744,-0.269061740,-0.011401630,9.719072340,0.034500660,-0.022748110,-0.039979820
1645453658385289984,-0.478115590,0.113603960,9.791406630,-0.028091670,-0.001147390,-0.025179980
1645453658385919744,-0.355649320,0.459921270,9.504527090,-0.028099120,0.003626940,-0.013434890
1645453658390459904,-0.261575940,0.345573840,9.782813070,-0.025179980,-0.008651610,-0.018329920
1645453658391350016,-0.073579180,0.388244690,9.759836200,0.015643240,0.021934510,0.019976500
1645453658395209984,0.040843800,0.211146430,9.929063800,0.037573280,0.042133040,-0.000934300
1645453658395749888,-0.207229790,0.005762750,10.375921250,0.005938110,-0.019435580,0.011338290
1645453658400219904,-0.118038390,0.290460470,9.705366130,-0.002865490,-0.077968840,0.016857690
1645453658400440064,-0.153935450,0.100419130,9.403638840,-0.044195360,-0.042764840,-0.017806890
1645453658405339904,-0.062318450,0.268662480,9.387008670,-0.044895720,0.050708660,-0.005756320
1645453658405859840,-0.026586690,0.392277780,9.980070110,0.013287370,0.074610120,-0.031566620
1645453658410169856,-0.106827710,0.309437160,10.301029210,0.010989610,-0.008067490,-0.012123590
1645453658410509824,-0.009438700,0.487247620,9.709655760,0.001330670,-0.061544780,0.038200620
1645453658415149824,-0.206457330,0.116768190,9.636861800,-0.044734780,-0.022138660,0.014628470
1645453658415429888,-0.305625050,-0.027068840,9.560123440,-0.041082500,-0.000727180,0.026012960
1645453658420239872,-0.303839830,-0.103465700,9.749635700,0.037533050,0.010006130,-0.001174210
1645453658420669952,-0.306037690,-0.268835720,9.878899570,0.021268430,0.023770330,-0.025570390
1645453658425309952,-0.150673550,0.153774560,9.691144940,-0.003683570,0.001204010,0.001002850
1645453658425750016,-0.212141590,0.086051190,10.031604770,-0.031496590,-0.031785670,-0.005422530
1645453658430199808,-0.015319020,0.133789810,9.585909840,-0.028334560,-0.035272540,0.019155440
1645453658430729984,0.106392080,0.210294200,9.580031390,0.054636600,0.027720630,0.022925440
1645453658435119872,-0.214811070,-0.011019720,10.367519380,0.055266930,0.046078860,-0.012555720
1645453658435420160,-0.237064110,0.422216450,10.073096280,0.035925200,-0.044737760,0.023874640
1645453658440239872,-0.374641390,0.492307450,9.874464990,-0.032658870,-0.112102920,0.011189280
1645453658440569856,-0.204985770,0.498847930,9.343646050,-0.100201390,-0.021415950,0.005555150
1645453658445220096,0.032845970,0.626036290,9.502011300,-0.018417840,0.080509490,0.009527800
1645453658445580032,-0.131695460,0.260520610,10.556266780,0.040785970,0.048756610,-0.008779770
1645453658450189824,0.100979420,0.370547120,9.983671190,0.042909380,-0.051616130,0.028318170
1645453658450479872,0.089682940,0.206247630,9.518738750,-0.039012730,-0.083029260,0.043952470
1645453658455340032,-0.062703680,-0.260248300,9.529159550,-0.113928320,0.000023840,0.035321710
1645453658455819776,-0.044995780,-0.266969170,9.575112340,-0.009332600,0.041113790,0.026112790
1645453658460140032,-0.250135990,-0.375993430,10.112781520,0.075687480,-0.002413990,-0.012038650
1645453658460429824,-0.134954970,-0.019820170,9.768702510,0.048671660,0.004549320,0.005383790
1645453658465329920,-0.175311980,0.290932920,9.695835110,-0.035160780,0.001601870,0.033128270
1645453658466089984,-0.356622100,0.158297300,10.026838300,-0.080160800,-0.031854220,0.026707350
1645453658470249984,-0.170012640,0.281493130,9.579968450,0.028002270,-0.018164520,0.030730670
1645453658470840064,-0.230925160,0.196417450,9.670623780,0.089299680,0.013054910,0.001728530
1645453658475279872,-0.280030730,0.262707410,10.078392980,0.049449500,0.023022290,-0.000363590
1645453658475739904,-0.233624910,0.419308510,9.999159810,-0.011155010,-0.016573080,0.021247570
1645453658480120064,-0.231490210,0.347399620,9.902723310,-0.075536970,-0.074708450,0.007453560
1645453658480429824,0.099320220,0.371335920,9.512184140,-0.029389570,0.002817810,0.021886830
1645453658485240064,-0.018244780,0.246437820,9.731287000,0.042957070,0.062954430,0.009588900
1645453658485539840,-0.171121460,0.177157420,10.275801660,0.062710050,-0.012937190,0.011149050
1645453658490200064,-0.167148830,0.219443310,9.949485780,0.025980180,-0.045311450,0.043424970
1645453658490510080,-0.298340110,0.137419210,9.514558790,-0.066851090,-0.081335010,0.039014220
1645453658495149824,-0.211547270,0.083961910,9.647953030,-0.065493590,-0.017856060,0.028161710
1645453658495349760,-0.230723990,0.042795670,9.790172580,0.020265580,0.065267090,-0.003056230
1645453658500109824,-0.088617210,0.111352740,10.007424350,0.062417990,-0.002829730,-0.029696530
1645453658500329984,0.006503930,0.327853680,9.982540130,0.041025880,0.001804530,0.019909440
1645453658505339904,-0.051100900,0.257376640,9.547364230,-0.049917400,-0.019991400,0.024372340
1645453658505679872,-0.020421720,0.097864410,9.757421490,-0.050649050,-0.061289970,0.023521480
1645453658510540032,-0.156688720,-0.070687060,9.719821930,0.045239930,0.012616820,0.018982590
1645453658511099904,-0.199587200,-0.201481160,9.652681350,0.095503040,-0.000545380,-0.018978120
1645453658517210112,-0.344678850,-0.044323830,10.171267510,0.065992770,0.012101230,-0.005805490
1645453658517669888,-0.488287870,0.160307840,9.975748060,-0.026792290,-0.033967200,-0.003449620
1645453658520099840,-0.275291170,0.273729860,9.679487230,-0.046549740,-0.095957520,0.002017620
1645453658520379904,-0.131902980,0.379097310,9.560547830,0.019073490,0.021708010,0.008831920
1645453658525280000,-0.061460380,0.317847130,9.706553460,0.075441600,0.056271260,-0.009377300
1645453658525600000,-0.105006370,0.362520580,10.437854770,0.084230300,-0.007650260,0.002388660
1645453658530109952,-0.212172050,0.538475330,10.011970520,0.007697940,-0.075435640,0.020612780
1645453658530309888,-0.091177310,0.455639690,9.375133510,-0.064602490,-0.105670120,0.018113850
1645453658535159808,-0.114048320,0.354208860,9.513012890,-0.050891940,0.015667080,0.009268520
1645453658535419904,-0.079646740,0.218790930,9.695203780,0.031375890,0.058025130,-0.016897910
1645453658540199936,0.013666610,0.105294400,10.188354490,0.084820390,0.007043780,-0.000521540
1645453658540560128,-0.013158650,0.202092080,9.890210150,0.014279780,-0.019162890,0.033669180
1645453658545430016,-0.050260190,-0.135843460,9.662001610,-0.059305140,-0.054113570,0.027455390
1645453658545929984,-0.153935820,-0.318564680,9.673073770,-0.032041970,-0.027456880,0.026561320
1645453658550190080,-0.267236080,-0.308631090,9.560586930,0.067491830,-0.003945830,-0.003097950
1645453658550599936,-0.238117230,-0.202406150,9.827232360,0.097420820,0.002323090,-0.036747750
1645453658555389952,-0.254384370,0.387804540,9.748008730,0.025907160,0.031284990,-0.010491910
1645453658556219904,-0.239507760,0.502304080,10.045476910,-0.057606410,-0.031711160,-0.006352370
1645453658560150016,-0.114309430,0.524599550,9.925045010,-0.036838650,-0.046236810,0.011733180
1645453658560499968,-0.082129680,0.589577080,9.463242530,0.065243250,-0.020480150,0.018772480
1645453658565120000,-0.091409630,0.184966490,9.900227550,0.099219390,0.024428960,0.005848710
1645453658565379840,-0.175825540,0.280387430,9.928731920,0.050224370,0.031673910,0.027906890
1645453658570149888,-0.300645080,0.253519770,10.081288340,-0.031508510,-0.073024630,0.022047760
1645453658570479872,-0.217366870,-0.004262790,9.817942620,-0.063040860,-0.070646410,0.015518070
1645453658575170048,-0.121575360,0.228925330,9.140176770,-0.003553930,0.000733140,-0.001560150
1645453658575539712,-0.157205210,-0.024034850,10.050592420,0.080639150,0.046028210,-0.035256150
1645453658580160000,-0.154150930,0.240005690,10.079190250,0.073930620,0.031887000,-0.004285570
1645453658580449792,-0.155363250,0.561984600,9.894640920,-0.014707450,-0.088274490,0.021311640
1645453658585249792,-0.147554840,0.160545680,9.890680310,-0.089408440,-0.060077020,0.032170120
1645453658585799936,-0.079336170,0.253384710,9.141484260,-0.023972990,-0.001823900,0.024479630
1645453658590349824,-0.176284340,-0.028977550,9.922316550,0.093442200,-0.004398820,-0.006833670
1645453658591209984,-0.127314270,-0.000212790,9.760343550,0.095538790,0.036591300,-0.015340750
1645453658595170048,-0.079765960,0.395142850,9.526944160,-0.005751850,-0.030468410,-0.001546740
1645453658595449856,-0.200386670,-0.033984830,10.209777830,-0.096583370,-0.032618640,-0.001309810
1645453658600090112,-0.082441110,0.158220720,9.372808460,-0.022928420,-0.021710990,0.004889070
1645453658600289792,-0.146525040,0.075804810,9.742527010,0.100234170,-0.034873190,-0.010530650
1645453658605280000,-0.342442570,-0.077312290,10.091627120,0.105623900,0.037692490,-0.006464120
1645453658605939968,-0.392052050,0.379814800,9.695561410,0.021708010,-0.029143690,0.000433620
1645453658610240000,-0.525800760,0.181902130,10.234115600,-0.049442060,-0.095318270,0.001525880
1645453658610639872,-0.237657960,0.475159380,9.269745830,-0.040601190,-0.042146450,0.013741850
1645453658615129856,0.061564180,0.640622680,9.405644420,0.023375450,0.021745260,-0.016599890
1645453658615399936,0.042881970,0.347535250,10.416296010,0.048644850,0.082382560,-0.011521580
1645453658620149760,0.256486560,0.595122460,9.945993420,0.052106390,-0.001531840,0.003656750
1645453658620549888,0.092145960,0.288507040,10.099279400,-0.024083260,-0.101712370,0.013884900
1645453658625229824,-0.022185550,0.158218180,9.287498470,-0.076419120,-0.052583220,0.030674040
1645453658626409984,-0.042922970,0.013679660,9.105777740,-0.023542340,0.008188190,-0.001083310
1645453658630380032,-0.311435700,-0.325694200,10.078261380,0.047774610,0.044646860,-0.018200280
1645453658630839808,-0.224221170,0.118657080,9.756888390,0.065223860,0.027067960,-0.005984310
1645453658635249920,-0.275962110,0.143330510,10.023652080,-0.024713580,-0.019352140,-0.001969930
1645453658635759872,-0.347230850,0.124744370,9.916507720,-0.083519530,-0.031466790,0.027516480
1645453658640219904,-0.168947130,0.088955130,9.392494200,0.008152420,-0.032068780,0.001089270
1645453658640559872,-0.231947510,-0.213875110,9.715570450,0.101481390,0.010314580,-0.018754600
1645453658645220096,-0.152085470,0.252197380,9.674650190,0.099655990,0.033658750,-0.010725860
1645453658645849856,-0.128087490,0.385045530,10.027922630,-0.019483270,-0.000451510,-0.021137300
1645453658650129920,-0.131966780,0.433865760,10.064416890,-0.102813530,-0.044924020,0.010989600
1645453658650369792,0.138028310,0.641802610,9.500243190,-0.029595200,-0.029896200,0.008095800
1645453658655299840,0.056779630,0.275697620,9.698987960,0.050897900,0.039663910,-0.013898310
1645453658655909888,-0.060629270,0.476702540,9.797662730,0.086458030,0.032810870,0.004665550
1645453658660120064,-0.165326820,0.433559810,10.003101350,-0.004249810,-0.015948710,0.015665590
1645453658660339712,-0.337850750,0.128730580,9.867660520,-0.101822620,-0.052142140,0.041083980
1645453658665249792,-0.239222330,0.202909190,9.514492990,-0.070901220,-0.029297170,0.014498830
1645453658665920000,-0.355320690,-0.152910800,9.868257520,0.025105480,0.038580600,-0.027468800
1645453658670240000,-0.174009870,0.139750470,9.695364950,0.078463540,0.015872720,-0.025191900
1645453658672059904,-0.002237030,0.363311410,9.709271430,0.009715560,0.013804440,-0.026878720
1645453658675309824,0.024437550,0.127586750,9.705728530,-0.088267040,0.016200540,0.016506020
1645453658675599872,0.157573690,0.279260070,9.695843700,-0.059449670,-0.020752850,0.017715990
1645453658680189952,0.017932430,-0.057627830,9.906092640,0.017246610,-0.001101200,0.000536440
1645453658680499968,0.025774920,-0.088647890,9.551620480,0.073747340,0.018060210,0.008861720
1645453658685169920,-0.183184980,0.021516810,9.849923130,0.050124530,0.034421690,-0.015132130
1645453658685459968,-0.483185410,-0.053642100,10.106225970,-0.052520630,0.002188980,-0.009985270
1645453658690150144,-0.354672400,0.324576170,9.523723600,-0.054432460,-0.075045240,0.015237930
1645453658690459904,-0.311895880,0.319099990,9.519269940,-0.010040400,-0.002101060,-0.006257000
1645453658695159808,-0.129747900,0.385518970,9.626117710,0.025931000,0.080509490,-0.006355350
1645453658695539968,-0.102741950,0.604344070,10.225080490,0.044660270,0.067783900,-0.009997190
1645453658700169984,-0.331144300,0.385583460,10.632822040,-0.007964670,-0.038206580,0.005002320
1645453658700529920,-0.053279620,0.542234360,9.431036000,-0.056600570,-0.108681630,0.031866130
1645453658705179904,-0.103486040,0.359404500,9.101453780,-0.063696510,-0.017589330,0.005158780
1645453658705499904,-0.104803170,0.050670280,9.555335040,-0.033050780,0.080548230,-0.010931490
1645453658710240000,0.082371960,0.245316950,9.866209030,0.032594800,0.069811940,-0.013481080
1645453658710649856,-0.082313310,0.049100450,10.302986150,0.004543360,-0.008581580,0.001662970
1645453658715169792,0.042628120,0.068366010,9.772425650,-0.061620770,-0.044395030,0.029081100
1645453658715489792,-0.180951120,-0.027415360,9.544269560,-0.072072450,-0.019417700,0.026109820
1645453658720160000,-0.369809750,-0.336800750,9.752021790,-0.011508170,-0.008182230,0.001792610
1645453658720409856,-0.279370990,-0.135728520,9.441132550,0.081390150,0.039026140,-0.015068060
1645453658725169920,-0.382077220,0.125120160,9.683598520,0.036551060,0.023558740,-0.023582580
1645453658725459712,-0.216123540,0.297140720,10.044797900,-0.062982740,0.017781560,0.003215670
1645453658730149888,-0.179008110,0.506097560,9.884805680,-0.068904460,-0.020089750,0.010015070
1645453658730419968,-0.071320740,0.366644500,9.777901650,-0.002333520,-0.045548380,0.010167060
1645453658735259904,0.038102870,0.275421500,9.743685720,0.074675690,0.044360760,0.007769470
1645453658735610112,-0.214764030,0.263026060,9.800496100,0.051313640,0.032503900,-0.016495590
1645453658740199936,-0.282174770,0.232999440,10.196939470,-0.032320630,-0.053048150,0.000472370
1645453658740569856,-0.256210060,0.335630570,9.625187870,-0.087039170,-0.050939610,0.017224250
1645453658745369856,-0.131218910,0.239479720,9.383021350,-0.073723490,-0.023074440,0.003084540
1645453658746039808,-0.024756330,0.080464470,10.021034240,0.020620230,0.085774050,0.002883370
1645453658750190080,-0.080921230,0.266470250,10.090130810,0.065995760,0.052286680,-0.000423190
1645453658750609920,-0.012540900,0.226462930,10.181848530,-0.013117490,-0.073944040,0.033697490
1645453658755360000,-0.020368920,0.210133370,9.488519670,-0.083389880,-0.038053090,0.047650930
1645453658756099840,-0.089225070,0.129899700,9.068643570,-0.094139560,-0.018298620,0.016681850
1645453658760169984,-0.104655240,-0.031867570,9.825745580,0.011925400,0.039096180,0.008262690
1645453658760470016,-0.202457890,0.210846130,9.768201830,0.066950920,0.068475310,-0.014127790
1645453658765189888,-0.162905450,0.349493410,10.064242360,-0.014853480,-0.021573900,-0.000469390
1645453658765479936,-0.202725130,0.228244480,10.072458270,-0.082261870,0.000135600,0.030550360
1645453658770109952,-0.165389660,0.128399860,9.430260660,-0.069250170,-0.021888320,0.011913480
1645453658770350080,-0.137955730,-0.114058100,9.765659330,0.034691390,-0.002150240,0.019499660
1645453658775139840,-0.277619630,-0.087911260,9.692339900,0.072029240,0.059402000,0.009644030
1645453658775519744,-0.257952270,0.014856830,9.816744800,0.002351400,-0.023278600,-0.010325010
1645453658780189952,-0.176030520,0.142606030,10.007910730,-0.058709080,-0.015616420,0.023803110
1645453658780609792,-0.140493530,0.453248620,9.604083060,-0.073428450,-0.013199450,0.004869700
1645453658785869824,-0.000988240,0.490469660,9.955169680,-0.035646560,0.005915760,0.004383920
1645453658786399744,-0.146635860,0.526165840,10.011599540,0.032201410,0.054329630,0.012356040
1645453658790409984,-0.250979660,0.515599430,9.977155690,0.025855000,-0.033095480,0.009748340
1645453658791249920,-0.318539110,0.486912670,9.948147770,-0.048732760,-0.069321690,0.042815510
1645453658795189760,-0.338717490,0.469174830,9.299479480,-0.111779590,-0.040523710,0.038363040
1645453658795569920,-0.204149140,0.153583740,9.730434420,-0.106534360,0.019595030,0.021861500
1645453658800140032,-0.128785970,0.103343360,10.050807950,-0.008365510,0.066855550,0.026185820
1645453658800379904,0.057192880,0.063510810,10.049958230,0.016714630,-0.015242400,0.004631280
1645453658805420032,0.201490450,0.079171160,9.901545520,-0.045344240,-0.007925930,0.046978890
1645453658805920000,0.157367840,0.121424120,9.389889720,-0.119160120,-0.016379360,0.047203900
1645453658810210048,0.083925490,-0.149874230,9.747895240,-0.102245800,-0.007233020,0.019443030
1645453658810629888,-0.024777730,-0.100645100,9.588067050,0.004766880,0.043372810,0.037619480
1645453658815130112,-0.261684510,-0.041231720,9.819385530,0.041370100,-0.006711480,0.000733140
1645453658815429888,-0.387805100,0.122898630,10.078463550,-0.036247070,0.008194150,-0.004981460
1645453658820160000,-0.420662080,0.559497590,9.517711640,-0.105883190,-0.034125150,0.027176740
1645453658820499968,-0.276706960,0.398109200,9.824922560,-0.117734070,-0.016413630,0.015643240
1645453658825209856,-0.167918830,0.304590520,9.753019330,-0.035753860,0.077909250,0.043742370
1645453658826309888,-0.174536590,0.200986820,9.967576030,0.048655270,0.003191830,0.035256140
1645453658830149888,-0.139209090,-0.106620710,10.311155320,0.020578510,-0.013904270,0.034441060
1645453658830589952,-0.077809410,0.185475320,9.456603050,-0.063617530,-0.056266790,0.058533260
1645453658835140096,-0.037415080,0.102165590,9.724010470,-0.135047750,-0.036741790,0.021518770
1645453658835399936,-0.044359310,0.021513190,9.834030150,-0.089712430,0.079870220,0.019274650
1645453658840209920,-0.066428000,0.421877680,9.904975890,0.018304590,0.014330450,0.009986760
1645453658840539904,-0.096129090,0.407900010,10.341737750,0.012834370,-0.022292140,0.014735760
1645453658845209856,-0.037458590,0.676212790,9.263987540,-0.076992800,-0.018383560,0.053034720
1645453658845569792,-0.059299790,0.527581040,9.506376270,-0.148643520,-0.015901030,0.043891370
1645453658850149888,-0.201925870,0.034117750,10.014667510,-0.106476250,0.059111420,0.050474710
1645453658850569984,-0.185391980,0.087800930,9.756647110,0.021332500,-0.006690620,0.054714080
1645453658855330048,-0.201261740,-0.132331760,10.141148570,0.019258260,-0.027395780,0.029586260
1645453658855849984,-0.080998230,-0.031843610,9.411323550,-0.076034670,0.032833210,0.049349670
1645453658860129792,0.003648530,0.089633420,9.531307220,-0.135819630,0.006952880,0.023983420
1645453658860460032,-0.031171000,-0.186849830,10.041218760,-0.096766640,0.042159850,0.026533000
1645453658865270016,-0.008661240,-0.051753380,9.603491780,0.022868820,0.022949280,0.030982500
1645453658866099712,-0.217986290,-0.079316180,10.173468590,0.062158710,-0.030286610,0.007832050
1645453658870189824,-0.366745890,0.083857060,9.779726030,-0.007815660,-0.029228630,0.038567190
1645453658870609920,-0.288659420,0.403654070,9.324174880,-0.085836650,-0.036038460,0.029738250
1645453658875160064,-0.358129020,0.267603310,9.866684910,-0.118854640,0.047793990,0.015063580
1645453658875500032,-0.285826060,0.440811780,9.931037900,-0.018164520,0.063195820,0.030161440
1645453658880149760,-0.225684510,0.489864170,10.278306010,0.056517120,-0.043667860,0.020290910
1645453658880460032,-0.147245380,0.372153730,9.841032030,0.004255770,-0.062893330,0.055912140
1645453658885179904,0.132715390,0.388125090,9.096436500,-0.091168290,-0.000643730,0.064262760
1645453658885560064,-0.041392330,-0.069507670,9.918817520,-0.117070990,0.052759060,0.034658610
1645453658890159872,-0.103891040,-0.029531700,10.240079880,-0.032879410,0.008514520,0.037215650
1645453658890569984,-0.037837660,0.158977060,9.933446880,0.035393240,-0.070086120,0.028400120
1645453658895160064,-0.189023330,0.126585530,9.536388400,-0.031536820,-0.048342350,0.033532090
1645453658895409920,-0.050626080,0.322354730,9.271365170,-0.101020940,0.024186080,0.047184530
1645453658900139776,-0.061938810,0.109493770,9.718545910,-0.083620850,0.056464980,0.033611060
1645453658900399872,-0.088193000,-0.011212090,10.147992130,-0.001661480,0.014819210,0.054073340
1645453658905759744,-0.010538180,0.106651380,9.931779860,0.043180590,-0.018841030,0.056193780
1645453658906230016,-0.215972830,-0.089915750,9.764665600,-0.005336110,-0.045327840,0.049486760
1645453658910390016,-0.163004380,-0.029792130,9.517688750,-0.049999360,-0.024296340,0.048297640
1645453658911039744,-0.198940020,-0.101479970,9.523176190,-0.045874710,0.050251180,0.020737940
1645453658915160064,-0.264830530,-0.084107150,10.011779790,-0.002746280,0.026510660,0.024285910
1645453658917229824,-0.113634510,0.174298480,9.999339100,0.041998920,0.003738700,0.027050080
1645453658920140032,-0.168295040,0.199762690,9.755526540,0.019335750,-0.046636160,0.035287440
1645453658920399872,-0.055829440,0.316393640,9.726108550,-0.026364620,-0.034663080,0.067532070
1645453658925220096,-0.188020650,0.135958700,9.689838410,-0.024768710,0.042898950,0.047647960
1645453658925529856,-0.398042980,0.028282390,10.012644770,0.022229550,-0.025735800,0.033767520
1645453658930119936,-0.382721600,0.228323620,10.057812690,0.059318550,-0.042179230,0.031797580
1645453658930320128,-0.366837050,0.383183240,9.509940150,0.005099180,-0.051313640,0.020396710
1645453658935149824,-0.051633070,0.478312940,9.585687640,-0.069677840,-0.018312040,0.033758580
1645453658935379968,0.091052990,0.429517210,9.816517830,-0.055083640,0.086784360,0.030346210
1645453658940219904,0.161979660,0.211738010,10.051341060,0.007131700,0.012107190,0.019383430
1645453658940559872,0.255042550,0.210085470,10.103932380,0.054447360,-0.034621360,0.049154460
1645453658945319936,-0.021790880,0.193719940,9.471706390,0.010401010,-0.042997310,0.052708390
1645453658945849856,-0.161916730,0.019839940,9.482964520,-0.081080210,-0.069732970,0.059776010
1645453658950179840,-0.266599330,-0.111889120,9.589009280,-0.057700280,0.040119890,0.055448720
1645453658950579968,-0.298700570,-0.273582760,9.765852930,0.024262070,0.036276880,0.000403820
1645453658955329792,-0.190045300,-0.017330510,10.266952510,0.063113880,0.021654360,0.008001920
1645453658955919872,-0.192723630,0.307277170,9.807522770,0.020740930,0.000880660,0.015234950
1645453658960150016,-0.069596840,0.332149120,9.657880780,-0.072149940,-0.081360340,0.021576880
1645453658960499968,0.027345810,0.249191160,9.428434370,-0.051577400,0.034984950,0.059321530
1645453658965129728,-0.143033640,-0.157845360,9.655359270,0.059910120,0.039902330,0.022071600
1645453658965339904,-0.194024670,-0.115138060,10.265331270,0.119292720,-0.012521450,0.017365810
1645453658970139904,-0.219764320,0.281900200,9.715504650,0.058068340,-0.042854250,0.025717920
1645453658970449920,-0.136431140,0.251391110,9.674644470,-0.102297960,-0.040821730,0.009426470
1645453658975159808,-0.067607280,0.324801650,9.833633420,-0.097242010,0.069426000,0.027254230
1645453658975499776,-0.193869780,0.179669600,9.959218030,0.059890750,0.026184320,-0.007633860
1645453658980120064,-0.231750640,0.235928150,10.152045250,0.132709760,-0.056271260,0.000882150
1645453658980379904,-0.163599600,0.588836550,9.226469990,0.061878570,-0.041893120,0.042253730
1645453658985270016,-0.216834110,0.304777890,9.599796300,-0.109562280,-0.017607210,0.026288630
1645453658986199808,-0.153443630,0.120838430,10.024502750,-0.104404990,0.057657070,0.036048890
1645453658990469888,-0.057507000,-0.061686940,9.918938640,0.073207910,0.008168820,0.003410880
1645453658991319808,0.026780340,-0.125941630,10.137448310,0.123776500,-0.003288690,-0.018915530
1645453658995129856,0.046416640,0.362401370,9.312865260,0.051012640,0.007344780,0.020492080
1645453658995429888,-0.068820980,0.165017020,9.542968750,-0.087173290,-0.048798330,0.006242100
1645453659000109824,-0.119666530,0.013118030,9.633437160,-0.097784410,0.022231040,0.018841030
1645453659000310016,-0.230547830,-0.035273690,9.534673690,0.082276760,0.006087120,0.010561940
1645453659005240064,-0.465667250,-0.259473650,10.446043010,0.148376820,0.004649160,-0.048922000
1645453659005689856,-0.476643530,0.374094250,9.727943420,0.092893860,-0.022992500,-0.002123420
1645453659010459904,-0.415400680,0.442210170,9.638716700,-0.064012400,-0.088545670,0.001919270
1645453659010829824,-0.166292730,0.291624840,9.677688600,-0.119194400,0.039646030,0.005133450
1645453659015139840,-0.030248000,0.446560410,9.568668370,0.039668380,0.035071370,0.015947220
1645453659015369984,-0.049743430,0.146001820,10.349148750,0.154440100,-0.023135540,-0.016397240
1645453659020179968,0.074457390,0.467941670,9.572471620,0.113880640,-0.037582220,0.020366910
1645453659020789760,-0.054823880,0.490292400,9.666646960,-0.050589450,-0.074121360,0.022126740
1645453659025189888,-0.146834580,0.056692740,10.056373600,-0.159332200,0.020523370,-0.007797780
1645453659025869824,-0.172507550,0.115111050,9.661810870,0.006788970,-0.001996760,-0.001125040
1645453659030289920,-0.262328980,-0.043234490,10.105404850,0.136183220,-0.038145480,-0.043158240
1645453659030939904,-0.122314340,0.257418250,9.297877310,0.097775460,0.009098650,-0.013542170
1645453659035219968,-0.143337520,0.421218570,9.460322380,-0.048729770,-0.016811490,0.018358230
1645453659035679744,-0.136354460,-0.020984280,10.042138100,-0.128476320,0.012204050,0.009819870
1645453659040219904,-0.019025010,-0.073388050,9.652285580,0.030219560,0.010408460,0.023573640
1645453659040480000,-0.171780180,-0.153140890,10.240056990,0.156760220,-0.034508110,-0.028535730
1645453659045169920,-0.236145900,0.009487010,9.785939220,0.107908250,-0.013986230,-0.032839180
1645453659045549824,-0.240717260,0.337196410,9.376783370,-0.014428790,-0.072020290,-0.020545720
1645453659050119936,-0.209827900,0.282071020,9.587136270,-0.111211860,-0.006701050,-0.035612290
1645453659050329856,-0.028101130,0.335119690,9.579552650,-0.014711920,0.063687560,-0.012043120
1645453659055429888,-0.199620100,0.365188450,10.447991370,0.122857120,0.001634660,-0.023143000
1645453659056389888,-0.275196080,0.391391520,10.264252660,0.121122610,-0.068002950,-0.024534760
1645453659060119808,-0.143526700,0.472023670,9.362812040,0.006435810,-0.088989740,0.018943850
1645453659060420096,-0.307557970,0.205510440,9.634748460,-0.099980830,0.009314720,-0.000275670
1645453659065260032,-0.348072020,0.001405970,9.941207890,-0.029461090,0.028245150,-0.029312070
1645453659065860096,-0.316411730,0.121853420,10.007000920,0.095135000,-0.046148900,-0.035268080
1645453659070200064,-0.117691380,0.290507020,9.596515660,0.087423630,-0.052998960,-0.038389870
1645453659070599936,0.144590300,0.257584390,9.333109860,-0.005213920,0.008982420,-0.014886260
1645453659075310080,0.055139360,0.242769930,9.782652850,-0.069537770,0.024272500,-0.015239420
1645453659075739904,0.076914870,0.039136150,10.048408510,-0.016769770,-0.031438460,-0.019745530
1645453659080160000,0.047625360,-0.163037840,9.838715550,0.085701060,-0.020293890,-0.006721910
1645453659080430080,-0.277773740,-0.091642810,9.723065380,0.110833350,-0.030878190,-0.035209960
1645453659085169920,-0.446542950,-0.078242400,9.793572430,0.045543910,-0.059558460,-0.026530030
1645453659085509888,-0.409886570,0.152266100,9.222085950,-0.039377810,-0.027292970,-0.032979250
1645453659090240000,-0.306195940,0.182231070,9.622080800,-0.026977060,0.014145670,-0.053162880
1645453659090519808,-0.279549090,0.137218280,10.280284880,0.063176460,0.058469180,-0.042760370
1645453659095189760,-0.235760750,0.398277760,10.011596680,0.134526190,-0.057527420,-0.040075180
1645453659095490048,-0.127554940,0.284183380,9.900670050,0.084835280,-0.112581240,-0.022584200
1645453659100129792,-0.041314850,0.324988690,9.180611610,-0.013704600,-0.009049480,-0.009730460
1645453659100479744,-0.093180630,0.220889270,9.596226690,-0.020256640,0.003677610,-0.035724050
1645453659105299968,-0.227365400,0.006148480,10.486212730,0.052435690,0.013978780,-0.042827420
1645453659105710080,-0.183853520,0.432737170,9.778512950,0.108526670,-0.065866120,-0.036747760
1645453659110429952,-0.126934220,0.421516420,9.831316950,0.042617320,-0.091804560,-0.037351250
1645453659110919936,-0.098672970,0.424405010,9.497822760,-0.049744550,0.040784480,-0.011809170
1645453659117179904,-0.091430430,0.360990910,9.674744610,-0.025059280,-0.002419950,-0.028388200
1645453659117719808,-0.258595350,-0.064251270,10.534986500,0.066955380,-0.034464900,-0.022366640
1645453659120100096,-0.135562000,0.208766420,9.414988520,0.106494130,-0.061157350,-0.023451440
1645453659120349952,-0.041579100,0.139929130,9.413061140,0.029857460,-0.076590490,-0.037640340
1645453659125190144,-0.036639900,0.027609650,9.655464170,-0.062853100,0.056026880,-0.021702050
1645453659125499904,0.102255990,0.213445680,9.613551140,-0.013291840,0.025908650,-0.042696300
1645453659130199808,0.001156200,-0.115474600,10.438907620,0.062480570,-0.027504570,-0.052315000
1645453659130569984,-0.055800080,0.082184150,9.595659260,0.110566630,-0.025947400,-0.033423310
1645453659135150080,-0.281501380,0.028335970,9.597889900,0.070281310,-0.089050820,-0.050120060
1645453659135439872,-0.436947880,-0.159430580,9.729107860,0.000719730,-0.030176340,-0.032441310
1645453659140139776,-0.262809780,0.145037070,9.197716710,0.009910760,0.015768410,-0.054930150
1645453659140460032,-0.315475460,-0.063132820,10.292455670,0.043873490,0.021004670,-0.063005100
1645453659145220096,-0.243691590,0.264902140,10.209348680,0.106583540,0.006565450,-0.041127200
1645453659145720064,-0.103097250,0.510375800,9.825858120,0.102573640,-0.099800550,-0.042879580
1645453659150169856,-0.076934320,0.337142940,9.609067920,0.006614630,-0.059190400,-0.014105440
1645453659150629888,0.085847510,0.392973150,9.137029650,0.013048950,0.035986320,-0.025890770
1645453659155360000,-0.129561020,0.056594840,10.255758290,0.064514580,0.030274690,-0.064191220
1645453659156039936,-0.263216730,0.307485130,10.367189410,0.113204120,-0.041422250,-0.043357910
1645453659160159744,-0.135311350,0.625892640,9.624060630,0.051936510,-0.107659400,-0.057439510
1645453659160480000,-0.156515510,0.364391680,9.457447050,-0.063061710,-0.025010110,-0.046707690
1645453659165199872,-0.036045150,0.386605740,9.434648510,-0.020907820,0.070229180,-0.039827820
1645453659165489920,-0.136037350,0.031144890,10.282232280,0.087744010,0.030973560,-0.055679680
1645453659170109952,-0.204582960,0.067398210,10.073336600,0.126112980,-0.060610470,-0.014995040
1645453659170339840,-0.067611900,0.109095340,9.327978130,0.050285460,-0.078600650,-0.020071860
1645453659175119872,-0.179730620,-0.317468940,9.514132500,-0.060640280,-0.008486210,-0.032682720
1645453659175419904,-0.097985450,-0.130936210,9.582698820,0.016815960,0.019896030,-0.049781800
1645453659180130048,-0.099425040,-0.082225370,9.974869730,0.107307740,0.026579200,-0.098162900
1645453659180450048,-0.176021990,0.245675700,9.991395950,0.095826390,-0.011934340,-0.054623190
1645453659185410048,-0.119548330,0.590414170,9.789894100,0.040970750,-0.055712470,-0.043021150
1645453659185859840,-0.202068970,0.270793260,9.705640790,-0.018452110,-0.036981710,-0.027224420
1645453659190639872,-0.122362910,0.329928900,9.397133830,0.051662330,-0.008350610,-0.014500320
1645453659193949952,-0.222429540,0.167547790,9.950921060,0.103189050,0.032676760,-0.073279450
1645453659195129856,-0.365322860,0.229514350,10.181863780,0.073488060,0.004723670,-0.050374870
1645453659195430144,-0.244559590,0.475338370,9.905908580,0.034956630,-0.093349810,-0.035844750
1645453659200110080,-0.172484380,0.155251820,9.596384050,-0.025531650,-0.058357420,-0.045476850
1645453659200339968,0.011374550,0.242049620,9.276399610,0.015428660,0.036351390,-0.031848260
1645453659205359872,-0.095704320,0.161266760,10.170798300,0.084662440,0.056961190,-0.052493820
1645453659206060032,-0.143562210,0.043942800,10.326926230,0.082224610,-0.019574170,-0.029379130
1645453659210149888,0.014281110,0.298040690,9.630887030,0.054933120,-0.091741970,-0.004968050
1645453659210609920,-0.107467500,0.051970710,9.576292040,-0.025521220,-0.038228940,-0.027693810
1645453659215169792,0.050204240,0.058665570,9.285496710,-0.003613530,0.038647660,-0.024704640
1645453659215520000,0.020388910,0.149875000,9.811777110,0.083915890,0.049008430,-0.057986390
1645453659220219904,-0.082971340,0.165225300,10.170767780,0.089314580,0.008603930,-0.051985690
1645453659220569856,-0.012704170,0.448791500,9.630018230,0.048238050,-0.022472440,-0.022213160
1645453659225209856,-0.321199890,0.209981710,9.792462350,-0.018580260,-0.043730440,-0.034126640
1645453659225659904,-0.285147730,-0.029917080,9.472140310,0.018541510,-0.019341700,-0.024372340
1645453659230149888,-0.226820190,-0.056324860,9.429981230,0.117979950,0.024142860,-0.056630380
1645453659230599936,-0.323082570,-0.026830100,9.978689190,0.097979610,0.034447020,-0.077039010
1645453659235169792,-0.049226370,0.226120320,9.922502520,0.039534270,0.022576750,-0.040726370
1645453659235409920,-0.135864990,0.255813930,10.044322970,-0.003120300,-0.042757400,-0.041903550
1645453659240140032,0.007041840,0.292248670,9.662982940,0.011625880,-0.049014390,-0.026352700
1645453659240429824,0.121464800,0.310498630,9.242619510,0.104132300,0.038480760,-0.026273730
1645453659245129728,-0.093396080,0.293161090,9.822389600,0.100873400,0.051702560,-0.059278310
1645453659245559808,-0.098306850,0.482960190,10.156373980,0.051514820,0.018391020,-0.028717520
1645453659250139904,-0.217870460,0.579243300,9.857254980,-0.010551510,-0.048848990,-0.026984510
1645453659250429952,-0.150270160,0.516897440,9.573632240,-0.049087410,-0.050742940,-0.045646730
1645453659255329792,-0.094332160,0.510470810,9.509144780,0.021158160,0.072599960,-0.040885820
1645453659255869952,-0.177860260,0.354315370,9.747566220,0.067690000,0.051616120,-0.060495730
1645453659260160000,-0.069243920,0.287731110,10.081781390,0.046412650,0.004990400,-0.034043190
1645453659260449792,0.004042570,0.169174120,9.549650190,-0.021296740,0.023342670,-0.003826620
1645453659265270016,-0.011148580,-0.147466910,9.631116870,-0.062815850,-0.016185640,-0.019434100
1645453659265869824,-0.089544180,-0.193507810,9.779189110,0.012321770,0.033809250,-0.020402670
1645453659270220032,-0.265562180,-0.265259830,9.502102850,0.075501200,0.018838050,-0.046034160
1645453659270629888,-0.272097170,-0.072425630,9.836087230,0.060145560,0.001205500,-0.053769350
1645453659275169792,-0.295859280,0.256587420,9.664098740,0.003419820,0.039701170,-0.037391480
1645453659275519744,-0.169710400,0.466951160,9.517750740,-0.043906270,-0.015139580,-0.046508020
1645453659280160000,-0.070549830,0.584638830,9.941739080,-0.008001920,0.035250190,-0.017566980
1645453659280499968,-0.143622820,0.492016290,9.771532060,0.041618940,0.057634710,-0.032481550
1645453659285159936,-0.193177000,0.361315340,10.039237020,0.071248400,-0.014881790,-0.029020010
1645453659285410048,-0.337152120,0.443767190,9.815485950,0.043025610,-0.023086370,-0.009639560
1645453659290169856,-0.224946190,0.402243350,9.212295530,-0.057630240,-0.041417780,-0.022129710
1645453659290530048,-0.108052910,0.327694770,9.630111690,-0.085937980,0.044758620,-0.018043820
1645453659295109888,-0.123819170,0.188609440,9.950589180,-0.027737020,0.104847540,-0.035566090
1645453659295389952,-0.006013140,0.033149560,10.255188940,0.057347120,0.010764600,-0.039358440
1645453659300109824,-0.027593900,0.201041040,9.943273540,0.059531630,-0.035943080,-0.016528370
1645453659300339968,-0.056700900,0.264720560,9.226547240,-0.063313550,-0.032894310,-0.010153650
1645453659305219840,-0.047108960,0.198838980,9.473259930,-0.115363310,0.026845930,0.001147390
1645453659305619968,-0.207517330,0.169339300,9.770913120,-0.035353010,0.071994970,-0.008052590
1645453659310220032,-0.183345510,0.033278570,10.094092370,0.058799980,0.018373130,-0.035512450
1645453659310939904,-0.118022040,0.369153470,9.847833630,0.063876800,0.016258650,-0.023673470
1645453659315249920,-0.245221330,0.571976300,9.634182930,-0.069889420,-0.017845630,-0.018404420
1645453659315810048,-0.063022240,0.372000960,9.609182360,-0.144827370,0.007463990,0.004491210
1645453659320119808,-0.116040230,0.092244740,9.604326250,-0.055560470,0.076271580,-0.001755360
1645453659320399872,-0.239116070,-0.195450310,10.244364740,0.077143310,0.023074450,-0.025822230
1645453659325179904,-0.257976560,-0.028936480,9.968670850,0.103302300,-0.021199880,-0.006093080
1645453659325489920,-0.349725570,0.340431960,9.498632430,-0.066193950,-0.071027880,-0.022292140
1645453659330119936,-0.177997290,0.375515340,9.611067770,-0.203882200,0.007139150,-0.001344080
1645453659330370048,-0.121789100,0.278843160,9.703948020,-0.116017460,0.100632020,0.006484990
1645453659335170048,-0.130296440,0.234569030,10.377631190,0.074400010,0.001856680,-0.030960140
1645453659335399936,0.033168340,0.571751650,10.005393030,0.105808680,-0.022690000,0.002101060
1645453659340160000,0.064011450,0.758170070,9.181526180,-0.088946520,-0.032648450,0.023904440
1645453659340479744,-0.025940120,0.435469900,9.786440850,-0.237905980,0.021345920,0.024949020
1645453659345239808,-0.106540510,0.104274930,9.847090720,-0.135618490,0.065879540,0.035111620
1645453659345739776,-0.124468480,-0.099273790,10.004223820,0.061251230,-0.032968820,-0.007498270
1645453659350189824,-0.080106270,0.149477680,9.837315560,0.063811250,0.008827450,-0.002875920
1645453659350569984,-0.033342450,0.396717610,9.141788480,-0.116071120,0.042462350,0.017242140
1645453659355330048,-0.001674270,0.083384480,9.864729880,-0.224870440,0.029112400,0.015445050
1645453659356129792,0.018236810,-0.045705270,9.892172810,-0.124101330,0.076158330,0.020676850
1645453659360129792,-0.078790670,-0.147004500,9.803001400,0.053372980,-0.014750660,0.008574130
1645453659360469760,-0.294833960,-0.132363080,10.041095730,0.076109190,-0.015884640,-0.003021960
1645453659365149952,-0.342625920,0.244142950,9.252760890,-0.065584490,0.000116230,0.013299290
1645453659365440000,-0.188180790,0.231376220,9.521349910,-0.190840680,0.016093260,0.007872280
1645453659370139904,-0.148058620,0.193215180,10.056758880,-0.157856960,0.124566240,0.016075370
1645453659370489856,-0.067831800,0.322924730,10.077678680,0.011056660,0.051224230,0.001718100
1645453659375160064,-0.079845270,0.317263330,10.337194440,0.085015600,-0.051395600,0.010174510
1645453659375520000,-0.080519650,0.614057420,9.266736030,-0.041130180,-0.019009410,0.047177070
1645453659380129792,-0.050389460,0.288856120,9.282428740,-0.185632720,0.014968220,0.035430500
1645453659380430080,-0.239254770,-0.001363900,10.246275900,-0.162643220,0.100126880,0.031586000
1645453659385219840,-0.238717110,0.112878040,10.183818820,-0.004181270,0.029358270,0.006520750
1645453659385759744,-0.216304420,0.213065980,10.209159850,0.042118140,-0.061175230,0.002065300
1645453659390359808,-0.105084550,0.611627820,9.336623190,-0.096848610,0.010827180,0.031657520
1645453659391449856,0.104530390,0.303983090,9.226055150,-0.204607840,0.066827250,0.030265750
1645453659395129856,0.011697730,-0.092678320,10.183629040,-0.128211050,0.099022680,0.038954610
1645453659395439872,0.018091810,-0.014892110,10.083374020,0.032368300,0.019715720,0.048975640
1645453659400110080,-0.047935740,-0.200513840,9.995241170,0.036644950,-0.050748890,0.036029520
1645453659400379904,-0.159757550,0.093822890,9.437126160,-0.101952260,0.015638770,0.051054360
1645453659405449984,-0.184635010,-0.071467770,9.439486500,-0.163781630,0.050719080,0.027768310
1645453659406400000,-0.257607700,-0.295406220,10.020896910,-0.080420080,0.070226190,0.009997190
1645453659410149888,-0.273649660,0.247820390,9.746280670,0.042088330,0.045250360,0.011414290
1645453659410569984,-0.292889000,0.195189220,10.004335400,0.029917060,-0.020064420,0.014488400
1645453659415139840,-0.220705700,0.421013680,9.607155800,-0.079064070,-0.003533070,0.053636730
1645453659415419904,-0.162401230,0.264981480,9.567368510,-0.115738830,0.023242830,0.043530760
1645453659420179968,-0.280397470,-0.197623710,10.297487260,-0.054985300,0.057643650,0.023263700
1645453659420499968,-0.320313270,0.262804960,9.978101730,0.043711080,0.019027300,0.018015500
1645453659425240064,-0.347353820,0.246849570,10.041000370,0.002864000,-0.065630670,0.002901260
1645453659426269952,-0.166555670,0.390721680,9.426906590,-0.109255340,-0.008364020,0.045786800
1645453659430269952,0.023111060,0.309424490,9.332373620,-0.117217010,0.047595790,0.036014610
1645453659430959872,-0.020758230,-0.125056700,10.420812610,-0.041010980,0.074881320,0.026069580
1645453659435200000,0.023313480,0.243194480,9.978040700,0.046572090,0.013694170,0.065486140
1645453659435529984,-0.095965240,0.033231660,10.106299400,0.002285840,-0.070098050,0.040829180
1645453659440140032,-0.187386440,-0.029487970,9.593136790,-0.092658420,-0.019499660,0.058004270
1645453659440440064,-0.102666990,0.065240700,9.028046610,-0.075827540,0.005745890,0.039576000
1645453659445139968,-0.246411100,-0.277177300,10.062764170,-0.022313000,0.056968630,-0.004494190
1645453659445459968,-0.143630030,0.314871490,9.691551210,0.022619960,0.074520710,0.028803940
1645453659450160128,-0.271748570,0.251352820,10.195544240,0.003391500,-0.041587650,0.021913640
1645453659450379776,-0.271009740,0.085026370,10.001174930,-0.059953320,-0.040134790,0.048722320
1645453659455489792,-0.105616940,0.259929360,9.064893720,-0.028167670,-0.014735760,0.067712370
1645453659456440064,-0.315108300,-0.315675020,10.142469410,-0.005422530,0.025340920,0.019611420
1645453659460099840,-0.216681690,0.027848800,9.795654300,0.031866130,0.061231860,0.036740300
1645453659460499968,-0.222160290,0.124637160,9.971775050,0.032900280,-0.063624980,0.011129680
1645453659465359872,-0.144313310,0.141623110,10.020336150,-0.053167340,-0.035311290,0.030793250
1645453659466149888,0.063227330,0.621402380,9.102952960,-0.056971620,0.003594160,0.055603690
1645453659470199808,-0.157202120,0.103787870,10.262988090,-0.022442640,0.018510220,0.035220390
1645453659470599936,-0.225916390,0.207897510,10.140781400,0.047849120,0.031499570,0.051714480
1645453659475139840,-0.277359040,0.409833850,9.805395130,0.074680130,-0.096938010,0.047793980
1645453659475469824,-0.371170430,0.130152230,9.954287530,-0.044651320,-0.069460260,0.053477290
1645453659480099840,-0.107018280,0.600653830,8.971089360,-0.104098030,0.023351610,0.060115760
1645453659480409856,-0.126998290,0.255043120,10.051259040,-0.087584560,0.018867850,0.025749210
1645453659485209856,-0.009384260,0.189289480,10.194268230,0.005924700,0.040248040,0.046299400
1645453659485580032,0.185058680,0.347634850,9.570314410,0.081202400,-0.039419540,0.058180090
1645453659490109952,-0.038196120,-0.040545750,10.012392040,-0.023670500,-0.065422070,0.058446830
1645453659490489856,-0.023739860,0.104099570,9.237129210,-0.090295080,-0.011979040,0.083947180
1645453659495149824,-0.129106720,-0.275264680,9.621458050,-0.067019470,-0.007495290,0.050017240
1645453659495499776,-0.277520150,-0.416233780,10.076464650,0.012582540,0.034557280,0.029191370
1645453659500140032,-0.150537340,0.111998780,9.658931730,0.089304150,0.000822540,0.007680060
1645453659500389888,-0.339338930,0.170923170,10.167692180,-0.000798700,-0.053367020,0.010918080
1645453659505559808,-0.158906500,0.601621150,9.398187640,-0.090041760,-0.026875740,0.063173470
1645453659505900032,-0.128630360,0.309444190,9.539430620,-0.065608320,0.012582540,0.067266830
1645453659510229760,-0.319131050,-0.102386850,10.295139310,0.036387150,0.020837790,0.053943690
1645453659510669824,-0.162238300,0.213139740,9.867100720,0.138716430,-0.035265090,0.056146100
1645453659515169792,-0.226543590,0.154067200,9.937008860,0.027439000,-0.076869130,0.029581780
1645453659515519744,-0.007308230,0.474241200,9.434904100,-0.127026440,-0.012569130,0.050832340
1645453659520109824,0.034274570,0.344750730,9.746756550,-0.128401820,0.060090430,0.034235420
1645453659520429824,-0.071565080,0.092576090,10.374197010,0.006908180,0.005847220,0.021059810
1645453659525189888,0.074195120,0.449357930,9.689585690,0.135390430,-0.053597990,0.048176940
1645453659525549824,-0.080904550,0.290136670,9.589412690,0.025182970,-0.046221910,0.045749550
1645453659530139904,-0.152394650,0.351127240,9.474180220,-0.136642170,0.004273650,0.083805630
1645453659530429952,-0.187113780,0.062720760,9.942134860,-0.121512990,0.020474190,0.070312610
1645453659535140096,-0.237429710,-0.272790070,10.124156000,0.006800890,-0.007057190,0.035510950
1645453659535419904,0.013038900,0.129199070,9.490891460,0.117364540,-0.021763150,0.036016110
1645453659540140032,-0.069275470,0.179413630,9.625315670,0.022765990,0.010481480,0.024224820
1645453659540449792,0.057637120,0.311219330,9.544340130,-0.135074560,0.000080470,0.055092580
1645453659545529856,0.063461010,0.130512570,9.810197830,-0.104494390,0.012019280,0.062325600
1645453659546279936,-0.129969700,-0.293836470,9.986956600,0.036023550,0.005452330,0.027999280
1645453659550169856,-0.167518240,-0.018592810,9.720014570,0.148937090,-0.037595620,0.020550190
1645453659550569984,-0.325941030,0.225685580,9.690681460,0.056742140,-0.035509470,0.030122700
1645453659555349760,-0.192238170,0.281044300,9.349937440,-0.129175200,0.011497730,0.049571700
1645453659556099840,-0.133094120,0.225295410,9.897764210,-0.115804390,0.046180190,0.054933140
1645453659560179968,-0.219678640,-0.091664080,10.286405560,0.038979950,0.032000240,0.023320320
1645453659560449792,-0.119361640,0.096376790,9.933558460,0.173051660,-0.068737570,0.026455530
1645453659565219840,-0.297030900,0.396196040,9.663156510,0.071559850,-0.083807110,0.029030440
1645453659565529856,-0.230628580,0.399787160,9.217922210,-0.137345510,-0.018727780,0.032854080
1645453659570089728,-0.144171360,0.317042050,9.771144870,-0.138309610,0.037297610,0.044253460
1645453659570390016,-0.216579030,0.223663700,10.412815090,0.023193660,0.025701520,0.024749340
1645453659575179776,0.036506340,0.420989330,10.045401570,0.130721940,-0.060096380,0.031489140
1645453659575500032,0.131345170,0.574233830,9.624211310,0.040538610,-0.044611100,0.058098140
1645453659580169984,0.098962690,0.324314360,9.410274510,-0.134280320,0.020180640,0.050048530
1645453659580489984,0.059626930,-0.025031650,9.840454100,-0.110724570,0.014688080,0.064231460
1645453659585319936,-0.234451800,-0.161487880,10.033778190,0.031584500,-0.024287400,0.039696690
1645453659586939904,-0.182322440,-0.079891900,9.586008070,0.081376750,-0.071850420,0.015296040
1645453659590390016,-0.191831250,0.143673990,9.371816640,0.011308490,0.002853570,0.037826600
1645453659591620096,-0.266632590,0.210875390,9.695970540,-0.111535190,0.033347300,0.023420160
1645453659595160064,-0.070260670,0.081224130,10.089591030,-0.086750090,0.019440060,0.042988360
1645453659595579904,-0.187840920,0.040267980,9.953233720,0.036221750,-0.012876090,0.046050550
1645453659600100096,-0.167709370,-0.071806740,9.786859510,0.104863930,-0.065441420,0.019386410
1645453659600379904,-0.198108940,0.082911830,9.532095910,0.051867960,-0.035172690,0.035132470
1645453659605289984,-0.223335860,0.180543050,9.395773890,-0.045882170,-0.029666720,0.020390750
1645453659605799936,-0.110793020,0.087899470,9.950267790,-0.088149310,0.027306380,-0.000621380
1645453659610109952,-0.138015810,0.264000680,10.080607410,0.002926590,0.026787820,0.027559700
1645453659610519808,-0.116309090,0.323136690,10.136487010,0.091934210,-0.076742470,0.009600820
1645453659615209728,-0.004918790,0.396273610,9.650756840,0.053510070,-0.047625610,0.036059310
1645453659615569920,-0.071082040,0.444295820,9.220152850,-0.047074270,-0.006699560,0.050942610
1645453659620229888,-0.163050100,-0.066726330,10.103485110,-0.079418700,0.017832220,0.025396050
1645453659620689920,-0.256379490,-0.056828270,10.038331990,0.018212200,-0.001563130,0.038301940
1645453659625190144,-0.286294340,0.150349770,9.921905520,0.076162820,-0.110051040,0.012841820
1645453659626360064,-0.124401000,0.224745900,9.532211300,0.000008940,-0.032280390,0.020366910
1645453659630349824,0.006392750,0.404671730,9.137426380,-0.069208430,0.030100340,0.040487940
1645453659631269888,0.039433090,0.088060640,10.164477350,-0.048698480,0.029274820,0.015614930
1645453659635099904,0.059959710,0.041009780,10.049864770,0.043536730,0.008362530,0.048311060
1645453659635360000,-0.067686520,0.094987290,9.779919620,0.090202690,-0.102981940,0.041943800
1645453659640239872,-0.201629550,-0.140582800,9.714239120,0.023181740,-0.054322180,0.019623340
1645453659640539904,-0.193244100,0.019919760,9.116181370,-0.025589760,-0.014573340,0.034846370
1645453659645189888,-0.238142730,-0.040545390,9.918324470,-0.022293630,0.019909440,-0.006470080
1645453659645459968,-0.283391950,-0.037437870,10.264489170,0.028203430,0.042091310,0.004598500
1645453659650129920,-0.194089340,0.352269020,9.972277640,0.080846260,-0.079807640,0.009509920
1645453659650359808,-0.232268410,0.189567630,9.910623550,0.043712560,-0.077375780,0.015017390
1645453659655340032,-0.139249620,0.254215360,9.123602870,0.001452860,-0.029496850,0.046096740
1645453659655830016,-0.169788720,0.170048740,9.756825450,0.005984310,0.013141330,0.013443830
1645453659660189952,-0.319771650,0.028035710,10.395960810,0.032351900,0.005714600,0.011524560
1645453659660559872,-0.192834510,0.365660490,9.929058070,0.068984930,-0.100947940,0.041389470
1645453659665210112,-0.121305790,0.295807480,9.903489110,0.033557420,-0.078521680,0.016964970
1645453659665619968,0.016414280,0.367977890,9.386976240,-0.033348800,0.009380280,0.037477910
1645453659670159872,0.097861050,0.371944550,9.793981550,-0.025513770,0.014945860,0.030453500
1645453659670599936,-0.064939830,-0.044669700,10.315201760,0.035849210,0.002011660,0.020785630
1645453659675170048,-0.057958290,0.174732550,9.731256480,0.086775430,-0.090664630,0.043322150
1645453659675510016,-0.204827030,0.171456950,9.592395780,0.017534190,-0.094433120,0.024949010
1645453659680140032,-0.294513940,0.043380040,9.422177310,-0.056484350,-0.016771260,0.025779010
1645453659680429824,-0.123556420,0.124640910,9.651880260,-0.019472830,0.024071330,0.021408500
1645453659685159936,-0.191089350,-0.060457130,10.329620360,0.060306500,0.033986570,0.008705260
1645453659685400064,-0.013815510,0.101340190,10.039174080,0.080947580,-0.045040250,0.035394730
1645453659690129920,0.000136510,0.174983110,9.601315500,0.034834450,-0.076970460,0.040106480
1645453659690500096,-0.085596990,-0.141732360,9.461252210,-0.013133880,-0.043208900,0.038057570
1645453659695159808,-0.108159480,-0.211805890,9.542055130,0.026685000,0.006009640,0.023603440
1645453659695449856,-0.353090700,-0.109427030,10.019068720,0.092925150,-0.003208220,-0.015594070
1645453659700140032,-0.394498650,0.131950630,10.248707770,0.075578700,-0.065645580,-0.001452860
1645453659700399872,-0.222741530,0.622762440,9.734642980,0.006170570,-0.061073900,0.010734800
1645453659705230080,-0.195597250,0.567390380,9.725999830,-0.045616930,-0.024551150,0.017085670
1645453659705679872,-0.059843820,0.332820620,9.922837260,0.018344820,0.024729970,0.027227400
1645453659710359808,-0.094040730,0.304245050,9.826602940,0.117047150,-0.010962780,0.011013450
1645453659711079936,-0.180276770,0.171203370,10.111216550,0.096347940,-0.101655740,0.020454820
1645453659715190016,-0.050402100,0.361767860,9.475109100,-0.008134540,-0.062797960,0.041912500
1645453659715749888,-0.158346430,0.204586650,9.583926200,-0.084055950,-0.042490660,0.012442470
1645453659720109824,-0.014154350,-0.007987750,10.135155680,-0.031782690,0.002990660,-0.002487000
1645453659720470016,0.090824130,0.171207490,9.712503430,0.102530430,0.025266410,-0.004355610
1645453659725129728,-0.128279300,0.062229510,10.254396440,0.105947260,-0.071249900,-0.005540250
1645453659725519872,-0.094458590,0.219150190,9.666004180,0.000715260,-0.059504800,0.035174180
1645453659730099968,-0.152085210,0.057925420,9.088232040,-0.059705980,-0.073355440,0.029070680
1645453659730370048,-0.214901700,-0.399001420,9.918643950,-0.004157420,-0.011605030,0.010786950
1645453659735129856,-0.165886480,-0.096627140,9.570513730,0.125750900,0.045891110,-0.001926720
1645453659735389952,-0.358612780,-0.015456670,10.283056260,0.123636430,-0.071769960,-0.029470030
1645453659740300032,-0.238729360,0.346219780,10.051998140,0.004790720,-0.060740120,-0.001539290
1645453659740800000,-0.112095830,0.596773390,9.125912670,-0.050324210,-0.075849900,0.012418630
1645453659745260032,-0.121840880,0.089982580,10.082855220,-0.011616950,-0.017492470,0.013668840
1645453659745740032,0.017170230,0.282621410,9.733998300,0.122483080,0.056891150,0.008139010
1645453659750289920,-0.209482730,0.257821740,10.245505330,0.150749070,-0.088480100,-0.005629660
1645453659751520000,-0.233745810,0.225923420,10.178581240,0.019094350,-0.094139560,0.021778040
1645453659755319808,-0.104971250,0.514510990,9.019633290,-0.069361930,-0.076071930,0.022952260
1645453659756019712,-0.205009770,0.018615590,9.972792630,-0.068147480,-0.029438730,-0.008924310
1645453659760189952,0.016972150,0.174113240,9.728146550,0.072839840,0.054429480,-0.020074840
1645453659760509952,0.084778440,0.353714440,9.784169200,0.143647210,-0.039567050,-0.026501720
1645453659765159936,-0.013225560,0.171394510,10.241666790,0.025179980,-0.049890580,0.011233990
1645453659765440000,0.069026260,0.313122660,9.258278850,-0.058670350,-0.047779090,0.031530860
1645453659770159872,-0.149918200,-0.167970480,9.860431670,-0.050877040,-0.072444980,0.010170040
1645453659771030016,-0.189100910,-0.218071510,9.758609770,0.073874000,0.008921330,0.003816190
1645453659775169792,-0.218849550,0.075931240,9.546125410,0.142526640,-0.028967860,-0.027385360
1645453659775489792,-0.367918550,0.000973170,10.151977540,0.031538300,-0.033704940,-0.026026370
1645453659780099840,-0.158729000,0.359046940,9.486714360,-0.037501760,-0.042290990,-0.010526180
1645453659780439808,-0.111253660,0.258241980,9.692685130,-0.031632180,-0.070370740,-0.012490150
1645453659785199872,-0.079827690,0.125183340,9.876294140,0.049903990,0.010421870,-0.013218820
1645453659785580032,-0.017834640,0.301214160,9.745380400,0.123660250,-0.008016820,-0.015319880
1645453659790459904,-0.309951360,0.089377390,10.354277610,0.074371700,-0.070244070,-0.007301570
1645453659791440128,-0.157928710,0.414321990,9.613824840,-0.003048780,-0.098797690,0.014828150
1645453659795259904,-0.118189960,0.412153930,9.485313420,-0.062410530,-0.053077940,0.004906950
1645453659795599872,-0.111766490,0.149772540,9.873731610,-0.020019710,0.019252300,-0.009152290
1645453659800160000,0.027862310,0.319954870,9.898702620,0.106267620,0.005275010,-0.026771420
1645453659800489984,-0.069861140,0.262897610,10.069158550,0.093629960,-0.059007110,-0.017851590
1645453659805399808,0.023170050,0.328553860,9.573756220,0.003333390,-0.083282600,0.020799040
1645453659806059776,-0.074285860,0.267984780,9.498661990,-0.067514180,-0.041066110,0.011470910
1645453659810119936,-0.131878230,-0.060702930,9.737892150,-0.030884150,-0.018717350,-0.002141300
1645453659810569984,-0.012428360,-0.075719650,9.773630140,0.092563030,-0.006651880,-0.018571320
1645453659815130112,-0.094601480,0.066346760,9.819007870,0.099176180,0.003300610,-0.032971800
1645453659815389952,-0.062463070,0.193469090,9.816458700,0.006006660,-0.036540620,-0.000160930
1645453659820109824,-0.145538430,0.206845280,9.847546580,-0.065949560,-0.055034460,0.004489720
1645453659820770048,-0.112349090,0.055283570,9.434013370,-0.021092600,-0.046044590,-0.010459130
1645453659825209856,-0.094551680,-0.089851710,9.768341060,0.105203690,0.003847480,-0.016358490
1645453659826459904,-0.273370000,0.097841290,10.038820270,0.113393370,0.031426550,-0.038495660
1645453659830309888,-0.296324070,0.231189680,10.123043060,0.032685700,-0.063793360,-0.028814380
1645453659832029696,-0.198592070,0.400476100,9.941804890,-0.047896800,-0.085571420,-0.006221240
1645453659835170048,-0.031783000,0.492207710,9.220122340,-0.051233180,-0.027027730,-0.008827450
1645453659835559936,0.110471410,0.277277890,9.721101760,0.037609040,0.033612550,-0.025179980
1645453659840369920,-0.003958360,0.413303020,10.145999910,0.100992610,0.055924050,-0.018025930
1645453659840859904,-0.057122900,0.414478360,10.163012500,0.047907240,-0.070241090,-0.011794270
1645453659845159936,-0.098001790,0.308446110,9.849061970,-0.053870680,-0.105394420,0.004982950
1645453659845449984,-0.121020050,0.179599900,9.091239930,-0.079108770,-0.020699200,-0.009572510
1645453659850109696,-0.059474450,-0.132033880,9.660661700,0.014394520,0.033873320,-0.037819150
1645453659850370048,-0.049604030,0.062383540,9.910859110,0.089515750,0.064004960,-0.043289360
1645453659855279872,0.022033710,0.181500050,9.783975600,0.040538610,-0.019519030,-0.032354890
1645453659855769856,0.010823920,0.043482860,9.938494680,-0.050333150,-0.035281480,-0.006382170
1645453659860100096,-0.076206690,0.125227120,9.436869620,-0.059464590,-0.026945770,-0.000281630
1645453659860450048,-0.124047650,-0.155434790,9.705515860,0.036066770,-0.020742420,-0.027845800
1645453659865239808,-0.181887910,-0.047677890,9.724161150,0.098189720,0.043742360,-0.032897300
1645453659865710080,-0.280920090,0.223164130,9.804849620,0.055587290,0.007517640,-0.049886110
1645453659870319872,-0.333847790,0.256944420,10.133041380,-0.038464370,-0.022070110,-0.038567190
1645453659870800128,-0.209590050,0.567490460,9.560089110,-0.058314210,-0.056163980,-0.023414200
1645453659875160064,-0.020304990,0.316467340,9.569691660,-0.006785990,0.004243850,-0.042009350
1645453659875500032,-0.037080320,0.113869460,9.828635220,0.074647380,0.074508790,-0.039845720
1645453659880169984,-0.099469510,0.317566040,10.168474200,0.087724630,0.012367970,-0.033624470
1645453659880460032,-0.170457900,0.148014230,10.211578370,-0.005234780,-0.060400360,-0.012652580
1645453659885139968,-0.106759520,0.320444550,9.342737200,-0.078007580,-0.081576410,0.007863340
1645453659885440000,0.060274440,0.176871670,9.333223340,-0.066536660,0.039045510,-0.023843350
1645453659890189824,0.026229550,0.034572800,9.822598460,0.039041030,0.103104110,-0.044231120
1645453659890529792,0.030981560,0.404074880,10.151414870,0.096517790,0.008910890,-0.042702260
1645453659895119872,-0.033094940,0.212160570,9.994949340,0.001408160,-0.027029220,-0.019353630
1645453659895419904,-0.079887030,0.211131750,9.388335230,-0.085787460,-0.045356150,-0.004722180
1645453659900079872,-0.140278760,0.020273010,9.618170740,-0.061342120,0.020246210,-0.021962820
1645453659900389888,-0.213814150,-0.322292270,9.715153690,0.052306060,0.064502650,-0.042654570
1645453659905370112,-0.149393660,0.168568570,9.727421760,0.099426510,0.009372830,-0.040695060
1645453659905839872,-0.110539790,0.170996810,9.937942500,-0.008435550,0.052399930,-0.029000640
1645453659910189824,-0.124150510,0.136763480,9.776106830,-0.082878770,-0.014647840,-0.001089270
1645453659910579968,-0.047173710,0.173492100,9.837257390,-0.021955370,-0.020246210,-0.013348460
1645453659915149824,-0.082769390,-0.177430630,9.655057910,0.077812370,0.053247810,-0.029863420
1645453659915580160,-0.162495330,0.102188420,9.794245720,0.106456880,0.037817660,-0.043454770
1645453659920130048,-0.365918840,0.332459900,10.268671990,0.016416610,0.028687720,-0.053393840
1645453659920460032,-0.378931020,0.388010290,9.789061550,-0.074765090,-0.067149100,-0.016996260
1645453659925339904,-0.097077680,0.557123540,9.346151350,-0.066663330,-0.035448370,-0.020900370
1645453659925829888,-0.042687200,0.323651130,9.494450570,0.031217940,0.115649420,-0.038193170
1645453659930109952,-0.018537360,0.338743600,10.144455910,0.091877590,0.070904200,-0.023749470
1645453659930400000,-0.050111920,0.415458530,10.320624350,0.043588880,-0.001189110,-0.014546520
1645453659935129856,-0.080427510,0.120384370,9.597304340,-0.062878440,-0.067104400,0.007498270
1645453659935439872,0.027574130,0.009176450,9.171064380,-0.094456960,-0.013552610,0.009220840
1645453659940120064,-0.179316430,-0.194989610,9.518651010,0.005079810,0.091350090,-0.041587650
1645453659940409856,-0.117544270,-0.178776130,10.027673720,0.089474020,0.043092670,-0.060750560
1645453659945240064,-0.023539930,0.349487480,9.862754820,0.048013030,0.029994550,-0.035977360
1645453659945760000,-0.162797990,0.184947330,9.867059710,-0.064933310,0.014626980,-0.018404420
1645453659950129920,-0.143542420,0.105529880,9.869565010,-0.074854520,-0.015386940,-0.002610680
1645453659950520064,-0.304641540,0.018953750,9.564422610,0.060579180,-0.002682210,-0.016500060
1645453659955190016,-0.350066750,-0.156988730,9.702248570,0.114229340,0.004103780,-0.048927960
1645453659955899904,-0.270567570,0.362669500,9.516413690,0.037333370,0.061656550,-0.036865470
1645453659960130048,-0.302087220,0.365172180,10.022997860,-0.076951090,0.022178890,-0.029833620
1645453659960399872,-0.126921130,0.287869070,10.288548470,-0.087015340,-0.009419020,-0.020417570
1645453659965199872,0.104673910,0.619379220,9.450049400,0.028921660,-0.008320810,-0.021621580
1645453659965580032,0.022825170,0.257348720,9.905537610,0.071406370,0.016969440,-0.028537210
1645453659970129920,-0.008441910,0.379487340,9.733051300,0.030241900,0.070478010,-0.016367430
1645453659970409984,-0.246891450,0.354266200,9.954387660,-0.038909920,-0.032262500,-0.014872850
1645453659975109888,-0.267434950,0.052216700,10.058268550,-0.089149180,-0.048340860,-0.003507730
1645453659975399936,-0.085411030,0.344203260,8.940890310,-0.026538970,0.008684400,-0.020948050
1645453659980140032,-0.165983630,0.086279650,9.882122040,0.015185770,0.035357480,-0.052133210
1645453659980509952,0.004198900,0.315171030,10.036936760,0.013975800,0.105361650,-0.037777430
1645453659985230080,-0.008196200,0.454405780,9.821161270,-0.018522150,-0.005964930,-0.019226970
1645453659986549760,-0.112609940,-0.010335240,10.280647280,-0.088365370,-0.035758310,0.001418590
1645453659990340096,-0.001516800,0.194857940,9.002907750,-0.038999320,0.008943680,0.003597140
1645453659991309824,-0.161369170,-0.180034210,9.617707250,0.024168200,-0.010229650,-0.032795970
1645453659995139840,-0.141126920,-0.126884550,9.854917530,0.026911500,0.091674910,-0.033009060
1645453659995539968,-0.098958180,0.311296850,9.546290400,-0.008679930,0.034047670,-0.031381850
1645453660000099840,-0.212269020,-0.060913320,10.597561840,-0.093473480,-0.001706180,-0.023293490
1645453660000409856,-0.102234550,0.285364510,9.554621700,-0.041495260,0.011660160,-0.011552870
1645453660005430016,-0.268844460,0.273703100,9.683606150,0.034937270,-0.066122410,-0.027725110
1645453660006000128,-0.235520270,0.242445950,9.661039350,0.018903610,0.046083330,-0.029659270
1645453660010109952,-0.202488030,0.655000150,9.277052880,-0.026330350,0.069873030,-0.032630560
1645453660010599936,-0.394817440,0.332706990,10.688759800,-0.079493230,-0.012391810,-0.028057390
1645453660015200000,-0.116002780,0.459750650,9.823040010,-0.046545270,-0.012969970,0.002717970
1645453660015729920,0.073188680,0.466364980,9.336784360,-0.008997320,-0.042118130,-0.009788570
1645453660020119808,0.114145670,0.082639830,9.889379500,-0.044655800,0.084528330,0.002293290
1645453660020359936,0.180416290,0.128962410,9.615804670,-0.015507640,0.086106350,0.002042950
1645453660025389824,-0.032028430,-0.231527240,10.384295460,-0.019450490,-0.041963160,-0.007733700
1645453660026160128,-0.049488310,-0.142004640,9.553170200,-0.028111040,-0.030657650,0.010113420
1645453660030269952,-0.130127710,0.089684430,8.987771990,-0.044809290,-0.023940210,-0.027970970
1645453660031239936,-0.252233950,0.054790210,9.807057380,-0.067433710,0.050103670,-0.031729050
