# timestamp,accel_x,accel_y,accel_z,gyro_x,gyro_y,gyro_z
1640790260.384540,0.114663590,0.825482310,10.006402020,0.026255850,0.055268410,-0.036644940
1640790260.385160,-0.269122150,0.856302020,10.132247920,0.027303390,-0.078171480,-0.012302400
1640790260.390090,-0.636195840,0.476889040,10.036498070,-0.048309570,-0.087770830,-0.007197260
1640790260.392060,-0.372238130,0.360806320,8.924475670,-0.083994870,-0.024096670,0.010620060
1640790260.395200,-0.429284720,0.139735030,9.758327480,-0.052785880,0.023835890,0.026109810
1640790260.395810,0.017935670,-0.116587470,9.970652580,-0.022210180,0.101955240,0.031089780
1640790260.399480,0.438834970,-0.035758830,10.192399980,0.026293100,0.030054150,0.014868380
1640790260.400820,0.302794310,-0.011923420,10.713378910,-0.003376600,-0.032584370,-0.005954500
1640790260.404460,0.403161910,0.029477150,9.541167260,-0.060135140,-0.044603650,-0.012421610
1640790260.404900,-0.016488560,0.021936900,9.548452380,-0.020314750,-0.049187240,-0.033527620
1640790260.410660,-0.287170410,0.102538160,9.413034440,0.018963220,0.050616260,-0.031785670
1640790260.413040,-0.514910580,0.338357120,9.710385320,0.045049180,0.020124020,-0.011910500
1640790260.414950,-0.811285730,0.415750920,10.353662490,0.020191080,-0.031533850,0.005117060
1640790260.416420,-0.563159050,0.629582520,9.782660480,-0.035859650,-0.049136580,0.015059120
1640790260.420930,-0.396771400,0.804926630,9.802034380,-0.066107520,-0.031523410,0.012452900
1640790260.422060,-0.076244040,0.761731450,10.054497720,-0.068423140,0.071214130,-0.004087390
1640790260.424840,0.233311030,0.820050480,10.208236690,-0.023810570,0.047616660,-0.026237970
1640790260.428900,0.116624720,0.746499420,10.533553120,-0.012810530,-0.039951510,-0.029148170
1640790260.429950,0.136959570,0.481564460,9.609147070,-0.058628630,-0.080992300,-0.007055700
1640790260.430350,-0.060943010,0.126786460,9.269929890,-0.073236230,-0.081656870,-0.000540910
1640790260.434710,-0.172042240,-0.171270250,9.415976520,-0.059264900,0.026896600,0.009435420
1640790260.436960,-0.062673580,-0.258391560,9.624555590,-0.036773080,0.059367720,0.020557640
1640790260.439820,-0.161251840,-0.285959510,10.547091480,-0.004065040,0.019644200,0.013907260
1640790260.447800,-0.057556620,-0.068451180,10.278022770,-0.019280610,-0.021225210,-0.003565850
1640790260.448680,-0.129299270,0.277058300,9.873346330,-0.053024280,-0.080360460,-0.013752280
1640790260.449200,-0.196142670,0.326025370,9.577960010,-0.054642560,-0.018639860,-0.030405820
1640790260.450040,-0.107255020,0.480938940,9.198540690,-0.022341310,0.035788120,-0.036329030
1640790260.450390,-0.329831480,0.491595450,10.070026400,0.023870180,0.020925700,-0.020168720
1640790260.454530,-0.208630830,0.268777280,10.059155460,0.029154120,0.005963440,0.015267730
1640790260.455950,-0.275609730,0.240789150,10.055218700,0.011275710,-0.086215120,0.027248270
1640790260.459750,-0.240197540,0.088790130,9.820225720,-0.036908680,-0.050401690,0.025087590
1640790260.462210,0.159620940,0.097970250,9.359613420,-0.055176020,0.049541900,0.010606650
1640790260.465070,0.042534880,0.306079780,10.478173260,-0.011999900,0.070084620,-0.021955370
1640790260.465910,0.128331510,0.527147470,10.436618800,0.002560020,0.027076900,-0.027218460
1640790260.469520,0.052170040,0.790583730,9.901977540,-0.025849050,-0.102947640,-0.014708930
1640790260.470090,-0.288587780,0.656720460,9.676996230,-0.063595180,-0.065681350,-0.020243230
1640790260.475060,-0.128786940,0.444711090,8.895808220,-0.060711810,0.024046010,-0.006125870
1640790260.477290,-0.377771080,0.281854450,9.987303730,-0.006389620,0.039875510,0.013248620
1640790260.479920,-0.182956490,-0.106639090,10.219822880,0.020934640,0.068521500,0.028701130
1640790260.480810,0.105264020,-0.085906260,9.977349280,0.017064810,-0.023959580,0.024765730
1640790260.484470,-0.229460670,-0.020768910,10.338876720,-0.046652550,-0.053030250,0.008916850
1640790260.485690,0.114353310,-0.022514870,9.205971720,-0.086312000,-0.009615720,-0.018891690
1640790260.492780,-0.020903760,0.303639110,9.612059590,-0.030843920,-0.004869700,-0.052556400
1640790260.497450,-0.181829600,0.493124810,9.985738750,0.001090770,0.075013940,-0.052024430
1640790260.498310,0.041026320,0.564699410,9.746465680,0.011409820,0.019112230,-0.011809170
1640790260.502440,-0.471908030,0.548005220,10.570293430,0.013789540,-0.051797930,0.014498830
1640790260.503520,-0.277361720,0.359418330,9.472367290,-0.034385930,-0.053673990,0.034360600
1640790260.504170,-0.176494140,0.393229480,9.257208820,-0.046005850,-0.031536820,0.034804630
1640790260.506090,-0.258011040,0.309201690,10.092943190,-0.053398310,0.109952690,-0.004740060
1640790260.509490,0.163613450,0.480425030,10.195011140,-0.030872230,0.083585110,-0.013878940
1640790260.511440,-0.167917060,0.807131710,10.890716550,-0.029689080,-0.055044890,-0.030249360
1640790260.512040,-0.089211930,0.740146340,9.783869740,-0.107191510,-0.074408950,-0.030949710
1640790260.515070,0.029701920,0.589883630,8.972377780,-0.101001560,-0.047905750,-0.012606380
1640790260.518750,-0.343411330,0.341111510,9.578577040,-0.040860480,0.051283850,-0.019669530
1640790260.520710,0.012122800,0.010153900,9.509232520,-0.014634430,0.069250170,0.016312300
1640790260.521330,-0.078071490,-0.217168440,10.351622580,-0.004160400,0.014683600,0.038097800
1640790260.524660,-0.267376210,-0.362756190,10.416145320,-0.049440570,-0.015541910,0.014351310
1640790260.530730,-0.089485240,-0.133896010,9.637592320,-0.076092800,-0.078594700,0.014935440
1640790260.531430,-0.382194280,0.103723030,9.698055270,-0.066906220,-0.016425550,-0.031246240
1640790260.535690,-0.110305760,0.405884950,9.342055320,-0.057145950,0.065979370,-0.062786040
1640790260.536430,-0.089020420,0.706867280,10.030609130,-0.005096200,0.042517480,-0.024519860
1640790260.536800,-0.174276990,0.588296180,10.225939750,-0.002208350,0.033824150,-0.011163950
1640790260.539830,0.039657430,0.311903300,9.825279240,-0.003135200,-0.069701680,0.024224810
1640790260.541530,-0.345277940,0.154177780,9.926889420,0.009350480,-0.064434110,0.026227540
1640790260.544870,-0.165683080,0.045291870,9.201719280,-0.051368780,0.011731680,0.013984740
1640790260.545580,-0.130849210,0.207947220,9.969388960,-0.053440040,0.032237160,0.022207200
1640790260.550380,-0.320592050,0.400543480,10.524567600,-0.042800610,0.066122410,-0.015054640
1640790260.551780,-0.070398460,0.677565040,10.175612450,-0.058105600,-0.066442790,-0.015729670
1640790260.554620,-0.236329150,0.792612670,9.992499350,-0.055235630,-0.068739060,-0.001649560
1640790260.556380,-0.073426710,0.486691470,9.097987170,-0.055743750,0.014761090,-0.032430880
1640790260.560150,0.003114130,0.384547890,9.698694230,-0.023986400,0.015714760,-0.003774460
1640790260.562100,-0.111344230,0.057470200,10.069316860,-0.002214310,0.065851220,0.026987490
1640790260.564820,0.174151350,-0.253771070,9.775686260,-0.029139220,-0.013305250,0.016985830
1640790260.569200,-0.182998850,-0.155078350,10.334121700,-0.025466080,-0.048227600,0.033143160
1640790260.569740,-0.214678840,-0.145984130,9.368780140,-0.060798240,-0.012832880,0.009293860
1640790260.571740,-0.155386940,0.052585460,9.490519520,-0.054061420,-0.041674080,-0.021827220
1640790260.578220,-0.342211220,0.413022130,9.990336420,-0.009813900,0.058792540,-0.029757620
1640790260.578900,-0.016857310,0.529345570,9.646150590,-0.003556910,0.035610800,-0.023010370
1640790260.579410,-0.278271230,0.516840820,10.678248410,-0.003528600,-0.042487680,0.002509360
1640790260.579670,-0.298099460,0.332067550,9.730449680,0.005900860,-0.025588270,0.012786690
1640790260.587590,-0.132501660,0.214539190,9.327665330,-0.000087920,-0.099131480,0.000880660
1640790260.589840,-0.398430050,0.279137430,9.874404910,-0.001864140,0.029292700,0.007249410
1640790260.590530,0.034670060,0.395319280,9.337259290,-0.038194660,0.055581330,-0.009964400
1640790260.591000,-0.079281090,0.628254060,10.825659750,-0.058990720,-0.018860400,-0.018179420
1640790260.596360,-0.036232270,0.889708460,10.198415760,-0.072872640,0.002224740,0.002010170
1640790260.597430,0.255828500,0.651703060,9.450134280,-0.082667180,-0.067777930,-0.002749260
1640790260.599910,-0.210317730,0.436400150,10.222903250,-0.022009020,-0.005671380,-0.020645560
1640790260.601830,-0.018403320,0.255826090,9.010589600,-0.002209840,0.028416510,-0.020222370
1640790260.605210,-0.160770540,-0.130487160,9.908578870,-0.014264880,-0.052531060,0.002524260
1640790260.606710,-0.369840260,-0.230178650,10.006772990,-0.036969780,0.048819180,0.010344390
1640790260.609710,-0.057728200,-0.136381030,9.317951200,-0.066097080,-0.023211540,0.015842920
1640790260.611420,-0.484489740,-0.006272580,10.513004300,-0.052581730,-0.041528050,-0.002495940
1640790260.614930,-0.093333470,0.338947450,9.256691930,-0.045315920,0.032885380,-0.028657920
1640790260.616820,0.133331850,0.569322110,9.750315670,-0.022324920,-0.031208990,-0.030387940
1640790260.620370,-0.120532540,0.496342450,10.420794490,-0.004354120,0.056016450,-0.010411440
1640790260.624360,0.375175740,0.291315320,9.288143160,0.003319980,0.014688070,0.002142790
1640790260.625390,-0.179902600,-0.035891540,10.578621860,0.044165550,-0.059148670,0.005759300
1640790260.626990,-0.286214290,0.047042570,9.379412650,0.016811490,-0.004109740,0.002472100
1640790260.630880,-0.126396660,0.272736310,9.052985190,-0.045008960,-0.087480250,0.008654600
1640790260.631820,-0.555506350,0.511908710,10.174314500,-0.092473630,0.056952240,0.007110830
1640790260.635420,0.026158510,0.843979060,9.420958520,-0.083208090,0.083598490,0.002822280
1640790260.638110,-0.138604390,0.921905220,11.016479490,-0.030928850,-0.026154520,0.016008320
1640790260.639460,-0.131554290,0.692581650,10.177252770,-0.014720860,0.008174780,-0.004316870
1640790260.640080,0.126284730,0.352385730,9.190253260,-0.004029270,-0.075234470,-0.019890070
1640790260.644550,-0.519505260,-0.007585890,10.102936740,-0.012591480,-0.020398210,-0.015340750
1640790260.646620,-0.152208660,-0.330777940,8.688564300,-0.039000810,0.019979480,-0.003123280
1640790260.649850,-0.076538070,-0.320895850,9.734673500,-0.021626060,-0.035186120,-0.002808870
1640790260.653800,-0.196592790,0.040072650,9.963592530,-0.057154900,0.078962740,0.011298060
1640790260.656220,0.373145340,0.296633420,9.401197430,-0.075791780,-0.000901520,0.014770030
1640790260.656800,-0.096499440,0.577341380,10.783708570,-0.045317420,-0.024411080,-0.005486610
1640790260.659640,0.062590580,0.719385030,9.388303760,-0.043320670,-0.001029670,-0.013574960
1640790260.661850,0.022816550,0.424299870,9.684767720,0.000412760,-0.066347420,-0.002962350
1640790260.664570,-0.589080690,0.009954490,10.136690140,0.036934010,0.058391690,-0.020036100
1640790260.665730,-0.321115230,-0.230797540,9.261562350,0.036720940,-0.019794700,-0.030054150
1640790260.669970,-0.700560030,-0.170527560,10.376753810,0.019636750,-0.071223090,-0.007623430
1640790260.675300,-0.421850890,0.172455040,9.105452540,-0.069071360,0.014291700,-0.017288330
1640790260.680400,0.019660680,0.596158500,9.492824550,-0.104255970,-0.031833350,0.011047720
1640790260.681500,-0.128656330,0.925685940,10.528141980,-0.084479160,0.083787740,0.025811790
1640790260.681990,0.450632810,0.869829600,9.635494230,-0.031159820,0.001230840,0.009870530
1640790260.682450,0.091454300,0.569741070,10.728436470,0.050403180,-0.081272430,0.003235040
1640790260.688290,-0.222519500,0.252390150,9.623875620,0.030595060,-0.028011200,-0.015623870
1640790260.689060,-0.168445780,-0.268704270,9.071119310,-0.021538140,-0.122021120,-0.002083180
1640790260.689690,-0.583220010,-0.425879660,9.760140420,-0.034368040,0.016152860,-0.000233950
1640790260.690250,-0.061522020,-0.162832130,8.674701690,-0.072151430,0.062431400,-0.006929040
1640790260.694590,-0.014131690,0.062588450,10.260081290,-0.047075750,0.026202200,0.032244620
1640790260.696210,-0.054880280,0.414764700,10.293346410,-0.030127170,0.058522830,0.001601880
1640790260.700010,0.216223390,0.605106950,9.765405650,-0.026369100,-0.124658670,-0.001256170
1640790260.703810,-0.224122820,0.405510370,10.267515180,0.008893010,-0.060541930,0.021797420
1640790260.704700,-0.086558670,0.019623350,8.888810160,0.021511320,0.025191900,-0.026188790
1640790260.705050,-0.317053590,-0.190778370,10.077859880,0.069892390,-0.019773840,-0.020521880
1640790260.709980,-0.613905790,-0.103792720,10.121129040,0.040097530,0.050786140,-0.006799400
1640790260.710880,-0.231084140,0.041998670,9.259211540,-0.022691490,-0.107282410,-0.006859000
1640790260.718240,-0.417018410,0.484151720,10.085852620,-0.053781270,-0.075794750,0.021083650
1640790260.719220,0.066358680,0.969029430,8.826816560,-0.082434710,0.052537030,0.023697320
1640790260.721600,0.218901370,0.994842530,10.261853220,-0.051993130,-0.004842880,0.025652350
1640790260.722000,0.067247640,0.921224180,10.813260080,0.015325850,0.068943200,0.025799870
1640790260.724450,0.260867360,0.656466840,9.648140910,0.021895770,-0.078688570,-0.011457510
1640790260.727370,-0.335593370,0.219884680,10.381932260,-0.016711650,-0.132788730,-0.004895030
1640790260.729500,-0.392362480,-0.099638170,8.638583180,-0.054435440,-0.006255510,-0.019904970
1640790260.729940,-0.302690650,-0.240365000,8.943368910,-0.068302450,-0.063849990,-0.034116210
1640790260.734520,-0.542772170,-0.145800580,10.084433560,-0.050093230,0.087025770,0.015869740
1640790260.735250,0.056517830,-0.001271340,9.368117330,-0.033582750,0.049087410,0.014184420
1640790260.739780,-0.172537180,0.100697380,11.144033430,-0.013519820,-0.095257170,0.019347670
1640790260.740290,-0.080927490,0.349562170,9.913773540,-0.019228460,-0.039771200,0.022131200
1640790260.744830,0.228868190,0.135162770,9.000873570,-0.021752710,-0.097240490,-0.007042290
1640790260.745540,-0.224998850,-0.050420790,10.243880270,0.022830070,0.038416690,-0.024388730
1640790260.750040,-0.053422710,0.103258940,9.187475200,0.069685290,0.065332660,-0.025226180
1640790260.752060,-0.420088080,0.047300380,10.395749090,0.056080530,-0.132814060,-0.010390580
1640790260.754960,-0.544937610,0.422474240,9.634116170,-0.022006030,-0.059215740,0.018922990
1640790260.755610,-0.082478490,0.677785460,8.575448040,-0.090837490,-0.075921420,0.036291780
1640790260.760220,-0.309017000,0.715985240,10.543630600,-0.072860720,0.024904310,0.035531820
1640790260.762780,0.227200850,0.874311570,9.770347600,-0.003224610,0.104281310,0.017233190
1640790260.770500,0.263254910,0.686330970,10.627609250,0.039026140,-0.089316080,-0.011439620
1640790260.771890,-0.087565410,0.525906150,10.493310930,-0.008049610,-0.048840050,-0.004500150
1640790260.775580,0.077815460,0.150522770,8.622037890,-0.056871780,-0.101116310,-0.006337460
1640790260.777570,-0.463926790,-0.296877830,9.786621090,-0.058379780,-0.097855950,-0.026698410
1640790260.780760,-0.259834350,-0.183727200,8.869400980,-0.026267770,0.068460430,0.003759560
1640790260.782620,0.069927940,-0.241547540,9.543159480,0.002336500,0.011990970,0.010295210
1640790260.783340,-0.245474790,-0.191152070,11.114149090,0.003153090,0.043767690,0.022472440
1640790260.783790,0.231895880,0.199713560,9.582810400,-0.006973740,-0.050148370,0.037072600
1640790260.784410,-0.033907640,0.157744390,10.137716290,-0.010555990,-0.143279140,0.000140070
1640790260.785100,0.011969930,0.374735830,9.009413720,-0.015592570,0.038607410,-0.031089780
1640790260.789550,0.162346360,0.541159330,9.039953230,0.015550850,0.014893710,-0.036704540
1640790260.792180,-0.444400250,0.410288900,10.773445130,0.033001600,0.038354100,-0.027237830
1640790260.797620,-0.206419960,0.480771810,9.498887060,0.024141370,-0.029772530,-0.000685450
1640790260.799120,-0.423703520,0.267409470,10.131310460,0.000719730,-0.141008210,0.010198350
1640790260.799820,-0.500548840,0.242164220,9.631961820,-0.029492380,0.019645690,0.021748240
1640790260.800150,0.007533030,0.319100590,9.080426220,-0.012540820,-0.006324050,0.013045970
1640790260.805130,-0.125631660,0.335102590,10.681237220,0.007230040,0.051146750,-0.009644030
1640790260.805920,0.474139030,0.760569630,9.573764800,-0.034308430,0.051744290,-0.005899370
1640790260.810310,0.378855020,0.747476880,10.334407810,-0.069117550,-0.080776220,-0.002555550
1640790260.812460,-0.025051730,0.578450440,10.038436890,-0.085952890,-0.027866670,-0.021857030
1640790260.815080,0.084272310,0.462734760,8.646631240,-0.027200580,-0.085000700,-0.019143520
1640790260.815830,-0.459853290,-0.058658820,9.961609840,0.022141640,-0.001749400,-0.004296000
1640790260.820030,-0.411316100,-0.276796610,9.411041260,0.021746760,0.086584690,0.013898310
1640790260.821230,-0.397571000,-0.391047120,10.196228980,0.016106670,-0.057967010,0.019757450
1640790260.827290,-0.506070730,-0.321515920,10.312636380,-0.035214430,-0.013700130,0.013653930
1640790260.829750,0.145845620,0.186949490,8.789310460,-0.074037910,-0.034978990,-0.014136730
1640790260.831880,0.073406560,0.554145570,10.060238840,-0.045922400,0.009980800,-0.031405690
1640790260.833580,0.227799590,0.877296270,9.591798780,-0.023598970,0.108531120,-0.029705470
1640790260.838630,0.187380730,0.851486270,10.068955420,0.014825170,-0.068452950,-0.013515350
1640790260.839150,-0.366738410,0.370281460,10.420062070,0.035707660,-0.049796710,0.012069940
1640790260.839710,-0.314902400,0.111764010,8.869079590,0.025071210,-0.074079660,0.012311340
1640790260.840150,-0.652266260,-0.203664140,9.895091060,0.019070510,-0.065696240,0.020731990
1640790260.844520,-0.522808190,-0.127533440,9.512355800,-0.026854880,0.078265380,0.007240480
1640790260.845690,0.057515070,0.360411350,9.602149960,-0.070314120,-0.005587940,-0.007119780
1640790260.850280,-0.015305540,0.612566230,10.846273420,-0.081431870,0.046026710,0.002111490
1640790260.851050,0.381834150,0.858312730,9.512990950,-0.061078370,-0.005936620,-0.029271840
1640790260.857560,0.024743790,0.725434180,10.147422790,0.005015730,-0.138722360,-0.033208730
1640790260.858160,-0.256903230,0.400043280,9.324473380,0.029447670,-0.008910900,-0.000377000
1640790260.859630,-0.202265710,-0.099062200,8.858258250,0.020103150,-0.050777200,0.005054470
1640790260.860540,-0.586885330,-0.580812990,10.348524090,0.019805140,0.006064770,0.035656990
1640790260.864640,-0.162438240,-0.416261020,9.337106700,-0.016218420,0.054574020,0.022283200
1640790260.865350,-0.137570100,-0.196241420,10.266849520,-0.025798380,-0.078007590,0.004270670
1640790260.869700,-0.067842030,0.370921790,9.887299540,-0.049950180,0.004871190,-0.017979740
1640790260.871640,0.380949410,0.924944880,8.826781270,-0.063724820,-0.041510160,-0.030852850
1640790260.876990,0.056792270,0.729057850,10.366322520,-0.010018050,0.008189680,-0.007291140
1640790260.879480,0.075239220,0.601319430,9.620827670,0.059714910,0.062072270,-0.021734830
1640790260.881940,-0.423775050,0.300593020,10.208089830,0.081218790,-0.138631480,-0.025765600
1640790260.883320,-0.786037920,-0.032551510,9.977048870,0.020158290,-0.080743430,0.010323530
1640790260.884370,-0.526610140,-0.030946650,8.656083110,-0.050120060,-0.065118080,-0.004611910
1640790260.884780,-0.586463330,0.053350240,10.019660950,-0.068242850,-0.018735240,0.001940130
1640790260.889630,0.049868660,0.474333850,9.601119040,-0.046525900,0.114502010,0.028479100
1640790260.890310,0.435791820,0.649244900,10.289219860,-0.009469690,-0.015957660,-0.011479850
1640790260.894430,0.340072450,0.722155030,10.874363900,-0.005604330,-0.016243760,-0.014527140
1640790260.895060,0.415292200,0.751849060,9.218100550,-0.020831830,-0.080105660,-0.016622250
1640790260.899610,-0.162111920,0.150872770,9.702921870,-0.020509960,-0.131762010,-0.033161040
1640790260.900350,-0.258356600,-0.103862650,8.901713370,0.007525090,0.013817850,-0.012554230
1640790260.904480,-0.289424270,-0.248940990,9.059064870,0.017388160,0.015680490,-0.011871760
1640790260.905250,-0.617613850,-0.439097580,10.608509060,0.001017750,0.037798290,0.012041630
1640790260.910150,-0.272609200,-0.010935210,9.780992510,-0.005538760,-0.029215220,0.018323960
1640790260.911500,-0.287944590,0.176640630,10.083018300,-0.035069890,-0.127236550,-0.002495940
1640790260.914880,-0.008023890,0.422800240,9.442153930,-0.048708930,0.014369190,0.004059080
1640790260.919980,0.209203410,0.384338590,9.395071980,0.031554700,0.029151140,-0.022476910
1640790260.920600,-0.074128720,0.199707250,10.513212200,0.101363660,0.009368360,-0.053171820
1640790260.922100,0.077248330,0.354798440,9.505703930,0.098462420,-0.059315570,-0.022743640
1640790260.925070,-0.286948980,0.180975780,9.720278740,0.017252560,-0.129500050,-0.013533240
1640790260.927010,-0.375178100,0.230241270,9.369153020,-0.059530150,-0.039426980,0.006428360
1640790260.930010,-0.129966870,0.491023240,9.278193470,-0.037892160,0.002685190,0.027297440
1640790260.930910,-0.121143250,0.400684770,10.463749890,0.004807110,0.066225230,0.013028090
1640790260.934630,0.200394510,0.582928120,10.235549930,0.048027930,0.035777690,0.000883640
1640790260.935000,-0.071392790,0.568986300,10.441717150,0.051751740,-0.098140540,-0.019040710
1640790260.940060,-0.167076040,0.193517250,9.447715760,-0.010278820,-0.099170220,-0.020717080
1640790260.943970,-0.098263870,0.078010810,8.582107540,0.001090760,-0.065495080,-0.021271410
1640790260.948920,-0.363159720,-0.088488510,9.396052360,0.018787380,0.044864420,-0.019398330
1640790260.949650,-0.117693980,-0.095046540,9.605709080,0.015056130,0.061959030,0.003613530
1640790260.950200,-0.185194820,0.011346860,10.577351570,0.046026710,-0.030289590,0.019162900
1640790260.950810,-0.128188760,0.053218290,10.221457480,0.027343630,-0.065629190,0.005920230
1640790260.954590,0.070013990,0.319262530,9.311765670,0.018681590,-0.090806190,0.020484630
1640790260.955770,-0.058777190,0.256669700,9.619032860,0.017172100,0.012411180,-0.010259450
1640790260.959650,0.213637280,0.288581040,9.372488980,0.037319960,0.083275150,-0.035129490
1640790260.964150,-0.022126600,0.482699930,10.244509700,0.086741150,-0.006064770,-0.011324880
1640790260.964700,-0.243717510,0.318568740,10.097106930,0.051860500,-0.043955440,-0.016248220
1640790260.964980,-0.275699320,0.453516510,9.268958090,0.009170170,-0.129714620,-0.010326500
1640790260.969460,-0.574816580,0.471350970,9.546448710,-0.011359160,-0.049792230,-0.008067490
1640790260.970480,-0.206858410,0.413760690,9.218261720,-0.023460390,0.072295950,-0.008973480
1640790260.980710,-0.114483530,0.533528450,10.376181600,0.043016670,0.042547290,0.000096860
1640790260.981710,-0.023865580,0.584827900,10.714997290,0.042712690,0.022538010,-0.010973220
1640790260.982120,0.296363500,0.665636660,9.569952010,-0.028423970,-0.092470670,0.004923340
1640790260.985210,0.066437770,0.404247080,9.557597160,-0.051780050,-0.075156990,0.000736120
1640790260.986000,0.190484270,0.092016260,8.866992000,-0.040410460,0.047604730,-0.025667250
1640790260.986530,0.050890080,0.009996830,9.472793580,0.043772160,0.009566550,-0.012867150
1640790260.993620,-0.152416710,-0.247539010,10.209559440,0.063532600,0.043818360,-0.003452600
1640790260.995310,-0.051262700,-0.289173600,9.772332190,0.024777650,-0.012551250,0.007398430
1640790260.997110,-0.515293900,-0.161743570,10.272719380,0.009529290,-0.085932020,0.017884380
1640790260.997500,-0.306200390,-0.055644430,9.250843050,-0.022599100,-0.019055610,-0.007003550
1640790261.000200,-0.084337200,0.330596450,9.094759940,0.013078750,0.022661690,-0.028777130
1640790261.001920,-0.209984470,0.605310140,10.047512050,0.054462250,0.083740060,-0.038039680
1640790261.004860,0.037761000,0.805172800,9.788981440,0.037610530,0.011511150,-0.010350350
1640790261.005920,-0.356270880,0.632623370,10.193383220,0.028581920,-0.110442940,0.009304290
1640790261.010790,-0.311508090,0.294205730,9.304869650,0.019027290,-0.071883200,0.024965410
1640790261.012330,-0.299469650,0.101555180,9.245686530,0.037042800,-0.033994010,0.011776390
1640790261.015110,-0.403781710,-0.023996590,9.934927940,0.054059930,0.048305100,0.004564230
1640790261.017440,0.187775910,0.129885390,9.861841200,0.012119110,0.051428370,-0.012950600
1640790261.020960,0.065336090,0.521496650,10.579193120,-0.028984250,-0.012277070,-0.008672470
1640790261.021500,0.151370690,0.606808190,9.778249740,-0.061418110,-0.057876110,0.009489060
1640790261.024600,0.237165670,0.604664500,9.073330880,-0.034351640,-0.085115430,-0.016213950
1640790261.026630,-0.245067020,0.578337910,9.340258600,0.032755730,-0.003083050,-0.022691490
1640790261.032070,-0.137916920,0.332455010,9.305635450,0.036518280,0.023576620,0.002902750
1640790261.032800,-0.426961960,-0.035370880,10.345207210,0.021652880,-0.002552570,0.026789310
1640790261.034560,-0.349119160,-0.260153530,9.886631970,0.001205500,-0.016723570,0.044226650
1640790261.038320,-0.137993260,-0.274198410,9.838302610,0.002929570,-0.050804010,0.035367900
1640790261.039410,-0.257541060,-0.028079660,9.739025120,0.001257660,-0.010958310,-0.001142920
1640790261.039880,0.311623930,0.393156050,8.720858570,-0.029207770,0.003570320,-0.018893180
1640790261.044850,0.278947860,0.570864680,9.742745400,-0.021445750,0.053723160,-0.024145840
1640790261.048960,0.163881900,0.475621070,9.878251080,0.030300020,0.066390630,-0.020602350
1640790261.051480,0.011033160,0.279318930,10.206151960,0.079394880,-0.102113210,-0.017705560
1640790261.055610,-0.488412980,0.102281790,9.909189220,0.076012320,-0.074416400,-0.009185080
1640790261.056320,-0.301110890,0.006559200,8.789186480,0.003658230,-0.021152200,-0.000274180
1640790261.056920,-0.455137070,0.118646520,10.026229860,-0.020466750,0.045475360,-0.001814960
1640790261.059510,-0.247488780,0.401870340,9.893655780,-0.029890240,0.095967960,-0.002926590
1640790261.061220,0.208282980,0.711266990,9.941548350,-0.015145540,-0.039793550,0.000523030
1640790261.064520,0.017188050,0.827361110,10.290032390,-0.008545820,0.001645090,-0.006408990
1640790261.065220,0.238496360,0.722609880,8.927174570,-0.022675100,-0.035344060,-0.027318300
1640790261.070060,-0.036581800,0.408555810,9.771475790,-0.003764030,-0.055326510,-0.018444660
1640790261.074330,-0.231865820,-0.082147340,9.502974510,0.016419590,0.072635720,-0.025622550
1640790261.074870,-0.052850190,-0.398854170,9.490208630,0.037819150,-0.020851190,-0.007228550
1640790261.075700,-0.425229370,-0.378549280,10.539577480,0.033406920,0.014565890,0.001621250
1640790261.080300,0.033744550,-0.189600940,9.016076090,-0.035929680,0.027561190,-0.007845460
1640790261.083210,0.104553580,0.230970930,9.819227220,-0.047393150,-0.035859640,-0.015541910
1640790261.088720,0.039273430,0.662975310,9.727266310,-0.042319300,0.112329430,-0.027738510
1640790261.089190,0.378909770,0.738111020,9.274050710,-0.000759960,0.014333430,-0.015293060
1640790261.089520,-0.279222700,0.517951430,10.770259860,0.081790990,-0.013373790,-0.005592400
1640790261.089890,-0.270498780,0.165725290,9.242924690,0.074779990,-0.006850060,-0.024825330
1640790261.094540,-0.509165530,-0.077292820,9.712104800,0.050339110,-0.104111430,-0.003002580
1640790261.095090,-0.862806080,-0.158891110,10.007585530,0.003436210,0.049789250,-0.002560020
1640790261.100040,-0.065821160,0.090620000,8.813590050,-0.043661900,0.022950770,-0.003021960
1640790261.101780,-0.101246480,0.615530910,10.619189260,-0.038574640,0.037723780,0.018118320
1640790261.105110,0.397705700,0.783697610,9.791811940,-0.045843420,0.129562630,0.006271900
1640790261.108750,0.604627490,0.778919700,9.940081600,0.006039440,-0.067554410,-0.015239420
1640790261.109940,-0.092372630,0.664861560,10.355552670,0.045922390,-0.034339720,-0.031250720
1640790261.112420,0.168172060,0.208317830,8.363728520,0.014227630,-0.027392800,-0.028678780
1640790261.114790,-0.436561730,-0.225720320,9.862012860,0.024467710,-0.026883190,0.001105670
1640790261.118050,-0.636224030,-0.342026620,9.715909960,0.004601480,0.114555660,-0.001105670
1640790261.119440,-0.157844360,-0.232908370,9.357151030,-0.018529600,-0.018815700,0.017774110
1640790261.119960,-0.494653170,0.136907340,10.556642530,-0.031550230,0.024354460,0.014175470
1640790261.124850,0.187600450,0.450038160,9.101040840,-0.055906180,0.058890890,-0.016218430
1640790261.128570,0.122642820,0.615756390,10.074159620,-0.002828240,-0.045363610,0.005306300
1640790261.129460,-0.000517230,0.338287440,9.792013170,0.054834790,0.074030470,-0.012199580
1640790261.129860,0.276068180,0.063388730,9.212547300,0.085765120,0.001665950,-0.038559730
1640790261.137180,-0.527825120,0.079968660,10.505024910,0.080618280,-0.029186910,0.001358990
1640790261.137920,-0.447437820,-0.090490440,9.124344830,-0.013516840,-0.018808250,-0.010909140
1640790261.139580,-0.406921270,0.198613240,9.399947170,-0.058349970,-0.095884510,-0.001059470
1640790261.141800,-0.515876830,0.681468550,9.763010980,-0.058843200,0.089034450,0.020380320
1640790261.144410,0.199390620,0.675830900,9.555053710,-0.033384560,0.088785600,0.007098910
1640790261.144960,-0.033369280,0.820864740,11.171913150,0.036762660,0.017993160,-0.000354650
1640790261.150780,0.084457240,0.723042610,9.895985600,0.031676890,-0.016781690,-0.026668610
1640790261.152530,0.077977550,0.329529790,9.392702100,-0.010305640,-0.137266520,-0.016698240
1640790261.155530,-0.394552110,0.058008530,9.265494350,-0.030657650,-0.019322340,0.002171100
1640790261.156270,-0.053807040,-0.217569590,8.648027420,-0.032536690,0.033013530,-0.004674490
1640790261.159620,-0.281004190,-0.185259070,10.312072750,-0.000426170,0.035224860,0.029985610
1640790261.160420,-0.090969760,-0.037588280,9.908524510,0.000894070,0.068280100,0.026930870
1640790261.164890,0.087932390,0.065307160,10.251307490,-0.012618300,-0.062467160,0.000603500
1640790261.167320,-0.273773970,0.372373700,10.224376680,-0.015811620,-0.036223230,0.006428360
1640790261.169740,0.060446120,0.250630710,8.761901860,-0.000482800,-0.035315760,-0.024816400
1640790261.172340,-0.121446240,0.157484810,9.725033760,0.050990290,0.017200410,-0.047659880
1640790261.174430,-0.392216350,0.391488910,9.577464100,0.060001020,0.081624100,-0.037139660
1640790261.174960,-0.327054650,0.146154090,9.956099510,0.015391410,-0.090165440,-0.019483270
1640790261.179690,-0.616502640,0.148987920,10.296371460,0.004291530,-0.087912390,0.005747380
1640790261.180260,-0.178291530,0.373433650,8.846939090,-0.004771350,-0.057287510,0.019608440
1640790261.186350,-0.025424100,0.290393350,10.082189560,0.000132620,0.012660030,0.033490360
1640790261.187180,0.193781210,0.503360690,10.059610370,0.010269880,0.134266930,0.017102060
1640790261.189480,0.527074580,0.618453440,10.094823840,0.006128850,-0.031922760,-0.010490420
1640790261.190050,0.113361490,0.592658220,10.540102010,-0.005218390,-0.055225200,-0.013023620
1640790261.194520,0.064108000,0.662419320,8.555200580,-0.035278490,-0.085867930,-0.041663650
1640790261.195920,-0.258202880,0.446593020,9.201927190,-0.050775710,-0.100573920,-0.028936560
1640790261.199390,-0.510514620,0.206310540,9.410017970,-0.034810600,0.125467750,0.011999900
1640790261.200310,-0.197934760,-0.069043080,9.749807360,0.017414990,0.027264660,0.015416740
1640790261.204440,-0.452171920,-0.270219560,11.331071850,0.044743720,-0.006803870,0.037060680
1640790261.205060,0.043963490,-0.008129410,9.409992220,-0.000840430,-0.018991530,0.031155350
1640790261.209430,0.231917860,-0.011432430,9.526412960,-0.068560230,-0.091941640,0.001025200
1640790261.210330,0.188690830,0.095589390,9.395788190,-0.055588790,0.097762060,-0.016422570
1640790261.214420,0.486347020,0.343070240,8.687933920,0.022377080,0.047780580,-0.044532120
1640790261.214790,-0.096712750,0.309074250,10.718722340,0.066949430,-0.022526090,-0.023046130
1640790261.219600,-0.229451150,0.349712610,9.579508780,0.055636470,-0.011631850,0.005146860
1640790261.220290,-0.436980660,0.263170900,9.672336580,0.003308060,-0.159335140,0.012686850
1640790261.224380,-0.744732800,0.032940450,10.194614410,-0.033377110,0.041602560,0.032708050
1640790261.224750,-0.167322440,0.154527130,9.048535350,0.009882450,0.087168820,0.012069940
1640790261.229430,-0.254354690,0.368824960,10.884170530,0.045117740,0.003097950,-0.022599100
1640790261.229810,0.065111370,0.820117060,9.642497060,-0.005012750,0.065001830,-0.003586710
1640790261.234940,0.258836930,0.921376170,9.095147130,-0.068555780,-0.100547090,-0.007577240
1640790261.238760,-0.209615140,0.773435530,10.077460290,-0.091663000,-0.039432950,-0.006951390
1640790261.239400,0.061396450,0.678489330,8.597161290,-0.046645110,0.037518140,0.006675720
1640790261.239970,-0.282339270,0.067492020,10.400738720,0.029808280,-0.034850830,0.010506810
1640790261.244440,-0.375366360,-0.320999530,10.451603890,0.041879710,0.079850850,0.029508770
1640790261.244840,-0.039264790,-0.354558590,9.509809490,0.015671550,-0.054222350,0.025634470
1640790261.249380,-0.255002860,-0.470461310,10.288865090,-0.056520100,-0.057595970,0.014883280
1640790261.249740,0.340497670,-0.001518660,8.376443860,-0.080139930,0.070863950,-0.005368890
1640790261.254440,0.259393720,0.497014220,9.413361550,-0.053857270,0.005976860,-0.025628510
1640790261.255180,0.029367120,0.699326630,10.204551700,-0.028865040,0.089031470,-0.006654860
1640790261.259920,-0.014971790,0.713150500,9.620143890,0.017049910,-0.054802010,0.000083450
1640790261.260860,-0.724708500,0.257013200,10.615264890,0.043183570,-0.134058300,0.011160970
1640790261.264370,-0.689873160,-0.088228080,9.084868430,0.030638280,-0.019983950,0.017404560
1640790261.264710,-0.611073730,-0.300093230,9.369993210,0.030525030,-0.024355940,-0.000962610
1640790261.269430,-0.488787890,-0.178863470,10.191530230,-0.004370510,0.086376070,-0.003066660
1640790261.270000,0.330147480,0.394010310,9.294228550,-0.045655680,0.045636300,0.014835600
1640790261.274440,0.344362500,0.628389420,10.413715360,-0.067025410,-0.028796490,0.013865530
1640790261.275930,0.562073230,0.946208830,9.592056270,-0.060334810,0.012515490,-0.001040100
1640790261.279360,0.355618060,1.001610640,9.510643960,-0.009603800,-0.079898520,-0.004543360
1640790261.279750,-0.220311390,0.563962640,10.113060000,0.006370250,-0.015769900,-0.008487700
1640790261.284940,-0.161761700,0.194390910,9.221656800,0.009523330,0.013124950,0.008055570
1640790261.286840,-0.618524970,-0.270652740,10.328611370,0.015662620,-0.030206150,0.027547780
1640790261.290480,-0.442507950,-0.355477600,9.678832050,-0.035035610,0.022885200,0.037677590
1640790261.292240,-0.042968060,-0.176187840,9.146174430,-0.055748240,-0.022406880,0.024472180
1640790261.294370,0.038216720,0.184284490,9.806789400,-0.081495940,0.062771150,-0.001339610
1640790261.294670,0.487542000,0.608758750,9.281712530,-0.071538980,0.091429060,0.003556910
1640790261.299460,0.225094330,0.589058940,10.326169010,-0.012017790,-0.013734400,-0.007766490
1640790261.299830,0.026889700,0.433814050,9.794958110,0.018964710,-0.015978520,-0.001652540
1640790261.305040,-0.194258540,0.126943040,9.214635850,0.039619210,-0.066128380,0.004680460
1640790261.305710,-0.685304400,-0.228207230,9.909059520,0.022608040,-0.021590290,-0.002726910
1640790261.309380,-0.410345760,-0.175254870,9.142063140,-0.015188760,0.036625570,0.002057850
1640790261.309690,-0.285995600,-0.022477900,9.928880690,-0.022298100,0.025686630,0.014138220
1640790261.314410,0.008868550,0.219875530,10.173942570,-0.043335560,0.103303800,0.018605590
1640790261.314720,0.285007060,0.567952750,9.811078070,-0.020512940,-0.001308320,-0.000548360
1640790261.319980,0.002928730,0.673569920,10.272910120,0.002384190,-0.047409530,-0.013868510
1640790261.320500,0.057170600,0.713875890,9.047865870,-0.008124110,-0.017592310,-0.013780590
1640790261.324970,-0.232427190,0.530247090,9.494985580,-0.002430380,-0.048361720,-0.006341940
1640790261.325690,-0.370293050,0.240564910,9.770927430,-0.013279910,0.062346450,0.016234820
1640790261.329380,-0.213497920,0.111343580,9.704342840,-0.006650390,0.029431280,0.038285560
1640790261.329660,-0.345637080,-0.097668000,10.593046190,-0.010237100,-0.004500150,0.031131500
1640790261.334620,0.003414610,0.117702500,9.510975840,-0.038047130,0.013728440,0.012955070
1640790261.335250,0.029038780,0.309739860,9.408203120,-0.052794810,-0.039412080,-0.004801150
1640790261.339570,0.011066310,0.216180010,9.597732540,-0.044234100,0.051982700,-0.012342630
1640790261.340600,0.251126110,0.405523330,9.057363510,0.002616640,0.036655370,-0.034001470
1640790261.344390,-0.150630220,0.282563330,10.098033910,0.016838310,-0.014267860,-0.016798080
1640790261.344740,-0.125894810,0.146186020,9.665038110,0.000107290,0.014860930,0.009717050
1640790261.349440,-0.364338670,0.068967920,9.820688250,-0.009746850,-0.069701670,0.000298020
1640790261.350060,-0.453112360,-0.066000830,9.974106790,-0.019825990,-0.005033610,0.025461620
1640790261.354680,-0.054959390,-0.088204410,9.344576840,0.009477140,0.064973520,0.026924900
1640790261.356030,-0.229747030,-0.122055760,10.387386320,0.050388280,0.055362280,-0.000926850
1640790261.359780,0.055405960,0.176330630,9.841559410,0.049224500,0.010381640,-0.007708370
1640790261.360290,0.077874520,0.473055390,9.294040680,-0.002856550,-0.068311380,-0.020740920
1640790261.364420,-0.090029890,0.604214430,9.427663800,-0.049220020,-0.023595990,-0.026854870
1640790261.364780,0.029815190,0.924597680,9.266255380,-0.034792720,0.019881130,0.003680590
1640790261.369540,-0.277672860,0.729833250,10.362089160,-0.009058420,0.022685530,0.009210410
1640790261.370230,-0.122233130,0.499422010,10.364991190,0.016319750,0.031523410,0.022579730
1640790261.374380,-0.238327800,0.363807530,10.256265640,0.035217410,-0.031681360,0.012749430
1640790261.374880,-0.438123020,0.072036590,9.861457820,-0.018565360,-0.046154850,0.008283550
1640790261.379380,-0.040800680,0.127190920,8.752239230,-0.067824130,-0.025756660,0.004313890
1640790261.379730,0.029523490,0.132608730,9.046314240,-0.072270640,0.051023070,-0.021150710
1640790261.386980,0.333274190,0.202300280,9.373208050,-0.055724380,0.112935900,-0.010226670
1640790261.387940,0.261988400,0.261481820,10.380898480,0.006277860,0.031602380,0.008754430
1640790261.389440,-0.076211040,-0.067451630,10.596199040,0.026847420,-0.045239930,0.005389750
1640790261.389820,-0.112440130,-0.108727360,9.703331950,0.026446580,-0.100146240,0.019799170
1640790261.394380,-0.413367240,-0.275718600,9.554803850,0.023169810,-0.014051790,0.007177890
1640790261.394740,-0.171990870,-0.352877110,8.984353070,0.012852250,0.105918950,-0.019285080
1640790261.399750,-0.007387880,0.151634620,9.746867180,0.042830410,0.087015330,-0.011830030
1640790261.400920,-0.100402390,0.388197600,10.145550730,0.008961560,0.060918930,-0.009191040
1640790261.404740,0.118888590,0.587471490,9.506258010,-0.008589030,-0.073790550,0.008012350
1640790261.405930,-0.277062980,0.836553450,9.862979890,-0.003898140,-0.062143800,0.004181270
1640790261.409360,-0.193951350,0.561026870,9.319083210,-0.000040230,0.051952910,0.010344390
1640790261.409760,-0.196009990,0.372923880,10.177942280,0.063760580,0.044514240,0.012871620
1640790261.414360,-0.407509240,0.319310550,10.749281880,0.059874360,0.068694360,-0.014853480
1640790261.414750,0.121609540,0.239002470,9.527590750,-0.016583500,-0.025321540,0.015009940
1640790261.419910,-0.035214440,0.383682370,9.761657710,-0.048328940,-0.039319710,0.006262960
1640790261.420820,0.170602710,0.415346440,8.848495480,-0.078420340,0.064040730,-0.022578240
1640790261.424560,0.299510780,0.580441470,9.201392170,-0.036753730,0.028747320,-0.006100540
1640790261.425100,-0.175296070,0.537660540,10.520179750,0.007140640,0.071989010,-0.000649690
1640790261.429400,0.001516030,0.170042860,9.829224590,0.011026860,0.009444360,0.003986060
1640790261.429690,-0.518636410,0.023996560,10.492326740,0.022612520,-0.088870550,0.015787780
1640790261.434570,-0.588895200,-0.279186250,9.516418460,-0.019930300,0.010472530,0.003549460
1640790261.435980,-0.071247100,-0.320756140,8.777544980,-0.021386140,0.018809740,-0.007215140
1640790261.439510,-0.275444240,0.069426730,10.124405860,0.013910240,0.095978380,-0.010406970
1640790261.439900,0.349724110,0.223027210,9.412261960,-0.014591220,0.096714480,-0.002452730
1640790261.444370,0.275720420,0.386162160,10.188657760,0.007157030,-0.032046440,0.020150840
1640790261.444660,-0.056542550,0.421345500,10.057568550,0.006948410,-0.006805360,-0.011175870
1640790261.449480,0.066540410,0.340318230,9.017452240,0.007303060,-0.058478120,-0.010852510
1640790261.451110,-0.561208780,0.230673830,9.978182790,0.048936910,-0.004374980,-0.026173890
1640790261.458430,-0.294852320,0.297739710,9.481969830,0.008621810,0.085511810,-0.039404630
1640790261.459220,-0.160640700,0.384514300,10.108116150,-0.006444750,0.022104380,0.016599900
1640790261.459460,-0.320552110,0.327818570,10.581566810,-0.016526870,0.051580370,0.008787210
1640790261.459790,0.210112470,0.388587450,9.502549170,-0.024254620,-0.007700920,0.001987820
1640790261.464410,-0.194657800,0.457554580,10.054082870,0.005294380,-0.039945550,0.007253890
1640790261.464730,-0.100214700,0.351537700,9.219071390,-0.012616810,0.032795970,-0.023208560
1640790261.469530,0.110029490,0.271018030,9.195677760,-0.018355250,-0.007143620,-0.023442510
1640790261.470340,-0.174104050,0.183867960,10.037837980,-0.001065430,0.059661270,-0.008147950
1640790261.474380,0.208099190,0.003836890,9.582382200,-0.015185770,0.057663030,0.002774600
1640790261.474720,-0.051241290,-0.095302820,10.417436600,0.020666420,-0.003238020,0.025177000
1640790261.479370,-0.223689290,-0.068539470,9.936891560,0.014923510,0.008133050,-0.002290310
1640790261.479700,-0.023312530,0.029231170,9.316905980,-0.009702150,-0.047007210,0.009095670
1640790261.484840,-0.404528620,-0.037325870,9.713068960,0.015936790,0.040416410,-0.000986460
1640790261.486560,-0.124601240,0.087354180,9.140278820,0.024902820,0.071626910,-0.055311620
1640790261.489520,-0.260893110,0.332804140,10.112560270,0.031346080,0.015771390,-0.033687050
1640790261.490140,-0.300355200,0.294246460,9.829386710,0.028291350,0.015772880,-0.026021900
1640790261.494370,0.024112810,0.331744400,9.518472670,0.012056530,-0.059939920,-0.034818060
1640790261.494720,-0.255678330,0.451684090,10.058461190,0.015226010,0.022007520,0.016576050
1640790261.499520,0.012847800,0.195571450,9.523706440,0.019165870,0.065378840,0.020277500
1640790261.500010,-0.056202870,0.050499140,10.553197860,0.049787760,0.009545680,-0.001199540
1640790261.504520,-0.259319630,0.217750830,9.954561230,0.067065660,0.015379490,-0.004494190
1640790261.505290,-0.019969210,0.223019880,9.198853490,0.023530430,-0.072972490,-0.030240420
1640790261.509420,-0.304759410,0.448925610,9.707118990,-0.023829940,0.002729890,-0.037302080
1640790261.509770,-0.048737560,0.726385530,8.864209180,-0.057512520,0.053010880,-0.044979150
1640790261.514900,-0.052506210,0.653476300,10.303794860,-0.037638850,0.017228720,-0.009563570
1640790261.515960,-0.244706080,0.560328780,10.442357060,0.028039520,0.073885930,0.007432700
1640790261.519450,-0.041472710,0.375038710,9.895538330,0.046977400,-0.069478150,0.004240870
1640790261.520120,-0.313429470,0.177485790,10.281218530,0.000198190,-0.062701110,0.025193400
1640790261.524440,0.024758440,-0.082891830,8.487664220,-0.045767430,0.030952690,0.000917910
1640790261.526010,0.281470000,-0.143614920,9.363992690,-0.041465460,0.040826190,-0.036120410
1640790261.532040,0.177202540,0.060602770,9.987286570,-0.001667440,0.169458960,-0.019188220
1640790261.532600,0.317243250,0.154739170,9.675822260,0.008559230,-0.006321070,-0.016479200
1640790261.534370,-0.246183010,0.155651230,10.681301120,0.010307130,-0.106273610,-0.011864310
1640790261.534920,-0.374379340,0.187562660,8.985317230,0.000509620,-0.026038290,0.005538760
1640790261.539620,-0.475557630,0.012857380,9.420551300,0.022698940,-0.036872920,-0.002895300
1640790261.540220,-0.651995360,0.073403210,10.414699550,0.053220980,0.123430770,-0.016380840
1640790261.544350,-0.036762990,0.438223030,9.433899880,0.033539530,0.067891170,-0.006373230
1640790261.544770,-0.059562260,0.596639340,10.794769290,-0.024229290,-0.027930740,0.006589290
1640790261.549430,0.141732530,0.626629830,9.478420260,-0.055941940,0.037917500,0.009557600
1640790261.549870,0.359226850,0.621231440,8.936145780,-0.018303090,-0.081470600,-0.019547340
1640790261.554470,-0.233872100,0.446253180,10.235552790,0.025765600,0.035378340,-0.017872460
1640790261.555080,0.068346240,0.248924940,8.961397170,0.027550750,0.061182680,-0.004187230
1640790261.559350,-0.284657810,0.055273020,10.700674060,0.008642670,-0.037710360,0.004056100
1640790261.559790,-0.400655810,0.081936060,10.225441930,-0.045110290,0.059860950,0.024221840
1640790261.564470,0.139495190,0.049179530,8.875439640,-0.053499640,-0.044617060,0.015150010
1640790261.564930,-0.249049200,0.118563180,10.358871460,-0.018757580,0.026260310,-0.008612870
1640790261.569500,0.124655910,0.307383870,8.916729930,-0.007185340,0.118017200,-0.006426870
1640790261.570110,-0.013243770,0.123518450,10.105411530,0.031152370,-0.051854550,-0.013987720
1640790261.574350,-0.483570160,-0.081642420,10.424848560,0.043307240,0.030204650,-0.013256070
1640790261.574660,-0.100969640,-0.030256530,8.764561650,0.028143830,-0.052747130,-0.015570220
1640790261.579420,-0.602410730,-0.013150350,10.408845900,0.005684790,-0.049290060,-0.012183190
1640790261.579870,-0.230589550,0.309309120,9.225066180,-0.040936470,0.103116040,-0.011777880
1640790261.584470,0.195730520,0.641919140,9.596803670,-0.022979080,-0.008946660,0.004158910
1640790261.585100,-0.117415910,0.600175620,10.987508770,-0.003114340,0.079174340,0.022858380
1640790261.589440,0.313893050,0.568940700,9.315662380,0.026203690,-0.000496210,0.015014410
1640790261.591020,-0.262494210,0.314767930,10.423717500,0.052148110,-0.132025780,0.011798740
1640790261.594740,-0.468111220,0.131914970,9.277145390,0.014020500,0.007981060,0.000533460
1640790261.595600,-0.208478210,0.086797110,8.819751740,-0.014457100,-0.048857930,-0.015747550
1640790261.599410,-0.546402570,0.114580600,10.632115360,-0.033056730,0.050607320,-0.009396670
1640790261.599760,0.058240640,0.385575210,9.485052110,-0.046077370,0.099830340,-0.004225970
1640790261.604460,0.143571030,0.432273480,10.589765550,-0.003683570,-0.063861910,0.003136690
1640790261.605360,0.040468070,0.442060470,10.167471890,-0.001522900,0.033611060,0.004054610
1640790261.609380,0.388282180,0.469451790,8.807249070,-0.002302230,-0.050632660,0.009630620
1640790261.610140,-0.198846070,0.076881650,10.115790370,0.007011000,-0.015570220,0.034181770
1640790261.614420,-0.096104630,-0.182385490,9.071046830,0.005310770,0.057707730,0.014674660
1640790261.614750,-0.124017930,-0.239619360,9.733727460,0.034305450,-0.038029260,-0.009793040
1640790261.619890,-0.513787210,-0.224194210,10.483132360,0.013798480,0.049415240,-0.001008810
1640790261.621000,-0.125980030,0.041499090,9.413616180,-0.003249940,-0.032244620,-0.014644860
1640790261.624410,-0.287389400,0.314179060,10.340081210,0.005163250,-0.053019820,0.000892580
1640790261.624850,0.023677150,0.419727530,9.435023310,-0.000804660,0.097636870,0.021287800
1640790261.629390,0.139985440,0.472724530,9.907615660,0.050382320,0.015045700,0.005981330
1640790261.629700,-0.284890980,0.526211200,10.551275250,0.059750690,0.005175170,0.009685760
1640790261.634380,-0.018874080,0.548637030,9.012812610,0.010836130,-0.069084760,0.005637110
1640790261.635050,-0.244867010,0.476377870,9.797664640,-0.016951560,-0.076143450,-0.003869830
1640790261.640280,-0.196548250,0.487161490,9.487730030,-0.038906930,0.072047120,0.011649730
1640790261.640770,0.120391180,0.443523760,9.797435760,-0.023366510,0.013279910,0.020723040
1640790261.644440,-0.025464780,0.275916460,10.952727320,0.006699560,0.057883560,0.031389300
1640790261.644850,0.215941100,0.305834920,9.761773110,0.002434850,0.010617080,0.026318430
1640790261.649370,-0.095214880,0.210783750,10.133915900,-0.025445220,-0.100183490,0.019925830
1640790261.649710,-0.128268170,0.120172430,9.099952700,-0.063401470,0.008219480,0.010746720
1640790261.655840,0.153690490,-0.002408490,8.686881070,-0.033904610,0.012086330,-0.022558870
1640790261.656440,-0.171588260,0.036311800,10.312254910,0.026349720,0.098156950,-0.012034180
1640790261.660050,0.024885150,0.190879730,9.756636620,0.023812060,0.078687090,0.013025110
1640790261.660650,-0.182685910,0.082274460,10.537108420,0.002403560,-0.083404760,0.022587180
1640790261.664430,-0.371113690,0.281305370,10.050129890,-0.033524640,-0.012871620,0.035522880
1640790261.664810,-0.049322500,0.269220350,8.776371960,-0.038197640,-0.028926130,0.013951960
1640790261.669590,-0.197498740,0.064886620,10.090595250,0.012256210,0.081333530,-0.020669400
1640790261.670270,0.084398070,0.370598700,9.547630310,0.048966710,0.148534770,-0.029215220
1640790261.676820,-0.070444790,0.334084450,10.318297390,0.031602380,-0.049583620,-0.023302440
1640790261.677660,-0.246477690,0.249774840,10.182065960,-0.022649760,-0.045168390,0.009574000
1640790261.679410,-0.041578100,0.308645900,8.712276460,-0.036688150,-0.045283150,0.014500320
1640790261.679890,-0.451951000,0.139060510,10.094661710,-0.004214050,0.011129680,0.022822620
1640790261.684420,-0.203298480,0.312477380,9.879251480,0.022912030,0.135396440,0.024499000
1640790261.685000,-0.099036490,0.384873990,10.363182070,0.016194580,-0.002165140,-0.006048380
1640790261.689480,-0.227802750,0.514240090,10.724069600,-0.022852420,-0.002469120,-0.000332300
1640790261.690800,0.132880400,0.764075880,8.972424510,-0.067165490,-0.026865310,-0.007699430
1640790261.694350,-0.119108740,0.596545580,9.563122750,-0.066050890,-0.045490260,-0.026313960
1640790261.694670,-0.026736020,0.656711040,9.286651610,-0.045725710,0.087505580,-0.006234650
1640790261.699370,0.081023430,0.387351750,9.528162960,-0.019150970,0.041417770,0.018443170
1640790261.699760,-0.296821860,-0.191174120,10.910673140,-0.003069640,0.012081860,0.026936830
1640790261.704510,-0.147741790,-0.120904160,9.930847170,-0.013482570,-0.022931400,0.029130280
1640790261.705180,-0.358988460,-0.401246700,9.893274310,-0.040565430,-0.093060740,0.008538370
1640790261.709420,-0.230602960,-0.344575230,9.394781110,-0.048132240,0.034753980,-0.015181310
1640790261.710040,0.152527420,0.173788910,8.944095610,-0.020636620,0.078226640,-0.036706040
1640790261.714370,-0.043529990,0.211529310,10.241079330,-0.003220140,0.069360440,-0.024649500
1640790261.714780,0.047402910,0.498039190,9.991793630,0.015532970,0.005239250,-0.000734630
1640790261.719900,-0.260176570,0.496243510,10.001470570,0.003857910,-0.119756180,0.006011130
1640790261.720720,-0.503045620,0.190799500,9.690452580,-0.013817850,-0.052171950,0.023697320
1640790261.725000,-0.369325790,0.232568200,9.362102510,0.011555850,0.017197430,0.019975000
1640790261.726780,-0.435833390,0.078019750,10.348309520,0.018323960,0.061178210,-0.005424020
1640790261.729390,0.065213510,0.312857510,10.056783680,0.001087780,0.053831940,-0.006996100
1640790261.729710,0.221690210,0.532525660,10.120961190,-0.029334430,-0.021836160,-0.005596880
1640790261.734370,0.170062040,0.385412990,9.843115810,-0.063544510,-0.034093860,-0.012861190
1640790261.734850,0.211177300,0.563836510,9.097043990,-0.028595330,-0.044509770,-0.013346970
1640790261.740930,-0.208983690,0.422184260,9.666158680,-0.002940000,-0.009869040,-0.015020370
1640790261.742120,-0.140291420,0.136696500,9.593912120,-0.006751720,0.035539270,0.017629560
1640790261.744450,-0.278573810,-0.029711310,10.281812670,0.012108690,0.010806320,0.026117270
1640790261.744870,-0.382422830,-0.247198670,10.394646640,-0.008814040,0.005361440,0.014805800
1640790261.749360,-0.086954350,-0.108237920,9.477215770,-0.009515880,-0.039777150,0.013987720
1640790261.749760,-0.135261790,0.139253170,9.635766030,-0.017493960,-0.002814830,-0.026281180
1640790261.754460,0.186130970,0.350013730,9.137028690,-0.051148230,0.070050350,-0.020062930
1640790261.755880,0.204405370,0.465886950,9.922710420,-0.001525880,0.025714930,-0.002290310
1640790261.759490,-0.066137970,0.284326110,10.418563840,0.037431730,0.020749870,-0.020456320
1640790261.760240,-0.006269010,0.267979890,9.613273620,0.040815770,-0.068551310,-0.001525880
1640790261.764370,-0.477754710,0.183684040,10.022403720,0.013510880,-0.065939140,0.011301040
1640790261.764740,-0.372992310,-0.010681780,9.279119490,-0.035735970,0.043872000,-0.006546080
1640790261.769530,-0.218437430,0.267693280,9.743889810,-0.005456810,0.002123420,0.008571150
1640790261.770190,-0.226917070,0.315878000,10.441631320,-0.000286100,0.064496700,0.008289520
1640790261.775370,0.321853340,0.327200680,9.680507660,-0.012591480,0.029715900,-0.009548670
1640790261.776080,-0.039560470,0.533278230,10.568470000,0.012527410,-0.048200780,-0.017027560
1640790261.779330,-0.066414910,0.384218780,9.680830000,-0.015719230,-0.008362530,-0.034278630
1640790261.779740,0.059771360,0.384239020,9.070653920,-0.018142170,-0.070466100,-0.025534630
1640790261.787130,-0.193936500,0.284363810,9.774520870,0.000329320,0.042468310,-0.000299510
1640790261.788320,0.191635030,0.064038600,9.245009420,-0.014895200,0.110228370,0.016637150
1640790261.789400,-0.052393410,0.163594070,10.453057290,0.012691320,0.006596740,0.040353830
1640790261.789810,-0.121711940,0.032433420,10.279973980,-0.007644300,0.012117620,0.027182700
1640790261.794380,0.075619630,0.147054450,9.374050140,-0.037884720,-0.052666660,0.012868640
1640790261.794780,-0.387156490,0.199251950,9.964842800,-0.020661950,-0.015975530,0.001765790
1640790261.799360,-0.073340180,-0.137527510,9.129691120,0.013303760,0.090822570,-0.040622050
1640790261.799720,-0.212423590,0.017188450,9.925910950,0.072392830,0.021715470,-0.052198780
1640790261.804720,-0.373108450,0.102420880,10.212815280,0.056906050,0.021713970,-0.028061870
1640790261.805940,0.061649040,-0.011633180,9.288537980,-0.002528730,-0.040547550,-0.004979970
1640790261.809410,-0.248089340,0.261389640,10.002120020,-0.003688040,-0.017166140,0.022800270
1640790261.809880,0.066387850,0.338744220,9.564373020,-0.009796020,0.072605920,0.030229980
1640790261.814380,0.154819850,0.335338230,10.204344750,0.030352180,0.034950680,0.007478890
1640790261.814840,-0.151004300,0.557284770,10.486626630,0.047241150,0.046820950,-0.014479460
1640790261.819670,0.138308640,0.480043410,9.511441230,0.009876490,-0.015324360,-0.008934740
1640790261.821370,-0.413033190,0.388097490,9.992018700,0.013463200,-0.045044720,-0.019960110
1640790261.824400,-0.384576980,0.573151110,9.050643920,-0.013901290,-0.016678870,-0.027531390
1640790261.824820,-0.174828800,0.465863470,9.293683050,-0.059998040,0.021174550,0.010898710
1640790261.829380,-0.321513560,0.314896700,10.289910320,-0.035281480,0.119131800,0.023682420
1640790261.829780,0.126245110,0.246667370,10.378623010,0.001314280,0.042299930,0.014998020
1640790261.834860,-0.072446610,0.147495330,10.893980980,0.028912720,-0.050219890,0.016318260
1640790261.836160,0.055457300,0.078819170,9.298568730,-0.001403690,-0.049328810,-0.005927680
1640790261.841870,0.363132950,-0.054944850,8.794700620,-0.048251450,-0.007139150,-0.011640790
1640790261.842370,0.025842930,-0.090925900,9.485171320,-0.027646130,0.161314010,-0.012929740
1640790261.844400,0.082252010,-0.054008390,9.745953560,0.023186210,0.063721840,-0.003358720
1640790261.844700,-0.285268160,-0.110015300,10.732308390,0.067688520,-0.052791840,0.015012920
1640790261.849360,-0.448279650,0.116433760,9.621629710,0.033777960,-0.044327990,0.005479160
1640790261.849750,-0.288312460,0.189225550,9.492836950,-0.023870170,-0.031811000,0.006760660
1640790261.854820,-0.412493110,0.098493360,10.274292950,-0.003732740,0.132155420,-0.008517500
1640790261.856160,0.047816080,0.406582180,9.630165100,0.053115190,0.092703110,-0.031401220
1640790261.859460,0.074034360,0.490718510,10.555272100,0.072920330,-0.008682910,-0.002612170
1640790261.860120,-0.061250220,0.353824350,9.622110370,0.035095220,0.020675360,0.009173160
1640790261.864420,0.039823040,0.305768520,9.186294560,0.005824860,-0.112946330,0.000110270
1640790261.864840,-0.381048290,0.137424860,10.017638210,0.007441640,0.017207860,0.017493960
1640790261.869420,-0.114953690,0.068369420,9.253188130,0.038298960,0.097121280,-0.003276770
1640790261.869860,-0.139737580,0.364539440,10.919954300,0.058163710,0.015701350,-0.014151630
1640790261.874460,-0.136522870,0.611705300,10.562102320,-0.002306700,0.084026160,0.005856160
1640790261.874990,0.339159430,0.650852380,9.173540120,-0.055414450,-0.060211130,-0.007900600
1640790261.879360,0.017620240,0.552637580,10.028368950,-0.026622420,-0.008609890,-0.025995080
1640790261.879700,0.148645920,0.388509300,8.629438400,0.026042760,0.109489270,-0.012663010
1640790261.884420,-0.020662380,0.055794120,9.921076770,0.082120310,-0.029914090,-0.002241130
1640790261.884850,-0.410014210,-0.312044080,10.623378750,0.068892550,0.085876880,0.010056790
1640790261.889480,-0.081719770,-0.393567500,9.297800060,0.010542570,-0.005839770,0.006520750
1640790261.890140,-0.476918850,-0.350531370,10.758947370,-0.007885700,-0.050297380,-0.009088220
1640790261.894350,-0.127946560,0.003081330,9.195870400,-0.012671950,0.107030590,-0.040692090
1640790261.894670,0.206309690,0.509927030,9.283843990,0.026619440,0.003683570,-0.045062600
1640790261.899430,-0.122715380,0.690516530,10.711496350,0.042793160,0.109432650,-0.015801200
1640790261.900110,0.293218580,0.640514790,9.313178060,0.048461560,0.064910960,-0.001989310
1640790261.904730,-0.247765990,0.457524900,10.714221950,0.077579920,-0.106854740,0.002937020
1640790261.906600,-0.497680570,0.269757900,9.740820880,0.050407650,0.041607020,0.009207430
1640790261.909400,-0.060261390,0.199586640,8.691116330,0.011044740,-0.013001260,-0.006923080
1640790261.909760,-0.446987510,0.281716380,10.661457060,-0.009983780,0.083620850,-0.001017750
1640790261.914520,0.242115440,0.442039790,9.307346340,-0.039139390,0.171671810,0.002165140
1640790261.915300,0.280608000,0.439342380,10.504104610,0.001809000,-0.020764770,-0.012338160
1640790261.919370,-0.058655340,0.472407850,10.619980810,0.020509960,0.035442420,-0.019486250
1640790261.919730,0.267074580,0.326980500,8.691546440,0.003629920,-0.036244090,-0.017809870
1640790261.924420,-0.400249090,-0.096636650,10.261246680,0.030800700,-0.019627810,0.002962350
1640790261.925090,-0.277148100,-0.378641580,9.293056490,0.048270820,0.133480150,0.002874430
1640790261.929460,0.006993530,-0.434341460,9.485694890,0.067770470,0.028163190,0.008937720
1640790261.930090,-0.351061610,-0.252732810,10.751645090,0.040325530,0.090579690,0.017809870
1640790261.934320,0.268096750,0.061159120,9.103775020,-0.007118280,0.051026050,0.000201170
1640790261.934670,-0.027199790,0.381707190,10.265254970,0.009530780,-0.048394500,-0.017078220
1640790261.939780,-0.071209470,0.626076340,9.737325670,0.018258400,0.107376280,-0.013057890
1640790261.940300,0.084634080,0.459998790,9.549238200,0.074918560,0.023154910,-0.026042760
1640790261.944380,-0.613880690,0.330962930,10.916182520,0.110876580,0.030820080,-0.036114450
1640790261.944680,-0.381220610,0.259004060,9.245013240,0.072859230,0.027148430,-0.017844140
1640790261.949440,-0.511826040,0.035894330,9.736127850,0.038668510,-0.072723630,-0.008547310
1640790261.949800,-0.521784660,0.268000990,9.623715400,0.000174340,0.071136650,0.001840290
1640790261.954780,0.106552330,0.519472060,9.178256990,-0.017055870,0.051282350,0.008860230
1640790261.955900,-0.002883980,0.563804570,10.900421140,0.007154050,0.076265630,0.011977550
1640790261.959410,0.284819130,0.700920820,10.264894490,0.021226700,0.080783670,-0.005030630
1640790261.959880,0.101766380,0.613453270,10.466250420,0.032690170,-0.091114640,-0.021056830
1640790261.964380,-0.308639790,0.431382890,9.887051580,0.010389090,-0.045447040,-0.031144920
1640790261.964820,-0.066120620,0.208630070,8.285164830,-0.015968080,-0.018578770,-0.042943660
1640790261.969350,-0.287603590,-0.038746980,9.577249530,-0.001852210,0.059041380,-0.018480420
1640790261.969640,-0.083598670,-0.036704270,9.653187750,0.006292760,0.168016520,0.016559660
1640790261.974310,0.062886420,-0.107937000,10.545296670,0.029329960,-0.006452200,0.020867590
1640790261.974730,-0.240369470,0.091693630,10.869401930,0.007906560,-0.033058230,0.025677680
1640790261.979860,0.053994940,0.216827360,9.038098340,-0.037011510,-0.055247550,0.004518030
1640790261.980670,-0.100375030,0.062861670,9.628427510,-0.004436080,0.001510980,-0.039154290
1640790261.984410,-0.123888870,0.223244820,9.426653860,0.051705550,0.153857470,-0.061860680
1640790261.984760,-0.052161270,0.220524770,9.822566990,0.091972950,0.008003410,-0.046046090
1640790261.989500,-0.311315150,0.036208370,10.512363430,0.078503790,-0.023391840,-0.010575360
1640790261.990210,-0.100184980,0.218081010,9.157312390,0.005885960,-0.033606590,0.007362660
1640790261.994860,-0.229129280,0.115785130,9.937448500,-0.018174950,-0.033067170,0.034019350
1640790261.995700,-0.171780290,0.139685440,10.050251960,0.021892790,0.125879060,0.028684740
1640790261.999410,0.166436280,0.499033090,9.865728380,0.072811540,0.026328860,-0.022377080
1640790261.999760,0.008737810,0.604239460,10.646555900,0.056318950,0.011594590,-0.016844270
1640790262.004710,0.259039550,0.670726600,9.254825590,-0.004832450,0.034044690,-0.018560890
1640790262.005750,-0.089302750,0.495577220,9.827748300,-0.005017220,-0.065349040,-0.033131250
1640790262.009450,-0.271602300,0.359649510,9.666226390,0.016753370,0.032636520,-0.006553530
1640790262.010610,-0.081281550,0.263402400,9.080597880,0.029195850,0.034673510,0.011597570
1640790262.014370,-0.337538330,-0.016270070,10.609950070,0.024178620,0.049076980,0.019373000
1640790262.014810,-0.068192790,0.027278700,9.946285250,0.007341800,0.081080180,0.034709280
1640790262.019380,0.061225180,0.028761740,9.863460540,0.006608660,-0.034062560,-0.003071130
1640790262.019810,0.173154130,0.084288720,9.712489130,0.004422670,0.033369660,-0.017628080
1640790262.024460,0.569484770,0.481102560,8.721526150,0.002193450,0.104312600,-0.023406740
1640790262.025310,0.096596320,0.311469970,10.309169770,0.016018750,0.066955370,-0.017714500
1640790262.029420,-0.051450260,0.168989670,10.164256100,0.040522210,0.043852620,0.000442560
1640790262.029850,-0.358509570,0.010921680,9.761902810,0.071828060,-0.077942000,-0.011543930
1640790262.034380,-0.754308820,-0.396898570,9.818161960,0.063171990,-0.002327560,-0.008441510
1640790262.034730,-0.500423310,-0.311631110,9.232736590,0.073519350,0.064605480,-0.008267160
1640790262.039560,-0.309142950,-0.356191610,9.985240940,0.079923870,0.079661610,-0.013676290
1640790262.040170,0.320143220,-0.310744670,9.928480150,0.086218130,0.136062500,0.017389660
1640790262.044480,0.535221460,-0.218455540,10.350585940,0.142307590,0.085423890,0.020310280
1640790262.045000,0.278794830,-0.433762850,10.391521450,0.187039390,0.007501250,-0.003874300
1640790262.049370,0.181145560,-0.239010110,9.400437360,0.211350600,-0.060513620,-0.005829330
1640790262.049750,-0.402215540,-0.111198490,9.412941930,0.200413180,0.010623040,-0.007465480
1640790262.054760,-0.339741740,0.086611490,9.099249840,0.152981280,0.088036080,-0.006040930
1640790262.055740,-0.313160300,0.710731330,9.962989810,0.141404580,0.111323610,0.015532970
1640790262.060620,-0.215150040,0.863274750,10.272761340,0.121223950,0.141094640,0.013135380
1640790262.061260,0.252283130,0.918810900,10.038012500,0.154563780,0.033877790,0.017493960
1640790262.064330,-0.047323390,0.916000720,10.163356780,0.186032100,0.010424850,0.020596390
1640790262.064620,0.160906720,0.277374630,8.863367080,0.167043510,0.056613990,0.018505750
1640790262.069340,-0.092764420,-0.316764740,9.712440490,0.206139700,0.059765580,-0.001315770
1640790262.069680,-0.490768400,-0.595007480,9.830571170,0.205601770,0.103753810,-0.045944750
1640790262.074520,-0.316001710,-0.641230700,9.423739430,0.176551940,-0.027719150,-0.033873320
1640790262.075500,-0.732280250,-0.315592080,10.241112710,0.167974840,0.002007190,-0.032860040
1640790262.079330,-0.306941930,0.171448050,9.236103060,0.129501540,0.059071180,-0.034774830
1640790262.079750,0.000711040,0.767691910,10.079092980,0.151234870,0.047583880,0.016984340
1640790262.084530,0.020576320,0.934590280,10.537050250,0.189253670,0.173114240,0.018517670
1640790262.084960,0.497326340,1.053124070,9.847632410,0.191387520,0.034573670,0.007580220
1640790262.089470,-0.007539440,1.166177390,10.511275290,0.179654360,-0.036387150,0.017751760
1640790262.090090,0.097773760,0.799098250,8.627878190,0.107762220,0.019192700,-0.011438130
1640790262.095290,0.046528230,0.461560130,8.842047690,0.083726640,-0.022207200,-0.021824240
1640790262.095830,-0.390331630,0.294442950,9.849207880,0.119338940,0.148814920,-0.016371910
1640790262.099350,0.036118030,-0.032536840,9.486701010,0.114835820,0.115019090,-0.018489360
1640790262.099710,-0.369313390,-0.024894370,11.221158980,0.137041520,0.003059210,0.009256600
1640790262.104680,-0.383968620,0.001858650,10.088421820,0.091385840,0.029362740,-0.011561810
1640790262.105980,-0.034610140,-0.059560020,9.060000420,0.074407470,-0.059454140,-0.017906730
1640790262.110370,-0.400413660,0.076185270,9.693814280,0.126132370,0.076724590,-0.042209030
1640790262.111850,0.130332440,0.165206300,8.730730060,0.142481910,0.153416400,-0.058890880
1640790262.114380,0.040435890,0.253398180,10.355188370,0.181184720,0.032368300,-0.013275440
1640790262.114740,-0.123227220,0.337972670,10.336589810,0.161693980,0.039771190,-0.011865800
1640790262.119390,0.286890090,0.423710940,9.231608390,0.091195110,-0.057691350,0.010068710
1640790262.119900,-0.234850210,0.493970870,10.232846260,0.073230260,0.042912360,0.033116340
1640790262.124440,-0.032271270,0.367471610,9.513205530,0.089670700,0.158065540,-0.022876260
1640790262.125060,-0.137123840,0.602099120,10.316421510,0.134485970,0.027227400,-0.042684380
1640790262.129400,-0.578958150,0.755847330,10.251675610,0.135347260,0.026038290,-0.044620040
1640790262.129790,-0.249276190,0.652732850,8.860538480,0.064332780,-0.051091620,-0.063915550
1640790262.134380,-0.682268500,0.736180420,9.653669360,0.032246120,-0.038230420,-0.020900370
1640790262.134700,-0.456503690,0.464614000,9.206814770,0.024290380,0.099205980,-0.002646450
1640790262.139570,0.001765360,0.067641200,10.074448590,0.074151170,0.061126060,0.016739960
1640790262.140390,-0.225874170,0.040158920,11.187241550,0.138324500,0.052779920,0.015813110
1640790262.144430,0.407041550,-0.066226870,9.663675310,0.084736940,-0.021626060,-0.020603840
1640790262.144870,0.503631350,-0.011779610,9.546212200,0.026936830,-0.036016100,-0.023005900
1640790262.149340,0.453291090,0.149122800,8.861955640,0.012189150,0.111195450,-0.049050150
1640790262.149760,0.579913080,0.182539460,9.063807490,0.044609610,0.082629930,-0.047014650
1640790262.154760,-0.181499840,0.262858660,10.357522960,0.135672080,0.065509960,-0.000275670
1640790262.157640,-0.429041950,0.182339430,9.773777010,0.134237110,-0.033181910,-0.004501640
1640790262.159440,-0.834891920,0.136095370,10.120047570,0.086417790,-0.097070630,0.006283820
1640790262.159890,-1.074676630,0.117340240,9.597558980,0.044012070,0.056622920,0.002780560
1640790262.164390,-0.536923770,0.181143490,9.474214550,0.052666670,0.051172080,-0.046472250
1640790262.164720,-0.376029460,0.671757700,10.391510960,0.085064760,0.099259610,-0.041416280
1640790262.169440,0.235025020,0.947576640,9.431414600,0.067460540,0.057102740,-0.031363970
1640790262.170090,0.411947880,0.880479690,10.128092770,0.020392240,-0.060696900,-0.031051040
1640790262.174510,0.211529300,0.875867900,9.625269890,0.002619620,0.003580750,-0.007674100
1640790262.175310,0.386841240,0.382402900,9.218557360,0.022055210,-0.031670930,-0.001727040
1640790262.179410,0.019103800,-0.010422030,10.551309590,0.084616250,0.060312450,-0.000050660
1640790262.179780,0.124762020,0.067282860,9.601040840,0.067792830,0.102882090,-0.003670160
1640790262.184390,0.102604640,-0.092318260,10.277302740,0.003692510,0.000111760,0.008124110
1640790262.184920,-0.145644980,0.135472480,9.866006850,-0.035367910,0.062856080,-0.018689040
1640790262.190150,0.007904650,0.492912260,8.630294800,-0.045078990,-0.016658010,-0.039227300
1640790262.192200,-0.533492090,0.433839680,10.141895290,0.004969540,0.006011130,-0.008602440
1640790262.194680,-0.602185070,0.317542400,9.331120490,0.074964760,0.085851560,-0.014328960
1640790262.195020,-0.607029680,0.166815970,10.167964940,0.095002360,-0.067242980,-0.035625690
1640790262.199360,-0.655796410,0.064579430,10.551484110,0.043468180,0.049284110,-0.009980800
1640790262.199690,0.142523240,0.100659790,8.942535400,-0.022646780,0.026996430,-0.030906500
1640790262.204460,0.297223450,0.244134550,10.218870160,-0.036497420,0.026220080,-0.027294460
1640790262.207220,0.636434380,0.534955740,9.445562360,-0.014066700,0.158393400,0.002141300
1640790262.210370,0.750360250,0.452581520,9.571642880,0.035312780,-0.019092860,-0.005745890
1640790262.210780,-0.045921510,0.278228670,10.736557960,0.056238480,-0.006455180,-0.012204050
1640790262.214350,-0.222306240,0.266292870,8.972363470,0.029030440,-0.010910630,-0.007723270
1640790262.214730,-0.816882370,-0.086468400,10.325818060,0.015242400,-0.073201960,-0.023335220
1640790262.220100,-1.034664390,0.041554560,10.092494960,0.002953410,0.095073890,-0.022616990
1640790262.220570,-0.396355630,0.353989360,9.171422000,-0.010478500,0.014176970,-0.012822450
1640790262.227100,-0.481335250,0.283703090,10.826253890,-0.005911290,0.047935550,-0.008317830
1640790262.227920,0.079694190,0.671602130,9.340656280,0.006698070,0.084236260,-0.026685010
1640790262.229390,0.173993990,0.768187110,9.823259350,0.000859800,-0.110007830,-0.012114640
1640790262.229690,-0.072681500,0.391143560,10.015723230,-0.021021070,-0.001052020,0.010037420
1640790262.234630,0.327895850,0.196984830,8.633738520,0.008347630,-0.001657010,-0.002473590
1640790262.235260,-0.072375600,-0.191657130,10.601428030,0.027312340,-0.007404390,-0.005784630
1640790262.239820,0.027715430,-0.310213710,9.933821680,0.035221870,0.119110930,-0.001221900
1640790262.240540,0.191116010,-0.123366250,9.766242980,0.026682020,-0.058788070,-0.041095920
1640790262.244400,-0.215663430,0.076720950,10.330718990,-0.037471950,-0.009091200,-0.022026900
1640790262.244800,0.102070940,0.298324170,8.595885280,-0.035463270,0.042250760,-0.008057060
1640790262.249380,-0.408398090,0.262627600,10.174381260,0.030463940,-0.030930340,-0.025686620
1640790262.250420,-0.722303450,0.465321630,10.045029640,0.068295000,0.031434000,-0.025530160
1640790262.254490,-0.552504660,0.517096160,9.437656400,0.059145690,-0.090307000,-0.024823850
1640790262.254970,-0.766181110,0.404294190,10.551604270,-0.016056000,-0.039581950,-0.023718180
1640790262.259470,-0.170163740,0.512001750,9.364920620,-0.034330790,0.062939530,0.020872060
1640790262.260900,0.065815890,0.304521050,10.254858020,0.006425380,-0.018326940,0.017592310
1640790262.264330,0.235601470,0.259023160,10.283331870,0.027617820,0.038485230,0.012549760
1640790262.264690,0.551181380,0.554854990,9.272797580,0.013895330,-0.045268250,-0.000739100
1640790262.269390,0.054546480,0.387375030,10.186804770,-0.052322460,-0.054197020,-0.013412540
1640790262.269780,0.030971470,0.407285900,9.235480310,-0.073573000,-0.006769600,-0.017946960
1640790262.274480,-0.130893110,0.378576280,9.537379260,-0.017794970,-0.054092720,-0.022691490
1640790262.275230,-0.299426650,0.202321870,10.216977120,-0.005149840,0.064519060,0.000385940
1640790262.279410,-0.172693630,0.189931300,9.818806650,0.016441940,0.032731890,0.020356480
1640790262.279790,-0.435148270,0.035254640,10.577084540,-0.000752510,-0.062018630,0.005933640
1640790262.284430,-0.222443790,0.087615860,9.316492080,-0.045844910,-0.025354320,0.028333070
1640790262.284830,-0.207006010,0.007447970,9.187841420,-0.026418270,-0.045189270,0.004240870
1640790262.289600,-0.384181260,0.075479160,9.855636600,-0.019855800,0.033243000,-0.047335030
1640790262.290690,-0.138956190,0.465379480,9.325578690,-0.006349380,-0.006192920,-0.042009350
1640790262.294830,-0.290066150,0.479939430,10.361506460,-0.006483490,-0.073437380,-0.035661450
1640790262.295210,-0.013814510,0.545660020,9.882007600,-0.042073430,-0.010837620,-0.007028880
1640790262.299340,0.066523250,0.492409860,9.919188500,-0.032795960,-0.040392580,0.032417470
1640790262.299720,-0.117607160,0.034727720,10.511559490,-0.002659860,0.001093750,0.041987010
1640790262.304310,0.104223940,0.029249470,9.490768430,0.041475890,-0.014479460,0.019612910
1640790262.304620,-0.253853770,0.233296100,9.956052780,0.020729010,-0.087957080,-0.009128450
1640790262.309430,-0.199645520,0.423355490,9.310420990,-0.098823030,-0.021491950,-0.021833190
1640790262.309950,-0.044317010,0.773382720,9.047189710,-0.131623460,-0.053660570,-0.023944680
1640790262.314740,-0.252184360,0.880681510,10.192315100,-0.106896460,0.015874210,-0.020693240
1640790262.315240,0.098589370,0.704886560,9.858298300,-0.043798990,0.047498940,0.013355910
1640790262.319400,-0.234866750,0.316686690,10.717948910,0.035160780,-0.073635590,0.021688640
1640790262.319760,-0.267657880,-0.067375200,10.184051510,-0.007089970,-0.084540240,0.023087860
1640790262.324440,-0.106841980,-0.433922380,8.884799960,-0.053726140,-0.080618270,0.046980380
1640790262.324950,-0.384081630,-0.737869380,9.536594390,-0.054717070,-0.011914970,-0.000466410
1640790262.329390,0.030546810,-0.460150570,9.205047610,-0.047367810,0.058615220,-0.032217800
1640790262.329750,0.032928470,0.026628360,9.972386360,-0.002866980,-0.014793870,-0.035670400
1640790262.334320,-0.016318920,0.433787290,10.422985080,-0.019271680,-0.029847030,-0.045830020
1640790262.334580,0.101813370,0.936664820,9.814335820,-0.060465930,-0.081668800,-0.004412230
1640790262.339710,-0.389024850,0.847464800,10.220668790,-0.044253470,-0.072680410,0.016568600
1640790262.340710,-0.215266930,0.498965470,9.680356980,-0.010338430,-0.013074280,0.005348030
1640790262.344510,-0.323483820,0.431875650,9.794985770,0.049048670,-0.019752980,0.001530350
1640790262.345240,-0.391439620,0.360120060,9.938812260,0.006508830,-0.029788920,-0.012239820
1640790262.350120,0.080398000,0.461126300,9.242442130,-0.101676580,-0.057129560,-0.009885430
1640790262.350610,0.120685120,0.584732950,9.414272310,-0.156332570,-0.030566760,-0.004428630
1640790262.354340,0.346035690,0.458828600,9.517613410,-0.152441840,0.036877390,0.012296440
1640790262.354730,0.281597320,0.169904930,10.280108450,-0.024740400,0.019022820,0.016957520
1640790262.359460,-0.127334980,-0.165750000,10.537557600,0.068557280,-0.056432200,-0.004504620
1640790262.360260,-0.147992240,-0.278407040,9.832760810,0.012831390,-0.126151760,0.002098080
1640790262.364300,-0.457481030,-0.521689770,9.492853160,-0.073432910,-0.044696030,0.007075070
1640790262.364770,-0.357071730,-0.570665780,9.115573880,-0.083740040,0.024098160,-0.031130010
1640790262.369360,-0.292032150,-0.053474140,9.945565220,-0.014297660,0.014474990,-0.023113190
1640790262.369790,-0.168653980,0.507674460,9.773647310,0.034777810,0.009924170,-0.012958050
1640790262.374430,0.158015820,1.077922110,9.794947620,-0.035414100,-0.084054460,-0.012524420
1640790262.375000,0.046170850,1.460666660,10.173382760,-0.125630200,-0.027196110,0.037728250
1640790262.379560,0.194551770,1.010635730,9.624498370,-0.128191720,0.020580000,0.036393110
1640790262.380260,-0.077963050,0.611980560,10.704191210,-0.017467140,-0.050368910,-0.008444490
1640790262.384410,-0.311654630,0.354350300,10.048641200,0.045324860,-0.030386450,-0.007009510
1640790262.384860,-0.150705220,-0.151080280,9.062999730,-0.026217100,-0.105349730,-0.022041790
1640790262.389560,-0.450677420,-0.239382100,9.707133290,-0.112687060,-0.033247470,-0.015084450
1640790262.390140,-0.072978240,-0.182853790,8.754210470,-0.151376430,0.047552590,0.001505020
1640790262.394350,0.125049580,-0.162348030,9.929610250,-0.101165470,-0.020655990,0.002810360
1640790262.395060,0.101037760,0.138967380,10.586319920,-0.012697280,0.068770360,-0.005519390
1640790262.399350,0.334219130,0.403547020,9.927571300,-0.011584160,-0.056220590,-0.008490680
1640790262.399750,-0.201634650,0.253640800,10.749783520,-0.040990110,-0.119478990,-0.003668670
1640790262.404320,-0.218940480,-0.027406780,8.999437330,-0.053648650,-0.017401580,-0.017315150
1640790262.405230,-0.212992070,-0.276471200,9.047561650,0.008158390,-0.055365260,-0.023764370
1640790262.409420,-0.751959320,-0.304767490,10.250917430,0.073567020,0.053766360,-0.002548100
1640790262.411760,-0.247227120,0.161639620,9.150768280,0.041317940,-0.046934190,0.000430640
1640790262.414350,-0.277005230,0.748480920,10.355380060,-0.091440980,-0.119815770,0.012181700
1640790262.414690,0.043009350,1.113366600,9.666018490,-0.200645630,0.063693530,0.034171340
1640790262.419400,0.522422670,1.038926120,9.857625010,-0.119684640,0.003288690,0.001324710
1640790262.419770,-0.035496670,0.911077680,11.380031590,0.045672060,0.002515320,-0.034955140
1640790262.424450,0.114683840,0.733732160,9.280556680,0.089690070,-0.073659410,-0.035692750
1640790262.425140,-0.251951340,0.190901520,9.423068050,-0.020511450,-0.196610420,-0.018481910
1640790262.429380,-0.584782060,-0.212023870,9.049201970,-0.165876760,0.012584030,0.015838440
1640790262.429750,-0.031190840,-0.449565230,8.655577660,-0.162509080,0.027433040,0.033867360
1640790262.434330,-0.291647820,-0.602380390,11.212201120,-0.032229720,0.045162440,0.023743510
1640790262.434690,0.314720150,0.010499030,10.142839430,0.031004850,0.046230850,-0.011672080
1640790262.439500,0.439217690,0.436809240,10.235587120,-0.037957730,-0.115977230,-0.007578730
1640790262.440170,-0.000868340,0.296223760,9.983113290,-0.123925490,-0.008830430,-0.005264580
1640790262.444800,0.220956240,0.205105200,8.503047940,-0.063122820,-0.029768050,-0.033149120
1640790262.445370,-0.571768760,0.074128030,10.124334340,0.070625550,-0.048965220,-0.026188790
1640790262.449370,-0.712502000,0.096276340,9.329632760,0.082421310,0.003694000,-0.013501940
1640790262.449780,-0.474031630,0.374221920,9.714650150,-0.015434620,-0.112538040,-0.005456810
1640790262.454720,-0.585947160,0.394748000,10.672208790,-0.138369200,0.033387550,0.028955940
1640790262.455830,0.154313620,0.444752630,9.604846000,-0.120857370,0.051471600,0.015415250
1640790262.459620,0.189007770,0.564321990,10.955445290,0.003556910,-0.031505530,-0.027588010
1640790262.460390,0.347749560,0.779073240,9.618845940,0.036843120,0.011092420,-0.035378340
1640790262.464340,0.496217250,0.820449350,9.001730920,-0.023612380,-0.116442150,-0.032490500
1640790262.464650,-0.142742650,0.560564700,9.934287070,-0.140081360,-0.031515960,-0.019346180
1640790262.469360,-0.050519090,0.277155550,8.862964630,-0.159862640,-0.013148790,0.012160840
1640790262.469740,-0.341061350,-0.294364420,10.446005820,-0.037245450,-0.059084600,0.028125940
1640790262.478110,-0.369042400,-0.501024370,10.310160640,0.056716810,0.078527640,0.011639300
1640790262.478970,-0.062629030,-0.316416740,9.874161720,0.046056510,-0.044979170,0.012704730
1640790262.479420,-0.276284400,-0.239722190,10.656538960,-0.058847670,-0.029826170,0.011384490
1640790262.479740,0.268556120,0.034810990,8.470291140,-0.124970100,0.011703370,-0.011505190
1640790262.484440,0.190205010,0.338594410,9.328089710,-0.059412420,-0.047427420,-0.052370140
1640790262.484950,0.006826830,0.639072360,9.697992320,0.008699300,0.101181860,-0.045062610
1640790262.489530,0.041743980,0.778682950,9.635431290,0.043249130,-0.051380700,-0.031168760
1640790262.490330,-0.555006560,0.652975380,11.205831530,0.001196560,-0.097730740,-0.010900200
1640790262.494410,-0.234606860,0.428565590,9.338467600,-0.084015730,0.002761190,0.035044550
1640790262.494870,-0.258420680,-0.141081540,9.910325050,-0.040780010,-0.028583400,0.027242300
1640790262.499360,-0.425599750,-0.241553990,10.375297550,0.030258300,0.095146890,0.007236000
1640790262.499720,0.082973090,0.103368030,8.914875980,0.028049940,-0.024889410,-0.011388960
1640790262.504390,-0.154216770,0.333137750,9.989450450,-0.042395300,-0.106032210,-0.032457710
1640790262.505030,0.266411900,0.833745300,8.856425290,-0.157773480,0.048473480,-0.029788910
1640790262.509590,0.220154400,0.863048320,9.757887840,-0.135964170,-0.002355870,-0.010618570
1640790262.510210,-0.291338150,0.571798260,11.359260560,-0.014434760,0.039163240,0.004851820
1640790262.514300,-0.054205250,0.461695610,9.813490870,0.059944400,-0.049912940,-0.002992150
1640790262.514600,-0.405746130,0.072149510,10.087406160,0.027398770,-0.128912940,0.021991130
1640790262.519400,-0.328678760,-0.225110280,9.155562400,-0.083346670,0.042064490,0.027792160
1640790262.521100,0.018396320,-0.314918640,8.647422790,-0.100779530,0.012367970,0.005702670
1640790262.524430,-0.091966490,-0.167017890,10.089527130,-0.054918230,0.039559600,-0.014233590
1640790262.527680,0.372887880,0.293103130,9.473737720,-0.028984250,0.076815490,-0.004570190
1640790262.529420,0.197249830,0.427667740,10.387218480,-0.021797420,-0.071518140,-0.008666520
1640790262.529790,-0.109979840,0.505313580,10.423604970,-0.047861040,-0.032787030,-0.004236400
1640790262.534350,-0.093248870,0.352022200,9.433915140,-0.030203160,-0.043295320,0.000828500
1640790262.534720,-0.477452750,-0.065741840,10.023050310,0.026337800,-0.009574000,-0.016842780
1640790262.543940,-0.379728850,0.085113930,9.480318070,0.025846070,0.053937740,-0.012739000
1640790262.544800,-0.451174200,0.129330080,9.638425830,-0.009851160,-0.015479330,-0.000984970
1640790262.546120,-0.342577370,0.338660630,9.747449870,-0.063668200,-0.053308900,0.007791820
1640790262.546470,0.017897570,0.810001430,9.300926210,-0.113874670,-0.022502250,0.011552870
1640790262.549360,0.057718830,0.870917740,9.907815930,-0.103653970,0.038823490,0.018994510
1640790262.549690,0.176113310,0.799456420,10.507008550,-0.051431360,0.056213140,0.010839100
1640790262.554580,-0.054017130,0.698238610,10.818724630,-0.006806850,-0.032119450,-0.004501640
1640790262.555760,-0.122593020,0.285742580,9.807751660,-0.029855970,-0.102876130,0.009216370
1640790262.560360,-0.145266030,-0.042221350,9.053513530,-0.079698860,-0.062261530,0.001232330
1640790262.560870,-0.297455610,-0.126104220,9.039896970,-0.102859760,0.035631660,-0.006228690
1640790262.564300,-0.005911200,-0.069833670,9.253757480,-0.097180900,0.047971300,0.018829110
1640790262.564640,-0.087935290,0.000360260,10.462491040,-0.067286200,0.036939980,0.019451980
1640790262.570090,0.075597790,0.198945310,10.137334820,-0.043983760,-0.009378790,0.015875700
1640790262.572280,0.052742000,0.402174090,10.115729330,-0.062473110,-0.086532540,0.014765560
1640790262.574360,-0.268177690,0.303786930,9.914447780,-0.075203180,-0.014600160,-0.011412800
1640790262.577380,-0.019481280,0.229599000,8.967285160,-0.060759490,0.001743440,-0.019255280
1640790262.579330,-0.406497990,0.101852650,10.041366580,-0.007307530,0.009259580,-0.001072880
1640790262.579680,-0.362566860,-0.070170480,9.555164340,0.017055870,0.032494970,0.013114510
1640790262.584440,-0.239455700,0.023236050,9.693108560,-0.007431210,-0.106196110,0.025498870
1640790262.585040,-0.473415110,0.198159810,10.188452720,-0.087516020,-0.027118620,0.038670010
1640790262.589640,0.196673600,0.242799640,9.135304450,-0.112576780,0.041988490,0.031694770
1640790262.590330,0.079707700,0.488835660,10.731088640,-0.041596580,0.016401710,-0.007040800
1640790262.594360,0.084437140,0.753449200,10.395606040,-0.015762450,0.063325470,-0.014820700
1640790262.594710,0.328740120,0.747041170,9.600738530,-0.020356480,-0.108267370,-0.004918870
1640790262.599310,-0.261173130,0.667131960,9.883422850,-0.059987610,-0.079201160,-0.010371210
1640790262.599630,-0.028898130,0.554894630,8.273538590,-0.118815900,0.018602610,0.013938550
1640790262.604860,-0.278285650,0.152659490,9.840095520,-0.082796820,0.011703370,0.057725610
1640790262.606260,-0.484522430,-0.126275720,10.649291990,-0.032594800,0.091181700,0.039662420
1640790262.610040,0.088192270,-0.049826160,9.906385420,-0.019830470,-0.052177910,0.028511880
1640790262.610380,-0.252619240,-0.143618110,10.660912510,-0.059440740,-0.044384610,0.015711790
1640790262.614300,0.178525360,-0.079182010,8.904216770,-0.107125950,0.041526570,-0.020597880
1640790262.614620,0.206270680,0.041684570,9.345301630,-0.063517700,-0.007393960,-0.028677290
1640790262.619750,-0.226660640,0.068914150,9.949838640,-0.008977950,0.065928700,-0.006955860
1640790262.620410,0.103310210,0.035214010,9.246633530,0.027413670,-0.042143470,0.009001790
1640790262.624410,-0.507574320,0.097929890,10.669678690,0.022235510,-0.074663770,0.025330490
1640790262.625030,-0.314806460,0.152386050,9.487236020,-0.047570470,0.029762090,0.026011470
1640790262.629330,0.012572320,0.202953310,9.882295610,-0.048004090,0.002282860,0.020469730
1640790262.629650,-0.190667270,0.518121780,10.549483300,-0.022931400,0.115403540,-0.013922150
1640790262.634510,0.351589680,0.893819690,9.334627150,-0.027924780,0.026813150,-0.002832710
1640790262.636210,-0.054001580,0.942125560,10.310265540,-0.038324300,-0.056786840,0.006242100
1640790262.639390,-0.197658510,0.920927880,9.080279350,-0.094532970,-0.019434100,0.001010300
1640790262.640350,-0.076058920,0.601799850,9.126317980,-0.101535020,-0.076319270,0.028830760
1640790262.644330,-0.537328600,-0.110053350,10.508621220,-0.029842560,0.096200410,0.038453940
1640790262.644700,-0.119609200,-0.353663060,9.942618370,0.019142030,0.067149110,0.007185340
1640790262.649310,-0.214185060,-0.351433720,11.113598820,0.021462140,-0.036954880,0.024046010
1640790262.649880,0.050587500,-0.113184380,9.491970060,-0.092709050,0.034065550,0.004313890
1640790262.654440,0.475774560,0.247671320,8.620740890,-0.155732040,-0.039397180,0.002747770
1640790262.656300,0.018051590,0.513565240,9.714386940,-0.112384570,0.096483530,0.017017130
1640790262.659990,0.142816500,0.533826770,9.101436610,-0.018166010,0.075653180,0.006389620
1640790262.660410,-0.348985140,0.384327890,10.919515610,0.073651970,-0.087247780,0.014981630
1640790262.664320,-0.661982770,0.222712470,10.398509980,0.024254620,0.001075860,0.025807320
1640790262.664640,-0.366208200,-0.153176110,9.400088310,-0.052976620,-0.055851050,0.027197600
1640790262.669380,-0.657794590,-0.283344570,10.579792980,-0.045363610,0.061531370,0.021687150
1640790262.669720,-0.075011160,0.112925490,9.094125750,-0.039780140,0.115495920,0.015904010
1640790262.674430,0.080536780,0.339071660,9.844751360,-0.014445190,-0.050474710,0.016935170
1640790262.675180,0.021730660,0.734923480,9.939607620,-0.036753720,0.028455260,0.007875260
1640790262.679350,0.381676850,0.985373020,8.811650280,-0.089758640,-0.047037010,0.007028880
1640790262.679730,-0.239640560,0.559161310,10.855435370,-0.070016090,-0.023980440,0.024683770
1640790262.684490,-0.175637950,0.264912580,10.053428650,-0.006900730,0.086741160,0.014449660
1640790262.685150,-0.278888310,-0.046793180,10.291578290,0.050278000,-0.071206680,0.003220140
1640790262.689440,-0.591694530,-0.156209540,10.466941830,0.015912950,-0.001624230,0.030331320
1640790262.689980,-0.001308830,-0.015690160,8.292630200,-0.088661920,0.009046490,0.019288060
1640790262.694350,-0.132625610,0.111052780,9.511526110,-0.136555730,-0.012277070,0.024102630
1640790262.694700,0.012510770,0.353739500,9.507487300,-0.096081200,0.130262990,0.036345420
1640790262.699400,0.291303130,0.247318480,9.850582120,0.016257170,-0.030386450,0.000108780
1640790262.699840,-0.233978410,0.190327760,11.211447720,0.077849630,-0.041094430,-0.003881750
1640790262.704660,-0.036737280,0.214879170,9.600699420,0.022752580,-0.011125210,0.007869300
1640790262.705550,-0.287597210,-0.300815970,9.933723450,-0.036434830,-0.064423680,-0.006140770
1640790262.709340,-0.341353330,-0.184944910,9.500334740,-0.025354330,0.064836440,0.002966820
1640790262.709760,-0.105819690,0.097331960,8.983969690,0.016982860,0.026842960,0.013530260
1640790262.714810,-0.352541600,0.108166800,10.088618280,0.045737630,-0.021852550,0.019177790
1640790262.715470,-0.047276440,0.799327550,9.418262480,-0.012461840,-0.002075730,0.006350880
1640790262.719380,-0.017973910,0.902396320,10.014234540,-0.077888380,-0.024870040,0.018525120
1640790262.719840,-0.130397100,0.615048830,10.690482140,-0.053505610,0.066150730,0.017857550
1640790262.724380,-0.040605830,0.685663820,10.327480320,0.035656990,0.001791120,-0.009633600
1640790262.724820,-0.311724040,0.362120390,10.237033840,0.060838470,-0.056982050,0.011385980
1640790262.729460,-0.234250900,0.214206770,9.057392120,0.002785030,-0.036607680,0.023947660
1640790262.730770,-0.275267720,0.203556870,9.035224910,-0.081758220,-0.038588050,0.017465650
1640790262.734330,-0.178463460,0.125157520,9.287123680,-0.119736790,0.043538220,0.045011930
1640790262.734730,0.086948930,0.202706250,9.815017700,-0.054448850,0.055776540,0.037811700
1640790262.739480,-0.017381900,0.305688290,10.949982640,0.004130600,0.017970800,0.002619620
1640790262.740100,0.108096070,0.494666310,10.287325860,-0.004504620,-0.046586990,0.007204710
1640790262.744340,-0.015136800,0.359277960,9.898221970,-0.043855610,-0.067552930,-0.013163690
1640790262.744690,-0.067321340,0.067752100,9.226494790,-0.063420840,0.030486290,-0.023286040
1640790262.749360,-0.114545900,0.095207800,9.102597240,-0.007860360,0.019331280,0.004754960
1640790262.749760,-0.453519250,-0.070553140,9.907134060,0.025372210,0.023940210,0.014291710
1640790262.754760,-0.239578770,-0.064975740,9.462597850,0.002864000,-0.014689560,0.034929810
1640790262.755430,-0.391454760,0.125424650,10.206052780,-0.024299330,-0.074270370,0.035150350
1640790262.759350,-0.233095790,0.038169970,10.012552260,-0.064937760,0.037205210,0.016084310
1640790262.759670,0.129049940,0.142642440,9.856526370,-0.011163950,0.018955770,-0.010737780
1640790262.764350,-0.143274500,0.335533230,10.698049550,0.053116680,0.027257210,-0.036799910
1640790262.764750,0.091098850,0.406954350,9.518391610,0.039106610,-0.005266070,-0.012749430
1640790262.769710,-0.178538370,0.515568200,9.609169960,0.006890300,-0.130425380,0.016497070
1640790262.770800,-0.349720840,0.519697250,9.300127980,-0.057694320,-0.020746890,0.012126560
1640790262.774480,-0.052542470,0.536596890,9.021345140,-0.074514750,0.013262030,0.044438250
1640790262.774910,-0.353558840,0.509054010,10.873798370,-0.007380550,0.033336880,0.045508150
1640790262.779470,0.074996090,0.401502580,10.313708310,0.003744660,0.055733330,0.008022790
1640790262.780010,0.135710760,0.504403890,10.244016650,-0.011225040,-0.080373880,0.014874340
1640790262.784420,-0.131364790,0.244568200,9.976484300,-0.052031880,-0.037196280,-0.009723010
1640790262.785620,0.242785040,0.032562810,8.414566040,-0.069028140,-0.019250810,-0.027087330
1640790262.789440,-0.276361670,0.136799810,9.528918270,-0.019414720,-0.017715990,-0.010405480
1640790262.789970,-0.258905650,-0.157508610,9.666113850,-0.020080800,0.063794860,0.007882710
1640790262.794600,-0.072443390,-0.221295160,10.019552230,0.021195410,-0.029823180,0.024913250
1640790262.796450,-0.479478300,-0.111415190,10.839123730,0.018382070,-0.031420590,0.020189590
1640790262.799330,0.108922560,-0.231570010,9.428621290,-0.011719760,0.007694960,0.014412400
1640790262.799760,-0.036972270,0.019824440,9.893136980,0.026293100,-0.014252960,-0.007289650
1640790262.804460,0.018247290,0.349816890,9.401350980,0.017088650,0.053207580,-0.019124150
1640790262.805000,0.321970550,0.375148240,9.082087520,0.020089750,-0.010344390,0.008182230
1640790262.809340,-0.344306920,0.441438850,10.237383840,0.052703920,-0.011429190,-0.001072880
1640790262.809710,-0.198364760,0.438927950,9.601964000,0.031124060,-0.048148640,-0.005434450
1640790262.814360,-0.428047840,0.345669000,10.217966080,0.029549010,-0.063531110,0.022181870
1640790262.814770,-0.438734650,0.263525190,10.157704350,0.017493960,0.059913090,-0.001852210
1640790262.819460,0.029760430,0.284714070,9.974514010,0.020828840,0.025694070,0.003904100
1640790262.820250,-0.179012950,0.497662930,10.374977110,0.034177310,0.007796290,0.016953050
1640790262.825040,0.179132980,0.508282780,9.150009160,-0.010161100,-0.045473880,-0.009343030
1640790262.825660,0.167097270,0.577741150,9.246554370,-0.024297840,-0.065027180,0.012676420
1640790262.829420,-0.146621560,0.548962950,9.391413690,-0.015483800,0.044573840,0.011123720
1640790262.829850,0.071635950,0.147804220,9.816308020,0.001175700,0.005663930,0.013530260
1640790262.834330,-0.309178800,-0.025800490,10.960008620,0.065335620,0.004205110,0.023522970
1640790262.834760,-0.118616080,-0.083127610,9.866659160,0.050082810,-0.019498170,0.004793700
1640790262.839440,-0.003178790,-0.172043160,9.899425510,-0.001703200,-0.045880680,0.011299550
1640790262.840160,-0.072799440,0.076029670,9.283751490,-0.025974210,0.061509020,-0.006538630
1640790262.844440,0.213353250,0.291999700,8.860484120,-0.028689200,0.010450190,-0.011630360
1640790262.845110,-0.145574480,0.343435790,10.158160210,0.030930340,0.016932190,0.019425160
1640790262.849320,-0.271886080,0.314812960,9.530750270,0.070954870,-0.008465350,0.001864140
1640790262.849660,-0.348705980,0.194271970,10.275829320,0.065439940,-0.126570480,0.016254190
1640790262.854590,-0.555195690,0.056263520,10.143656730,0.055941940,0.032231200,0.031986830
1640790262.855270,-0.143239470,0.029951450,9.348074910,0.035145880,0.012353060,-0.013050440
1640790262.859850,-0.230736940,0.292544630,10.568555830,0.018998980,0.023694340,0.006496910
1640790262.860560,0.039609300,0.579648260,9.259607320,0.003409390,0.056743620,0.023514030
1640790262.864330,0.116505620,0.658970830,9.625059130,0.007037820,-0.101794310,0.008884070
1640790262.864660,-0.302480160,0.851969240,10.036121370,0.000070040,-0.030021370,0.019241870
1640790262.869580,-0.076606830,0.722533350,8.893552780,-0.005565580,-0.026416780,0.022982060
1640790262.870650,-0.427537830,0.262624830,10.943233490,0.018356740,-0.050090260,0.010436770
1640790262.876170,-0.348174750,0.249487620,10.214507100,0.037147110,0.077523290,0.020104650
1640790262.876790,0.024437680,0.111023090,9.722942350,0.005097690,-0.066943470,0.020644070
1640790262.879330,-0.260422110,0.130009500,10.424560550,-0.031068920,-0.030533970,0.016626720
1640790262.879730,0.267210870,0.598973990,8.184552190,-0.076337170,0.007136170,0.016088790
1640790262.884400,0.041609970,0.577509220,9.580557820,-0.090225040,-0.064520550,0.027720630
1640790262.885010,-0.217754860,0.461127790,10.055583000,-0.035928190,0.066971790,0.032320620
1640790262.890440,0.046216570,0.198446800,9.682609560,0.045591600,-0.051344930,0.016058980
1640790262.891720,-0.554502670,-0.188581630,11.337370870,0.068616890,-0.084447860,0.008435550
1640790262.895290,-0.184858020,-0.213535740,9.242914200,0.011992450,0.004348160,0.001966950
1640790262.895730,0.014669650,-0.239219730,9.235067370,-0.044275820,-0.056946280,-0.015778840
1640790262.899340,-0.195119320,0.013348290,9.883983610,-0.059278320,0.095686320,0.014993550
1640790262.899720,0.352144240,0.317937080,8.815370560,-0.012922290,0.020235780,0.028608740
1640790262.904470,-0.142560770,0.311238290,10.654790880,0.044716890,-0.104382620,0.021395080
1640790262.905100,-0.129629000,0.550084590,9.678731920,0.038817530,-0.013633070,0.023937230
1640790262.909730,-0.097686200,0.424530950,9.724328990,0.018097470,-0.071376570,0.016036630
1640790262.910250,-0.709676030,0.135074500,11.057003020,-0.003324450,0.016878550,0.007253890
1640790262.914330,-0.144592760,0.287658810,9.297181130,0.018255410,0.010398030,-0.000776350
1640790262.914640,-0.221207950,0.297169510,10.048176770,0.035628680,-0.083200640,0.006562470
1640790262.919410,-0.228749870,0.496478200,9.450225830,-0.010161100,0.023706260,0.005279480
1640790262.921240,0.209140060,0.854718030,8.682188030,-0.063090030,-0.071753560,0.015564270
1640790262.924420,-0.212240170,0.602547050,10.422942160,-0.077618670,-0.008831920,0.033178930
1640790262.927970,0.086616380,0.470640990,9.691630360,-0.024479630,0.027737020,0.028185550
1640790262.929320,0.036452110,0.190487680,10.558807370,0.048044320,-0.082944330,0.016501540
1640790262.929680,-0.275059100,-0.255341410,10.486273770,0.040794910,0.004765390,0.012049080
1640790262.934310,0.138820450,-0.251344920,8.920606610,0.007531050,-0.056111820,-0.002466140
1640790262.934670,-0.219229700,-0.313409660,9.899907110,-0.034911930,-0.025218730,-0.004857780
1640790262.939480,-0.139919760,-0.096438170,8.913817410,-0.039204950,0.053225450,0.016005340
1640790262.940320,-0.092474270,0.159138020,9.598011020,0.016692280,-0.078780950,0.018645820
1640790262.944400,-0.408012990,0.336077330,10.460572240,0.039915740,-0.001986320,0.007544460
1640790262.944750,-0.041180710,0.642972650,9.486120220,0.018762050,-0.050067900,0.014150140
1640790262.949340,-0.287101150,0.476378380,10.747923850,0.008033220,-0.048597160,0.006736810
1640790262.949730,-0.210473730,0.466012870,9.890903470,0.002875920,0.036279860,-0.010864440
1640790262.954700,0.007143070,0.569348040,9.530368800,0.030712790,-0.088404120,0.008493660
1640790262.955410,-0.302221890,0.274502870,10.056788440,0.014056270,-0.021378700,0.020878020
1640790262.960290,0.049163000,0.388054400,8.696788790,-0.010412930,-0.034771870,0.014407940
1640790262.961090,-0.092315830,0.465069770,9.933725360,-0.040119890,-0.072099270,0.023418670
1640790262.964330,-0.058637350,0.316927700,9.913626670,-0.061337650,0.065299870,0.028571490
1640790262.964670,0.224175020,0.330671370,9.971085550,-0.025337940,-0.043152270,0.006201860
1640790262.969720,-0.041956540,0.248873000,10.942949300,0.009964410,-0.018195810,0.012891000
1640790262.971050,0.198629500,0.166699200,9.248029710,-0.005802510,-0.006313620,0.000110270
1640790262.976440,-0.017018380,0.098384560,9.699368480,-0.007551910,-0.100107490,-0.011335310
1640790262.977100,-0.265085340,0.015485170,9.468525890,-0.038838390,0.038529930,0.011022390
1640790262.979290,-0.153747870,-0.051725880,8.869357110,-0.015632800,-0.024923680,0.015369060
1640790262.979600,-0.551987350,-0.169090760,10.599338530,0.044856970,-0.050628190,0.016647580
1640790262.984550,-0.176486280,0.138398920,9.488026620,0.029286740,0.034983460,0.012686850
1640790262.985360,-0.001065960,0.356562700,9.990249630,-0.018066170,-0.074350830,-0.002564490
1640790262.989810,0.029205220,0.419114950,10.396278380,-0.047074260,0.064897520,-0.006766620
1640790262.990850,0.418971210,0.644078080,9.180165290,-0.023423130,0.015920400,-0.025916100
1640790262.994460,-0.124803840,0.473813890,10.493294720,0.043044990,-0.079557300,0.006262960
1640790262.994820,-0.236275000,0.257394790,9.308626170,0.049425670,-0.025302170,0.017149750
1640790262.999320,-0.342559010,0.102402390,9.174769400,0.024212890,-0.132478770,0.007611510
1640790262.999720,-0.685502230,-0.010020390,10.378437040,-0.012646620,0.004601480,0.037941340
1640790263.004390,-0.176525060,0.091742220,9.532521250,-0.035069880,0.074662280,0.013691190
1640790263.006940,-0.179423270,0.325326560,10.953529360,-0.008155410,-0.043141850,-0.010493400
1640790263.009570,0.126551300,0.719368160,10.133054730,-0.023707750,0.023241340,0.005178150
1640790263.010330,0.423253920,0.815595980,9.057853700,-0.037238000,-0.067512700,-0.021204350
1640790263.014310,-0.076370610,0.708199080,10.004113200,-0.025077160,-0.066840660,-0.021290780
1640790263.014720,-0.004191820,0.542522790,8.779767040,-0.028191510,0.008338690,0.015091900
1640790263.020080,-0.319181050,-0.046522450,9.874586110,0.006207820,-0.063960260,0.030675530
1640790263.020700,-0.519819970,-0.367381160,10.559503560,0.027515000,0.007085500,0.045019380
1640790263.024450,-0.124540900,-0.408486130,9.674619670,0.009165710,-0.025497380,0.023116180
1640790263.025020,-0.211768030,-0.421141830,10.380912780,-0.010320550,-0.043712560,0.011928380
1640790263.029320,0.248432000,0.103441480,9.268589020,-0.031934690,0.044834620,-0.016731030
1640790263.029700,0.344606730,0.522835370,9.276364330,-0.029641400,-0.004707280,-0.031448910
1640790263.034470,0.000129650,0.545899750,10.088387490,0.006091600,-0.014798350,-0.003783400
1640790263.035500,0.014004910,0.618682500,9.438347820,0.056754060,-0.059308110,-0.004442040
1640790263.039700,-0.504691600,0.389924790,10.184928890,0.053435570,-0.101158030,-0.008189680
1640790263.040350,-0.475130890,0.265173260,9.817470550,0.012393300,-0.003562870,0.023362040
1640790263.044340,-0.299339230,0.109717290,9.994881630,-0.006736810,0.011377040,-0.001986330
1640790263.044680,-0.167715270,0.155558050,10.415828700,-0.015658140,0.029441710,0.010195380
1640790263.049330,0.251140770,0.444259880,9.593202590,-0.008016820,-0.002565980,0.022012000
1640790263.049770,0.163640480,0.372466500,9.833320620,-0.014489890,-0.055822740,-0.018669670
1640790263.054390,0.153565360,0.667808950,9.315240860,-0.033850970,-0.023904440,-0.015716250
1640790263.055760,0.004994320,0.582258520,9.520666120,-0.027601420,-0.033460560,0.005286930
1640790263.059990,-0.260248960,0.062368450,10.262478830,0.008971990,0.004951650,-0.008516010
1640790263.060510,-0.109324060,0.131238340,9.927205090,0.043374300,-0.019891560,0.011718270
1640790263.064320,-0.198854090,-0.059646250,10.246533390,0.028233230,-0.002403560,0.020173190
1640790263.064690,0.040951630,-0.089814160,9.543714520,-0.029037890,0.035795570,0.004525480
1640790263.069410,0.089708410,0.426234960,9.465484620,-0.052797790,-0.021770600,0.000791250
1640790263.069850,-0.041330010,0.409906920,9.571997640,-0.064286600,0.018605590,0.003901120
1640790263.074440,0.069327000,0.381429080,9.211495400,-0.016576050,-0.005003810,-0.007444620
1640790263.074980,-0.363515730,0.352042500,10.291628840,0.053067510,-0.035718090,-0.027121600
1640790263.079320,-0.350663130,-0.000592170,9.880384450,0.041912500,0.010985140,-0.027485190
1640790263.079710,-0.309090940,-0.116615850,9.914791110,0.032371290,-0.042518970,-0.027039650
1640790263.084410,-0.343211500,-0.139627220,10.234344480,-0.002180040,0.019252300,-0.022259350
1640790263.085020,0.179205270,-0.022367320,9.163871770,-0.017681720,0.036200870,0.021921100
1640790263.092030,0.009859810,0.200607280,10.069240570,0.019514560,-0.000287590,0.023649630
1640790263.092700,0.027803310,0.369988380,9.898033140,0.010529160,0.005756320,-0.003096460
1640790263.094350,0.075916980,0.705133260,9.371434210,0.012891000,-0.079441080,-0.001695750
1640790263.094670,-0.422709440,0.634270790,10.256415370,-0.002828240,-0.023922330,-0.032976270
1640790263.099370,-0.147057410,0.669657470,9.571754460,-0.024287400,0.028081240,-0.026340780
1640790263.099930,-0.318847780,0.641763330,10.310423850,0.000511110,-0.025109950,0.006069240
1640790263.104750,-0.224906670,0.320408110,10.224011420,-0.011681020,0.031851230,-0.003685060
1640790263.105750,0.177485540,0.284879510,9.315422060,-0.012259180,-0.012828410,0.016811490
1640790263.109420,-0.190492150,0.259177630,9.930742260,-0.024203950,-0.040704010,0.019991400
1640790263.109850,0.117181880,0.080387410,9.182556150,-0.071217130,0.016303360,0.019128620
1640790263.114480,0.075929230,0.001208730,9.489425660,-0.028763710,-0.016531350,0.022840500
1640790263.115750,-0.254277940,-0.103499390,10.312224390,0.016701220,0.024503470,-0.005218390
1640790263.119340,0.191219610,-0.087594310,9.516607280,0.023384390,0.024308260,-0.009627640
1640790263.119740,-0.196485830,0.050600730,10.352886200,0.024345520,-0.019456440,-0.016018750
1640790263.124420,-0.136511090,0.203177330,9.848025320,-0.040483470,0.016425550,-0.022380060
1640790263.124890,-0.086791000,0.287098590,9.467190740,-0.030159950,-0.036993630,0.024810430
1640790263.129330,-0.441969840,0.124357150,9.821130750,0.030554830,-0.004190210,0.009733440
1640790263.129780,-0.140849400,0.219228210,9.302552220,0.052158540,0.017537180,-0.001983340
1640790263.134340,-0.332315030,0.419246580,9.905217170,0.047245620,-0.013901290,0.011633330
1640790263.134680,-0.141493950,0.293692710,9.855273250,-0.024060900,0.009071830,-0.018222630
1640790263.139570,0.264893950,0.617378830,9.733205800,-0.057004390,0.011809170,-0.015276670
1640790263.140210,0.067676590,0.625106630,10.310194020,-0.031471260,0.040599700,0.014543530
1640790263.144350,0.253122540,0.309598270,10.053210260,0.000858310,0.016754870,-0.003342330
1640790263.144740,-0.105714820,0.337441950,10.086833950,0.052872300,-0.055313110,-0.007212160
1640790263.149340,-0.381295320,0.184944960,9.447160720,0.013510880,-0.035256140,-0.005745890
1640790263.149780,-0.267499210,0.045555680,9.244002340,-0.039383770,-0.022687020,0.006005170
1640790263.154360,-0.334496800,0.159923510,9.657534600,-0.036041440,0.050753360,0.005024670
1640790263.154790,0.190381880,0.251718430,9.577577590,-0.044707970,0.076249240,0.000762940
1640790263.160480,0.367382740,0.482108680,10.364377980,-0.020308790,0.064897540,0.008444490
1640790263.160890,0.336964100,0.559652810,10.135912900,-0.010423360,0.038351120,-0.003269310
1640790263.164340,0.330844700,0.464289130,9.849637990,-0.025229160,-0.050099190,-0.007386510
1640790263.164710,-0.300230500,0.181796660,9.799798970,-0.007709860,-0.015328830,0.008811060
1640790263.169340,-0.368781150,-0.319069300,8.856900220,0.029936440,-0.001324710,-0.013944510
1640790263.169660,-0.553550960,-0.328610150,9.676588060,0.049187250,0.033505270,-0.018411880
1640790263.174500,-0.539324640,-0.184615030,9.777315140,0.022372600,0.120793270,-0.008933240
1640790263.175300,-0.080176850,0.136771430,10.072215080,-0.038574640,0.001992290,-0.017863520
1640790263.179510,-0.076367680,0.741078620,10.594375610,-0.059315550,0.007838010,-0.001744930
1640790263.180300,0.312030910,0.870369020,9.319387440,-0.057439510,0.028108060,0.013595820
1640790263.184490,0.152766290,0.694623230,10.090962410,0.011654200,-0.001043080,-0.001668930
1640790263.185150,-0.248589340,0.560489180,10.096356390,0.078645330,0.049082940,-0.014992060
1640790263.189600,-0.137604340,0.228813920,9.259317400,0.055091080,-0.068336720,-0.005978340
1640790263.190160,-0.586253290,-0.008547950,10.154849050,-0.007474420,-0.028407570,-0.005172190
1640790263.194900,-0.238338570,0.189031930,9.039192200,-0.093208250,0.066235660,0.006794930
1640790263.196290,0.105225470,0.296444480,9.804081920,-0.113435110,0.044028460,0.031696260
1640790263.199340,-0.050199040,0.397069390,10.794130330,-0.044849530,0.130110990,0.012354550
1640790263.199740,0.384720180,0.648058770,9.643466950,0.003002580,-0.018751620,-0.012892490
1640790263.204380,-0.098807250,0.546479460,10.358120920,-0.005395710,-0.094087410,-0.012506550
1640790263.204900,-0.327361320,0.210013520,9.159610750,-0.041593610,0.014047330,-0.012986360
1640790263.210870,-0.200122340,-0.152309220,8.930656430,-0.023260710,-0.036092100,-0.013312700
1640790263.213060,-0.676670250,-0.314425620,10.314711570,0.010800360,0.073772680,-0.005623700
1640790263.214360,-0.065358490,-0.225735900,9.221467970,0.007143620,0.078532100,0.006237630
1640790263.214770,-0.085192650,0.007471840,10.529504780,-0.010573870,-0.046196590,0.007340310
1640790263.219350,-0.028555320,0.385879190,9.949972150,-0.059534620,0.030690430,0.020307300
1640790263.219750,0.465737100,0.450191260,9.042699810,-0.051552060,-0.013431910,0.019997360
1640790263.224470,-0.160273840,0.383787240,10.629895210,0.021708010,0.028966370,-0.014534600
1640790263.225010,-0.109114440,0.461028250,9.375635150,0.055231150,0.041215120,-0.032570960
1640790263.229410,-0.401061680,0.333358880,9.955563550,0.047157700,-0.107434410,-0.033010550
1640790263.229840,-0.875894190,0.299284220,10.048078540,-0.024326150,-0.021369750,-0.021539630
1640790263.234370,-0.229985510,0.387228970,8.735611920,-0.073885930,-0.025171050,0.009879470
1640790263.234710,-0.390555710,0.351086320,10.506604190,-0.055114930,0.027965010,0.032930080
1640790263.239600,0.073030230,0.490050110,9.947080610,-0.022420290,0.126554090,0.021576880
1640790263.240270,0.467831730,0.587889370,10.154967310,0.001265110,-0.051052870,0.014927980
1640790263.245380,0.055324570,0.569080590,10.452400210,-0.031733520,-0.037612020,0.000119210
1640790263.245910,0.370650710,0.424936890,8.473793030,-0.078505290,-0.042402740,-0.010266900
1640790263.249430,-0.001023070,0.117497790,9.526352880,-0.054843720,-0.036725390,-0.007760530
1640790263.249850,-0.319537130,-0.176880780,9.664910320,-0.014692550,0.120750080,-0.000816580
1640790263.254400,-0.074958080,-0.355306150,9.828054430,0.048784910,-0.018946830,0.013269480
1640790263.254890,-0.585079610,-0.285392640,10.953494070,0.038044150,-0.027966500,0.029623510
1640790263.259500,-0.136251460,-0.047378580,9.130180360,-0.048398970,-0.015491250,0.026848910
1640790263.260360,-0.072747390,0.111871890,9.735899930,-0.068122160,-0.023315850,0.038146980
1640790263.264350,-0.166253610,0.291414020,9.746536250,-0.018925970,0.113721190,-0.006815790
1640790263.264910,0.293363150,0.499376740,9.116024020,0.048436220,-0.008055570,-0.026926400
1640790263.269340,-0.150724160,0.530382810,10.532597540,0.072640190,-0.010803340,-0.022722780
1640790263.269730,-0.182682530,0.550918040,9.518532750,0.002978740,-0.007893150,-0.015391410
1640790263.274570,-0.282441560,0.412836940,10.016730310,-0.043767690,-0.118809940,0.028903780
1640790263.275480,-0.524353980,0.192233670,10.043473240,-0.036686660,0.048822160,0.045512610
1640790263.279400,0.011863680,0.165073980,9.237611770,0.003086030,0.044772040,0.026965150
1640790263.279940,-0.269372910,0.340259160,10.839512830,0.039951500,0.015896560,0.021053850
1640790263.284430,0.013365380,0.582447110,9.421591760,-0.035829840,0.019206110,0.000961120
1640790263.285000,0.177638460,0.560615780,9.314879420,-0.086098920,-0.116238000,-0.001464780
1640790263.289600,-0.070902320,0.540033640,9.691101070,-0.080589960,0.044988100,0.006297230
1640790263.290260,0.173738300,0.336673590,9.125864980,-0.039564070,0.048512220,0.015129150
1640790263.294890,-0.190389680,-0.054662530,11.030617710,0.054147840,-0.016140940,0.032897290
1640790263.295510,-0.265271280,-0.089639040,10.143470760,0.034102800,0.028705600,0.026781860
1640790263.299320,-0.123081320,-0.190583780,9.598520280,-0.049287080,-0.109808150,0.033901630
1640790263.299680,-0.412812770,-0.256403630,9.946887020,-0.072041160,0.009085240,0.024083260
1640790263.304340,0.142799720,-0.091837200,8.361613270,-0.030915440,0.067652760,-0.028216840
1640790263.304700,-0.044456880,0.257032660,9.980330470,0.029224160,0.006987150,-0.022079050
1640790263.309540,-0.074680150,0.579329310,9.971600530,0.017595290,0.090169900,-0.008742510
1640790263.310540,0.076973370,0.542711910,9.839769360,-0.025786460,-0.082780420,-0.011655690
1640790263.314390,-0.501136480,0.571672500,10.923544880,-0.029850010,-0.084427000,0.030940770
1640790263.314870,-0.232444910,0.214227330,9.097833630,-0.017899280,0.013957920,0.027579070
1640790263.319360,-0.312468140,-0.146189720,10.012388230,0.044423350,-0.024516880,0.006712970
1640790263.319830,-0.455970970,-0.004846430,10.239341740,0.078608080,0.092731410,-0.003641840
1640790263.324660,0.004829400,0.105861510,9.121676450,0.012440980,-0.045137110,-0.010187930
1640790263.325320,-0.224967260,0.407146190,10.221570970,-0.058990720,-0.107589370,-0.002977250
1640790263.329320,0.164883450,0.829579110,8.777210240,-0.104200860,0.046654050,0.001738970
1640790263.329720,0.232275040,0.886787770,9.729968070,-0.085346410,-0.011213120,0.004100800
1640790263.334320,-0.197004440,0.755314770,11.224053380,0.000737610,0.060069560,0.028194490
1640790263.334640,0.067381280,0.456103740,9.794843670,0.046187640,-0.038473310,0.008605420
1640790263.340040,-0.383510590,-0.002779790,10.454067230,0.035078820,-0.152033540,0.023609400
1640790263.341310,-0.385726000,-0.314956430,8.996508600,-0.023590030,0.008146460,0.025333470
1640790263.345230,0.058346870,-0.446975230,8.398565290,-0.061106690,-0.004008410,-0.009936090
1640790263.346210,-0.212907970,-0.188808710,10.264353750,-0.036755200,0.071287150,0.026899570
1640790263.349340,0.206339870,0.153743090,9.545153620,-0.017818810,0.066328060,0.009791550
1640790263.349670,0.083710690,0.349049120,10.630234720,-0.010003150,-0.116339330,-0.009508430
1640790263.354730,-0.190692410,0.588867070,10.304179190,-0.022007530,-0.036381190,0.007639830
1640790263.355340,0.069539950,0.291827200,9.042417530,0.005823370,-0.045494740,-0.013722480
1640790263.359480,-0.399994430,0.004849180,10.294998170,0.061693790,-0.006045400,-0.022873280
1640790263.360180,-0.156000210,0.122163090,9.247922900,0.065994260,0.088414560,0.008957090
1640790263.364360,-0.152171240,-0.193074420,9.863732340,0.035187600,-0.059957810,0.014218690
1640790263.364800,-0.442302140,0.009056320,10.197551730,-0.008106230,-0.044649840,0.011146070
1640790263.369380,0.037724410,0.461916770,8.691477780,-0.041732200,-0.064161430,0.006227200
1640790263.370440,-0.133184030,0.465461430,10.190574650,-0.035765770,0.002525750,0.006265940
1640790263.374510,0.066230840,0.786239860,10.259038930,0.000910460,0.116291640,-0.008831920
1640790263.375130,0.182497710,0.830184460,10.516749380,0.030626360,-0.046467780,-0.022809210
1640790263.379660,-0.150046320,0.577714200,10.652767180,0.005251170,-0.062175100,-0.001640620
1640790263.380050,0.056511270,0.514835420,8.698524480,-0.026316940,-0.062395640,-0.002899770
1640790263.384460,-0.263923140,0.189931060,9.276521680,-0.049105290,-0.064226990,0.001850720
1640790263.385550,-0.260955360,0.094321100,9.230148320,-0.048868370,0.088696190,0.033441190
1640790263.389690,0.005847660,0.058422680,9.661467550,-0.005976860,0.022627410,0.031287970
1640790263.390920,-0.230405760,0.087070060,11.007457730,-0.010731820,-0.006149710,0.025653840
1640790263.394450,0.175943760,0.419939730,9.572550770,-0.055265420,-0.016158820,0.025993590
1640790263.394910,0.159013490,0.312028140,9.887604710,-0.081488490,-0.058156250,-0.008732080
1640790263.399340,0.091625870,0.322216000,9.574007030,-0.054144860,0.065793100,-0.033459070
1640790263.399730,0.153281080,0.370830770,9.081372260,0.010898710,0.017833710,-0.024273990
1640790263.404390,-0.367974670,-0.103326210,10.401992800,0.040952860,-0.019213560,-0.006049870
1640790263.404850,-0.367747160,-0.157533680,9.362409590,0.025023520,-0.019381940,0.012753900
1640790263.409490,-0.522814990,-0.186258580,9.780200960,-0.012516980,-0.103379790,0.024279950
1640790263.410040,-0.509045840,-0.157279480,9.936372760,-0.055886810,0.044912100,0.008428100
1640790263.414350,0.121900870,0.431191560,9.367701530,-0.031709670,0.053331260,-0.010406970
1640790263.414680,0.079895420,0.792434930,10.843554500,-0.024452810,0.041893130,-0.021767620
1640790263.419520,0.401690360,1.030416250,9.799448010,-0.049407790,0.048865390,-0.013165180
1640790263.420160,0.235760990,0.896594760,9.848481180,-0.028321150,-0.117051620,-0.016944110
1640790263.424430,-0.348857050,0.402393250,9.942951200,-0.007963180,-0.054979330,-0.016453860
1640790263.425010,-0.364142810,0.096931790,8.637620930,0.012198090,-0.038065020,0.001728530
1640790263.429350,-0.633650060,-0.266310810,10.109626770,0.005002320,-0.008749960,0.008460880
1640790263.429750,-0.370402540,-0.231866790,10.065322880,-0.048629950,0.110392290,0.022640830
1640790263.434510,0.137330130,0.069954680,9.945586200,-0.074571380,-0.014480950,0.025722390
1640790263.435130,0.063788650,0.213194770,10.696888920,-0.067773450,0.002522770,-0.008043650
1640790263.439730,0.540948030,0.712244510,8.727873800,-0.063921510,-0.004005430,-0.025537620
1640790263.440920,0.170408340,0.707680940,9.640340810,-0.027453900,-0.061011320,-0.016573070
1640790263.444810,-0.219261470,0.270432980,9.870865820,0.001615290,0.047649440,-0.006130340
1640790263.445280,-0.288745160,0.042044520,9.329187390,0.043159730,-0.071711850,0.000159440
1640790263.449360,-0.777171250,-0.241611660,10.526138310,0.029622020,-0.073178110,0.007684530
1640790263.450170,-0.362668870,-0.249720600,9.288139340,-0.039173670,0.057353080,0.002934040
1640790263.454380,-0.176870750,0.026853060,9.857456210,-0.058364870,-0.027836860,-0.006642940
1640790263.454780,0.053314380,0.335035180,10.135046960,-0.056762990,0.074371690,0.005802510
1640790263.459450,0.616727650,0.642347690,9.059386250,-0.016066430,0.029021500,0.011184810
1640790263.460950,0.088959220,0.547138040,10.512131690,0.024805970,-0.060075530,-0.004358590
1640790263.464340,-0.160874020,0.410561740,9.639425280,0.005362930,-0.033637890,-0.012671950
1640790263.464660,-0.530484200,0.144429850,9.403097150,0.017689170,-0.143624860,-0.015482310
1640790263.469410,-0.830731510,-0.181789860,10.181859020,0.023119160,-0.030641260,-0.020101670
1640790263.469800,-0.316333320,0.041182140,9.361314770,0.000005960,0.076137480,0.001457330
1640790263.474500,-0.253684070,0.144407640,10.697966580,-0.013510880,0.016482170,0.030159950
1640790263.475030,0.132493000,0.354240540,10.352409360,-0.035253170,0.033541020,0.022025400
1640790263.479380,0.418871370,0.819111230,9.226671220,-0.034056600,-0.087013840,0.006464130
1640790263.479780,0.035964410,0.782474700,9.881065370,-0.036799910,-0.085113940,0.003290180
1640790263.484350,0.133710700,0.659442310,8.948360440,-0.027571620,0.000107290,-0.009627640
1640790263.484810,-0.053636950,0.389740140,9.758919720,0.010947880,-0.036197900,-0.011937320
1640790263.489740,-0.207697420,-0.024390030,10.601037980,0.018288200,0.059518220,0.019776820
1640790263.490480,-0.010679660,-0.176258310,9.998483660,0.004686420,0.011177360,0.025363270
1640790263.494370,-0.270880880,-0.227358730,10.317548750,-0.024136900,-0.085128840,0.017440320
1640790263.495010,-0.100354830,-0.041548250,9.110527040,-0.056497750,-0.015901030,0.029651820
1640790263.499470,-0.061772740,0.058429400,8.856737140,-0.029923020,-0.010301170,-0.000576670
1640790263.500170,-0.135346810,0.148957210,9.712518690,0.014905630,0.031051040,-0.015002490
1640790263.504340,0.095874140,0.368686290,9.710797310,0.036384170,0.051262980,-0.027157370
1640790263.505060,-0.088701680,0.283555420,10.493995670,0.029495360,-0.022463500,-0.029841070
1640790263.509620,0.016631810,0.378545080,10.062733650,0.001002850,-0.042769310,-0.013595820
1640790263.510890,0.004420690,0.301715640,9.475207330,-0.015217070,-0.010785460,0.022159520
1640790263.514840,-0.090467290,-0.046060420,9.593193050,0.006356840,0.036033990,0.046770270
1640790263.515510,-0.065278570,-0.052138850,9.644697190,0.058235240,0.021292270,0.035761300
1640790263.519370,-0.320671440,-0.082076940,9.841005330,0.074476000,-0.023467840,0.017584860
1640790263.519760,-0.282352980,0.056103470,9.541265490,0.028494000,-0.046305350,-0.012040140
1640790263.526330,-0.339842320,0.475280230,9.841268540,-0.018079580,-0.029975180,-0.039121510
1640790263.527090,-0.077350030,0.743607880,9.767040250,-0.060825050,0.047872960,-0.035443910
1640790263.529380,0.110397530,0.820156570,10.279867170,-0.016473240,0.058884930,-0.010105970
1640790263.530580,-0.153930800,0.669906500,10.835723880,0.056342770,0.008250770,-0.006417930
1640790263.534360,-0.082213150,0.514558550,9.600299840,0.061133520,-0.092954930,0.012171270
1640790263.534710,-0.375570270,0.345927830,9.310925480,0.015637280,-0.111432370,0.031635170
1640790263.539640,-0.311610910,0.014997610,8.931561470,-0.053192680,0.022117790,0.034073000
1640790263.540420,0.093503650,0.089528150,9.231490140,-0.053490700,0.048342350,0.039424010
1640790263.544360,0.096197280,0.233073930,10.671678540,-0.022459030,0.083456920,0.028394160
1640790263.544680,0.539496240,0.263108880,10.198455810,-0.011716780,0.055934490,0.015619400
1640790263.549360,0.222690270,0.519927680,10.377609250,-0.004529950,-0.087641190,-0.001141430
1640790263.549820,-0.216813210,0.324499610,9.709186550,-0.025042890,-0.050783160,-0.000180300
1640790263.554370,-0.198831690,-0.065648010,8.498387340,0.010012090,-0.043123960,0.004835430
1640790263.554880,-0.763379990,-0.094198130,9.664196010,0.057569150,0.003835560,-0.016172230
1640790263.560280,-0.498300550,-0.075043050,9.350566860,0.017896290,0.089247540,-0.001560150
1640790263.560720,-0.274302810,0.159323110,10.085639000,-0.012190640,-0.015063590,0.013495980
1640790263.564410,-0.328587890,0.461674000,10.708996770,-0.061894950,-0.010780990,-0.006793440
1640790263.564910,0.401402830,0.687604780,9.215291980,-0.077044950,-0.016345080,0.031353530
1640790263.569340,0.148431780,0.415487950,10.039964680,0.015844410,0.003804270,0.038687880
1640790263.569680,0.089358480,-0.019635360,9.832532880,0.087696340,0.068415720,-0.001795590
1640790263.574510,-0.042418880,-0.194291100,9.584238050,0.119446240,-0.089341400,0.010380150
1640790263.575270,-0.719633520,-0.331313760,10.027594570,0.045858330,-0.095969440,-0.013557080
