# timestamp,accel_x,accel_y,accel_z,gyro_x,gyro_y,gyro_z
1640779657.813180,-0.111708070,0.391280560,10.301511760,-0.136649610,-0.053466870,0.051423910
1640779657.815320,-0.198101910,0.155383880,10.383419990,-0.048235060,-0.029562420,0.049959120
1640779657.818760,0.156954470,0.202249080,9.329022410,-0.043137370,-0.037419800,0.037276740
1640779657.820370,-0.044052520,0.444646870,10.241411210,-0.118643070,-0.040052840,0.054325170
1640779657.823280,0.038961190,0.185266320,9.608453750,-0.188252330,0.022633370,0.048536060
1640779657.825300,0.286717500,-0.096755580,9.757221220,-0.123372690,-0.039799510,0.041592120
1640779657.828180,-0.043021690,0.014554270,10.341909410,0.004902480,0.031819940,0.029996040
1640779657.830250,0.041519680,0.271657560,9.647705080,-0.041264290,-0.031349060,0.026200710
1640779657.833180,-0.285788090,0.432850060,10.441911700,-0.168918090,-0.086335840,0.058072810
1640779657.835790,-0.366375740,0.100615620,9.576344490,-0.182673350,0.004082920,0.040532650
1640779657.838280,-0.167341070,-0.043334330,9.589080810,-0.072869660,-0.044263900,0.011132660
1640779657.840370,-0.459849750,0.373826150,10.276271820,0.032210350,0.034816560,0.019653140
1640779657.843200,-0.156613740,0.518873160,9.639492990,-0.080794100,-0.028899310,0.017118450
1640779657.845380,-0.250500560,0.398701700,10.588148120,-0.201359410,-0.092315680,0.059472020
1640779657.848310,-0.146907540,-0.010241820,9.709037780,-0.131030380,-0.014536090,0.053451960
1640779657.850330,0.065806790,-0.264640300,9.747906680,0.005187090,-0.080840300,0.017775600
1640779657.853480,-0.282086520,0.354506220,10.416400910,0.017507380,-0.004802640,0.031970450
1640779657.856270,0.024910220,0.377388510,9.523987770,-0.129525380,-0.040681660,0.029782950
1640779657.858230,-0.100907210,0.256398710,10.416897770,-0.207208110,-0.093105420,0.044082100
1640779657.860270,-0.123865090,0.303655800,9.707057950,-0.078849490,-0.017665330,0.038851800
1640779657.864070,0.033155930,0.243836890,9.704838750,0.002013150,-0.077499460,0.011542440
1640779657.865280,-0.436416420,0.716370220,10.553419110,-0.026059150,-0.033769020,0.039933620
1640779657.868700,-0.145882920,0.522562920,9.519564630,-0.160814840,-0.059603150,0.058762730
1640779657.870390,-0.120650890,-0.051667540,10.247250560,-0.169759970,-0.097826120,0.063626450
1640779657.875340,-0.061468930,0.087288450,9.756381990,-0.031180680,-0.000381470,0.045251850
1640779657.876320,0.267337260,0.088541540,9.483060840,-0.014974180,-0.061899430,0.014619530
1640779657.878320,-0.049974670,0.246160240,10.377520560,-0.093333440,-0.016611820,0.051437330
1640779657.880260,0.144828530,-0.065322360,9.626762390,-0.123626010,-0.044225160,0.051257030
1640779657.883300,-0.025153750,-0.363966730,10.337984090,-0.061313810,-0.120598090,0.032968820
1640779657.885550,-0.239250570,0.119552780,9.713973050,0.008729100,-0.046606360,0.030454990
1640779657.888230,-0.050927710,0.230855000,9.362044330,-0.065766280,-0.043667850,0.013142830
1640779657.890280,-0.455907820,0.195529550,10.641273500,-0.109981000,-0.006866460,0.032877930
1640779657.893210,-0.269457130,0.147155700,9.771355630,-0.042463830,-0.051030510,0.023519990
1640779657.895280,-0.257693920,0.067581060,9.988752370,0.020220870,-0.158841880,0.023016330
1640779657.898280,-0.305368990,0.353940010,9.554511070,-0.000730160,-0.038355590,0.032839180
1640779657.900260,0.000537260,0.227687850,9.607313160,-0.091651070,-0.014863910,0.033774960
1640779657.903300,-0.285960790,-0.032504100,10.977438930,-0.067174440,-0.044804810,0.041654710
1640779657.905310,0.000797870,0.126214890,9.786912920,0.026392940,-0.096884380,0.021900240
1640779657.908240,0.174075190,0.338167220,9.701745990,0.007928910,-0.137516840,0.016833840
1640779657.910280,-0.172377720,0.490762470,9.965870860,-0.079363610,-0.004325810,0.027813020
1640779657.913220,-0.020037140,0.390246930,9.772461890,-0.107279420,-0.064548860,0.035008780
1640779657.915660,-0.316131060,0.159280610,10.601552960,-0.021333990,-0.120459490,0.035396210
1640779657.918250,-0.070074560,0.339333860,9.545109750,0.034503640,-0.059036920,0.021696100
1640779657.920370,-0.018229140,0.623379770,10.020009990,-0.047229230,-0.062374770,0.032544140
1640779657.923380,-0.212526140,0.368392200,10.417617800,-0.126877410,-0.019103280,0.048682090
1640779657.925270,0.208055050,0.062833440,9.576678280,-0.084373350,-0.079867240,0.039002290
1640779657.928200,0.037317810,-0.073960360,10.091684340,0.031411660,-0.079098370,0.029343370
1640779657.930480,0.052072120,0.131396900,9.530091290,0.044108930,-0.028221310,0.026324390
1640779657.933180,0.089528430,0.330075470,9.854145050,-0.092191990,-0.090688470,0.039981300
1640779657.935340,-0.082375740,-0.023872300,10.258287430,-0.142325450,-0.016032160,0.036609170
1640779657.938430,0.206273790,-0.175694390,9.715493200,-0.029142200,-0.028894840,0.010119380
1640779657.940280,-0.134985310,0.213934180,10.440489770,0.076830390,-0.057685380,-0.004318360
1640779657.943200,-0.213692010,0.462207020,9.769232750,0.002971290,-0.053112210,0.014460090
1640779657.945350,-0.131954480,0.363407280,9.636225700,-0.122855600,-0.102125110,0.038896500
1640779657.948340,-0.308808030,-0.135740090,9.885083200,-0.056128210,-0.007836520,0.033241510
1640779657.950520,-0.090219870,-0.126044600,9.582948680,0.056499240,-0.025826690,0.003556910
1640779657.953280,-0.183089870,0.295580570,10.340497020,0.062493980,-0.040669740,0.001826880
1640779657.955370,-0.097243930,0.254296150,9.998323440,-0.052578750,-0.037288670,0.007496770
1640779657.958180,-0.011485640,0.118383010,9.999002460,-0.098888600,-0.101594640,0.019004940
1640779657.960270,-0.107776890,0.045211430,9.891750340,0.022724270,-0.036551060,0.020697710
1640779657.964080,0.034436740,0.174602050,9.625118260,0.060808660,-0.047279890,0.008955600
1640779657.965300,-0.246689050,0.524837970,10.395834920,0.013254580,-0.036317110,0.023154920
1640779657.968510,-0.294015260,0.429078340,10.019181250,-0.064291060,-0.065730520,0.028878450
1640779657.970360,-0.155172390,0.231300760,9.850686070,-0.062033530,-0.137646510,0.017267470
1640779657.973190,-0.117913410,0.418025610,9.726852420,0.036193430,-0.024504970,0.008220970
1640779657.975360,0.020100940,0.565734030,9.849460600,0.003482400,0.000897050,-0.003860890
1640779657.978640,-0.042250030,0.572641730,10.619736670,-0.055722900,-0.035545230,0.030329830
1640779657.980340,0.026336980,0.157458720,10.043544770,-0.030510130,-0.083522480,0.026717780
1640779657.983450,0.146241560,0.029115630,9.625649450,-0.005550680,-0.113467870,0.013102590
1640779657.985320,-0.035206670,0.301125710,9.631361010,0.007203220,-0.016538800,0.027634210
1640779657.988290,0.073605590,0.070801430,9.672108650,-0.061866640,-0.008989870,0.016623740
1640779657.990260,0.057911630,0.029670140,10.234149930,-0.064444540,-0.016230350,0.022642320
1640779657.993320,0.055892330,0.008611490,10.056957240,0.029671190,-0.025631490,0.016726550
1640779657.995340,-0.024390600,0.161338250,10.042386050,0.016392770,-0.076402730,0.001810490
1640779657.998210,-0.197644250,0.402299820,9.812278750,-0.039848690,-0.054499510,0.032565000
1640779658.000800,-0.106916180,0.018345260,9.534605980,-0.057145960,-0.021599240,0.007921460
1640779658.003320,-0.198583630,-0.035936470,9.995098110,0.004643200,-0.001929700,-0.007258360
1640779658.005320,-0.157684390,0.259477140,9.966457370,0.074708460,-0.017552080,-0.003881750
1640779658.008220,-0.106874460,0.319213960,10.073860170,-0.017125900,-0.043950970,-0.009417530
1640779658.010410,-0.158405350,0.284310820,10.080973630,-0.062975310,-0.048699980,0.025725370
1640779658.013190,-0.026243840,-0.114311170,9.782175060,0.006729360,-0.031122570,0.014162060
1640779658.015300,-0.086926040,-0.133603950,9.930218700,0.078812230,-0.022521610,-0.007587670
1640779658.018280,-0.147648660,0.249768930,10.029159550,0.074276340,-0.024473660,-0.002746280
1640779658.020320,-0.182007330,0.269699340,10.021037100,-0.047151750,-0.036254530,-0.010111930
1640779658.023170,-0.263454820,0.272777290,10.045116420,-0.058321640,-0.073456760,-0.007618960
1640779658.025300,-0.208688860,0.406232540,9.791362760,0.025375190,-0.059209760,-0.007911030
1640779658.028200,-0.071611090,0.509333310,9.647408490,0.051450730,-0.020101660,-0.007911030
1640779658.030220,-0.098368090,0.603938280,10.260118480,0.025680670,0.003162030,0.012569130
1640779658.033540,-0.087637620,0.414420840,10.325116160,-0.035206970,-0.023627280,0.020255150
1640779658.035360,0.051375430,0.063477840,9.934392930,-0.019454950,-0.090529010,0.005683300
1640779658.038180,-0.056792080,0.172451150,9.889111520,0.024992230,-0.056742140,-0.006720420
1640779658.040360,0.101312530,0.265521500,9.335008620,-0.010290740,0.009839240,-0.009474160
1640779658.043360,0.110519960,0.104054670,10.022143360,-0.032454730,0.002835690,0.002104040
1640779658.045280,0.055671370,0.051005800,10.197947500,-0.001992290,0.027589510,0.005339090
1640779658.048230,0.141074260,-0.005979840,9.794342040,0.041425230,-0.051204860,0.007264320
1640779658.050570,-0.307949480,0.075550830,10.288805960,0.026242440,-0.070072710,0.008325280
1640779658.053930,-0.179520740,0.157605410,9.252154350,-0.025419890,-0.014953320,0.005905330
1640779658.055300,-0.132767140,-0.070739950,9.668361660,0.004522500,-0.012104210,-0.009600820
1640779658.058240,-0.199378100,0.146672280,10.073711400,0.061662500,0.071445110,-0.036223230
1640779658.060280,0.087612270,0.472723690,9.720591550,0.045368080,-0.010243060,-0.024545190
1640779658.063210,-0.228824180,0.225318060,10.549731250,0.013069810,-0.066758680,-0.007680060
1640779658.065350,-0.040130140,0.082515170,9.328070640,0.025805830,-0.024721030,-0.012759860
1640779658.071320,-0.026085000,-0.096695350,9.539556500,0.083571680,-0.041995950,-0.015382470
1640779658.073220,-0.291796030,-0.010756580,10.095960620,0.081248600,0.052274770,-0.022162500
1640779658.077070,0.038092400,0.253777650,9.570947650,0.026491290,0.012199580,-0.029934950
1640779658.077890,-0.375592020,0.078958820,10.738228800,0.009709600,-0.057968490,-0.029389560
1640779658.078300,-0.220646800,0.196673070,9.532761570,0.064349180,-0.035336610,-0.032623120
1640779658.080250,-0.134435530,0.374846550,9.495275500,0.106069430,-0.082276750,-0.046072900
1640779658.083440,-0.408053220,0.578481730,10.155271530,0.042065970,0.040300180,-0.017784540
1640779658.085340,0.058204340,0.619148730,9.682090760,0.001172720,0.018033390,-0.006543100
1640779658.088180,-0.162611480,0.295736370,10.843933110,0.027690830,-0.052380570,-0.023587050
1640779658.090410,0.022951420,0.395676080,9.703866960,0.078184930,-0.028085710,-0.022365150
1640779658.093210,0.198131930,0.583981930,9.458233830,0.058071320,-0.065416110,-0.030639770
1640779658.095270,-0.265454560,0.436055600,10.173865320,-0.026807190,0.031922760,-0.014534590
1640779658.098220,0.145680950,0.222716760,9.358424190,-0.016331670,-0.009526310,-0.012694300
1640779658.100440,-0.137319070,0.053103080,10.508402820,0.062227250,-0.047296290,-0.035446880
1640779658.104160,-0.149503470,0.235759420,9.751560210,0.068642200,0.015535950,-0.030198690
1640779658.105270,0.052642430,0.343401670,9.742714880,-0.002770130,-0.050081320,-0.025817750
1640779658.110580,-0.304059770,0.087184490,10.262285230,-0.043387720,0.038303440,-0.024476650
1640779658.111520,0.197052630,0.040870860,9.147084240,0.022909050,-0.005887450,-0.037527080
1640779658.113200,-0.030108550,0.221380590,10.183424950,0.097399960,-0.017651920,-0.040847070
1640779658.115500,-0.031924220,0.323094490,9.696952820,0.042170280,0.043366850,-0.019314880
1640779658.118230,0.145970260,0.200848820,9.832589150,-0.023809080,-0.038836900,-0.016866620
1640779658.120320,-0.253417730,-0.042435760,10.324461940,0.021740790,0.048740200,-0.034752480
1640779658.123720,0.068844230,0.059973830,9.284337040,0.073021660,-0.000900030,-0.054831810
1640779658.125330,-0.234880910,0.320102540,10.188730240,0.076510020,-0.014792380,-0.057478250
1640779658.128220,-0.208085330,0.193360310,9.536897660,0.009594860,0.061587990,-0.056335330
1640779658.130290,-0.067944770,0.093030560,9.757823940,0.023265180,-0.036527220,-0.044648350
1640779658.133350,-0.467272940,0.042603310,10.294905660,0.088362400,0.014981630,-0.040330000
1640779658.135300,-0.088863890,0.120264130,9.314435960,0.071480860,-0.012588500,-0.061219920
1640779658.138460,-0.349587260,0.396098940,10.418168070,0.042125580,-0.002908710,-0.052566830
1640779658.143010,-0.230076250,0.319657240,9.725628850,0.016750400,0.041282180,-0.059647860
1640779658.143390,0.132706490,0.401577170,9.745306970,0.036777560,-0.045013430,-0.056684020
1640779658.145310,-0.167806890,0.564913150,10.302072530,0.080029660,0.042691820,-0.058573480
1640779658.148220,0.149717640,0.456251200,9.571051600,0.036633020,-0.000795720,-0.066648430
1640779658.150340,-0.147081870,0.426448940,10.354679110,0.024852160,-0.054013740,-0.027017300
1640779658.153380,-0.097222690,0.189760510,9.449958800,0.038278110,0.022955240,-0.053848320
1640779658.155450,0.043186790,0.287084310,9.745359420,0.023134060,-0.017486510,-0.065964470
1640779658.158180,-0.340339990,0.614686430,10.344823840,0.011467930,0.038866700,-0.038540360
1640779658.160260,0.041707670,0.291458130,9.519436840,-0.020623210,-0.002935530,-0.051778550
1640779658.163180,-0.056093540,0.232087980,10.263072010,0.025510790,-0.005766750,-0.038653610
1640779658.165350,-0.122382450,0.351143480,9.677854540,0.073897840,0.033040340,-0.056153540
1640779658.168280,0.015740530,0.345788900,9.755413060,0.000584130,-0.043249140,-0.056129710
1640779658.170830,-0.172188640,0.414428290,9.901464460,-0.050707170,0.023092330,-0.026181340
1640779658.173750,0.191494940,-0.018244210,9.389640810,-0.021706520,0.030726200,-0.069786610
1640779658.175360,0.023304860,0.126211520,10.399129870,0.053438550,0.022095440,-0.070649370
1640779658.178250,0.050505630,0.525293590,9.639994620,0.051000720,0.047981740,-0.066141790
1640779658.180330,0.097770680,0.293933840,9.962772370,-0.063560910,-0.025798380,-0.061513480
1640779658.183260,-0.201173920,0.222376500,10.055832860,-0.041739650,0.037164990,-0.028137860
1640779658.185370,-0.064929870,-0.120792370,9.255089760,0.050729510,0.005221370,-0.055900220
1640779658.188370,-0.308756020,0.023615430,10.206336980,0.069342560,0.007712840,-0.068229440
1640779658.190310,-0.228584510,0.411682070,9.487375260,0.003279750,0.084887440,-0.065585970
1640779658.193180,-0.175226330,0.041198710,10.155625340,-0.057706240,-0.015059120,-0.070676210
1640779658.195280,-0.380133240,0.224413310,10.334118840,0.004525480,0.025168060,-0.071027870
1640779658.198440,0.003804130,0.360666900,9.122243880,0.063185390,-0.025959320,-0.073510410
1640779658.200320,-0.174971000,0.349443050,10.287602420,0.027005380,0.010395050,-0.064253810
1640779658.203580,-0.189451310,0.513403890,9.883641240,-0.011579690,0.093945870,-0.052034850
1640779658.205860,-0.110621630,0.234013840,10.164305690,-0.020979350,-0.074623530,-0.054633630
1640779658.208740,-0.207100780,0.356316630,10.095284460,0.010432300,-0.013084710,-0.047883400
1640779658.210260,0.078411420,0.467475650,9.065085410,0.009328130,0.025597210,-0.058276940
1640779658.213180,-0.148669730,0.398321120,10.456429480,-0.038897990,0.011861320,-0.051547590
1640779658.215630,-0.107537250,0.368139180,10.005642890,-0.019016860,0.059555470,-0.037696960
1640779658.221550,0.077174220,0.106472010,9.783765790,0.008627770,-0.064079460,-0.050935160
1640779658.223000,-0.278214570,0.322476920,10.324230190,0.013633070,-0.001752380,-0.046204030
1640779658.223440,-0.004179450,0.434652240,9.143463130,-0.051729390,0.023862720,-0.036592780
1640779658.225300,-0.087844540,0.050145060,10.127407070,-0.068913410,-0.010806320,-0.036001210
1640779658.228190,-0.087503810,0.104563240,9.968547820,0.025211270,0.083892050,-0.044381620
1640779658.230280,0.206242550,0.266771730,9.497760770,0.041742620,-0.016988820,-0.053048140
1640779658.233290,-0.241674970,0.319076600,10.478919980,-0.027300420,-0.013135370,-0.037814680
1640779658.235440,-0.018323060,0.180024210,9.361769680,-0.073781620,0.023607910,-0.031635170
1640779658.239580,-0.103467870,-0.110557000,9.908043860,-0.018678600,-0.038270640,-0.063323970
1640779658.242100,-0.254828390,0.014399310,9.931302070,0.074179480,0.070741770,-0.076906380
1640779658.243220,0.036295670,0.352590590,9.437338830,0.018617510,0.030615920,-0.077198430
1640779658.245310,-0.354234610,0.268671390,10.595020290,-0.059859470,-0.011965630,-0.043159720
1640779658.248250,-0.130461950,0.027772880,9.580751420,-0.027361510,0.017254050,-0.046350070
1640779658.250520,-0.124598990,-0.014732470,9.695003510,0.057542320,-0.042156880,-0.051194430
1640779658.253320,-0.408169630,0.117763060,10.041003230,0.084094690,0.042122600,-0.063197310
1640779658.255310,-0.014691050,0.417727740,9.475393300,-0.012937190,0.023250280,-0.081855070
1640779658.258190,-0.323232440,0.404038190,10.521352770,-0.073324140,-0.011377040,-0.074219700
1640779658.260260,-0.109335240,0.354213890,9.779655460,-0.008580090,0.007267300,-0.078076120
1640779658.263170,0.016708460,0.627306220,9.694811820,0.035403670,-0.046859680,-0.081132360
1640779658.265980,-0.318145660,0.624844670,10.180168150,0.017595290,0.034198160,-0.049458450
1640779658.269170,-0.017934920,0.453333910,9.666612630,-0.044624510,0.006444750,-0.035981830
1640779658.270310,-0.249726330,0.246729090,10.322536470,-0.034593050,-0.044758620,-0.028111050
1640779658.273320,-0.044765170,0.131051810,9.686700820,0.002114480,0.008656080,-0.039684780
1640779658.275380,0.109379190,0.362677280,9.738351820,-0.030070540,-0.005307790,-0.064994400
1640779658.278210,-0.156888840,0.346214440,10.168994900,-0.061970950,0.040966270,-0.053942210
1640779658.280270,0.135005980,0.193387000,9.598279000,-0.042739510,-0.007595120,-0.053296980
1640779658.283310,-0.095576340,0.273861710,10.056940080,0.004222990,-0.027719140,-0.060704350
1640779658.286530,-0.215297540,0.463974000,9.590712550,-0.015839930,0.004647670,-0.037172440
1640779658.289130,-0.130552570,0.445790680,9.741017340,-0.097149620,-0.021319090,-0.033010550
1640779658.290280,-0.269948510,0.118547850,10.129722600,-0.076037660,0.055702030,-0.043472650
1640779658.293190,0.018510320,0.071122800,9.682089810,0.003935400,0.025069710,-0.056251890
1640779658.295310,-0.158131610,0.315990690,10.226082800,0.024613740,-0.017055870,-0.062209370
1640779658.298350,-0.010743410,0.307898580,9.475093840,-0.062407560,0.019450490,-0.039759280
1640779658.300420,0.076491040,0.072896270,9.684674260,-0.104148690,-0.010354820,-0.031961500
1640779658.303350,-0.203116060,-0.218684300,10.198244090,-0.004357100,0.048625470,-0.041124230
1640779658.306360,0.047093040,-0.081632880,9.571355820,0.055828690,-0.002463160,-0.058294840
1640779658.308700,-0.109635840,0.352472420,10.220415120,-0.000965600,0.000897050,-0.060857840
1640779658.310270,-0.239843960,0.331982230,10.022841450,-0.101028380,0.052407400,-0.048904120
1640779658.313220,-0.174077670,0.279389170,9.895526890,-0.076940660,-0.066000230,-0.053741040
1640779658.315550,-0.415610790,0.322925480,9.909122470,0.038352610,-0.017617640,-0.060170900
1640779658.318390,-0.156077880,0.505129220,9.294859890,0.029617550,0.031563640,-0.058893860
1640779658.320420,-0.454065680,0.725414450,10.467036250,-0.059983140,0.005070870,-0.043688730
1640779658.323180,-0.371739300,0.396253440,10.172839160,-0.115481020,-0.000190730,-0.031851230
1640779658.325320,0.064701890,0.190866370,9.675292970,-0.063835080,-0.052118300,-0.041376050
1640779658.328180,-0.124803190,0.283127930,10.115649220,0.029160080,0.025051830,-0.052382060
1640779658.330420,0.191316140,0.374904540,9.563713070,-0.021857030,0.028964880,-0.039973860
1640779658.333230,0.134549330,0.368901070,10.100955010,-0.101242960,-0.011116270,-0.022287660
1640779658.335390,0.014269670,-0.001137340,10.011071210,-0.086672590,0.015467400,-0.019818550
1640779658.338850,0.091055840,0.022836030,9.688624380,-0.023673470,-0.043557580,-0.038243830
1640779658.341580,-0.274021770,0.393767920,9.922717090,0.007875260,-0.016391280,-0.039012730
1640779658.343210,-0.042453980,0.414091830,9.414164540,-0.094541910,0.036589800,-0.035132470
1640779658.345380,-0.046657350,0.372288940,10.149118420,-0.119501360,0.056162480,-0.030171870
1640779658.348210,-0.169128020,0.244016600,10.241248130,-0.035223360,0.030809640,-0.035408140
1640779658.350270,0.065103530,0.358459950,9.769192700,-0.005921720,-0.054267050,-0.031915300
1640779658.353330,-0.146236810,0.334285890,9.683550830,-0.049336260,-0.004495680,-0.012265150
1640779658.355500,-0.063513610,-0.078558710,9.422576900,-0.089406970,0.037845970,-0.023286040
1640779658.358190,-0.096768660,-0.187289980,10.144881250,-0.052833560,0.031368430,-0.030492250
1640779658.360250,-0.166877900,-0.046115110,9.873589520,0.002403560,0.037243960,-0.039896370
1640779658.363300,0.008127310,0.082907700,9.951361660,-0.040608640,-0.025059280,-0.030271710
1640779658.365350,-0.312353520,0.069608470,10.186956410,-0.042703750,0.019364060,-0.016623740
1640779658.368600,-0.265450090,0.003622850,9.522650720,-0.026842950,-0.034278640,-0.026671590
1640779658.370350,-0.357512470,0.210398730,10.059232710,0.002393130,-0.023499130,-0.020273030
1640779658.375640,-0.349314870,0.550248210,9.599856380,-0.025306650,0.042369960,-0.046373910
1640779658.376310,-0.243716600,0.632222120,10.232988360,-0.091959540,-0.010171530,-0.039570040
1640779658.378320,-0.340870290,0.628438350,10.453718190,-0.062029060,0.003638860,-0.024981790
1640779658.380360,0.024792730,0.460579010,9.348411560,-0.014549490,-0.059621040,-0.037483870
1640779658.383200,0.007265450,0.514640930,10.092078210,-0.008173290,-0.000990930,-0.005808470
1640779658.388060,-0.038271830,0.430831250,9.808913230,-0.064769390,0.074252490,-0.002554060
1640779658.388750,0.004434220,-0.030749120,10.224439620,-0.106060530,-0.077894340,0.008682910
1640779658.390290,-0.109915720,-0.156060900,10.150625230,-0.031623250,-0.029256940,0.020818410
1640779658.393200,0.089272390,-0.135923130,9.153991700,0.004939730,-0.005735460,-0.024543700
1640779658.396540,-0.178033830,0.273951620,10.281870840,-0.058603300,-0.012090800,-0.010935960
1640779658.398140,-0.197665210,0.396508070,9.801103590,-0.106553750,0.054442890,0.000493230
1640779658.400380,0.018881000,0.073703300,9.852271080,-0.074461110,-0.052502750,-0.008060040
1640779658.403320,-0.266160130,0.350169030,10.322835920,0.042678410,0.003084540,0.007449090
1640779658.405640,-0.076111410,0.471992310,9.259607320,0.005511940,-0.009551650,-0.007431210
1640779658.411810,-0.114425640,0.393407140,10.089513780,-0.098051140,-0.026498730,0.014665720
1640779658.413580,-0.149697070,0.251169980,9.860448840,-0.104278340,0.080284480,0.009782610
1640779658.414900,0.085808960,-0.094923920,9.792931560,-0.029793380,-0.043697650,-0.021918120
1640779658.415650,-0.214030180,0.187365260,10.252439500,0.035852200,-0.020028650,-0.005522370
1640779658.418760,-0.041787940,0.160286020,9.230679510,-0.030569730,-0.002731380,-0.006344910
1640779658.420320,-0.239249180,-0.177561830,10.265464780,-0.092458720,-0.030077990,0.011572240
1640779658.423310,-0.494816150,-0.086438280,10.061714170,-0.020083790,0.023041670,0.003957750
1640779658.425470,-0.202322420,-0.041452090,9.619929310,0.020837780,-0.081886340,-0.030307470
1640779658.428430,-0.461638720,0.548759460,10.218245510,-0.003981590,-0.000905990,-0.017416480
1640779658.430310,-0.253713730,0.708740230,9.499563220,-0.087493650,-0.003044310,-0.014229120
1640779658.433220,-0.169622970,0.460405590,10.265672680,-0.081172590,-0.075407330,-0.003594160
1640779658.435430,-0.111145610,0.638056930,9.680017470,0.015461440,0.007495280,0.008563700
1640779658.438410,0.168983590,0.432738390,9.688081740,0.007309020,-0.046785180,0.003489850
1640779658.440350,-0.217756120,0.450723710,10.639617920,-0.056247420,0.000984970,0.031605370
1640779658.443310,-0.032035580,0.208696750,9.526494980,-0.103062390,-0.052380570,0.022993980
1640779658.445310,-0.043922470,-0.286575350,10.115113260,-0.060740110,-0.085353850,0.017425420
1640779658.448210,-0.155070710,0.009029270,9.579398160,0.022399430,0.041946770,-0.002126400
1640779658.450310,0.059844270,0.208731340,9.584692000,-0.029848520,-0.040361290,-0.012001400
1640779658.453280,-0.279580210,0.223036620,10.632246970,-0.098244850,-0.008800630,0.021000210
1640779658.455360,-0.092068470,0.089067290,9.357613560,-0.064528000,-0.039035090,0.007070600
1640779658.458270,-0.268779640,-0.004718600,10.203364370,0.015765420,-0.110584500,-0.001052020
1640779658.460330,-0.363619980,0.375153720,9.570129390,0.014658270,0.023379920,0.003376600
1640779658.463240,-0.071261730,0.380084070,9.440684320,-0.074075170,-0.039178130,-0.005427000
1640779658.465310,-0.301655290,0.203869310,10.823360440,-0.073808430,-0.009144840,0.013077260
1640779658.468580,0.060844790,0.222162340,9.340615270,-0.007249420,-0.015889110,-0.002004210
1640779658.470410,-0.047176230,0.149978340,10.193109510,0.021986660,-0.128774360,0.009424990
1640779658.473260,-0.213320670,0.135360840,9.856183050,-0.009927150,0.015495720,0.031527880
1640779658.475730,0.069165850,-0.052280490,9.330050470,-0.045736130,-0.043256580,0.007984040
1640779658.478260,-0.463241990,-0.079332960,10.884615900,-0.019556290,-0.062531230,0.017569960
1640779658.480330,-0.145804090,0.232438860,9.281517030,-0.000855330,-0.033797320,-0.014749170
1640779658.483210,-0.159549000,0.544186710,9.910197260,-0.036205360,-0.120265800,-0.016559660
1640779658.485440,-0.498220680,0.709627450,10.327688220,-0.059558460,0.010393560,0.008210540
1640779658.488660,-0.062280570,0.556627930,9.329546930,-0.039468710,-0.072345140,0.004121660
1640779658.490420,-0.445424940,0.531867920,10.632457730,0.003667180,-0.109018390,0.017544630
1640779658.493220,-0.117203030,0.663931970,9.335660930,-0.027894980,-0.002780560,0.031255190
1640779658.495300,-0.006710710,0.432717230,9.952508930,-0.107610210,-0.100058320,0.035433470
1640779658.498120,-0.233843510,0.113822110,10.469942090,-0.079080470,-0.041420760,0.055484480
1640779658.500390,0.417257670,-0.097483580,9.063493730,-0.013440850,-0.054223840,0.022517140
1640779658.503300,0.025346840,0.068454770,10.456177710,-0.007513170,-0.071780390,0.024069850
1640779658.505520,-0.026807520,0.300180910,9.720614430,-0.067341340,-0.003252920,0.048963730
1640779658.508340,0.118961770,-0.016336100,9.801392560,-0.116240980,-0.125204040,0.038067990
1640779658.510390,-0.408237610,-0.019224250,10.318243980,-0.046537820,-0.055079170,0.035628680
1640779658.513200,0.046373510,0.149169710,8.956912990,0.024758280,-0.044880810,0.025236610
1640779658.515350,-0.258179900,0.384440750,10.269960400,-0.019627810,-0.039491050,0.009219350
1640779658.518370,-0.237504440,0.635797620,9.909396170,-0.111295300,0.029493870,0.037240990
1640779658.520380,0.028727400,0.200113890,9.960020070,-0.090736140,-0.116986020,0.034902980
1640779658.524160,-0.391348450,0.057683270,10.219361310,0.025290260,-0.083924830,0.037936870
1640779658.525370,0.056251590,0.203609230,8.830089570,0.040739770,-0.054022670,0.039567060
1640779658.528260,-0.196016580,0.020258880,10.285377500,-0.054448840,-0.017286840,0.033639370
1640779658.530310,-0.231111050,-0.044516730,10.138866420,-0.085496910,0.031381850,0.030094390
1640779658.533520,0.094665130,-0.046964450,10.010627750,-0.027510530,-0.143752990,0.020985310
1640779658.535430,-0.248106060,0.175157860,10.163290980,0.024621190,-0.066517300,0.015889100
1640779658.540230,0.021999920,0.469175730,9.107170100,-0.004751980,-0.042185190,0.024561580
1640779658.540880,-0.360545580,0.420186100,10.550876620,-0.050352520,-0.068941710,0.041896100
1640779658.543240,-0.443477840,0.403842270,9.934620860,-0.050072380,-0.044289230,0.054389240
1640779658.545350,-0.033487540,0.513037150,9.576209070,-0.019961600,-0.144390780,0.036096570
1640779658.548120,-0.343236240,0.561635910,10.360073090,-0.026763980,-0.010977690,0.028915710
1640779658.550740,0.052856140,0.686293660,9.459214210,-0.073395680,-0.024126470,0.038401780
1640779658.553380,-0.035647820,0.372078360,10.508953090,-0.065855670,-0.104250000,0.043332570
1640779658.557500,0.039380380,0.081917180,9.616485600,-0.026227540,-0.028330090,0.048212710
1640779658.558220,0.308065710,0.093499910,9.328077320,-0.002896790,-0.103776160,0.046505030
1640779658.560300,-0.332998570,0.053731880,10.493880270,-0.038641690,-0.036278370,0.062851620
1640779658.563200,-0.034385680,-0.041893420,9.366757390,-0.097319480,-0.064386430,0.053595010
1640779658.565360,-0.138040920,-0.130938690,10.132719990,-0.052654740,-0.108321010,0.032676760
1640779658.568280,-0.273452790,0.014908740,9.938362120,0.009970370,0.020824370,0.006194410
1640779658.570390,0.028750520,0.551136970,9.641609190,-0.015696880,-0.097894680,0.007146600
1640779658.573730,-0.425935920,0.576969440,10.614395140,-0.070787970,-0.076952580,0.042167310
1640779658.575500,-0.022332550,0.354249180,9.268838880,-0.084197530,-0.060941290,0.049014400
1640779658.578210,-0.139871640,0.269510450,10.016697880,0.000363590,-0.102122130,0.047639010
1640779658.580320,-0.348001660,0.150579620,9.964164730,0.033071630,-0.017002230,0.046919280
1640779658.583360,0.104056550,0.280950190,9.464776990,-0.029712910,-0.078567870,0.032992650
1640779658.588070,-0.391524020,0.141160000,10.686879160,-0.079721210,-0.053901970,0.042885550
1640779658.588680,-0.034156800,-0.068860290,9.575899120,-0.060817610,-0.077499460,0.029125810
1640779658.590530,0.002826930,0.048975950,9.875995640,0.029407440,-0.137542200,0.026452540
1640779658.593140,-0.206266430,0.257420540,9.852292060,0.031770770,-0.007468460,0.031307340
1640779658.595300,0.042265250,0.481311890,9.821284290,-0.065679860,-0.066688660,0.040648880
1640779658.598220,-0.455051390,0.423854920,10.732645990,-0.077986720,-0.096814350,0.068600480
1640779658.600780,-0.064822530,0.232656550,9.438794140,-0.020490590,-0.112047800,0.051142280
1640779658.603450,0.053118350,0.507241310,9.730611800,0.027869640,-0.093665720,0.035285950
1640779658.609360,-0.051663250,0.698446330,9.727428440,-0.032125420,0.031922760,0.042949620
1640779658.609840,0.253928570,0.423305750,9.937438960,-0.105643270,-0.046272580,0.063346330
1640779658.610300,-0.009194530,0.004481470,10.520292280,-0.035685300,-0.076204550,0.076811010
1640779658.613200,0.113831210,-0.207125860,9.305703160,0.045552850,-0.103199480,0.058372320
1640779658.615340,-0.034139880,-0.027192470,9.764342310,0.011461970,-0.108653310,0.061695280
1640779658.618450,-0.135568290,0.015127710,9.421731000,-0.082498790,0.043004750,0.053390860
1640779658.620440,0.054045500,-0.206227680,10.077257160,-0.092162190,-0.034558780,0.031858690
1640779658.623950,-0.291280360,-0.032779310,10.733367920,0.054763260,-0.035923720,0.032733380
1640779658.625410,-0.110102560,0.302599550,9.213211060,0.077244650,-0.135956690,0.027450920
1640779658.628200,-0.220994280,0.542356850,9.882560730,-0.023250290,-0.111036020,0.061771280
1640779658.630360,-0.200518130,0.460090250,9.385643960,-0.088989740,0.066399570,0.067386020
1640779658.633160,-0.069193740,0.055010440,10.206850050,-0.020408630,-0.062592340,0.054188070
1640779658.635550,-0.208016400,0.376136480,10.646243100,0.094366070,-0.046968460,0.043927140
1640779658.638320,0.250409220,0.620314180,9.055037500,0.025083130,-0.079430640,0.026993460
1640779658.642530,0.025284820,0.554618900,10.294461250,-0.106970970,-0.069835790,0.049544870
1640779658.643760,0.050984360,0.425758780,9.501698490,-0.102671990,0.050048530,0.062605750
1640779658.645330,0.154181810,0.003395580,9.823614120,0.011241440,-0.105413800,0.056670610
1640779658.648160,-0.182381470,0.268796240,10.408746720,0.085294250,-0.031240290,0.054161250
1640779658.650410,0.050344670,0.499947040,9.143434520,-0.034096850,-0.024521350,0.049535940
1640779658.653320,-0.291786130,0.217249450,10.442674640,-0.153222690,-0.090476870,0.077506910
1640779658.655350,-0.158376280,0.065117580,9.523799900,-0.070670250,0.021250550,0.063541540
1640779658.658250,0.217262700,-0.049341160,9.336453440,0.062091650,-0.057238340,0.024478140
1640779658.660340,-0.113888820,0.468802300,10.411803250,0.066815320,0.025735800,0.045947740
1640779658.663190,0.222359640,0.625808360,9.376083370,-0.091773260,0.006303190,0.062942490
1640779658.665420,0.024558080,0.027601150,10.442153930,-0.152866540,-0.095479190,0.079530480
1640779658.668750,-0.095061570,-0.033671770,9.647391320,0.003416840,0.010621550,0.049906970
1640779658.670320,0.092446010,0.142985110,9.104560850,0.072218500,-0.048321490,0.022469460
1640779658.675710,-0.352264790,0.442816500,10.284450530,-0.012288990,0.018872320,0.049416720
1640779658.676650,-0.010243980,0.367912770,9.479477880,-0.128693890,0.042644150,0.050954520
1640779658.678220,-0.183436710,-0.136707310,10.478784560,-0.081884870,-0.063827630,0.054518880
1640779658.680380,-0.337958990,-0.040379110,9.964977260,0.069834290,-0.011174380,0.046752400
1640779658.683250,0.046423110,0.284968350,9.186044690,0.051787500,-0.062201920,0.040629510
1640779658.685710,-0.395747450,0.407833760,10.319410320,-0.074636940,0.030708310,0.055447220
1640779658.688270,-0.092320700,0.330677360,9.598243710,-0.113928330,0.016509000,0.054700680
1640779658.690530,0.029500870,0.287005750,10.077406880,-0.025992100,-0.082738700,0.047355890
1640779658.693210,-0.034350180,0.536086260,9.813306810,0.049002470,0.017569960,0.045929850
1640779658.695360,0.260019990,0.776261810,9.528335570,-0.031659010,0.001959500,0.048954790
1640779658.698400,-0.273651720,0.580490350,10.613780020,-0.119115430,-0.015701360,0.081741810
1640779658.700380,0.052584290,0.187168850,9.449365620,-0.083376470,-0.038501620,0.083452460
1640779658.703290,0.085436900,0.174086900,9.663983350,-0.011385980,-0.039723520,0.053651630
1640779658.705760,-0.169003190,0.273430710,9.842432980,-0.009073320,0.067280240,0.049841410
1640779658.708180,0.164523510,0.404396980,9.644844060,-0.101689980,0.000393390,0.059103960
1640779658.710350,-0.123085370,0.132287530,10.349579810,-0.112128270,-0.002180040,0.075547400
1640779658.713210,0.078109870,-0.160479720,9.569605830,-0.029425320,-0.013108550,0.058878960
1640779658.715530,-0.023823630,0.133486120,9.890265460,0.018250940,-0.034487250,0.053590540
1640779658.718700,-0.162962420,0.164309590,9.683096890,-0.038617850,0.038419660,0.064800670
1640779658.720370,0.183930990,0.118782250,9.510038380,-0.116997960,0.035370890,0.051265960
1640779658.723240,-0.099021900,0.030528580,10.424470900,-0.060440600,0.043177600,0.051145270
1640779658.725320,0.060030920,0.098552370,9.733603480,0.019955630,-0.018779930,0.044822690
1640779658.728150,0.035426100,0.448422730,9.752850530,-0.006426870,-0.040474540,0.058187540
1640779658.730430,-0.112034290,0.236067640,9.681706430,-0.068694350,0.062979770,0.075611480
1640779658.733230,-0.057487860,-0.013535340,9.881623270,-0.074933480,0.018453600,0.071592640
1640779658.735480,-0.237451360,0.015823610,10.229728700,0.020375850,0.002130870,0.063627960
1640779658.738950,-0.070767250,0.157221750,9.460918430,0.017152720,0.003479420,0.046040110
1640779658.740390,-0.170974840,0.469112990,9.990901950,-0.070132330,0.023578110,0.055734820
1640779658.743170,-0.289857630,0.328857840,10.078822140,-0.092692660,0.041206180,0.066153690
1640779658.745490,-0.136109780,0.125271230,9.880937580,-0.037063660,-0.040590770,0.063389540
1640779658.748320,-0.127734870,0.339450000,9.863355640,0.055949390,0.009773670,0.070934010
1640779658.750710,0.017026790,0.453933510,9.656693460,-0.015573210,0.048555440,0.069753830
1640779658.753330,-0.051394380,0.572598040,10.303206440,-0.128443550,0.021512810,0.097224120
1640779658.755440,0.001093860,0.205437540,9.923867230,-0.087513050,-0.000238420,0.098443050
1640779658.758210,0.169816090,-0.028132200,9.505443570,-0.004643200,-0.030881170,0.060333320
1640779658.760360,0.090697240,0.339416620,9.584908490,0.049628330,0.047047440,0.074671210
1640779658.763160,0.018122360,0.270886720,9.794254300,-0.053091350,0.058625640,0.081324580
1640779658.765360,-0.128725200,0.104801340,10.297927860,-0.145705040,-0.002610680,0.094188760
1640779658.768360,-0.121587480,-0.139204100,9.888495450,-0.046373900,0.001581010,0.093448150
1640779658.771240,-0.154729660,-0.260484810,9.596780780,0.042942160,0.001536310,0.047016140
1640779658.773170,-0.224434300,0.283030270,9.662745480,0.022593140,0.049456960,0.064258280
1640779658.775390,-0.216312940,0.234440640,9.832762720,-0.084327150,0.046160820,0.081826750
1640779658.778250,-0.141169220,-0.046037940,10.007397650,-0.095774240,0.008089840,0.069615240
1640779658.780430,-0.073047850,0.076840780,9.887513160,0.043992700,0.002603230,0.075075030
1640779658.783380,-0.077802190,0.179990590,9.738566400,0.071133680,0.015746060,0.056898600
1640779658.786090,-0.139779180,0.432340000,9.906950000,-0.027121610,0.027278070,0.056710850
1640779658.788190,-0.203546000,0.371352080,10.127420430,-0.090265270,0.024314230,0.069938600
1640779658.790370,-0.174519670,0.073772360,9.804229740,-0.040194390,-0.019614400,0.057795650
1640779658.793240,-0.126824420,0.249419690,9.798945430,0.067095450,-0.023037190,0.054751330
1640779658.795680,-0.119441580,0.483839040,9.749357220,0.022260850,0.053046650,0.053970520
1640779658.798140,-0.135716210,0.384270100,10.058852200,-0.074781480,0.011537970,0.075989960
1640779658.800510,-0.284314160,0.171827050,10.422875400,-0.058029600,-0.016754870,0.079426170
1640779658.803690,-0.111766990,0.078477520,9.488764760,0.002408030,-0.033840540,0.058648000
1640779658.805330,-0.121160100,0.366323920,9.769977570,0.029587740,-0.033566350,0.053137540
1640779658.808300,-0.065378260,0.672320540,9.727435110,-0.063213690,0.071348260,0.058259060
1640779658.810470,0.274997120,0.371572430,9.638746260,-0.124707830,0.035226350,0.072084370
1640779658.813240,0.026853680,0.076081990,10.723964690,-0.016826390,0.021156670,0.076940660
1640779658.815410,0.126649200,0.222609310,9.633251190,0.053375970,-0.012353060,0.056886680
1640779658.818310,-0.064620710,0.214056630,9.700994490,-0.002524260,-0.088201480,0.073079790
1640779658.820710,-0.265446160,0.055083860,9.518629070,-0.110337150,0.076195600,0.072564180
1640779658.823200,0.019248610,-0.236516890,9.345059390,-0.079470900,0.063841060,0.054515910
1640779658.825370,-0.442238420,-0.213008370,10.903641700,0.049066550,-0.000207130,0.036266450
1640779658.828160,-0.089826270,0.400518890,9.365435600,0.052692000,-0.004450980,0.024852160
1640779658.830370,-0.056660960,0.483110070,9.740834240,-0.070913140,-0.059062250,0.047120450
1640779658.833440,-0.321168300,0.183854490,10.170591350,-0.099736440,0.093020480,0.060546390
1640779658.835400,0.096014190,-0.002634080,9.430519100,0.021602210,0.010226670,0.034023830
1640779658.838170,-0.330720660,0.151080210,10.554117200,0.090874730,-0.047591330,0.041556360
1640779658.840350,0.032309200,0.479784670,9.142043110,-0.009126960,0.036937000,0.035855180
1640779658.843360,0.011128210,0.289818790,9.875288010,-0.128503140,-0.022307040,0.045883660
1640779658.845380,-0.396934240,-0.097855040,10.472756390,-0.059765580,0.039274980,0.049164890
1640779658.848120,0.083314670,-0.009779020,9.243646620,0.078468020,-0.025533140,0.025050350
1640779658.850470,-0.337148310,0.260432930,10.402399060,0.078149140,-0.024637580,0.031280520
1640779658.853290,-0.220473860,0.403752920,9.654756550,-0.054295360,0.063569830,0.047454230
1640779658.855350,-0.097888170,0.287853150,9.874323840,-0.106628250,-0.046396260,0.057174280
1640779658.858290,-0.314356630,0.016587430,10.154739380,-0.000068550,-0.003623960,0.039434430
1640779658.860390,0.271595750,0.289735560,8.982874870,0.092305230,0.012515480,0.019505620
1640779658.863210,-0.081202060,0.617801430,10.168030740,0.029535590,0.024932620,0.026591120
1640779658.865640,0.001179370,0.388991590,9.847710610,-0.084497030,0.032983720,0.043410070
1640779658.868260,0.173303800,0.076822340,9.776330950,-0.068190700,-0.056791310,0.051584840
1640779658.870600,-0.173797250,-0.223545240,9.948463440,0.070641930,0.007674100,0.035230820
1640779658.873190,0.066508760,0.022097940,9.295402530,0.082446620,0.016848740,0.000789760
1640779658.876890,-0.263313350,0.269098280,10.008790970,-0.014859440,0.029127300,0.014355780
1640779658.878200,-0.220071240,-0.115859200,9.752254490,-0.067782390,0.032666320,0.025062260
1640779658.880360,-0.177540900,-0.199919070,9.938778880,0.016632680,-0.038978460,0.010803340
1640779658.883340,-0.441533330,-0.024028360,9.786928180,0.135268290,-0.020997220,0.018575790
1640779658.885440,-0.166900430,0.171973210,9.338601110,0.070686650,-0.017692150,0.006377700
1640779658.888240,-0.297419160,0.379222100,10.035745620,-0.027468800,0.053837900,0.012300910
1640779658.890740,-0.183853910,0.120615560,10.045686720,-0.013817850,0.016297400,0.002017620
1640779658.893140,0.050198800,0.215608000,10.014310840,0.069753830,-0.063827630,-0.001491610
1640779658.895380,0.071488200,0.595496590,9.465702060,0.112302600,0.005120040,0.004239380
1640779658.898160,0.072780670,0.570593120,9.725126270,0.003872810,0.017069280,0.004993380
1640779658.900420,-0.158025830,0.405854310,10.208219530,-0.031960010,0.008359550,0.043766200
1640779658.903890,-0.078932020,0.057360560,9.665712360,0.049047180,-0.053262700,0.019866230
1640779658.905380,-0.069712390,0.111235540,9.749496460,0.078243020,-0.019997360,0.009304290
1640779658.908510,-0.131688980,0.434159490,9.644657140,0.045833000,0.048281260,0.008603930
1640779658.910400,-0.172393430,0.329330240,9.980704310,-0.051520770,0.010523200,0.001700220
1640779658.913200,-0.111940960,0.077895250,10.018782620,-0.021591780,-0.002488490,0.029498340
1640779658.915620,-0.000693930,-0.062342730,9.549295430,0.109262770,-0.018373130,0.000421700
1640779658.920610,-0.110255270,0.159743930,9.695408820,0.100234150,-0.006459650,-0.000533460
1640779658.921060,0.020861410,0.394585580,9.634193420,-0.001540780,0.017744300,0.034236910
1640779658.923260,0.033646610,-0.009546050,9.835227010,-0.057788190,0.038298970,0.012181700
1640779658.925390,0.152600150,-0.181543660,9.973732950,0.041724740,0.024028120,-0.007495280
1640779658.928130,0.054067090,0.091733340,9.845180510,0.168049380,-0.014665720,-0.016096240
1640779658.930350,-0.072510480,0.474747660,9.440887450,0.068670520,0.006324050,-0.016082820
1640779658.933280,-0.176052180,0.341717570,9.774343490,-0.061206520,0.000926850,0.021891300
1640779658.936270,-0.409913330,-0.053731440,9.920568470,0.001765790,0.044886760,0.011721250
1640779658.938260,-0.295290530,-0.100179700,9.646644590,0.143153970,-0.019581620,-0.028908260
1640779658.940420,-0.385945980,0.317071290,10.081907270,0.155381870,-0.013129410,-0.026673080
1640779658.943190,-0.265533860,0.591981470,9.508975030,0.001293420,0.058016190,-0.019316380
1640779658.945350,-0.133195670,0.376007650,10.160645480,-0.076998790,-0.022093960,-0.004301970
1640779658.948140,-0.095026250,0.280106630,10.016467090,0.039760770,0.022824110,0.001102690
1640779658.950440,0.289114830,0.295632330,9.154358860,0.153730810,-0.019031760,-0.021517280
1640779658.954480,-0.049622840,0.564589800,10.309973720,0.098882620,0.005665420,-0.007757540
1640779658.955620,-0.004215300,0.622389440,9.513633730,-0.045460460,0.040499870,0.016829370
1640779658.958130,0.155227960,-0.007150330,9.824989320,-0.067350280,-0.062106560,0.001266600
1640779658.960320,-0.103572670,-0.021761130,9.986384390,0.078293690,0.060831010,-0.019778310
1640779658.963120,0.202963640,0.253746810,9.183916090,0.127710420,0.023880600,-0.031781190
1640779658.965460,-0.208332570,0.387363820,10.517997740,0.019755960,0.017875430,-0.003360210
1640779658.968180,-0.175653340,0.273782160,9.548195840,-0.062705590,0.038588060,0.015620890
1640779658.971190,-0.057651520,-0.246651190,9.702448840,0.011000040,-0.068759920,0.001338120
1640779658.973220,-0.400303810,-0.067132890,9.854963300,0.127568840,0.041714310,-0.019882620
1640779658.975440,0.061992220,0.267234440,8.958560940,0.090384480,0.043028590,-0.033608080
1640779658.978220,-0.203843040,0.212712410,10.590001110,-0.018969180,0.039072340,-0.029566890
1640779658.980360,-0.048351810,0.162669260,9.890452380,-0.016731020,0.031179190,-0.010897220
1640779658.983440,0.169196650,0.060135950,9.684233670,0.085091590,-0.082393000,-0.007200240
1640779658.988540,-0.174735520,0.210353700,9.803195000,0.121350590,0.026023390,-0.020051000
1640779658.989700,0.153259430,0.389832760,9.142676350,0.035361950,0.051140780,-0.007499750
1640779658.990360,-0.235443470,0.110144500,10.626100540,-0.001968440,0.032167140,-0.010594730
1640779658.993200,-0.221392840,0.044168470,9.982867240,0.049920380,-0.000905990,-0.019188230
1640779658.995340,0.046707120,0.286099580,9.460798260,0.091239820,-0.070880370,-0.026011470
1640779658.998160,-0.276544930,0.494557350,9.791849140,0.051145260,0.058431930,-0.026822090
1640779659.000440,-0.044824090,0.422833680,9.531323430,-0.009295340,0.051279370,-0.006949900
1640779659.003420,-0.180734960,0.203531320,10.454581260,0.035008800,0.002215800,0.004933770
1640779659.005470,-0.070431370,0.170787750,9.790121080,0.090242930,-0.004602970,-0.004534420
1640779659.009740,0.128988340,0.408731880,9.569602010,0.050431490,-0.031878050,-0.007595120
1640779659.010370,-0.061942720,0.382473320,9.833940510,-0.011752550,0.063118340,-0.005747380
1640779659.013180,0.123181100,-0.037245350,9.636727330,-0.019891560,0.036329030,-0.012864170
1640779659.015420,0.003160560,-0.025069570,10.101711270,0.092750800,-0.004459920,-0.032415990
1640779659.018320,-0.022546990,0.129280810,9.464823720,0.126929600,0.012043120,-0.017705560
1640779659.020380,-0.121645270,0.184199910,9.656478880,0.014039880,-0.008563700,-0.004836920
1640779659.023330,-0.299656120,0.096612190,9.856392860,-0.026513630,0.054292380,-0.012409690
1640779659.025420,-0.212818800,-0.289417510,9.725256920,0.054651500,0.014704470,-0.023870170
1640779659.028220,-0.189924460,0.046978270,9.960414890,0.161069650,0.004795190,-0.053441530
1640779659.030350,-0.139606090,0.534890530,9.619830130,0.107899320,0.036191940,-0.044630470
1640779659.033480,-0.140217780,0.405253470,9.973828320,-0.033804780,0.000905990,-0.022639330
1640779659.035950,-0.107572030,0.248658170,9.928578380,0.009819870,0.020733480,-0.021612640
1640779659.038240,-0.053544050,0.061206390,9.658629420,0.115637490,-0.007310510,-0.032621630
1640779659.042120,-0.080620830,0.255892340,9.818254470,0.140492620,0.002658370,-0.027990350
1640779659.043250,-0.050430550,0.455138770,9.769907950,0.061795120,0.033514200,-0.028899310
1640779659.045410,-0.078731130,0.115984780,9.949020390,-0.034326310,0.003066660,-0.022429230
1640779659.048150,0.093416740,0.049025890,9.776560780,0.043447320,0.014081600,-0.025995080
1640779659.050690,0.013821190,0.177652810,9.764675140,0.126217320,0.031243270,-0.043708090
1640779659.056600,-0.107274800,0.350797980,9.912090300,0.106965010,0.009055440,-0.034655630
1640779659.057250,-0.238900170,0.445699690,9.960350990,0.037966670,-0.006751720,-0.016067920
1640779659.058090,-0.197416500,0.131516770,9.489257810,-0.003270800,-0.000441070,-0.013636050
1640779659.060310,-0.007706250,0.035717170,9.520289420,0.081998110,0.023421640,-0.025320050
1640779659.063240,-0.094035950,0.302995890,9.871439930,0.131151070,0.085975230,-0.044643880
1640779659.065490,-0.014848340,0.337947460,9.800111770,0.057277090,0.014385580,-0.042468310
1640779659.068750,-0.098782550,0.110619620,10.154114720,0.034643710,-0.029529630,-0.015743070
1640779659.070410,-0.042631620,-0.142044450,9.306559560,0.080838800,0.019371510,-0.036954880
1640779659.073760,-0.049111460,-0.011585580,9.567752840,0.131085520,-0.005295870,-0.038100770
1640779659.075490,-0.238635300,0.206084340,10.016822810,0.096705550,0.085888810,-0.040918590
1640779659.078130,-0.034957400,0.161447200,9.601658820,0.037555400,0.031207500,-0.062190000
1640779659.080360,-0.256458820,0.192446810,10.463247300,0.074037920,-0.042806570,-0.043649970
1640779659.083390,-0.134235560,0.377073380,9.244166370,0.118327160,0.025621060,-0.042226910
1640779659.085840,-0.051408040,0.508867260,9.556645390,0.096701090,-0.028319660,-0.039228800
1640779659.089020,-0.385612220,0.614615860,10.409109120,0.051175060,0.085400050,-0.012251730
1640779659.090340,0.047680490,0.442125710,9.438917160,0.032016630,0.020389260,-0.031417610
1640779659.093220,-0.230534910,0.272216260,10.573549270,0.088080770,-0.054426500,-0.023846330
1640779659.095370,-0.014218870,0.491400300,9.178466800,0.095209490,0.051650410,-0.042249260
1640779659.098410,0.130362880,0.557493630,9.351064680,0.018306080,-0.025650860,-0.057089330
1640779659.100480,-0.231342940,0.471231010,10.292373660,-0.019459430,0.072658060,-0.026494270
1640779659.103250,0.287682350,0.182526960,9.078785900,0.032964350,0.042048100,-0.036552550
1640779659.106030,-0.055651390,0.081368150,10.526264190,0.111189490,-0.028108060,-0.025385620
1640779659.108200,-0.125338730,0.318797470,9.633139610,0.087133050,0.072397300,-0.013735890
1640779659.110340,0.097558450,0.158532200,9.384940150,-0.018331410,-0.034032770,-0.035648050
1640779659.113160,-0.290954530,-0.040352740,10.197698590,-0.015187270,0.063242030,-0.025528670
1640779659.115490,0.202977960,-0.101688530,8.825906750,0.090141600,0.068442530,-0.056211650
1640779659.118320,-0.138549430,0.231513560,10.168540950,0.134791430,-0.002689660,-0.074838100
1640779659.121290,-0.203483310,0.530417680,9.714960100,0.043292350,0.065711140,-0.036354360
1640779659.123110,0.131451870,0.199163910,9.465815540,-0.027090310,-0.016514960,-0.031138960
1640779659.125400,-0.419543500,-0.010375440,10.519109730,0.063633920,0.048923490,-0.031103190
1640779659.128200,-0.009053480,0.095485250,9.174559590,0.149413930,0.045169880,-0.053469840
1640779659.130880,-0.195098160,0.449433920,9.986674310,0.097781420,-0.002297760,-0.062048440
1640779659.133650,-0.302158770,0.457070620,9.846288680,-0.005449360,0.078475490,-0.029897700
1640779659.135430,0.112352920,0.183141310,9.418410300,-0.019766390,-0.011675060,-0.044582780
1640779659.138200,-0.325954110,0.119981810,10.288951870,0.112159550,0.024954980,-0.046972920
1640779659.140410,0.067026500,0.239903820,9.371295930,0.144943570,0.046461820,-0.052008030
1640779659.143150,-0.161957460,0.521160960,10.242001530,0.044727330,0.008104740,-0.041837990
1640779659.145480,-0.288144500,0.317201880,10.128980640,-0.033134230,0.045397880,-0.013178590
1640779659.148130,0.135625990,0.043693420,9.387231830,0.022712350,-0.024876000,-0.037258860
1640779659.150540,-0.198624190,0.268525630,9.806230550,0.141188490,0.029283760,-0.055131310
1640779659.153690,0.084387280,0.482760880,9.231044770,0.097766530,0.065268580,-0.036899750
1640779659.155390,-0.047960240,0.485810460,10.036431310,-0.012665990,0.037102400,-0.010830160
1640779659.158220,-0.178954710,0.051901260,10.080342290,0.004445020,0.029696530,-0.002752240
1640779659.160380,0.106859380,-0.100874540,9.638005260,0.094188730,-0.023692840,-0.029236080
1640779659.163190,-0.169555310,0.291623440,9.744793890,0.133201450,0.062946980,-0.044234090
1640779659.165410,-0.076256450,0.282437650,9.540803910,0.024850670,0.058966880,-0.040060290
1640779659.168320,-0.180332330,0.218736040,10.043176650,-0.017724930,0.016254190,-0.046578050
1640779659.170440,-0.220512630,0.126945360,9.493522640,0.077937540,0.001342590,-0.048005580
1640779659.173230,-0.086144400,0.210997700,9.417860030,0.116643330,-0.006155670,-0.033545500
1640779659.175430,-0.313941810,0.446959910,9.920157430,0.088889900,0.069753830,-0.018516180
1640779659.178160,-0.272846220,0.102250190,10.050175670,0.011537970,0.032004720,-0.025406480
1640779659.180400,-0.268490020,0.032981850,10.316385270,0.039650500,-0.015565750,-0.036655370
1640779659.183390,-0.136734530,0.190321530,9.443129540,0.119307660,0.004607440,-0.050443420
1640779659.185450,-0.100369190,0.368943660,9.634566310,0.078175960,0.000299510,-0.057944660
1640779659.188120,-0.042611180,0.728678520,9.719079970,0.013202430,0.052319460,-0.048078590
1640779659.190340,0.024317020,0.394585160,9.823841090,-0.004342200,0.015880170,-0.029291210
1640779659.193230,0.047437630,0.215088950,10.184470180,0.072211020,0.005650520,-0.023920830
1640779659.195490,0.033836050,0.465323120,9.697019580,0.135168450,0.027103730,-0.036065280
1640779659.198230,-0.191568320,0.434778690,10.082885740,0.017602740,-0.021274390,-0.020855670
1640779659.200540,-0.136222030,0.379275860,9.613897320,-0.043223800,0.010195380,-0.013528770
1640779659.203440,-0.034596060,-0.026347380,9.245460510,0.015757980,0.025945900,-0.032231220
1640779659.205380,-0.085193080,0.007149410,9.899904250,0.107496980,0.061868130,-0.053402780
1640779659.208280,-0.029324140,0.394918710,9.833790780,0.102268140,0.055478510,-0.036022070
1640779659.210580,-0.156300490,0.206398470,10.121156690,-0.028154250,-0.028550620,-0.023886560
1640779659.213220,-0.057602850,-0.038246630,9.754611970,-0.020869080,0.012557210,-0.013923650
1640779659.215450,-0.048511740,-0.090821720,9.362509730,0.086520620,0.038211050,-0.055351850
1640779659.218230,-0.192799720,0.227374750,9.833992000,0.102575140,0.036233670,-0.073540210
1640779659.220530,-0.066497390,0.533140420,9.736725810,0.046448420,0.044751180,-0.056630380
1640779659.223140,-0.122646100,0.305329380,9.734932900,-0.021500890,0.002330540,-0.047482550
1640779659.225410,-0.081974680,0.114612070,9.823482510,0.039576000,0.004172330,-0.039204960
1640779659.228180,-0.107843200,0.155933010,9.755333900,0.115108510,0.040213760,-0.039297350
1640779659.230370,-0.215376170,0.228996710,10.002861980,0.072146950,0.025846070,-0.049021840
1640779659.233420,-0.298993470,0.269965560,10.219551090,0.016367440,0.008834900,-0.043462220
1640779659.235440,-0.254584610,0.199171130,9.644513130,-0.014582280,-0.013153260,-0.052838030
1640779659.238200,-0.078065100,0.142644140,9.543191910,0.057822470,-0.009991230,-0.052775450
1640779659.240420,-0.041388420,0.362744330,9.804455760,0.105102360,0.062160200,-0.047512360
1640779659.243490,-0.005903620,0.499904010,9.778228760,0.040245060,0.035770240,-0.037042790
1640779659.245430,-0.075197740,0.274612070,10.316281320,0.006993110,-0.020781160,-0.000061090
1640779659.248130,-0.057655930,0.062736000,9.667033200,0.040115420,0.000427660,-0.012473760
1640779659.251050,-0.029170790,0.162381650,9.466343880,0.080266590,-0.034028300,-0.046586990
1640779659.253180,-0.168301360,0.368726190,9.805016520,0.045624380,0.045055150,-0.051756210
1640779659.255510,0.083711510,0.264278170,9.280684470,-0.006772580,0.076982380,-0.053013860
1640779659.258310,-0.137714820,0.025731590,10.511096000,0.039371850,0.005954500,-0.043882430
1640779659.260370,-0.163614290,0.219733690,9.810145380,0.097638360,-0.003278260,-0.037190310
1640779659.263100,-0.036273550,0.188462840,9.147056580,0.056634850,-0.059601660,-0.029920050
1640779659.265430,-0.372658430,-0.009536810,10.073968890,0.014033920,0.060781840,-0.027628250
1640779659.270920,-0.156472210,-0.126412590,9.425590520,0.047092140,0.073528300,-0.056447090
1640779659.271460,-0.282868360,0.029661460,10.313688280,0.105945770,-0.061364470,-0.075142090
1640779659.273280,-0.108244170,0.553473650,9.618387220,0.057762860,0.043922660,-0.056768960
1640779659.275450,0.129932080,0.557164850,9.339924810,-0.017334520,-0.011843440,-0.048811740
1640779659.278140,-0.260515750,0.353023260,10.682686810,0.013551120,0.022961200,-0.029776990
1640779659.280390,0.031016550,0.274592130,9.299010280,0.107336050,0.025880340,-0.020460780
1640779659.283480,-0.167143120,0.234118730,10.036203380,0.121247780,-0.078840540,-0.039400160
1640779659.285420,-0.319123540,0.544863400,9.825677870,0.015665590,0.054058440,-0.027374930
1640779659.288220,0.050568260,0.347034630,9.211347580,-0.067527600,-0.003460050,-0.030304490
1640779659.290840,-0.336617650,0.033974750,10.647240640,0.012010340,0.002105530,-0.046879060
1640779659.293160,0.135991450,0.212791260,9.135243420,0.124156480,0.045980510,-0.047791010
1640779659.295380,0.084445880,0.356868000,9.844403270,0.099532310,-0.038792190,-0.043632090
1640779659.298140,-0.225833300,0.395754810,10.172213550,-0.030502670,0.072692330,-0.002369280
1640779659.300810,0.145895210,-0.090274390,9.255706790,-0.043545660,-0.039626660,-0.008533900
1640779659.303200,-0.296805680,-0.375237050,10.294500350,0.090380010,-0.043123960,-0.044722860
1640779659.305450,0.015917870,0.067731020,8.951236720,0.144085260,0.073714550,-0.060129170
1640779659.308350,-0.123861250,0.270067900,9.969160080,0.048221650,0.000591580,-0.053055590
1640779659.310420,-0.451818290,0.209209830,10.493390080,-0.034353140,0.043661890,-0.038154420
1640779659.313160,0.051858210,0.112499190,9.131134990,0.030682990,-0.058993700,-0.033487380
1640779659.315410,-0.391393210,-0.006861100,10.212197300,0.147666040,-0.030815600,-0.027987360
1640779659.318290,-0.172680540,0.240099640,9.333213810,0.140765320,0.074642900,-0.027872630
1640779659.320450,-0.168668640,0.309846490,10.039211270,0.039406120,-0.030241910,-0.032696130
1640779659.323500,-0.425388280,0.169604230,10.410882950,-0.008422140,0.001414120,-0.030018390
1640779659.325480,0.152572750,0.274405360,9.103259090,0.057582560,-0.048546490,-0.042663520
1640779659.328110,-0.315723900,0.395338480,10.277134900,0.117491190,-0.033088030,-0.050291420
1640779659.330380,-0.097463530,0.629795070,9.481850620,0.078980620,0.039474670,-0.025306640
1640779659.333480,0.042297280,0.468929950,9.856063840,0.022116310,-0.035059450,0.001895430
1640779659.335460,-0.373030510,0.138223740,10.457977290,0.036127870,0.009489060,-0.008817020
1640779659.338730,0.177917120,0.268958300,9.234245300,0.072611880,-0.046674910,-0.019882620
1640779659.340540,-0.252280320,0.306322280,10.187381740,0.064320860,-0.039643050,-0.023487210
1640779659.343260,-0.059378660,0.300665170,9.310646060,0.007694960,0.028425460,-0.032359360
1640779659.345380,0.152233260,0.157761310,9.630177500,0.025153160,-0.024239720,-0.021305680
1640779659.348240,-0.226632800,0.128681210,10.218832020,0.077228250,0.026142600,-0.030383470
1640779659.350760,0.163571480,0.388191970,9.379702570,0.057077410,-0.026613470,-0.018234550
1640779659.353260,-0.323306350,0.226270120,10.315804480,0.004404780,-0.038608910,-0.009027120
1640779659.357040,-0.229128380,-0.018250840,9.438744540,0.015269220,0.005719070,-0.035719580
1640779659.358110,-0.125214160,0.078601190,9.685501100,0.081637500,-0.056894130,-0.048372150
1640779659.360350,-0.398264260,0.307105690,9.921534540,0.072865190,0.032904760,-0.044573850
1640779659.363140,-0.026902760,0.490241020,9.545394900,-0.010700520,-0.015985970,-0.031781200
1640779659.365400,-0.294591580,0.180092690,10.548458100,-0.000472370,-0.021010640,-0.002989170
1640779659.372560,-0.147482470,-0.034508700,9.548559190,0.074528140,-0.020296870,-0.017426900
1640779659.374360,-0.059749050,0.152410550,9.704968450,0.121049580,-0.091385830,-0.019271670
1640779659.375040,-0.330980390,0.329321560,9.776275630,0.044105940,0.044006100,-0.027896460
1640779659.375600,0.024376660,0.446918670,9.575777050,-0.063937900,-0.023482740,-0.029769540
1640779659.378190,-0.152179810,0.313631060,10.560798650,-0.011526050,-0.024002790,-0.021684170
1640779659.380370,0.104164870,0.309903560,9.452234270,0.093367700,-0.003018980,-0.046366460
1640779659.383150,0.099101850,0.617219390,9.914781570,0.097632420,-0.063277780,-0.029478970
1640779659.388190,-0.219606000,0.630450730,9.893875120,-0.003205240,0.032015150,0.004105270
1640779659.389100,0.051835970,0.123729120,9.421305660,-0.074517730,-0.057965530,0.011068580
1640779659.390610,-0.198553090,-0.166719650,10.180256840,0.045241420,-0.019261240,-0.001093750
1640779659.393140,-0.003098510,-0.069502440,9.203401570,0.123170030,0.035953520,-0.031739480
1640779659.395400,-0.045217990,0.285280380,10.024680140,0.036519770,-0.031512980,-0.023619830
1640779659.398200,-0.279579700,0.268394020,10.120436670,-0.056946290,0.059710450,-0.001974400
1640779659.400650,0.051234300,-0.156453910,9.555784230,-0.018413370,-0.062648950,-0.009046490
1640779659.403340,-0.244362070,0.061959320,10.139241220,0.129951550,-0.047673290,0.003936890
1640779659.405550,-0.105457980,0.248190840,9.033104900,0.115440790,0.031116600,-0.019538400
1640779659.410350,-0.153132160,0.406222790,10.056177140,-0.018677110,-0.022105870,-0.020839280
1640779659.410800,-0.351692740,0.479333910,10.292894360,-0.045327840,0.040982670,-0.016491120
1640779659.413120,0.068116710,0.234129860,9.573548320,0.019991400,-0.077018160,-0.042559210
1640779659.415440,-0.174977500,0.650233810,10.169866560,0.090447090,-0.041463970,-0.022847950
1640779659.418600,-0.029866750,0.699655290,9.226562500,0.041569770,0.047077230,-0.015768410
1640779659.420470,-0.124403950,0.392314140,10.249922750,-0.044900180,-0.043298300,0.008097290
1640779659.424250,-0.307264360,0.264727060,10.134497640,-0.012125070,-0.009541210,0.018359720
1640779659.425380,0.097899490,-0.010340210,9.299367900,0.033184880,-0.077612690,-0.018802280
1640779659.428160,-0.128308530,0.398829400,10.131345750,0.028920180,0.008299950,-0.007960200
1640779659.430390,-0.025678080,0.469492290,9.622063640,-0.050084300,0.053116680,-0.013689700
1640779659.433190,0.055264950,0.056792870,10.216118810,-0.063456600,-0.052532550,-0.007419290
1640779659.436010,-0.094031330,0.252258300,9.823917390,0.050446390,-0.004124640,0.001560150
1640779659.438280,0.124036030,0.292504970,9.164813040,0.042346120,-0.044679650,-0.007814170
1640779659.442640,-0.308178420,0.373106660,10.185055730,-0.039389730,0.003890690,0.024627150
1640779659.443260,-0.231118740,0.104654350,9.581370350,-0.056952240,0.013504920,-0.000414250
1640779659.445400,-0.130068940,-0.198687690,10.090625760,0.009079280,-0.058238220,-0.030848390
1640779659.448120,-0.225571260,0.313297450,9.740922930,0.072671470,0.039492550,-0.024627150
1640779659.450860,-0.014532230,0.336628970,9.512822150,-0.018785890,-0.016967950,-0.012771790
1640779659.453410,-0.269743530,0.117493320,10.474282260,-0.062310710,-0.017139320,0.025193400
1640779659.455500,-0.112138790,0.035911660,9.361722950,0.021712480,-0.016300380,0.015309450
1640779659.458100,-0.124530670,-0.173083740,9.845211980,0.062699620,-0.075279190,0.008714200
1640779659.460380,-0.340333460,0.246512280,9.922530170,0.052122780,0.044387580,-0.007247930
1640779659.463130,-0.080737080,0.363351610,9.730772970,-0.046534840,-0.023302440,-0.023199610
1640779659.465530,-0.293168600,0.237172680,10.597471240,-0.054474180,-0.049763930,-0.007262830
1640779659.468530,-0.020409880,0.412343710,9.285669330,0.036692620,-0.023838880,-0.011898580
1640779659.470440,0.066708040,0.459238830,9.720632550,0.056946280,-0.059345370,-0.011475390
1640779659.475960,-0.149645890,0.614748300,9.973053930,0.005203490,0.063875320,0.030159960
1640779659.476770,0.023661370,0.318672090,9.705099110,-0.049951680,-0.029672690,0.036840140
1640779659.478100,-0.265111210,-0.068096650,10.554655080,-0.009916720,-0.094316910,0.028459730
1640779659.480400,-0.021308420,0.097257730,9.035146710,0.053617360,-0.021970270,-0.005367400
1640779659.483270,0.061109270,0.210516480,9.590252880,0.002332030,-0.013895330,-0.016532840
1640779659.485910,-0.195671220,0.166248600,10.334595680,-0.035241250,0.084869570,-0.004319850
1640779659.488200,0.065384100,0.002622720,9.733317380,0.002390150,-0.046452880,-0.009614230
1640779659.490400,-0.268416080,0.025151890,10.306659700,0.056947760,-0.108556430,-0.003474950
1640779659.493090,-0.148490440,0.213196310,9.015065190,0.038996330,-0.007160010,0.015255810
1640779659.495410,-0.175677810,0.125317930,9.643982890,-0.032188000,-0.028952960,0.000776350
1640779659.498220,-0.482209590,0.096099670,10.497346880,0.000913440,0.041906540,0.004090370
1640779659.500420,-0.046924150,0.233163430,9.589357380,0.050368900,-0.056855380,-0.012736020
1640779659.503220,-0.239083350,0.573168040,10.218800540,0.036147230,-0.088232740,-0.002942980
1640779659.505810,-0.140083700,0.575475220,9.529374120,-0.026051700,0.008933250,0.031322240
1640779659.508230,-0.059648860,0.374378440,9.773958210,-0.043037530,-0.050041080,0.028233230
1640779659.510400,-0.384571160,0.135427130,10.478959080,0.043196970,-0.031454860,0.025029480
1640779659.513180,0.081211160,0.142095180,9.330532070,0.063832100,-0.054332620,0.005732480
1640779659.515530,-0.113518860,0.478268150,10.086926460,-0.008745490,-0.054687270,0.001642110
1640779659.518510,-0.054882970,0.438120310,9.916412350,-0.089941900,0.024931130,0.020949540
1640779659.520490,0.240380780,0.266840670,9.658052440,-0.067511210,-0.052577260,0.010848050
1640779659.523130,-0.061924190,0.123602770,10.174915310,0.062258550,-0.029067700,0.015430150
1640779659.525430,0.124889400,0.245392080,9.297164920,0.086237490,-0.016248230,0.025399030
1640779659.528250,-0.227391630,0.477102910,9.980009080,-0.031271580,-0.068733100,0.036492950
1640779659.530490,-0.353901060,0.031456140,9.937359810,-0.113582630,-0.019820030,0.046326230
1640779659.533130,-0.046997780,-0.224935550,9.546230320,-0.028492510,-0.026686490,0.008186700
1640779659.538240,-0.393079790,0.027394360,10.268079760,0.106555220,-0.018672650,-0.023609400
1640779659.539690,-0.040327870,0.338377710,9.542194370,0.053781270,-0.013296310,0.006280840
1640779659.540450,-0.004087880,0.441707310,9.822764400,-0.061136500,-0.031316280,0.033116340
1640779659.543180,-0.093514910,0.022514890,10.007394790,-0.056155030,-0.016030670,0.052857400
1640779659.545530,0.195426450,-0.093425200,9.528864860,0.054037570,-0.048695500,0.038176780
1640779659.548530,-0.087936980,0.111001640,9.939264300,0.121541340,-0.018769510,0.008133060
1640779659.550460,-0.083259700,0.290510330,9.932799340,0.015474860,-0.000977520,0.002197920
1640779659.553230,-0.221338450,0.484319780,10.144605640,-0.079233950,-0.058853630,0.005611780
1640779659.555440,-0.277492700,0.329037610,9.813779830,-0.048571830,-0.069953500,0.010925530
1640779659.558160,-0.044033610,0.403568060,9.444752690,0.041231510,-0.023958090,0.008741020
1640779659.560440,-0.257274270,0.602463250,9.973387720,0.070807320,0.021904710,0.012569130
1640779659.563220,-0.229243650,0.448426660,10.249073980,-0.017216800,-0.021274390,0.047002730
1640779659.565440,-0.125888360,0.183726310,9.995473860,-0.064849860,-0.078719860,0.057023760
1640779659.568480,-0.012624720,-0.090621080,9.517171860,0.008292500,-0.045426190,0.037033860
1640779659.570480,0.106207880,0.060105980,9.598003390,0.017826260,0.005623700,0.014664230
1640779659.573180,0.128462300,0.352264460,9.775887490,0.005465740,0.028778610,0.023016330
1640779659.575520,0.123772080,0.079879870,10.102910040,-0.031737980,-0.020125510,0.036525720
1640779659.578260,0.126593020,0.145634400,9.871545790,0.000682470,-0.047853590,0.027036670
1640779659.580450,-0.018946690,0.265863980,9.511224750,0.041446090,-0.041139130,0.028365850
1640779659.583170,-0.216323720,0.285232310,9.772936820,-0.022295120,-0.011879210,0.026765470
1640779659.585510,-0.203796430,0.297724400,9.712921140,-0.021743780,0.035956510,0.016933680
1640779659.588260,-0.283480110,0.130777480,9.995918270,0.011226540,-0.019221010,0.006337460
1640779659.590400,-0.176468630,0.354573490,9.915219310,0.027279560,-0.024102630,0.015072530
1640779659.593220,-0.111860850,0.393746050,9.571962360,-0.000448520,-0.017152730,0.030270220
1640779659.595470,-0.205663220,0.030726770,10.060888290,-0.039644540,-0.006616120,0.039294350
1640779659.598150,-0.124051980,-0.060090140,9.817584990,0.027593970,0.006443260,0.036944440
1640779659.600750,-0.121561370,-0.013580530,9.759150510,0.058345500,-0.046533350,0.014464560
1640779659.603210,-0.065097870,0.356612180,9.835286140,-0.014434760,0.001308320,0.005257130
1640779659.605450,-0.033842420,0.614402350,9.805239680,-0.063337390,0.008653110,0.006864960
1640779659.608250,-0.180022600,0.430157300,10.148418430,-0.054705150,-0.040210790,0.016938150
1640779659.610570,-0.021777710,0.494866070,9.693187710,0.054252160,-0.022661690,0.020125510
1640779659.613190,-0.140994180,0.656696500,9.738757130,0.041429700,-0.014373660,0.019590560
1640779659.615440,-0.242561070,0.712405980,10.072816850,-0.071291630,0.009928640,0.049975520
1640779659.618300,-0.153398720,0.354725750,9.888690950,-0.108952820,-0.029098990,0.062061840
1640779659.620430,-0.142766510,-0.047344260,9.835851670,-0.036607680,-0.044456130,0.032842160
1640779659.623170,0.093959250,0.013258720,9.558876990,0.058504940,0.018058720,0.028334560
1640779659.625440,0.026000340,0.240501970,9.856886860,0.011314450,0.031945110,0.021864470
1640779659.628170,0.000742620,0.202903030,10.117745400,-0.105687990,-0.008660560,0.044798850
1640779659.630420,0.043350090,-0.091165560,10.019067760,-0.069756810,-0.043986740,0.050349530
1640779659.633170,-0.059034230,-0.078892690,9.608056070,0.025694080,-0.024643550,0.018396970
1640779659.635530,-0.048598350,0.347494390,9.546455380,0.038921830,-0.007314980,0.001794100
1640779659.638370,-0.134144140,0.498650130,9.847143170,-0.054647040,0.054438420,0.005674360
1640779659.640440,-0.195768890,0.394041990,10.103768350,-0.115194920,0.011447070,0.005619230
1640779659.643290,-0.141427040,0.317332000,10.189766880,-0.025551020,-0.060769930,0.028195980
1640779659.645470,-0.141983140,0.351051900,9.463146210,0.025601690,-0.019137560,0.035496060
1640779659.648110,-0.070018390,0.295327780,9.574296950,-0.012597440,0.000970070,0.046479690
1640779659.651220,-0.204790060,0.125340520,10.330334660,-0.067158050,0.068992360,0.054226820
1640779659.653780,-0.122707230,-0.107522110,10.000163080,-0.063309080,-0.014851990,0.025704510
1640779659.655460,-0.054599420,-0.009313240,10.135478020,0.009198490,-0.089576840,0.016845760
1640779659.658290,0.103263760,0.381925200,9.195867540,-0.017939510,0.039578970,0.008979440
1640779659.660440,0.138459530,0.565694870,9.747249600,-0.101117790,0.019186740,0.013022120
1640779659.663150,-0.115272450,0.520763700,10.597554210,-0.087115170,0.054118040,0.059586770
1640779659.665420,0.146117400,0.293942870,9.510633470,-0.016635660,-0.041349230,0.052572790
1640779659.668590,-0.033560030,0.414811160,10.058486940,0.016127530,-0.059935450,0.050042570
1640779659.670450,-0.138858450,0.612919090,9.430492400,-0.076861680,0.078234080,0.065495070
1640779659.676360,0.047986060,0.161148030,9.646001820,-0.148510930,-0.015653670,0.049653650
1640779659.677240,-0.138183610,-0.010189010,10.434281350,-0.055257990,0.050085790,0.041626390
1640779659.678150,0.264907690,0.049532590,9.156614300,0.022947790,0.030833480,0.026449560
1640779659.680380,-0.055979880,0.190604720,10.366192820,-0.007098910,-0.039939580,0.043550130
1640779659.683140,-0.158393930,0.260588500,9.701535220,-0.120234500,0.052425270,0.056678060
1640779659.685550,0.076148590,-0.173099980,9.350586890,-0.112846520,-0.049890580,0.056247410
1640779659.688760,-0.341859700,-0.190608580,10.355107310,0.014807280,0.051861990,0.041049720
1640779659.690500,0.026471730,0.311818810,9.098330500,0.032971800,0.059852020,0.027723620
1640779659.693140,-0.252488080,0.505793330,10.543702130,-0.067345780,-0.042009350,0.036478040
1640779659.695420,-0.204164490,0.540309010,9.850415230,-0.141958880,0.055342910,0.050702680
1640779659.698130,0.061376340,0.237677860,9.390893940,-0.057619810,-0.047746300,0.051771100
1640779659.700450,-0.391516270,0.220442270,10.462472920,0.043408570,0.019550330,0.046202540
1640779659.703190,0.086364400,0.598011020,9.036181450,-0.015072530,0.055465100,0.034901500
1640779659.705530,-0.143402040,0.468438540,10.456704140,-0.139953210,-0.024642060,0.045888130
1640779659.708460,-0.130457090,0.142172920,10.140433310,-0.141370310,0.057445470,0.053972010
1640779659.710550,0.321951840,-0.007591050,9.347292900,-0.025591250,-0.040721890,0.031414620
1640779659.713130,-0.200807440,0.126497750,10.358224870,0.032293800,0.006091590,0.029675660
1640779659.715430,0.171639980,0.414634820,9.060462000,-0.069895390,0.068871680,0.058178600
1640779659.718400,-0.095563050,0.101152410,10.292194370,-0.142113830,-0.021058320,0.075767920
1640779659.720450,-0.236369160,-0.195398930,10.145434380,-0.076617300,0.044086580,0.055930020
1640779659.723780,0.217057200,0.081675110,9.081559180,0.022542480,-0.027829410,0.033621490
1640779659.725460,-0.262057190,0.355048390,10.197317120,-0.012093780,0.053289530,0.026974080
1640779659.728170,0.077117170,0.452569190,9.445944790,-0.123955320,0.095638660,0.042141980
1640779659.730410,-0.033776120,0.103740630,10.322636600,-0.102353090,-0.029431280,0.065378830
1640779659.733110,-0.186863450,-0.142019510,9.979412080,0.020375850,0.021642450,0.048504770
1640779659.735500,0.247356160,0.132081520,8.988141060,0.033734740,-0.003051760,0.053732100
1640779659.739980,-0.373254630,0.030668200,10.330732350,-0.045828520,0.065883990,0.056634850
1640779659.740860,-0.138502850,-0.151503650,9.637462620,-0.094814580,0.053820010,0.037513670
1640779659.743150,-0.147962750,-0.068306010,10.060386660,-0.019335740,-0.053267180,0.027936700
1640779659.745430,-0.179524450,0.190739140,9.739022250,0.036841630,0.055940460,0.016318260
1640779659.748160,0.176637830,0.586547020,9.536501880,-0.025919080,0.040988620,0.027863680
1640779659.750820,-0.305575220,0.552413520,10.669528010,-0.069376830,0.057841840,0.055314610
1640779659.753230,-0.025952690,0.323639780,9.722050670,-0.047795470,0.005939600,0.059421360
1640779659.756090,-0.022171580,0.349685190,9.790457730,0.014564390,-0.044207270,0.066116460
1640779659.758120,-0.165611250,0.460846900,9.516567230,-0.002700090,0.066269930,0.044301160
1640779659.760420,0.140849740,0.517598090,9.602050780,-0.104188940,0.038662550,0.047676270
1640779659.763150,-0.120710280,0.249677270,10.432187080,-0.096374760,0.072047110,0.051508860
1640779659.765510,0.137997090,-0.053713760,9.830498700,-0.016024710,0.023600460,0.027595460
1640779659.768310,-0.018192120,0.095126610,10.169085500,0.039444870,-0.012435020,0.046131020
1640779659.770650,-0.253788950,0.249252260,9.467509270,-0.025522710,0.039428470,0.055919590
1640779659.774410,-0.111992840,-0.002000280,9.568062780,-0.138372180,-0.015629830,0.057692820
1640779659.775550,-0.213439260,-0.078125080,9.833224300,-0.059583790,0.077228240,0.050847220
1640779659.778140,0.070008490,-0.015123900,9.497539520,0.036303700,0.052598120,-0.000414250
1640779659.780400,-0.084763440,0.422442700,10.470162390,0.016628200,0.037458540,0.031365450
1640779659.783500,-0.157048370,0.440644800,9.743859290,-0.058472160,0.023368000,0.044059760
1640779659.786890,-0.065909660,0.059232090,9.791213040,-0.095145400,-0.054076310,0.044097010
1640779659.789090,-0.253758880,0.063158420,9.630150790,0.009328130,0.051014130,0.052239000
1640779659.790500,-0.065401370,0.011254040,9.262427330,0.051695120,0.050856170,0.010345880
1640779659.793110,-0.293660970,0.248457910,10.531880380,-0.011166930,0.056228050,0.021567940
1640779659.795420,-0.292300160,0.287641230,9.981068610,-0.053560730,0.009121000,0.036036960
1640779659.798100,-0.131523490,-0.052755480,9.767459870,-0.050710150,-0.088204430,0.015221540
1640779659.800830,-0.217915610,0.138274460,9.527008060,0.037181380,0.033965710,0.044195360
1640779659.803540,-0.026649660,0.147590010,9.393754960,0.056917970,0.072446470,0.022225080
1640779659.805580,-0.244467470,0.248465760,10.725573540,-0.010888280,0.025013090,0.035354500
1640779659.810080,-0.175229770,0.260695550,9.984699250,-0.030384960,-0.031352050,0.036756690
1640779659.810650,0.065572830,0.150239900,9.449191090,-0.016601380,-0.064590580,0.004816050
1640779659.813130,-0.070447490,0.486990480,9.686415670,0.007149580,0.056587160,0.013580920
1640779659.815470,0.080513920,0.506305040,9.593811990,-0.002613660,0.058579450,0.017492470
1640779659.818270,-0.039268100,0.204813610,10.328484540,-0.001484160,0.003103910,0.027377900
1640779659.820540,-0.073994800,0.088735740,9.921008110,0.046092260,-0.026158990,0.050891940
1640779659.823480,-0.042466730,-0.058085960,9.372331620,0.023967030,-0.038170810,0.032113500
1640779659.825460,-0.276281300,-0.071566910,9.754011150,-0.015498700,0.025829670,0.021365280
1640779659.828160,-0.235936550,-0.184006170,9.733995440,-0.001037120,0.044506790,0.011375550
1640779659.830430,-0.182029810,-0.245257230,9.896821980,0.060068080,0.000999870,-0.035063930
1640779659.833660,-0.183518780,0.231026600,9.927433970,0.082901130,-0.014075640,-0.030587620
1640779659.835580,-0.136478480,0.517753900,9.557058330,0.008922820,-0.002995130,-0.001361970
1640779659.838220,-0.181508030,0.261132180,9.867557530,-0.019890070,-0.016662480,0.000381470
1640779659.843200,-0.283311640,0.150036040,10.072673800,0.056622920,-0.005881490,0.005503000
1640779659.843630,-0.070542010,0.174695390,9.467926980,0.124892600,-0.016339120,0.001804530
1640779659.845460,-0.090564290,0.267898620,10.028977390,0.072802600,-0.007550420,-0.008267170
1640779659.848110,-0.113070080,0.403017820,9.991828920,-0.020481650,0.034609440,0.000187750
1640779659.850630,0.086055350,0.150868420,9.765735630,-0.017479060,-0.044162570,-0.003156070
1640779659.853380,-0.140595150,0.046240940,10.155495640,0.083100800,-0.032955410,-0.017356870
1640779659.855610,0.051751350,0.355951550,9.193149570,0.118333120,0.016920270,-0.022321940
1640779659.858140,-0.181618740,0.408155050,10.079990390,0.039158760,-0.031828880,-0.006642940
1640779659.860440,-0.328076480,0.388267400,10.116810800,-0.037388510,0.013102590,0.015331800
1640779659.863140,0.061034010,0.264136080,9.358876230,0.007829070,-0.051862000,0.002039970
1640779659.865480,-0.180758220,0.183675860,10.121178630,0.094240900,-0.003813210,-0.018090010
1640779659.869220,0.090024370,0.501255210,9.323179240,0.085161630,0.070534650,-0.017139320
1640779659.870880,-0.052916300,0.347956210,10.232756610,0.008009380,-0.039649020,-0.000365080
1640779659.873640,-0.157056420,-0.050564800,10.015854840,-0.005659460,-0.009626150,0.006215270
1640779659.875530,0.293685500,-0.100130500,8.959425930,0.072264670,-0.038172300,-0.018966200
1640779659.878100,-0.140292960,-0.100656990,10.057487490,0.095421080,0.027896470,-0.033465030
1640779659.880440,0.069414910,0.149247420,9.465962410,0.038692350,0.081887840,-0.031864640
1640779659.883170,-0.054686960,0.036272400,10.329513550,0.024949020,-0.046263640,-0.025585300
1640779659.885590,-0.300104230,-0.137060880,9.936704640,0.073869530,-0.016686320,-0.022774930
1640779659.888220,0.025729230,0.132651340,8.876059530,0.120602560,-0.042913850,-0.020247700
1640779659.890430,-0.487799020,0.200587650,10.116902350,0.089435270,0.039553630,-0.026831030
1640779659.893100,-0.290200170,0.254708380,9.618321420,0.041487820,0.050449380,-0.027982890
1640779659.895420,-0.207490240,0.227403980,10.202369690,0.071524090,-0.061778730,-0.057283040
1640779659.898350,-0.330880020,0.304260080,9.917092320,0.108444710,0.001536310,-0.055578360
1640779659.900470,0.112207000,0.569241880,9.264667510,0.087758910,-0.039611760,-0.040771070
1640779659.903350,-0.230827090,0.482784780,10.338427540,0.052563850,0.021442770,-0.021636490
1640779659.906000,0.065125470,0.282926800,9.540248870,0.044709450,0.014075640,-0.012120600
1640779659.908380,0.086048800,0.076039370,10.041708950,0.109225530,-0.064536950,-0.007098910
1640779659.910470,-0.164602740,0.019044770,9.830561640,0.138391550,0.016640130,-0.020860140
1640779659.913160,0.063559900,0.235719140,9.489901540,0.063154100,-0.057864200,-0.027772790
1640779659.915620,-0.180114700,0.206989930,10.059909820,0.016230340,0.010794400,-0.030957160
1640779659.918300,0.068644020,0.058523890,9.303907390,0.054644060,0.031836330,-0.049690910
1640779659.920510,0.021746200,0.335980150,10.122159000,0.143347700,-0.016616280,-0.058066850
1640779659.923120,-0.217112720,0.589228930,9.789072990,0.126315670,0.030499700,-0.037533040
1640779659.925480,-0.048378560,0.445746690,9.587236400,0.019203130,-0.088632130,-0.015947220
1640779659.928100,-0.196872620,0.073326990,9.727622990,0.047503420,0.014989080,-0.019256770
1640779659.930550,0.046740040,-0.152427840,9.204395290,0.128918860,0.053112210,-0.057673460
1640779659.933210,-0.071109380,0.134539070,10.359109880,0.149241090,0.011350220,-0.051394110
1640779659.935540,-0.046425250,0.208320130,9.833404540,0.077928600,0.038525460,-0.057122120
1640779659.938820,0.050197720,-0.038212320,9.801642420,0.017757710,-0.069804470,-0.049884610
1640779659.940440,-0.202292900,-0.012424210,9.798555370,0.118033600,0.007632380,-0.041651730
1640779659.943140,-0.021372890,0.062352300,9.007194520,0.168767600,0.000281630,-0.067560370
1640779659.945510,-0.236481760,0.440413920,10.221137050,0.115412480,0.023955110,-0.056299570
1640779659.948160,-0.262075570,0.623812970,9.977680210,0.044918060,0.056488810,-0.059588260
1640779659.950830,-0.092210340,0.391810890,10.044735910,0.031800570,-0.081697110,-0.051911180
1640779659.953130,-0.185056480,0.612372880,9.872687340,0.128050160,0.011289120,-0.053007900
1640779659.955480,0.025142580,0.655540700,9.163408280,0.121173260,0.027285520,-0.072543330
1640779659.958150,-0.231642020,0.595822510,10.365265850,0.052233040,0.010281800,-0.037576250
1640779659.960440,-0.086263010,0.320196570,9.663699150,0.043715540,0.011935830,-0.030963120
1640779659.963220,0.059468810,-0.081641460,9.705252650,0.068187720,-0.053660580,-0.051306200
1640779659.965510,-0.085451520,0.232205330,9.953556060,0.111909210,0.038331750,-0.045022370
1640779659.968270,0.110209060,0.204080370,9.432458880,0.053420660,0.034399330,-0.057359040
1640779659.971580,0.013328910,0.070809080,10.209361080,0.018584730,0.012536350,-0.037081540
1640779659.973120,0.070212480,0.087650640,9.655455590,0.098794710,0.046862660,-0.041802230
1640779659.975500,-0.006155370,0.146450340,9.623845100,0.109617430,-0.041684510,-0.065067410
1640779659.978220,-0.258809450,0.550256790,9.743160250,0.070165100,-0.001320240,-0.036525730
1640779659.980440,-0.111439160,0.312257350,9.379248620,0.006844100,0.048910090,-0.060917450
1640779659.983510,-0.331310330,0.196114600,10.202743530,0.045552850,0.015172360,-0.081874420
1640779659.985500,-0.235604820,0.438102100,9.823602680,0.136817990,0.007338820,-0.074815760
1640779659.988130,-0.130575450,0.464795890,9.540147780,0.084093200,-0.010789930,-0.067356210
1640779659.990440,-0.279473930,0.416401030,10.027442930,0.014254450,0.005540250,-0.038053100
1640779659.993180,-0.103886920,0.020455950,9.657366750,0.031404200,0.013846160,-0.029110910
1640779659.995660,-0.155003670,-0.214479680,9.799222950,0.110518930,-0.032404060,-0.060883160
1640779659.998100,-0.106839290,0.120742230,9.791549680,0.136962550,0.010707970,-0.073741400
1640779660.000810,-0.082445530,0.364266750,9.723797800,0.032064330,0.015448040,-0.085572920
1640779660.003210,-0.172456090,0.458695350,10.092707630,-0.024153290,-0.036169590,-0.075015430
1640779660.005440,-0.061805340,0.552203180,9.771644590,0.027319790,-0.005976860,-0.063551970
1640779660.008310,-0.002838440,0.552780270,9.552391050,0.102883580,-0.008873640,-0.068144500
1640779660.010560,-0.165186750,0.776184740,10.072532650,0.104671710,0.006276370,-0.043763220
1640779660.013130,-0.167093460,0.708001490,9.866027830,-0.011640790,0.009147820,-0.012709200
1640779660.015490,-0.144302130,0.158625620,9.902039530,-0.032681230,-0.055994090,-0.021466610
1640779660.018320,-0.122131260,0.040350120,9.791395190,0.055538130,-0.008419160,-0.047951940
1640779660.020510,0.149374320,0.148586050,9.218738560,0.075189780,0.037844480,-0.061611830
1640779660.023100,0.044174790,0.209014560,10.135710720,0.029611590,0.033707920,-0.050289930
1640779660.025460,0.093960430,0.086795320,10.013824460,-0.014293190,0.036983190,-0.047206870
1640779660.028180,0.134734170,-0.086657320,9.685392380,0.037519630,-0.059512270,-0.051552060
1640779660.030480,-0.111880010,0.119037600,9.773440360,0.091151900,-0.015182800,-0.052377580
1640779660.033220,-0.025767050,0.366714630,9.072216990,0.035011760,0.035364920,-0.067844980
1640779660.035500,-0.280654070,0.306730240,10.147072790,-0.000408290,0.015217070,-0.063526630
1640779660.038260,-0.253021480,0.388028440,9.855660440,0.031113630,0.033344330,-0.068415710
1640779660.040450,-0.061107150,0.513877150,9.524673460,0.056345760,-0.040818750,-0.070367760
1640779660.043340,-0.299620870,0.436582920,10.161450390,0.043019660,0.020989780,-0.046908860
1640779660.045520,-0.070284420,0.220672280,9.494606020,0.025081640,0.042916840,-0.041745600
1640779660.048110,-0.272833230,-0.082536220,10.228265760,0.058400630,-0.045782330,-0.050756340
1640779660.050890,-0.163294790,0.033780170,9.530723570,0.065761800,0.013110040,-0.065912310
1640779660.053200,0.075370920,0.222812090,9.230418210,0.028185550,-0.008696320,-0.080637630
1640779660.055650,-0.312218430,0.321698490,10.431797980,-0.009585920,0.031135970,-0.076498090
1640779660.058340,0.022371110,0.456375150,9.489315990,0.015169380,-0.009311740,-0.072184210
1640779660.060450,-0.124451170,0.482236650,10.057660100,0.066524740,-0.072540350,-0.071573260
1640779660.063140,-0.140654190,0.662124340,9.694172860,0.044788420,0.055660310,-0.052399930
1640779660.065450,-0.081347920,0.583569410,9.777448650,-0.013093650,-0.014746190,-0.046518450
1640779660.068470,-0.423902840,0.269023240,10.539540290,-0.016024710,-0.031909350,-0.036820770
1640779660.070460,0.129060890,0.189317150,8.939978600,0.035242740,-0.013659900,-0.055439780
1640779660.073200,0.061895080,0.211939590,9.766034130,0.049197670,-0.002256040,-0.078617040
1640779660.075620,-0.028640690,0.327390340,9.892284390,-0.006376210,0.093850490,-0.048872830
1640779660.078120,0.166823760,0.050092870,9.834891320,-0.021278860,-0.050006810,-0.042553250
1640779660.080440,-0.163205340,-0.206054720,10.295811650,0.032964350,-0.041253870,-0.052420800
1640779660.083200,0.166215790,0.110451270,8.899168970,0.072535880,0.015819070,-0.055895750
1640779660.087090,-0.132522550,0.189987850,10.010847090,0.016073880,0.022651250,-0.068913410
1640779660.088580,-0.246985350,0.311405900,9.932172780,-0.032521780,0.079289060,-0.060863790
1640779660.090610,0.013573380,0.357537600,9.569981580,0.015066560,-0.061969470,-0.070102520
1640779660.093180,-0.383515660,0.346049930,10.036017420,0.059081630,-0.023230910,-0.069293390
1640779660.095490,-0.100642670,0.563279870,8.965669630,0.039571520,0.023147460,-0.050793590
1640779660.098180,-0.288799430,0.265550970,10.322751050,-0.011374060,0.000061090,-0.046999760
1640779660.100780,-0.292395290,0.038331670,10.126821520,0.001485650,0.058642030,-0.043515860
1640779660.103160,0.105358350,0.066021410,9.596673970,0.061610340,-0.058829790,-0.058391690
1640779660.105520,-0.219609450,0.134985910,10.209099770,0.046250230,0.007374590,-0.066967310
1640779660.108370,0.103029390,0.388680430,9.148508070,-0.018371640,0.025300680,-0.051835180
1640779660.110520,-0.158377070,0.232081560,10.237054820,-0.013192000,-0.036311150,-0.053076450
1640779660.113150,-0.273939130,0.292052660,9.827592850,0.028866540,0.016798080,-0.058175630
1640779660.115490,0.033158470,0.597618340,9.326468470,0.057762860,-0.063955780,-0.056375560
1640779660.118230,-0.396365670,0.664893210,10.447067260,-0.008021300,0.031392280,-0.037856400
1640779660.120500,-0.084846490,0.654950140,9.596403120,-0.069662940,0.025960800,-0.034125150
1640779660.123300,-0.148886220,0.313215290,10.279106140,-0.007112320,-0.077779590,-0.040309130
1640779660.125490,-0.114481130,0.182770740,9.486309050,0.045570730,0.019802150,-0.051759180
1640779660.128160,0.183954750,0.388859720,9.083983420,0.030870740,-0.019527970,-0.054736440
1640779660.130450,-0.358784560,0.119397360,10.515115740,-0.048302130,0.011469430,-0.029346350
1640779660.133130,0.060904640,-0.159239620,9.405134200,-0.058732940,-0.014761090,-0.028176610
1640779660.135530,0.054228590,-0.235209580,9.933606150,0.040374700,-0.061906880,-0.051741310
1640779660.139800,-0.051147280,0.065127830,9.746559140,0.046949090,0.072023280,-0.061255690
1640779660.143020,0.136996880,0.394419760,9.608657840,-0.013844670,-0.001326200,-0.042790170
1640779660.143680,-0.347370060,0.121062320,10.536003110,-0.039917230,-0.019907950,-0.039194530
1640779660.145470,-0.031134280,0.157569380,9.063279150,0.023736060,-0.032596290,-0.036022070
1640779660.148130,-0.236167940,0.292276830,9.572199820,0.078482930,-0.041532520,-0.042183700
1640779660.150920,-0.452938200,0.376007970,9.901068690,0.009547170,0.077725950,-0.042085350
1640779660.153260,-0.210812820,0.342685460,9.923752780,-0.032861530,-0.020949540,-0.046701730
1640779660.155710,-0.500493110,0.112288510,10.447363850,-0.000335280,-0.061009840,-0.045870240
1640779660.158140,-0.054358580,0.185747410,9.133188250,0.052858890,-0.032983720,-0.054182110
1640779660.160480,-0.179431660,0.320066420,9.818924900,0.053493680,-0.020056960,-0.054037570
1640779660.163130,-0.275708080,0.304053660,10.078718190,-0.021547080,0.030168890,-0.036121910
1640779660.165530,0.099015680,0.231888260,9.722706790,-0.021161140,-0.063438710,-0.016732510
1640779660.168360,-0.162426560,0.052315680,10.141709330,0.044088070,-0.051906700,-0.020807980
1640779660.170880,0.060343790,0.355664190,9.495845790,0.042577080,-0.010229650,-0.038513540
1640779660.176200,-0.112589580,0.664623440,10.083283420,-0.005637110,-0.058740390,-0.038817520
1640779660.176940,-0.190524040,0.547043560,9.692759510,-0.073684760,-0.027622280,-0.034478300
1640779660.178100,0.109872000,0.326271620,9.396542550,-0.014889240,-0.040689100,-0.043098620
1640779660.180500,-0.256636080,0.367461140,10.103890420,0.065843760,0.003498790,-0.049161920
1640779660.183180,-0.136748670,0.513376180,9.665881160,0.015445050,-0.053159900,-0.023876130
1640779660.185700,-0.140577180,0.213625950,9.847814560,-0.064876680,-0.072363030,-0.009210410
1640779660.188260,-0.126993630,-0.217925250,9.501959800,-0.057023760,0.009685760,-0.028592350
1640779660.190700,0.037891190,-0.241461400,9.739754680,0.051604200,-0.031006340,-0.043547150
1640779660.193130,-0.179261210,0.122624550,10.002488140,0.061757870,-0.015434620,-0.054623190
1640779660.195470,0.013347040,0.306845640,9.461069110,-0.049148500,-0.058160720,-0.035174190
1640779660.198110,-0.105530020,0.055852850,10.059189800,-0.053359570,-0.038088850,-0.029610090
1640779660.200850,-0.185563270,-0.008638190,9.640883450,0.030525030,-0.010256470,-0.047275430
1640779660.203410,-0.196545500,0.250087410,9.916440960,0.100737800,-0.090764450,-0.051607200
1640779660.206120,-0.341580750,0.582104330,9.931921960,0.016234820,-0.014024970,-0.053907930
1640779660.208690,-0.149364650,0.597372890,9.526782040,-0.098933290,-0.049623860,-0.033934410
1640779660.210530,-0.149833190,0.314499350,10.157760620,-0.041560840,-0.047579420,-0.026863820
1640779660.213120,0.060261260,0.345298740,9.469303130,0.051701080,-0.002481040,-0.046285990
1640779660.215460,0.105744880,0.483177040,9.924210550,0.059625510,-0.060252850,-0.033390530
1640779660.218580,-0.074928830,0.418895660,10.138227460,-0.039419540,-0.007042290,-0.010894240
1640779660.223260,0.053344060,0.047592270,9.518736840,-0.094105300,-0.079900030,-0.016878550
1640779660.224900,-0.084320540,-0.121330600,10.058605190,0.001366440,-0.056748090,-0.018593670
1640779660.225720,-0.012614850,0.142474990,9.282137870,0.044329460,0.010176000,-0.047089160
1640779660.228100,-0.012312700,0.415434180,9.764144900,-0.008422140,-0.038959080,-0.041769440
1640779660.230480,-0.117847030,0.375384270,10.037858960,-0.069499000,0.036168090,-0.007456540
1640779660.233170,0.053755300,0.027987790,9.631647110,-0.032673780,-0.051969290,-0.025451190
1640779660.236110,-0.171190320,0.166949180,10.174148560,0.062553570,-0.071588160,-0.020951030
1640779660.238170,-0.082299400,0.388477890,9.185483930,0.017070770,-0.008855760,-0.028651950
1640779660.240690,-0.041916070,0.266531230,9.599270820,-0.070235130,-0.024360420,-0.039498510
1640779660.243200,-0.156847220,0.168803130,10.054137230,-0.057265170,0.043247640,-0.031238800
1640779660.245470,0.078011070,0.056099540,9.621856690,0.041748590,-0.041660680,-0.044809280
1640779660.248130,-0.208061840,0.291828040,10.184417720,0.059339420,-0.067652780,-0.032576930
1640779660.250740,-0.109776030,0.369536880,9.405948640,-0.030803680,-0.008171800,-0.010310110
1640779660.253400,-0.217505310,0.013501170,9.815434460,-0.058372320,-0.025933980,-0.017155710
1640779660.255550,-0.342883770,-0.044196450,10.098910330,0.013357400,0.008247790,-0.031384830
1640779660.258150,-0.134568290,0.225852850,9.499073030,0.061613330,-0.066831710,-0.064416240
1640779660.260430,-0.259587500,0.475045860,9.849021910,0.004851820,-0.061151400,-0.051066290
1640779660.263110,0.007457750,0.650842010,9.395173070,-0.082464520,0.019438560,-0.037300590
1640779660.265590,-0.019410860,0.433078170,10.068292620,-0.066147750,-0.017702580,-0.023952130
1640779660.268150,0.006247870,0.362901060,10.106990810,0.028462710,-0.022092460,-0.016018750
1640779660.270540,0.145344420,0.561529700,9.546278950,0.047008700,-0.051690650,-0.013694170
1640779660.273580,-0.147298430,0.455189320,9.886178020,-0.047093630,-0.038892030,0.006040930
1640779660.275550,-0.019459910,0.252091080,9.431779860,-0.111274410,-0.014251470,0.007443130
1640779660.278120,-0.027467820,-0.141761600,9.768180850,-0.026458510,-0.018888710,-0.021499400
1640779660.280460,-0.039695820,-0.015833180,9.818799020,0.048890710,0.013148790,-0.043055410
1640779660.283240,-0.047607330,0.362787040,9.750178340,0.012768810,-0.022925440,-0.032469620
1640779660.285840,-0.235161630,0.183368090,10.104740140,-0.090512630,-0.043572490,-0.003263350
1640779660.290000,-0.051136430,0.033517870,9.512146000,-0.070042910,-0.016005340,-0.008645650
1640779660.290680,-0.146293920,-0.009815520,9.750920300,0.043380260,-0.029779970,-0.035589930
1640779660.293110,-0.003590750,0.353416290,9.571419720,0.042465330,0.012689830,-0.043804940
1640779660.295520,0.058203450,0.654691580,9.724114420,-0.044734780,0.022524600,-0.018967690
1640779660.298230,-0.086617030,0.304396270,10.303942680,-0.103104120,-0.015443560,-0.005230310
1640779660.300470,-0.008789010,0.205403690,9.737016680,-0.012229380,-0.050491110,-0.008782750
1640779660.303170,-0.142912630,0.140759690,9.570005420,0.074063240,-0.062519320,-0.012090800
1640779660.306000,-0.153520520,0.342789020,9.710097310,-0.006386640,0.031435500,-0.023938720
1640779660.308200,-0.299833360,0.428057280,10.125240330,-0.092799950,0.009341540,-0.022289150
1640779660.310500,-0.180327330,0.184266840,10.073842050,-0.093390070,-0.066667800,-0.020505490
1640779660.313110,0.050091840,0.306704160,9.459506030,-0.001861160,-0.029227140,-0.038437550
1640779660.315650,-0.031977270,0.613510790,9.587605480,0.033700470,-0.002336500,-0.036130850
1640779660.318410,0.045288350,0.721070650,9.950354580,-0.076784190,0.012537840,-0.001813470
1640779660.320520,0.017884760,0.446681320,9.906435970,-0.108820210,-0.011520090,0.019687410
1640779660.323100,0.041433830,0.052548880,9.924675940,-0.048921990,-0.047156210,0.006541610
1640779660.325510,0.065587360,0.242641390,9.739604000,0.014266370,-0.005488100,-0.006756190
1640779660.328160,-0.014796030,0.314889670,9.454225540,-0.037132200,0.008697810,-0.006583330
1640779660.330850,0.092002820,0.207161860,9.813364980,-0.136083380,0.020706650,-0.002953410
1640779660.333150,0.017053650,0.029138850,9.873093610,-0.070098050,0.048519660,0.004065040
1640779660.336740,-0.048515910,-0.015054960,9.874635700,0.008016830,-0.044034430,-0.000351670
1640779660.338230,-0.196963500,0.340498180,9.862326620,-0.004325810,-0.027315320,0.000092390
1640779660.340500,-0.172614690,0.236560290,9.249603270,-0.086888670,0.023037200,0.004377960
1640779660.343160,-0.190731690,-0.014367250,10.038399700,-0.102238360,0.029814240,-0.012016290
1640779660.345580,-0.239135280,0.141870350,10.005551340,0.008921330,0.055120890,-0.015465910
1640779660.348180,-0.075351860,0.349786190,9.577298160,0.011947750,-0.056965650,-0.018937890
1640779660.350910,-0.140925560,0.507393660,9.949085240,-0.061513480,-0.005954500,0.003600120
1640779660.353170,-0.012589200,0.384960560,9.335879330,-0.104030970,0.049220030,0.003801290
1640779660.355790,-0.108496510,0.024226560,10.299028400,-0.046965480,-0.015790760,0.009197000
1640779660.358110,-0.123170740,0.181246040,9.971724510,0.049614910,0.028912720,-0.009161230
1640779660.360460,0.069570590,0.442404960,9.543509480,-0.029088560,-0.039544700,-0.023067000
1640779660.363170,-0.166614490,0.467633870,10.267143250,-0.129042580,0.020188090,0.023689870
1640779660.365480,0.028605180,0.246526300,9.336693760,-0.102843340,0.040076670,0.000919400
1640779660.368330,0.002962690,0.130595710,10.011535640,-0.000876190,-0.044581290,-0.002670290
1640779660.370510,-0.086343590,0.474587170,9.809209820,0.035783650,0.073079760,0.008150940
1640779660.373120,-0.025149470,0.548023700,9.731154440,-0.097495320,-0.017787520,0.004424160
1640779660.375550,-0.293878700,0.322798550,10.394189830,-0.150181350,-0.028541690,0.043326620
1640779660.378280,0.137557490,0.107304840,8.989944460,-0.074015540,0.051397090,0.002546610
1640779660.380610,0.017798640,0.210333380,10.008904460,0.005483630,0.011238460,-0.007979570
1640779660.383110,-0.172301370,0.574947600,10.020502090,-0.021719930,0.070025030,0.020459290
1640779660.385610,0.120487660,0.224697310,9.465998650,-0.134061290,-0.029978160,0.015324350
1640779660.388570,-0.230451060,-0.100546760,10.293581960,-0.100937490,0.002458690,0.039789080
1640779660.390520,0.015414960,-0.042171590,9.140646930,-0.007858870,0.044488910,0.013279920
1640779660.393130,-0.076348560,0.067224850,10.017249110,-0.016668440,-0.002448260,-0.015930830
1640779660.395540,-0.238618820,0.412072480,9.900368690,-0.081162140,0.089138750,0.003187360
1640779660.398090,0.073743140,0.170275380,9.598515510,-0.112648320,-0.020118060,0.000737610
1640779660.400820,-0.346413080,0.195794720,10.325600620,-0.045090920,-0.017386670,0.015009940
1640779660.403270,-0.069559980,0.460812960,8.941564560,-0.005747380,0.015789270,0.005106630
1640779660.405540,-0.267448400,0.335897510,10.092741010,-0.056247410,0.008055570,0.012107190
1640779660.408240,-0.461867930,0.412012310,10.120242120,-0.086240480,0.087267160,0.022107360
1640779660.410590,-0.100565850,0.238617910,9.757047650,-0.078882280,-0.070922080,0.006082650
1640779660.413140,-0.380473170,0.171402340,10.288010600,-0.033019490,-0.027179720,0.012657050
1640779660.415530,0.056072730,0.439894470,8.915929790,-0.052942340,0.036722430,-0.001250210
1640779660.420110,-0.098005310,0.352645280,10.337602620,-0.094264750,0.000777840,0.018934910
1640779660.421770,-0.159969870,0.185780260,10.073740010,-0.085861980,0.054308780,0.037989020
1640779660.423140,0.186137680,0.099394750,9.628516200,-0.030593580,-0.080549720,0.010022520
1640779660.425580,-0.186592850,0.270780920,10.157778740,-0.028908250,-0.016312300,0.021225210
1640779660.428200,0.194304700,0.477545320,8.748160360,-0.108933460,0.049513590,0.017935040
1640779660.430460,-0.059990550,0.256767810,10.372043610,-0.124831500,0.006005170,0.021956860
1640779660.433560,-0.147424890,0.132675070,10.027497290,-0.048226110,0.063177940,0.016510480
1640779660.435590,0.092587660,0.348805250,9.477590560,0.001949070,-0.075179350,-0.001505020
1640779660.438280,-0.395707940,0.444523810,10.288894650,-0.073048470,-0.002498920,0.023819510
1640779660.444400,-0.039526880,0.290622090,8.977291110,-0.151669980,0.056417300,0.023810570
1640779660.445080,-0.315667270,0.029441510,10.398926730,-0.090166930,-0.024245680,0.005580490
1640779660.445880,-0.229292970,0.159730790,9.803331380,-0.018729270,0.045539440,0.004071000
1640779660.448080,0.208508880,0.474257200,9.230621340,-0.034496190,-0.028683250,0.014735760
1640779660.450890,-0.280947120,0.414212640,10.624483110,-0.134809330,0.048854950,0.026342270
1640779660.453160,0.027148250,0.358456250,9.535141940,-0.154189810,0.027272110,0.031700730
1640779660.455490,-0.234781340,0.159134850,10.286009790,-0.059060740,-0.082455580,0.022238490
1640779660.458180,-0.263516750,0.384928230,9.650698660,-0.034216050,0.027637190,0.006738310
1640779660.460480,0.069147410,0.863152380,9.275649070,-0.106389840,-0.000500680,0.005686280
1640779660.463100,-0.291674820,0.696448330,10.651957510,-0.216534730,0.036539140,0.024972860
1640779660.465530,0.196785450,0.508272710,9.597694400,-0.174649070,0.045073030,0.035360450
1640779660.468180,0.061231750,0.305589440,10.236360550,-0.036342440,-0.054761770,0.022333860
1640779660.471380,-0.110073320,0.450461830,9.778614040,-0.052160020,0.015112760,0.040937960
1640779660.473130,0.163792120,0.489975040,9.088685990,-0.177559260,-0.013871490,0.057573620
1640779660.475870,-0.232702090,-0.083159560,10.243419650,-0.239126380,0.032359360,0.056740650
1640779660.478160,0.119753880,-0.171944110,9.561061860,-0.126537680,0.063891720,0.019736590
1640779660.480460,-0.024611400,0.122917790,10.089728360,-0.029008090,-0.005947050,-0.005334620
1640779660.483480,-0.295707230,0.437122400,10.153176310,-0.123992570,0.025931000,0.016203520
1640779660.487620,-0.085649930,0.351183500,9.492378230,-0.206875820,-0.032977760,0.040645900
1640779660.488250,-0.318903650,0.051543980,9.898254390,-0.175037950,0.001941620,0.039912760
1640779660.490900,-0.149829450,0.164415140,9.609150890,-0.077420470,0.055247550,0.020994250
1640779660.493110,-0.142554490,0.388628150,10.060292240,-0.055482980,0.017699600,0.018417840
1640779660.495520,-0.265596330,0.537532630,10.320767400,-0.171199430,0.001151860,0.027889010
1640779660.498140,-0.002893050,0.397216470,9.727895740,-0.210088510,-0.026434660,0.046342620
1640779660.500580,-0.042022150,0.161961300,9.696594240,-0.142149630,-0.003446640,0.041288140
1640779660.503790,0.033460270,0.249388950,9.766282080,-0.070570410,0.051079690,0.027990340
1640779660.505480,-0.025962750,0.446017030,10.025143620,-0.094927850,0.041851400,0.038126110
1640779660.508290,-0.267309220,0.303975790,10.235007290,-0.199387980,-0.034131110,0.050021710
1640779660.510900,-0.140672030,0.066005060,9.631178860,-0.180140140,-0.045414270,0.059187420
1640779660.513110,-0.146941260,0.062339260,9.342446330,-0.114430480,0.010871890,0.035540760
1640779660.515620,-0.246593400,0.318512170,9.948942180,-0.098645690,0.044471030,0.030210620
1640779660.521080,-0.049116780,0.379436880,9.939990040,-0.142781450,0.053258240,0.060103840
1640779660.521680,-0.129992530,0.064637530,10.194632530,-0.157925460,-0.021749730,0.066940480
1640779660.523360,-0.080596420,-0.104294160,9.860553740,-0.083769870,-0.027434530,0.053083890
1640779660.525530,0.003898360,0.161305010,9.276579860,-0.085954380,-0.011020900,0.046363470
1640779660.528130,-0.209858090,0.168819440,9.827025410,-0.145374240,0.021862990,0.038687880
1640779660.530490,0.011953170,0.031287330,9.722502710,-0.148779170,0.064241890,0.027585030
1640779660.533520,-0.124204310,0.163022350,10.134902950,-0.083179760,-0.033262370,0.022965670
1640779660.535550,-0.186024490,0.337465110,9.892953870,-0.052198780,-0.022725770,0.049157450
1640779660.539480,-0.065289660,0.451075110,9.421413420,-0.129479180,-0.016400220,0.054803500
1640779660.541740,-0.477482890,0.217662080,10.284367560,-0.143437060,0.017751750,0.056803230
1640779660.543160,-0.264385280,-0.004486590,9.784886360,-0.082004080,0.003755090,0.052554910
1640779660.545530,-0.275918250,0.228597150,9.936273570,-0.042337190,-0.060600050,0.031733520
1640779660.548140,-0.207533760,0.434287250,9.721788410,-0.098387900,0.017593800,0.040282310
1640779660.550660,0.144860660,0.580102380,9.624629020,-0.183120360,0.006043910,0.044974680
1640779660.554150,-0.134576130,0.312599480,10.376696590,-0.149758160,0.013971330,0.058214370
1640779660.555790,0.185944910,0.185678740,9.606445310,-0.050015740,-0.025466080,0.061056010
1640779660.558080,0.010486970,0.441937060,9.937100410,-0.031922750,-0.045052170,0.052005050
1640779660.560450,-0.160131740,0.457140650,9.696600910,-0.147090840,0.020697710,0.070270880
1640779660.563110,0.035745560,0.244704800,9.784456250,-0.228932500,-0.019803650,0.056247420
1640779660.565760,-0.203540350,-0.044450330,10.170863150,-0.113028310,0.035546720,0.042817000
1640779660.568150,0.089201210,0.055903920,9.493495940,-0.014616550,-0.001771750,0.018128750
1640779660.570890,-0.166203170,0.391960050,10.141320230,-0.053302950,-0.005245210,0.038990380
1640779660.573180,-0.168096970,0.233230440,9.573216440,-0.173380990,0.011867280,0.067459050
1640779660.576470,-0.000166900,-0.165435000,9.911664010,-0.169681010,-0.044524670,0.059887770
1640779660.578140,-0.180640830,-0.078613400,9.773154260,-0.034579630,0.047172610,0.034545360
1640779660.580530,0.121138130,0.120846300,9.475427630,-0.014938420,0.006888810,0.019371510
1640779660.583210,-0.177350520,0.302674080,10.555366520,-0.077532240,0.031358000,0.034132600
1640779660.587670,-0.098399330,0.262912660,9.554855350,-0.134715450,-0.022907560,0.031773750
1640779660.588860,-0.115402100,0.043619270,9.859768870,-0.093784930,-0.083181270,0.039802490
1640779660.590560,-0.265176330,0.244218620,9.396417620,-0.023511050,0.065653030,0.024771690
1640779660.593080,-0.162079260,0.270720090,9.760139470,-0.040970750,0.001242760,0.014947360
1640779660.595490,-0.457754370,0.342406150,10.856521610,-0.072093310,0.017087160,0.044290730
1640779660.598180,-0.040636440,0.376646370,9.306674960,-0.097250940,-0.028097630,0.023090840
1640779660.600580,-0.091255420,0.210475300,10.175362590,-0.073300300,-0.051523750,0.044947870
1640779660.603280,-0.071754960,0.373688370,9.536914830,-0.040940940,0.085057330,0.042994320
1640779660.606270,0.111791800,0.246748150,9.655758860,-0.041715800,-0.038032240,0.033964220
1640779660.608860,-0.255709530,0.134012980,10.531484600,-0.038859250,-0.016924740,0.058622670
1640779660.610520,0.210054220,0.236391250,8.851942060,-0.064750020,-0.010548530,0.031015280
1640779660.613110,-0.074029050,0.288278130,10.271769520,-0.089332460,-0.033296650,0.029116870
1640779660.616180,-0.083579810,0.328831670,9.853492740,-0.095905370,0.094616420,0.033730270
1640779660.618160,0.055748070,0.024942710,9.757174490,-0.028567020,-0.048086050,0.017249590
1640779660.622750,-0.405291140,0.029768980,10.492746350,0.034496190,-0.024320180,0.032860040
1640779660.623210,-0.055383540,0.342239290,8.755679130,-0.028803950,-0.002710520,0.043363870
1640779660.625530,-0.367105070,0.079364920,10.022710800,-0.114391750,-0.046539310,0.039605800
1640779660.628150,-0.279955510,-0.099464180,9.894863130,-0.088498020,0.075103360,0.025336450
1640779660.630490,-0.008673750,-0.041895010,9.656815530,0.047944490,-0.025366250,-0.002495940
1640779660.633550,-0.332986800,0.223407850,10.580851550,0.060403350,-0.027877090,0.003966690
1640779660.635740,0.056317840,0.589891610,9.175823210,-0.066758690,0.005382300,0.029392540
1640779660.638250,-0.108357500,0.328868210,10.025156970,-0.129807010,-0.055012110,0.038307900
1640779660.643260,-0.180829940,0.082829030,10.005171780,-0.026494260,0.035844750,0.034192210
1640779660.643680,0.012764520,0.231872570,9.480338100,0.101058210,-0.046545270,0.014996530
1640779660.645540,-0.325692860,0.421136800,10.197828290,0.032152240,-0.054143380,0.018250940
1640779660.648150,-0.107890060,0.572291550,9.391270640,-0.108942400,0.006635490,0.038175290
1640779660.650840,-0.145017530,0.227748350,9.941320420,-0.124749540,-0.033080580,0.032836200
1640779660.653160,-0.132864680,0.005145230,10.091224670,0.002613660,0.009223820,0.020888450
1640779660.656100,0.152344050,0.238448590,9.570440290,0.111921130,-0.020721550,0.019231440
1640779660.658100,-0.162368610,0.445520370,10.165134430,0.012667480,-0.028176610,0.042466820
1640779660.660480,-0.026795130,0.315609750,9.691447260,-0.126987710,-0.025343890,0.063923000
1640779660.663090,0.110865530,-0.179041680,9.453687670,-0.067587200,-0.029687590,0.047728430
1640779660.665680,0.001229430,-0.158086870,9.802902220,0.060178350,0.019258260,0.008310380
1640779660.668160,0.057390180,0.337916520,9.730111120,0.097529580,0.018577270,0.002057850
1640779660.672040,-0.142160420,0.395570610,10.022672650,-0.040301680,-0.028358410,0.019417710
1640779660.673130,-0.166380970,0.040316590,9.953388210,-0.080771750,-0.028350950,0.031508510
1640779660.676700,-0.177298560,-0.031178720,9.561278340,0.036184490,-0.025083130,0.026425720
1640779660.678120,-0.364556580,0.115041820,9.867914200,0.098232950,-0.020501020,0.014637410
1640779660.680510,-0.288053810,0.343029140,9.850109100,0.050051510,0.014700000,0.016167760
1640779660.683340,-0.172533140,0.323059350,9.855196950,-0.038582090,-0.020630660,0.025531650
1640779660.685990,-0.167008460,0.031604990,10.077498440,0.000415740,-0.025625530,0.023941690
1640779660.688210,0.126080540,0.212762300,9.457500460,0.088864560,-0.018216670,0.017359850
1640779660.690530,0.046357270,0.476244930,9.876997950,0.076761850,-0.024555620,0.018721820
1640779660.693090,-0.036855830,0.370076150,10.089084630,0.007291140,0.017638500,0.040327010
1640779660.695500,0.044092640,0.217544630,9.955817220,0.000648200,-0.049972540,0.042131550
1640779660.698800,-0.178704840,0.100191410,9.989866260,0.078830120,-0.050400200,0.026986000
1640779660.700560,0.031913280,0.392716320,9.328667640,0.079298030,-0.012291970,0.030823060
1640779660.703260,-0.118426360,0.520961940,9.900155070,0.013518330,0.013343990,0.035542250
1640779660.705630,-0.098489740,0.155639380,9.949239730,0.008629260,0.026579200,0.047178560
1640779660.709110,0.087915470,0.037207320,9.863058090,0.089892750,-0.050555180,0.041557850
1640779660.710520,-0.117306530,0.151420440,9.875373840,0.128540400,-0.020046530,0.034859780
1640779660.713140,0.069958560,0.169497480,9.438096050,0.031889980,0.002528730,0.043815370
1640779660.715580,-0.161303700,0.038094480,10.198843000,0.014755130,0.009816880,0.045479840
1640779660.718570,-0.046923140,-0.088839950,9.624774930,0.090108820,0.010079150,0.018741190
1640779660.721860,0.009912480,0.261198280,9.700801850,0.129486620,-0.063824660,0.012369460
1640779660.723100,-0.149387850,0.463045900,9.675487520,0.102494660,0.040213760,0.036509340
1640779660.725550,-0.009620990,0.202079980,9.695150380,0.044323510,-0.011485820,0.037366150
1640779660.728180,-0.280505090,0.231659500,10.443942070,0.093847520,-0.023560230,0.050191580
1640779660.730660,-0.008572360,0.161113080,9.317031860,0.138226150,0.003972650,0.034701830
1640779660.733120,-0.132418720,0.312053260,10.154838560,0.101622950,-0.027109680,0.018090010
1640779660.736100,-0.354049560,0.585236370,10.005847930,0.065003340,0.035867100,0.023943190
1640779660.739390,-0.015289270,0.229639530,9.533461570,0.051499900,-0.079332300,0.027757880
1640779660.741740,-0.171813130,0.355503380,10.044906620,0.116467480,-0.000619890,0.039905310
1640779660.743120,0.195127070,0.482969460,9.223644260,0.125105690,0.050887470,0.038449470
1640779660.745580,-0.034155830,0.328605890,10.730525020,0.071784860,-0.010581320,0.058054930
1640779660.748200,-0.167669640,0.357452420,10.139752390,0.073093180,0.013710560,0.066950920
1640779660.750930,0.152088170,0.026816140,9.441550250,0.084841260,-0.105214120,0.047047440
1640779660.753170,-0.185392130,0.182107230,9.764127730,0.126507880,0.017331540,0.044110410
1640779660.755540,0.223896830,0.444553200,8.926373480,0.099374350,0.080679360,0.025407970
1640779660.758110,-0.029688930,0.358490850,10.632955550,0.052502760,0.012938680,0.051498420
1640779660.760480,-0.034693840,0.256727990,10.052447320,0.090576720,0.033070150,0.063186880
1640779660.763340,0.132306100,0.163130280,9.631683350,0.145371290,-0.086425270,0.046405200
1640779660.765530,-0.380089400,0.248176440,10.041273120,0.126889360,0.004288550,0.054520370
1640779660.768570,0.004601940,0.246338380,8.937848090,0.069306790,0.052666670,0.043837730
1640779660.770520,-0.244548380,0.083619370,10.382006650,0.075587640,0.028103590,0.027851760
1640779660.773100,-0.125741470,0.216258320,9.868577000,0.127699970,0.054501010,0.029623510
1640779660.775570,0.122862700,0.395101670,9.625365260,0.149421390,-0.055471060,0.042411690
1640779660.778180,-0.336901430,0.262690900,10.248976710,0.104050330,0.004433090,0.049056110
1640779660.780490,0.008229390,0.232262700,9.280896190,0.094386940,0.014387070,0.058442350
1640779660.783150,-0.257834050,0.192357760,10.277759550,0.128136580,-0.014381110,0.045339760
1640779660.785710,-0.114267250,0.363818680,9.698769570,0.121538360,0.036619610,0.046731540
1640779660.789320,0.106686270,0.577141230,9.864451410,0.103855140,-0.013293330,0.033058230
1640779660.790490,-0.206367370,0.550068380,10.186453820,0.083021800,0.030399860,0.039887420
1640779660.793140,0.199209810,0.510551750,9.368748660,0.091065470,-0.016644600,0.053586070
1640779660.795710,0.001166530,0.397962990,10.041503910,0.132286560,0.017255550,0.056472420
1640779660.798150,0.060188510,0.484212960,9.634259220,0.103630150,0.069126490,0.050812970
1640779660.801050,0.033759060,0.435823710,10.249350550,0.066320610,-0.024063890,0.073355420
1640779660.803160,-0.011509970,0.146497980,9.841450690,0.055232660,0.038990380,0.063654790
1640779660.805960,0.200321500,-0.016916040,9.438451770,0.115129370,0.005881490,0.045342750
1640779660.808710,-0.082050940,0.205602080,10.058074000,0.152359920,0.060626860,0.045643760
1640779660.810640,0.136302930,0.458746400,9.208509450,0.075796250,0.070099540,0.049920380
1640779660.813160,-0.151225580,0.249740390,10.394657140,0.029504300,-0.000818070,0.076425080
1640779660.815560,-0.214874240,0.021521610,9.705235480,0.110952580,0.050950060,0.056475410
1640779660.818310,-0.122912090,0.123548970,9.493154530,0.177842390,-0.043404100,0.018563870
1640779660.820550,-0.337224600,0.474147350,9.910574910,0.121723120,0.071972620,0.026601550
1640779660.823090,0.035428120,0.536628720,9.263545990,0.018990040,0.103221850,0.026281180
1640779660.825650,-0.239823710,0.332739410,10.908534050,0.038833920,0.002601740,0.037086010
1640779660.828160,0.030924980,0.409151550,9.532310490,0.134027000,0.039401660,0.046132510
1640779660.830550,0.191620350,0.421083210,9.286224370,0.157402500,-0.027200580,0.037632880
1640779660.833160,-0.215060380,0.411943350,10.233529090,0.081229200,0.106172260,0.055547060
1640779660.835640,0.044165730,0.348861550,9.394082070,0.024662910,0.047568980,0.049313910
1640779660.838770,-0.258053120,0.044197670,10.421045300,0.066506870,-0.040791930,0.031767790
1640779660.840590,-0.002214000,0.321284680,9.364864350,0.120830540,0.068293510,0.020904840
1640779660.843640,0.072576510,0.608883680,9.532729150,0.110849740,0.030422210,0.015532970
1640779660.845560,-0.295520660,0.564905520,10.532803540,0.023782250,0.079117700,0.035372370
1640779660.848140,0.106751940,0.414542940,9.385627750,0.040160120,0.020830330,0.051841140
1640779660.851060,-0.135599050,0.128307610,9.998120310,0.123673680,-0.013980270,0.049436100
1640779660.853240,-0.067794650,0.327164170,9.401401520,0.124993940,0.079302490,0.041396920
1640779660.855570,0.078875240,0.490642820,9.483606340,0.036089130,0.047320130,0.040350850
1640779660.858140,-0.143910480,0.133849680,10.214359280,-0.016279520,0.080071400,0.033298130
1640779660.860580,0.248958630,0.010321290,9.452285770,0.094507640,0.044582780,0.019657610
1640779660.863130,-0.049405610,0.222644330,10.013357160,0.170275610,0.026094920,0.018489360
1640779660.865600,-0.100771440,0.341800750,9.628949170,0.079458960,0.049406290,0.041244920
1640779660.868190,-0.067427770,0.182297020,9.625597950,0.014139710,0.022037320,0.045390430
1640779660.871620,-0.258157490,0.025384630,9.879754070,0.055427850,0.081311150,0.029182430
1640779660.873180,-0.066044310,0.211870340,9.742801670,0.134529160,0.039169180,0.007520620
1640779660.875570,-0.227713580,0.561631800,10.047060010,0.135765970,0.031232840,0.011114780
1640779660.878140,-0.028061250,0.685072660,9.538982390,0.030468400,0.041301550,0.018626450
1640779660.880520,-0.028264190,0.513873280,9.931826590,0.011788310,0.037121780,0.044997040
1640779660.883420,-0.050576110,0.323568580,9.839273450,0.096496930,0.076566640,0.027503080
1640779660.885620,0.076591660,0.381937530,9.823572160,0.151757910,0.006076690,0.025007130
1640779660.888200,-0.156703290,0.592286590,10.104089740,0.077283390,0.043305760,0.040653350
1640779660.891060,0.022111010,0.357653230,9.374674800,-0.019928810,0.048962240,0.040853030
1640779660.893160,-0.178375330,0.072228130,10.155755040,0.030809640,0.014901160,0.035184630
1640779660.895590,0.013161370,0.205186890,9.516509060,0.129975380,0.085921600,0.024238230
1640779660.898110,0.107477060,0.422743770,9.610185620,0.113889560,0.043910750,0.009369850
1640779660.900820,-0.192823230,0.475655350,10.408004760,0.017461180,0.086373100,0.043569520
1640779660.903220,0.094306250,0.195154640,9.518978120,0.011079010,0.036461650,0.043255090
1640779660.905800,-0.133133870,-0.025634510,9.930745120,0.101502250,-0.007955730,0.026139620
1640779660.910140,-0.033006010,0.342640010,9.299491880,0.123380120,0.096102070,0.016470250
1640779660.910770,0.107174450,0.448129480,9.398278240,0.042124090,0.079329320,0.008538370
1640779660.913090,-0.196996000,0.223208040,10.460309030,0.003485380,0.086498270,0.021967290
1640779660.915570,0.060895320,0.177773400,9.657136920,0.085409000,0.051091620,0.020073360
1640779660.918170,-0.196995590,0.164554130,9.864568710,0.139179800,-0.008742510,0.021116430
1640779660.921820,-0.201367300,0.253212000,9.602605820,0.079375510,0.069427490,0.026504700
1640779660.923550,-0.055186710,0.132179860,9.453819270,0.052122780,0.100833180,0.018660730
1640779660.925570,-0.316812520,0.093778160,10.283282280,0.058653950,0.069190570,0.002886350
1640779660.928150,-0.095053240,0.409426630,9.769972800,0.106054550,0.033551450,-0.004683440
1640779660.930510,-0.136609170,0.549686910,9.646383290,0.089326500,0.014612080,-0.004747510
1640779660.933390,-0.189934690,0.595055400,9.842030530,0.038769840,0.069499020,0.008599460
1640779660.935620,-0.045949650,0.492121460,9.719789510,0.071822110,0.067020960,0.025038420
1640779660.938520,-0.111388870,0.357294260,9.995845790,0.082771490,0.039641560,0.021718440
1640779660.942560,-0.026733410,0.478066920,9.969347950,0.086128720,0.063000620,0.016558170
1640779660.943200,-0.115758390,0.425995530,9.757577900,0.031380360,0.031490620,0.015920400
1640779660.945640,-0.056710980,0.208198890,9.615865710,0.011615460,0.018353760,0.005732480
1640779660.948090,0.102379110,0.158435110,9.474192620,0.085172060,0.082369160,0.010371210
1640779660.950640,0.066525490,0.289740680,9.724354740,0.101581220,0.090567780,-0.003923480
1640779660.953150,-0.038054760,0.371701480,10.203437810,0.060512130,0.051274900,0.012272600
1640779660.956570,-0.007404130,0.154101400,9.847043040,0.018121300,0.032444300,0.027769810
1640779660.958120,-0.034266330,-0.039036980,9.595552440,0.071476410,0.041474390,0.000868740
1640779660.960520,-0.148566510,0.109583010,9.763789180,0.118181120,0.072668500,-0.016117100
1640779660.963150,-0.077808690,0.500507770,9.414487840,0.066797440,0.085592270,-0.015035270
1640779660.965560,-0.141482870,0.419851390,9.867856030,0.017166140,0.057955090,-0.011451540
1640779660.968240,-0.100475970,0.212561740,9.994016650,0.042170280,0.058074290,0.004144010
1640779660.973270,-0.122668680,0.219715790,9.667730330,0.136998300,0.044097010,-0.006355350
1640779660.973830,-0.180415820,0.222419160,9.853479390,0.124089430,0.034998360,-0.001209970
1640779660.975810,-0.128803910,0.318887170,9.817298890,0.035063920,0.090520080,0.000166890
1640779660.978100,-0.122048030,0.105777100,9.901746750,0.026282670,0.066131360,-0.013847650
1640779660.980500,-0.121675450,0.054993480,9.995067600,0.086006530,0.019852820,-0.023275610
1640779660.983340,-0.054697980,0.454374310,9.426795960,0.143326820,0.031369930,-0.014568870
1640779660.985680,-0.004780390,0.502506260,9.489524840,0.070744750,0.057338180,-0.008545820
1640779660.988830,-0.135299610,0.567324940,10.126294140,0.004929300,0.098215040,0.006891790
1640779660.990600,-0.124801780,0.354066430,10.075396540,0.061775740,0.055012120,0.008198620
1640779660.993120,-0.124874200,0.236170830,9.960701940,0.109463950,-0.004163380,-0.008210540
1640779660.995570,-0.143138830,0.608978570,9.601938250,0.109088420,0.052098930,-0.011338290
1640779660.998100,-0.038646750,0.528635860,9.369821550,-0.006750230,0.077261030,-0.005473200
1640779661.000660,-0.075709610,0.155443150,9.949138640,-0.014634430,0.076727570,0.003317000
1640779661.004360,0.063916980,0.010836450,9.692928310,0.115855040,0.074653330,-0.001654030
1640779661.005910,0.041632770,0.066812000,9.870299340,0.131437180,0.014756620,-0.003264850
1640779661.008930,-0.171333150,0.203401630,10.020792010,0.061450900,0.053994350,0.011855360
1640779661.010600,-0.088987780,-0.086284730,9.539834020,-0.009906290,0.054530810,-0.014467540
