# timestamp,accel_x,accel_y,accel_z,gyro_x,gyro_y,gyro_z
1640837393.859850,-0.213580120,0.256509420,10.376901630,0.005011260,0.069019200,0.014886260
1640837393.860720,0.111790520,0.218070700,9.303816800,-0.012323260,-0.039954480,0.015522540
1640837393.862930,-0.499333800,-0.033306300,10.420549390,-0.048607590,-0.027666990,0.017078220
1640837393.864330,-0.211994980,-0.071980680,9.065687180,-0.026921930,0.092093640,0.022764500
1640837393.868020,-0.192670970,-0.126655060,9.891530040,-0.006480520,0.004427140,0.008623300
1640837393.869330,-0.341201160,0.134784430,10.395201680,-0.014457110,0.094239420,0.014793870
1640837393.872980,0.218563150,0.465584370,9.319472310,-0.055214770,-0.008574130,0.011746590
1640837393.874340,-0.212275940,0.264686260,10.453708650,-0.080534820,-0.014285740,0.012277070
1640837393.878050,-0.057704650,0.417348650,9.377644540,-0.024856630,0.066378710,0.010567900
1640837393.879380,-0.248243170,0.304290650,10.145565990,0.013488530,-0.050896410,0.000986460
1640837393.883110,-0.460622280,0.348847180,10.117243770,-0.023153430,0.054839250,0.021210310
1640837393.886250,0.075434060,0.434644160,9.112080570,-0.089430820,0.002385680,0.032021110
1640837393.888810,-0.270122560,0.131336420,10.538651470,-0.108297170,0.049246840,0.029154120
1640837393.889490,0.080017040,0.193935660,9.472766880,-0.056613990,0.091840330,0.030983980
1640837393.894820,-0.072503260,-0.042956480,10.295989990,-0.011007490,-0.085757670,0.020551690
1640837393.895420,-0.075140040,-0.214250760,9.761044500,-0.006590780,0.062645960,0.021469590
1640837393.900130,0.354604130,-0.001257390,8.827816010,-0.033544010,0.004941230,0.018504260
1640837393.902560,-0.148317620,-0.010854280,10.586563110,-0.108903660,0.076676910,0.024643540
1640837393.903130,0.316992160,0.094537360,9.419956210,-0.113855310,0.127452610,0.025610630
1640837393.904320,-0.112329630,0.069715250,10.487640380,-0.005319720,-0.083385420,0.014291700
1640837393.908010,-0.362797410,0.059845190,9.870437620,0.035952040,0.035721060,0.023145970
1640837393.909570,-0.003801570,0.160917610,8.602251050,-0.003479420,0.004681940,0.031033160
1640837393.913190,-0.655436460,-0.155875370,10.666341780,-0.067105890,0.077380250,0.027941170
1640837393.914590,-0.027550900,0.067655540,9.384905820,-0.050708660,0.124257820,0.029444700
1640837393.917920,-0.062197460,0.193325620,10.189167980,-0.028930610,-0.055006160,0.011342760
1640837393.919340,-0.102306100,0.341436620,10.119982720,-0.048154600,0.085133310,0.022618480
1640837393.923030,0.318047880,0.383724090,9.140233990,-0.031690300,0.012829900,0.017166140
1640837393.926640,-0.428641770,0.000973500,10.707794190,-0.010089580,-0.004193190,0.020243230
1640837393.930640,-0.011775880,0.098685760,9.182591440,0.009758770,0.069814920,0.029616060
1640837393.932480,-0.272590160,0.059646530,10.052874570,-0.005902350,-0.029009580,0.025448200
1640837393.933300,-0.389388500,0.305575490,10.125228880,-0.089229660,0.090107330,0.055329500
1640837393.934380,0.162339820,0.525387820,9.195729260,-0.119046870,0.019918380,0.049471860
1640837393.938030,-0.205376330,0.223060160,10.531673430,-0.075972070,0.042216480,0.021882350
1640837393.939330,0.126100060,0.413728890,9.533178330,0.021293760,0.091525920,0.017578900
1640837393.943540,-0.221807750,0.324481580,10.219489100,0.015963610,-0.064526510,0.016559660
1640837393.944360,-0.253069610,0.066314910,9.738858220,-0.098946690,0.049053140,0.046959520
1640837393.948070,0.115451010,-0.109826040,8.942855830,-0.099764790,0.015234950,0.052462530
1640837393.949340,-0.298117220,-0.385482790,10.270736690,-0.043755770,0.074587770,0.033792860
1640837393.952940,0.199142230,-0.188825460,9.347007750,-0.005726520,0.122804960,0.038157400
1640837393.954340,-0.207595650,-0.178258280,10.474755290,0.006005170,-0.044763090,0.032527740
1640837393.957960,-0.166189000,-0.226330520,9.793470380,-0.031977890,0.032198430,0.048783420
1640837393.959970,0.035201710,-0.016597070,8.918337820,-0.019238890,-0.001370910,0.038021800
1640837393.964260,-0.646766480,-0.039494660,10.368062970,-0.026871260,0.048792360,0.013843180
1640837393.965250,0.040870790,0.259791460,9.132619860,-0.007820130,0.088943550,0.015395880
1640837393.968900,-0.326861350,0.249455030,10.272705080,0.030897560,-0.016503040,0.025403500
1640837393.969720,-0.330790610,0.194209040,10.068830490,0.007537010,0.065116580,0.043614210
1640837393.973080,0.009448300,0.178151440,9.306919100,0.012815000,-0.020971890,0.044138730
1640837393.975710,-0.575356900,-0.112921770,10.455505370,0.003971160,-0.002551080,0.043331080
1640837393.978680,0.051162120,0.076424710,9.101345060,-0.000831480,0.058870020,0.040833660
1640837393.980920,-0.119088260,0.067192240,9.948987960,0.011461970,0.008231400,0.023205580
1640837393.982910,-0.129233790,0.234474360,10.278836250,-0.013013190,0.071752080,0.025486950
1640837393.984350,0.178700570,0.532201410,9.635150910,-0.015613440,-0.019554790,0.031138960
1640837393.987900,-0.308913320,0.248920050,10.254491810,-0.030748550,-0.023862720,0.031667950
1640837393.989370,-0.024769490,0.305776210,9.382761000,0.003394480,0.042276080,0.036993620
1640837393.993300,-0.385429770,0.261710350,10.097126960,0.045849380,-0.005003810,0.040437280
1640837393.994570,-0.368164210,0.199088630,9.932245250,-0.026367600,0.026093430,0.047813360
1640837393.998250,0.049710840,0.292194340,9.355931280,-0.064729150,-0.008578600,0.044202810
1640837393.999340,-0.101611880,0.033031120,9.893010140,-0.066743800,0.056360660,0.015376510
1640837394.002950,0.231473100,0.153952110,9.513871190,-0.001145900,0.068400810,0.026167930
1640837394.004330,-0.163762270,0.037280690,10.438880920,0.030714270,-0.015984480,0.017222760
1640837394.008070,-0.055406180,-0.211384010,9.759566310,-0.008033220,-0.011090930,0.022745130
1640837394.009980,-0.002032970,-0.190212160,9.213829040,0.012852250,-0.036221740,0.025753680
1640837394.013030,-0.449918030,-0.207482700,9.830929760,-0.029422340,0.075933340,0.018574300
1640837394.015140,0.023943160,-0.077681840,9.442869190,-0.028659410,0.080527370,0.032837690
1640837394.018760,-0.350605930,-0.054443780,10.371026040,0.048235060,-0.015266240,0.013804440
1640837394.019400,-0.107189720,0.098260950,9.608555790,0.040659310,0.003470480,0.013087690
1640837394.022930,0.008816390,0.206843350,9.270702360,0.037966660,0.007382030,0.021371240
1640837394.024460,-0.511919740,-0.024000120,10.322886470,0.012622770,0.042931730,-0.000956650
1640837394.028040,-0.067858310,0.132039820,9.662908550,0.029508770,0.010301170,0.000293550
1640837394.029370,-0.270379840,0.146253270,9.845188140,0.059026480,-0.026525560,0.004276630
1640837394.033360,-0.091318990,0.124982080,9.689500810,0.024324660,0.059470530,0.017352400
1640837394.034360,-0.054254470,0.224721850,9.868227010,0.028662390,0.027593970,0.019370020
1640837394.037910,-0.427684690,0.089232480,10.232212070,0.028011200,-0.040239090,0.019553300
1640837394.039330,-0.032491940,0.211304500,9.393690110,0.019492210,-0.030300030,0.015537440
1640837394.042980,-0.224530440,0.211813300,9.705608370,0.054016710,0.024913250,0.005176660
1640837394.044360,-0.216403980,0.370943900,10.045118330,0.015684960,0.046339630,0.010785460
1640837394.048050,-0.035432340,0.492625590,9.984750750,-0.010824200,0.006021560,0.012859700
1640837394.053320,-0.144688400,0.280245810,9.833888050,-0.023557250,-0.014093520,0.010065740
1640837394.053740,0.039009230,0.269540820,9.616815570,0.024484100,-0.010289250,0.019130110
1640837394.054320,-0.220796230,0.202007640,9.825590130,0.051665310,0.013247130,0.025257470
1640837394.058440,-0.105244360,0.006027000,9.576199530,-0.003643330,0.005522370,0.040708490
1640837394.059800,0.064502150,-0.073549400,9.700855260,0.009393690,0.011174380,0.028100610
1640837394.062970,0.026202160,-0.057541270,9.625718120,-0.013808910,0.073775630,0.006309150
1640837394.064350,0.135046090,-0.001873470,9.778920170,-0.014269350,0.027066470,0.013886390
1640837394.068040,-0.205701680,-0.017631140,10.173765180,0.032074750,-0.002576410,0.001341100
1640837394.069350,-0.098863940,-0.139852150,9.395758630,0.046150380,-0.026427210,-0.004015860
1640837394.073220,-0.304992170,-0.080334530,9.625597000,0.072063510,-0.005479160,0.009091200
1640837394.074330,-0.462537410,-0.073306200,9.799255370,0.018015510,0.073969370,-0.004066530
1640837394.077910,-0.114519850,-0.036538430,9.862163540,0.019423660,0.015248360,0.010892750
1640837394.079350,-0.279991150,0.233125110,10.082663540,0.051184000,0.006838140,0.012345610
1640837394.083360,0.086704500,0.288063500,9.425515170,0.015477840,0.022740660,0.004170840
1640837394.086800,-0.007749430,0.367288980,9.834936140,0.048674650,0.023934250,0.023354590
1640837394.087960,-0.256246420,0.256796660,9.973788260,0.060020390,0.014403460,0.002279880
1640837394.089730,-0.129405290,0.223285300,9.727592470,0.055280330,-0.026597080,0.009389220
1640837394.093060,-0.362343520,0.195538370,9.692176820,0.052219640,0.008143490,0.023773310
1640837394.094440,-0.208962140,0.166686180,9.708232880,0.001829860,0.017561020,0.021103020
1640837394.098010,-0.132205980,0.255912570,9.935608860,0.009365380,0.043508410,0.035712120
1640837394.099460,-0.140243660,0.137998060,9.691118240,0.009167190,0.010563430,0.016522410
1640837394.102940,0.006409520,0.097500360,9.850876810,0.052011020,-0.010542570,0.019183760
1640837394.104400,-0.113310990,-0.007841350,9.594318390,0.085780030,0.018222630,0.026315450
1640837394.107950,-0.067006280,-0.166170850,9.691368100,0.042709710,-0.030153990,0.019440060
1640837394.109360,-0.074626130,-0.180297110,9.858803750,0.035451350,0.026552380,0.018349290
1640837394.112960,-0.015997270,-0.178029340,9.371592520,0.047987700,0.038109720,0.001311300
1640837394.114360,-0.059569930,0.037061460,9.969587330,0.056125220,0.001983340,0.007675590
1640837394.117920,-0.211262840,0.164544280,9.787760730,0.061532860,0.034362080,0.015175340
1640837394.119340,-0.147518310,0.018816280,9.534550670,0.064545870,-0.042121120,0.011654200
1640837394.123000,-0.417458860,0.005981690,9.986313820,0.120483350,-0.000472370,0.016610330
1640837394.124400,-0.287946400,0.038511670,9.331417080,0.093229110,0.045555830,-0.005827840
1640837394.128510,-0.264719810,0.013009500,10.195029260,0.075045210,-0.012955070,-0.002424420
1640837394.129370,-0.278472070,0.223770740,10.137043950,0.072506080,0.029644370,0.001899900
1640837394.134970,0.101338330,0.213232920,9.368017200,0.055350360,-0.034073000,-0.001499060
1640837394.135870,-0.117156420,0.260759440,10.077887540,0.093372170,-0.001025200,0.009946530
1640837394.138460,-0.089653600,0.319470140,9.542113300,0.095999250,0.031305850,-0.000634790
1640837394.140180,-0.096669030,0.111366990,9.956037520,0.090703370,-0.056526070,0.012584030
1640837394.142940,-0.202364800,0.297012270,9.829981800,0.084202000,0.002905730,0.014461580
1640837394.144350,0.088596140,0.208697230,9.408554080,0.038494170,0.021991140,0.008556250
1640837394.148290,-0.156519890,0.286272470,10.259561540,0.047442310,0.024221830,0.021299720
1640837394.149940,-0.117209950,0.273895200,9.595150950,0.043725980,-0.005316740,0.000302490
1640837394.153450,0.048177890,0.031724670,9.515662190,0.083081420,-0.041055680,0.003777440
1640837394.154480,-0.213708400,0.049627370,9.635374070,0.129653510,0.041712820,0.012460350
1640837394.157980,-0.244489130,-0.059733950,9.713356020,0.067409880,-0.020605330,0.016297400
1640837394.159360,-0.209476230,-0.180491570,9.904043200,0.034138560,-0.002458690,0.019657610
1640837394.162980,-0.045881850,-0.103671500,9.274266240,0.055266920,0.034473840,-0.009213390
1640837394.164380,-0.050027560,0.034901970,9.997482300,0.090774890,0.021269920,-0.003017490
1640837394.169030,-0.107272430,0.153805140,9.791520120,0.101815190,0.042231380,0.001716610
1640837394.170060,-0.111381300,0.080951590,9.703434940,0.082714840,-0.064000490,-0.004698340
1640837394.174450,-0.272331150,-0.012839630,9.950819970,0.112280250,-0.007769470,0.002150240
1640837394.174820,-0.159223440,-0.019123600,9.200997350,0.101925440,0.026522580,-0.011335310
1640837394.177990,-0.325974260,0.041918910,10.341903690,0.089086580,-0.000183280,-0.011742110
1640837394.179340,-0.262776850,0.240546970,10.040760040,0.088019670,0.037756570,0.003635880
1640837394.183320,-0.009758120,0.267698680,9.337954520,0.068272660,-0.062882900,-0.003845990
1640837394.184340,-0.128654960,0.282401770,10.001269340,0.086285170,0.003375110,0.003710390
1640837394.188010,-0.038760400,0.352557420,9.484793660,0.100648400,0.062623630,-0.005328660
1640837394.189340,-0.296582130,0.256890570,10.389849660,0.102853780,-0.083306430,0.006932020
1640837394.193050,-0.284544530,0.285655200,9.710289960,0.082393000,-0.025273860,0.011876230
1640837394.194350,0.076024580,0.166738540,8.953608510,0.038069490,-0.001613800,-0.003620980
1640837394.197970,-0.181106600,0.152676720,10.301132200,0.074243540,0.040870900,0.014847520
1640837394.199970,0.020650710,0.109731430,9.589955330,0.087477270,0.043582920,-0.001785160
1640837394.202980,0.134794910,-0.011145570,9.730079650,0.093786410,-0.069540720,-0.005914270
1640837394.204390,-0.099193800,0.063558880,9.778675080,0.107164690,0.018166000,0.021149220
1640837394.207960,-0.064108750,-0.096098620,9.388796810,0.067333880,-0.003705920,0.006338950
1640837394.209340,-0.305673210,-0.028850170,10.045810700,0.068764400,-0.026948750,0.000035760
1640837394.213060,-0.132475480,0.063186330,9.245775220,0.077548610,0.038759410,-0.014875830
1640837394.214390,-0.096213470,0.043345850,9.802344320,0.112594670,0.010856990,-0.017288320
1640837394.218460,-0.258585130,0.264957790,10.089640620,0.110283490,0.036200870,-0.001604860
1640837394.221700,-0.123452890,0.136311070,9.642243390,0.075969100,-0.045022370,-0.000686940
1640837394.222920,-0.292987440,0.035389990,9.958029750,0.100553040,-0.029136240,0.011986490
1640837394.224360,-0.164058250,0.176774100,9.138761520,0.105373550,0.021201370,-0.001943110
1640837394.227950,-0.223672760,0.180237990,9.991618160,0.088666390,-0.000111760,-0.007061660
1640837394.229360,-0.182381570,0.393798530,10.011562350,0.080497560,0.042927270,-0.007835030
1640837394.234000,0.014225310,0.438511370,9.585316660,0.051479050,-0.053370010,-0.005210940
1640837394.235870,-0.068994200,0.363641230,10.058470730,0.069949040,0.001446900,-0.007899110
1640837394.237900,-0.014664460,0.395944150,9.430393220,0.086581700,0.047181540,-0.010056790
1640837394.239330,-0.344232680,0.227970120,10.396947860,0.096441810,-0.072699770,0.003261860
1640837394.242900,-0.302980240,0.181456630,9.675196650,0.068096820,-0.014474990,0.008089840
1640837394.244420,0.039225290,0.116514790,8.840581890,0.023199620,-0.018244980,0.005327170
1640837394.248070,-0.185605780,-0.010840670,10.243485450,0.052951280,0.071789320,0.009495020
1640837394.249590,0.031863570,0.118724930,9.707149510,0.067681080,0.056622920,-0.012977420
1640837394.252970,0.059646170,0.002082420,9.967669490,0.077567990,-0.099974880,-0.003281240
1640837394.254390,-0.096450610,0.027170040,9.694847110,0.088755790,0.014965240,0.011546910
1640837394.258800,-0.075882030,0.008206500,9.171448710,0.059022010,0.003086030,-0.007015470
1640837394.259470,-0.383895700,-0.054382030,10.200966840,0.066152220,-0.028719010,-0.005137920
1640837394.262990,-0.221812900,0.056411500,9.405200000,0.078429290,0.038151440,-0.022725760
1640837394.264360,-0.090511090,0.109623540,9.639246940,0.084450840,-0.025610630,-0.017213820
1640837394.268170,-0.291335640,0.297973130,10.163828850,0.093936920,0.038500130,-0.007064640
1640837394.269360,-0.080579990,0.393093290,9.508832930,0.041013960,-0.010828670,-0.013761230
1640837394.272940,-0.282066790,0.174796100,10.201183320,0.062848640,-0.051048400,0.008521980
1640837394.274340,-0.263446510,0.116474460,9.607855800,0.100679700,0.004296010,-0.014035400
1640837394.277990,-0.119972620,0.077142610,9.669973370,0.108574340,-0.040569900,-0.019401310
1640837394.279370,-0.243193050,0.230909090,10.086709020,0.080797080,0.031270080,0.002828240
1640837394.283710,-0.083803680,0.245258630,9.646574020,0.020067400,-0.017771120,-0.017778580
1640837394.285260,-0.077713620,0.321240630,10.013769150,0.023546820,-0.059413910,-0.020235780
1640837394.288090,0.039457820,0.434247970,9.321461680,0.054126990,0.033265350,-0.005595390
1640837394.289390,-0.134553420,0.319959670,10.008379940,0.071753560,-0.018052750,-0.015684960
1640837394.293120,-0.349810810,0.347131220,10.153080940,0.072577600,-0.033251940,-0.000800190
1640837394.294470,-0.123873870,0.205985370,9.105235100,0.029669700,-0.067014980,0.005631150
1640837394.298470,-0.207795530,0.123419870,9.762564660,0.013461710,0.007198750,0.003388520
1640837394.299540,-0.130285890,0.093949200,9.547259330,0.012865660,0.077417520,-0.008465350
1640837394.303020,-0.045474610,0.089781950,10.006013870,0.049394380,-0.064185260,-0.019997360
1640837394.304360,-0.066868070,0.079260450,9.890230180,0.065752860,-0.015783310,-0.002224740
1640837394.307970,0.009994060,-0.047999080,9.219781880,0.040870910,-0.026769940,-0.010074680
1640837394.309380,-0.285523980,-0.161613030,10.210032460,0.049339230,-0.041012470,-0.020472710
1640837394.312990,-0.134552390,-0.065752360,9.352872850,0.051945450,0.030522040,-0.021144750
1640837394.314410,-0.109304050,0.058052360,9.531756400,0.054679820,-0.056621440,-0.022470950
1640837394.318320,-0.287103470,0.296271200,10.103838920,0.045517090,0.011579690,-0.015281140
1640837394.319350,-0.065832360,0.334127840,9.328609470,0.018383570,-0.016637150,-0.020942090
1640837394.322920,-0.359352860,0.314204010,10.275856970,0.064367060,-0.074967740,-0.011506680
1640837394.324380,-0.384252430,0.385714890,9.754220010,0.066132850,-0.001342590,-0.014552480
1640837394.328090,-0.230963250,0.336012570,9.552567480,0.041507200,-0.068970020,-0.018036370
1640837394.329480,-0.448094490,0.352004440,10.247005460,0.023326280,-0.014656780,0.001521410
1640837394.333100,-0.045060150,0.319082440,9.342442510,-0.011427700,-0.010116400,-0.003589690
1640837394.334630,0.056625510,0.186665100,9.824468610,0.015528500,-0.060647740,-0.009278950
1640837394.337980,0.023623100,0.250128270,9.856851580,0.038817530,0.029475990,-0.008022790
1640837394.339360,0.043278490,0.097765650,9.793552400,0.039526820,-0.050368910,0.000600520
1640837394.343060,-0.300495000,0.037813980,10.196726800,0.030334300,-0.099402670,0.011059640
1640837394.344470,-0.045160980,0.067735920,8.991492270,-0.003920500,-0.054958470,-0.000686940
1640837394.348020,-0.086106550,0.106528030,9.449444770,0.003108380,0.001116100,0.003196300
1640837394.349550,-0.267209110,0.224811400,9.961231230,-0.004783270,0.047467640,0.000724200
1640837394.352950,-0.074122500,0.278294030,9.862928390,0.003188850,-0.067943320,-0.006516280
1640837394.354340,-0.170558230,0.157390450,9.988564490,0.042580070,-0.067254910,0.004778800
1640837394.357920,-0.162407260,0.130967960,9.232152940,0.025105480,-0.036706030,0.008231400
1640837394.359440,-0.227570410,-0.018596740,9.781795500,0.010593240,-0.051200400,0.005456810
1640837394.363010,-0.104984290,-0.107705550,9.760093690,0.000983480,0.046770280,-0.000466410
1640837394.364400,0.040286040,0.014913330,9.899391170,0.022660200,-0.031034650,0.002743300
1640837394.368400,-0.040327870,0.117210690,10.264201160,0.032888350,-0.045716770,0.005897880
1640837394.369700,0.132130320,0.325206580,9.160347940,-0.020688770,-0.043216350,-0.001862650
1640837394.373370,-0.221994560,0.362646010,9.967070580,-0.012448430,-0.064963100,-0.000558790
1640837394.374770,-0.337794660,0.388136420,9.772207260,-0.001348560,0.014492870,-0.006939470
1640837394.378230,-0.261282090,0.410889330,9.633849140,0.022797280,-0.079251820,-0.012172760
1640837394.379360,-0.419071170,0.491226200,10.248703000,0.017660860,-0.038151440,0.012257700
1640837394.383410,-0.009315970,0.538623870,9.352748870,-0.074684620,0.022314490,0.015799700
1640837394.384430,-0.049959130,0.293127600,10.063862800,-0.070348370,-0.061076880,0.027880070
1640837394.387910,-0.031312610,0.062695460,9.898415570,-0.017234680,0.001107160,0.008083880
1640837394.389370,0.206272070,-0.046343830,9.292942050,0.037266310,-0.044593210,0.005321210
1640837394.393340,-0.161321220,-0.145743180,10.139789580,0.021994120,-0.059352820,0.026647750
1640837394.395010,0.039461010,-0.251426940,9.281863210,-0.056061150,0.009846690,0.011487310
1640837394.397970,0.014402540,-0.147237700,9.580875400,-0.043381760,-0.032334030,0.009575490
1640837394.399890,-0.244665060,0.002999120,10.134943010,-0.024330620,0.026114280,0.015573200
1640837394.402960,-0.042912530,0.090497960,9.574820520,0.006245080,-0.025537610,-0.002291800
1640837394.404380,-0.416044710,0.057435960,10.193063740,0.058734410,-0.077924120,0.006003680
1640837394.408120,-0.449422840,0.083117650,9.448084830,0.040321050,-0.037391490,0.005525350
1640837394.409550,-0.255867750,0.126488600,9.387427330,-0.000482800,-0.046332170,0.001573560
1640837394.412990,-0.316511780,0.025268890,10.079463960,-0.028088690,0.035472220,0.008791690
1640837394.414390,0.036139050,0.213544120,9.756246570,0.001901390,-0.019787250,0.001741950
1640837394.418180,0.028820260,0.237424340,10.088435170,0.048027940,-0.066868960,0.002904240
1640837394.419340,0.070998490,0.300974340,9.519126890,0.008283560,-0.013966860,-0.001530350
1640837394.422900,-0.077337540,0.206451820,9.945070270,0.006891790,-0.045695900,0.003530090
1640837394.424360,-0.351774190,0.065981380,10.050445560,0.008308890,-0.035806000,0.005500020
1640837394.428000,-0.175679520,0.210965890,9.411054610,0.004011390,-0.072057550,0.004950170
1640837394.429440,-0.327465300,0.322629510,9.996656420,0.000090900,-0.011830030,0.013582410
1640837394.433310,-0.145244180,0.452982720,9.637689590,-0.057356050,0.032468140,0.012177230
1640837394.434630,-0.117688170,0.392697930,10.074192050,-0.041782860,-0.080968450,0.006519260
1640837394.437930,-0.071359780,0.227336630,9.868345260,0.006912650,-0.012402240,0.005033610
1640837394.439380,0.050120040,0.154350220,9.394612310,0.043869020,-0.040392580,0.009077790
1640837394.443090,-0.337316570,0.123625390,10.188741680,0.016783180,-0.069619720,0.022393470
1640837394.444480,0.076550930,0.079790030,9.078948020,-0.094488290,-0.016920270,0.020146370
1640837394.448030,0.179667640,-0.065866870,9.456264500,-0.067785390,-0.017364320,0.023558740
1640837394.449560,-0.122947100,-0.059444560,10.395208360,0.007976590,0.070884830,0.001557170
1640837394.453060,-0.056067880,-0.011551520,9.941556930,0.046262150,-0.053812570,0.003077090
1640837394.454350,-0.451585470,-0.066847850,10.026868820,0.053094340,-0.153544560,0.007878240
1640837394.458860,-0.378122630,-0.067949870,8.924080850,-0.029677150,-0.025306640,0.006210800
1640837394.459540,-0.370058150,-0.071683220,9.251950260,-0.033438210,0.002114480,0.008431080
1640837394.462930,-0.571502630,0.000755300,10.415349960,0.003480910,0.022028390,-0.014561410
1640837394.464360,-0.083897780,0.324960530,9.692851070,0.039543220,-0.051645940,-0.012314320
1640837394.467920,-0.091362570,0.426836040,9.905296330,0.037781900,-0.096721950,0.005947050
1640837394.469430,-0.103060860,0.345159260,9.808836940,-0.038021800,-0.005696710,0.012543800
1640837394.473250,-0.022196140,0.215574980,9.766261100,-0.003592670,-0.056445610,0.020885470
1640837394.474580,-0.273264590,-0.043543050,10.098682400,0.048400470,-0.076001890,0.005908310
1640837394.477960,-0.070513020,0.290905510,9.272698400,0.025208290,-0.054427990,-0.006605680
1640837394.479400,-0.189332370,0.355291870,9.700385090,-0.035627190,-0.052163010,0.000467900
1640837394.483390,-0.249718830,0.451843080,9.968851090,-0.101184840,-0.005678830,0.007323920
1640837394.484460,-0.169305920,0.445151000,9.989419940,-0.045041740,-0.085458170,-0.004686420
1640837394.487970,-0.236543970,0.319845620,9.979537010,0.007255380,-0.075994440,-0.011841950
1640837394.489970,-0.126486450,0.378632690,9.522940640,0.017046930,-0.037625440,-0.001206990
1640837394.492990,-0.305995760,0.306048990,10.023082730,-0.028365850,-0.066289300,0.021383160
1640837394.494420,-0.085499450,0.115635130,9.499745370,-0.131845440,-0.042320780,0.019216540
1640837394.498060,0.169320030,0.009974090,9.340692520,-0.074465570,-0.059250000,0.012537840
1640837394.499450,0.017147080,-0.024425500,9.888208390,-0.005529820,0.015966590,-0.002196430
1640837394.502900,0.122428850,0.049569900,9.698215480,-0.006829200,-0.031527880,-0.004483760
1640837394.504380,-0.234882040,-0.071577270,10.210100170,-0.020316240,-0.124397870,0.013376770
1640837394.508080,-0.094186040,-0.228393450,9.276885990,-0.060482330,-0.048024950,0.006912650
1640837394.509480,-0.208716510,-0.208214210,9.453243260,-0.019361080,-0.031122570,-0.008921330
1640837394.512960,-0.518713590,-0.005307460,10.230940820,-0.018262860,0.000169870,-0.014136730
1640837394.514350,-0.085204390,0.081703770,9.501022340,-0.027368970,-0.054046510,-0.008760390
1640837394.517970,-0.289812950,0.170799970,9.917970660,0.012539330,-0.094635780,0.010824200
1640837394.519400,-0.175834070,0.115994340,9.544732090,-0.022403900,-0.016918770,0.004240870
1640837394.522980,-0.050214090,0.053703010,9.620803830,0.004416700,-0.047934060,0.002194940
1640837394.524410,-0.340895090,0.118048780,10.356159210,0.024443870,-0.052168970,-0.006115440
1640837394.528370,0.013681450,0.309647770,9.438474660,-0.019142030,-0.064833450,-0.009964400
1640837394.529470,-0.092257760,0.379130240,9.704254150,-0.043584410,-0.072018800,-0.002627070
1640837394.533440,-0.109779130,0.367725040,9.898230550,-0.056792800,0.006078180,-0.004185740
1640837394.535100,-0.084262920,0.332017660,9.892423630,-0.002105530,-0.054904820,0.001552700
1640837394.538640,-0.327564630,0.241557630,10.134610180,0.021851060,-0.108201800,-0.001685320
1640837394.540680,-0.132260200,0.250179080,9.436109540,-0.022092460,-0.056454550,0.009387730
1640837394.543080,-0.208405230,0.127756940,9.886777880,-0.043250610,-0.032202900,0.016109640
1640837394.544370,-0.232874600,0.094312920,10.075176240,-0.077268480,-0.040198860,0.006191430
1640837394.548000,0.100055110,0.188700140,9.481027600,-0.043910740,-0.073412070,-0.005950030
1640837394.549730,0.105909720,0.145849240,9.603667260,-0.009329620,-0.014084580,-0.000534950
1640837394.553010,0.030254710,0.219121200,9.934906960,-0.031812490,-0.018927450,0.000296530
1640837394.554410,-0.101253020,0.116269810,10.055164340,-0.038342180,-0.090086460,0.012764340
1640837394.557920,-0.054636740,-0.092038480,9.440392490,-0.050483640,-0.080092260,0.017130370
1640837394.559430,-0.060395330,-0.160395370,9.366265300,-0.005367400,-0.031793120,0.008215010
1640837394.562930,-0.173974340,-0.114261320,9.870585440,-0.011943280,0.041624900,-0.005827840
1640837394.564440,-0.002327390,0.008515820,9.826995850,-0.038641690,-0.031676890,-0.009456280
1640837394.569360,-0.207559110,-0.101254450,9.976842880,0.008337200,-0.083059070,0.004997850
1640837394.572360,-0.119874400,0.013597560,9.277693750,-0.004531440,-0.035828350,-0.001470740
1640837394.574020,-0.259858850,-0.040147300,9.631167410,0.009183590,-0.041866310,0.011923910
1640837394.575320,-0.417602900,-0.082837690,10.069825170,0.036171070,-0.005854670,-0.003594160
1640837394.578210,-0.101634610,0.134333240,9.621231080,0.015763940,-0.040107970,-0.005513430
1640837394.579530,-0.194597410,0.280934480,9.894144060,0.004290040,-0.043305760,0.002183020
1640837394.583290,-0.063195680,0.410613830,9.740480420,-0.044316050,0.007583200,-0.014461580
1640837394.584560,-0.068034780,0.484478290,9.874679570,-0.018075110,-0.054539740,-0.006052850
1640837394.587980,-0.233092020,0.464546020,9.872476580,0.010415910,-0.067889690,-0.002405050
1640837394.589440,-0.032279480,0.382143740,9.486298560,-0.013504920,-0.036090610,-0.013704600
1640837394.593030,-0.208631020,0.311482010,10.001717570,-0.002479550,-0.005346540,0.016048550
1640837394.594440,-0.196962400,0.218921450,10.136780740,-0.052942340,-0.032940500,0.012341140
1640837394.597950,0.045426450,0.159515140,9.468618390,-0.067141660,-0.057347120,0.008088350
1640837394.599750,0.139553590,0.034572590,9.325536730,-0.039218370,0.000731650,0.004816060
1640837394.603150,-0.000726570,0.016589910,9.991651540,-0.012807550,0.027170780,-0.004409250
1640837394.604480,-0.162160900,-0.006690970,10.062022210,0.002816320,-0.047601770,-0.006493930
1640837394.608390,-0.139787510,-0.103753840,9.556552890,-0.022724270,-0.107927620,0.001342590
1640837394.609510,-0.145413820,-0.002448350,9.410317420,-0.034604970,-0.003699960,-0.002940000
1640837394.612960,-0.188352670,0.041286560,9.575247760,-0.044938930,0.061845780,0.002749260
1640837394.614520,-0.197966490,0.166418690,10.128250120,-0.038613380,-0.019820040,-0.006580350
1640837394.618140,-0.095020590,0.234058830,9.720552440,0.008142000,-0.044469530,0.009001790
1640837394.620000,0.064279020,0.168066750,9.215988160,-0.002823770,-0.037977100,0.006118420
1640837394.622910,-0.221577610,0.068578240,9.872714040,-0.013871490,-0.011944770,-0.000424680
1640837394.624380,-0.165341630,-0.064969580,9.729756360,-0.001454350,0.009258090,-0.002178550
1640837394.627940,-0.085025670,-0.067231380,9.793631550,0.004599990,-0.043261050,-0.012557210
1640837394.629440,-0.210628200,0.066156970,9.896370890,0.005003810,-0.007613000,-0.005345050
1640837394.633450,-0.051605240,0.100738880,9.569302560,-0.040037930,0.012627240,-0.005677340
1640837394.636530,-0.337571590,0.073512350,10.141136170,-0.008928780,-0.042141980,-0.011964140
1640837394.637910,-0.290932210,0.197657450,9.599860190,0.024910270,-0.050899390,-0.015352670
1640837394.639430,-0.068133180,0.188059430,9.356122020,0.010055300,-0.021669270,-0.011223550
1640837394.642940,-0.298246920,0.255229380,10.081436160,0.014369190,0.025556980,0.005018710
1640837394.644500,-0.083330550,0.408200000,10.054514880,-0.031206010,-0.011746590,0.005348030
1640837394.648070,0.050795660,0.339479570,9.829139710,-0.055240110,-0.046759840,0.002273920
1640837394.649570,0.123281800,0.360898440,9.450718880,-0.021266940,0.005227330,-0.000181790
1640837394.653850,0.147382040,0.260635050,9.712664600,-0.006796420,0.017283860,0.000104310
1640837394.654460,-0.153779660,0.038389080,9.983970640,0.024272500,-0.013148780,-0.000381470
1640837394.658000,-0.082042190,-0.023481590,9.591403010,-0.005653500,-0.068272650,0.005356970
1640837394.659430,-0.099382140,-0.184452500,9.501692770,-0.032490500,0.000664590,0.011743610
1640837394.662970,-0.090447400,-0.233858530,9.459656720,-0.018723310,0.060154510,0.009018190
1640837394.664460,-0.135048340,-0.156216730,10.092185020,-0.002686680,0.003275270,-0.007833540
1640837394.668460,-0.199172820,-0.138150160,9.884585380,0.051826240,-0.001908840,-0.007395450
1640837394.669910,-0.090412010,-0.004719750,9.357066150,0.047150260,-0.058193510,0.002875920
1640837394.672910,-0.380870970,-0.005404740,9.856402400,0.018756090,-0.011722740,0.004352630
1640837394.674410,-0.185105160,0.015824920,9.280751230,0.012589990,0.029411920,-0.000354650
1640837394.677920,-0.182729630,0.205683840,9.946899410,0.022354720,-0.034593050,-0.003136690
1640837394.679420,-0.183184030,0.289472430,9.927567480,0.032497940,0.045229490,0.001251700
1640837394.683090,0.132045020,0.356861740,9.579051970,0.010347370,-0.005772710,0.001905860
1640837394.684800,-0.274099170,0.209998910,10.488711360,0.025783480,-0.043956940,0.004667040
1640837394.688060,-0.083985940,0.068705030,9.253976820,0.056053700,-0.009614230,0.006373230
1640837394.689420,-0.101727310,0.082302800,9.495512010,0.034955150,-0.039437410,-0.002290310
1640837394.693150,-0.518055620,0.107124040,10.186569210,0.024811920,0.055989630,0.020365410
1640837394.695620,-0.143818630,0.214793710,9.607667920,-0.008152430,-0.026762490,0.004316870
1640837394.698810,-0.318625570,0.259975280,10.123476030,-0.013662880,-0.066602230,-0.002752240
1640837394.699650,-0.010179490,0.291770850,9.222219470,0.011110310,0.030560800,0.011250380
1640837394.703280,0.107120510,0.199808360,9.772650720,0.036716460,0.016726560,0.004830960
1640837394.704450,-0.243141290,0.123267460,10.357144360,0.056815150,0.005379320,0.019961600
1640837394.707970,0.103833320,0.033376610,9.356360440,0.023636230,-0.088164230,0.025284290
1640837394.709420,-0.086751940,-0.153052360,9.550587650,-0.005143880,-0.027868150,0.018620490
1640837394.713120,-0.086426770,-0.149515390,9.328716280,0.002279880,0.065179170,0.015580660
1640837394.714430,-0.036052890,-0.130185410,9.953716280,0.026029350,-0.004732610,-0.010423360
1640837394.718120,-0.217458810,-0.057340750,9.950476650,0.067147610,0.007583200,-0.004640220
1640837394.719430,-0.033914810,0.082507060,9.343114850,0.071500250,-0.061392790,0.013247130
1640837394.722950,-0.360583100,0.092856410,10.007318500,0.012545290,-0.013737380,0.013643500
1640837394.724430,-0.281868220,0.072435950,9.443161960,0.013485550,0.015647710,0.011196730
1640837394.732540,-0.213293360,0.126309980,9.930059430,0.055202850,-0.050203500,0.004220010
1640837394.733520,-0.256161120,0.205545040,9.944375990,0.074306140,0.049041220,-0.001791120
1640837394.734370,0.046771040,0.419754060,9.546071050,0.037023420,-0.031527870,0.009337070
1640837394.737040,-0.214583890,0.358992040,10.394004820,0.001908840,-0.031931700,0.017172100
1640837394.739080,0.088113260,0.318123550,9.241444590,-0.001735990,0.023637710,0.026795260
1640837394.739820,0.013086300,0.186387490,9.877676960,0.031785670,-0.064849850,0.010819730
1640837394.742920,-0.302908000,0.103135470,10.203832630,0.072278090,0.038750470,0.007298590
1640837394.744510,0.062640480,0.227417390,9.347330090,0.036917630,-0.029532610,0.016222900
1640837394.747990,-0.275681850,0.128924610,10.256875990,-0.021502380,-0.052666680,0.012627250
1640837394.749440,0.053563730,0.136908780,9.150393490,-0.030055640,0.063033400,0.007316470
1640837394.752930,0.072088440,0.157531220,9.746167180,0.018501280,-0.005829330,0.009141860
1640837394.754420,-0.376129780,0.087870990,10.480390550,0.052870810,0.007805230,0.005680320
1640837394.757920,0.114495060,0.169150200,9.130663870,0.030606990,-0.053350630,0.010862950
1640837394.759490,-0.124571060,-0.067660600,9.795194630,0.002634530,-0.036831200,0.030735140
1640837394.763360,-0.082307030,-0.099974920,9.483740810,0.001862650,0.095810000,0.017078220
1640837394.764620,0.145219300,0.094678380,9.735931400,0.011582670,-0.006076690,-0.001606350
1640837394.767940,-0.146547760,0.060995040,10.143075940,0.019443030,0.010545550,0.009000300
1640837394.769470,0.140910540,0.151417540,9.292366030,0.027498600,-0.000590090,0.008918350
1640837394.773000,-0.230990770,0.024120070,10.059611320,0.029492380,-0.021342930,0.012776250
1640837394.774560,-0.254418640,-0.174285020,9.563763620,0.048640380,0.040431330,0.016084310
1640837394.778990,-0.230632680,-0.033999560,9.759436610,0.065426540,-0.029379130,0.000038740
1640837394.779610,-0.452116880,0.095113350,9.877894400,0.022703410,0.028456750,0.006906690
1640837394.782950,0.044489330,0.322840930,9.251401900,-0.013181570,0.003066660,0.007158520
1640837394.784630,-0.225816380,0.457434000,10.402671810,-0.007884200,0.018540020,0.000989440
1640837394.787960,-0.120744130,0.402708530,9.772743230,0.032922630,0.024539230,0.006413460
1640837394.789430,-0.003228490,0.443137440,9.804497720,0.056204200,-0.087043640,0.002148750
1640837394.793310,-0.258896170,0.347990010,9.926660540,0.021792950,0.041148060,0.011993940
1640837394.794600,-0.004566520,0.354146330,9.382860180,-0.025708970,0.013270970,0.040982670
1640837394.797990,-0.279973270,0.198706160,10.370121000,-0.040160120,-0.045453010,0.042864680
1640837394.799440,0.084285640,0.104828220,9.203180310,-0.013917680,0.055822730,0.028680260
1640837394.802980,0.214138120,0.238680560,9.617455480,0.010064240,0.001592930,0.018353760
1640837394.804510,-0.343686640,0.045066370,10.696418760,-0.001238290,0.047811860,0.023894010
1640837394.808700,0.046769110,-0.083519570,9.326974870,-0.006067750,-0.051507360,0.026938320
1640837394.810800,-0.306599230,-0.225903970,9.889025690,0.028672820,-0.081348420,0.012955070
1640837394.812960,-0.280138160,-0.161625090,9.173184390,0.019247830,0.093773010,0.023497640
1640837394.814480,0.054861130,0.030873670,9.437500000,-0.005996230,0.032620140,0.022527580
1640837394.818310,-0.332625120,0.129210160,10.540331840,-0.012111660,0.025235120,0.024488570
1640837394.819480,0.242545200,0.289184420,9.091414450,0.011156500,-0.004728140,0.043734900
1640837394.822930,-0.124608540,0.200883970,10.044320110,0.044430800,-0.037896630,0.029732290
1640837394.824490,-0.300359370,0.061904500,9.853455540,0.039376320,0.043210390,0.024770210
1640837394.828520,-0.007139600,0.021290380,9.460048680,0.036007170,-0.027722120,0.020185110
1640837394.829470,-0.412510160,-0.044106300,10.132694240,0.024126470,0.026431680,0.021134310
1640837394.833320,-0.051688620,0.113880800,9.366994860,0.004959110,0.035409630,0.025263430
1640837394.834800,-0.253251340,0.252602520,10.153844830,-0.007316470,-0.026686490,0.017142300
1640837394.837920,-0.291667940,0.273754120,9.739608760,-0.003907090,0.002422930,0.018620500
1640837394.839440,0.021293360,0.369679540,9.523707390,0.031082330,-0.027929240,0.024969880
1640837394.843090,-0.346491250,0.238597850,10.272751810,0.045996910,0.039516390,0.026810170
1640837394.844440,-0.167999010,0.393499430,9.844089510,0.017324090,0.001516940,0.052773960
1640837394.848070,-0.235001420,0.372740420,10.064862250,-0.038008390,-0.078633410,0.059761110
1640837394.849470,-0.043244760,0.158417400,9.177343370,-0.064122680,0.027132040,0.047495960
1640837394.852960,0.259801600,0.205816150,9.472057340,0.002667310,0.043541200,0.040067730
1640837394.854400,-0.290342090,0.047595740,10.711540220,0.046382850,0.047397620,0.031715630
1640837394.859990,0.075614910,0.042966310,9.567223550,0.011448560,-0.064863260,0.044265390
1640837394.860700,-0.105522480,-0.029713390,9.711514470,-0.019122660,-0.086604060,0.040552020
1640837394.863000,-0.124825140,-0.108013940,9.135040280,-0.051282350,0.084733990,0.033774980
1640837394.864420,0.089683030,0.030765020,9.571318630,-0.019961600,0.036405030,0.035743420
1640837394.867890,-0.355618510,0.033397110,10.683881760,0.030435620,0.024598840,0.024954970
1640837394.869420,0.075031270,0.079239050,9.327314380,0.043317680,-0.030347710,0.043395170
1640837394.873370,-0.259368120,0.084938940,9.896666530,0.033146140,-0.057983400,0.044010580
1640837394.874430,-0.479625430,-0.017077130,9.708841320,-0.025945910,0.057341170,0.042761870
1640837394.877940,-0.103374940,0.048246000,9.424247740,-0.009644030,-0.026786330,0.033500790
1640837394.879480,-0.440251680,0.040946010,10.181900980,0.047156210,0.015091900,0.028252600
1640837394.883400,0.115828660,0.294064070,9.340341570,0.029024480,0.055532160,0.019302970
1640837394.886430,0.029346960,0.461760100,10.231413840,0.007186830,-0.011663140,0.028675800
1640837394.887970,-0.231134550,0.334919630,10.179105760,-0.027190150,0.001566110,0.033770490
1640837394.890770,0.103816350,0.297344740,9.410148620,-0.012002890,-0.057078900,0.033709410
1640837394.895000,-0.366751700,0.147394480,10.025615690,0.046046080,-0.005862120,0.026416780
1640837394.895660,-0.277908330,0.187993880,9.662546160,0.029008090,0.030276180,0.030744080
1640837394.898030,-0.106902440,0.359869570,9.854941370,-0.017900770,-0.022193790,0.046388810
1640837394.901010,-0.218994800,0.193369900,9.934462550,-0.079560290,0.023354590,0.050096210
1640837394.902950,0.197213280,0.262274860,9.588308330,-0.051409010,0.018866360,0.034229460
1640837394.904540,-0.099134800,0.258641330,10.182513240,0.022071600,0.008921330,0.037305060
1640837394.907970,-0.053429770,0.142542560,9.734074590,0.011189280,-0.018456580,0.043858590
1640837394.909460,0.069204940,0.114489370,9.513044360,-0.005872550,-0.043173140,0.049930820
1640837394.912940,-0.103349090,-0.117013100,9.542374610,-0.038383900,0.053651640,0.048379600
1640837394.914420,0.092741620,0.004456560,9.636822700,-0.050479180,0.066220770,0.058038530
1640837394.917940,-0.156638440,0.010331910,10.253211980,-0.015340750,0.023190680,0.036290290
1640837394.920950,-0.056459970,-0.031325360,9.640105250,0.000900030,-0.012873110,0.035260620
1640837394.923090,-0.084643070,0.057945370,9.591632840,0.038084390,-0.026173890,0.039449340
1640837394.924500,-0.458452020,-0.174682470,9.782257080,0.001865630,0.040985650,0.018152590
1640837394.927950,-0.144101440,-0.109006770,9.528609280,-0.002849100,0.006663800,0.034528970
1640837394.929690,-0.339302660,-0.002434710,10.059963230,0.037321440,0.016473230,0.028452280
1640837394.933380,-0.070648030,0.152342740,9.478828430,-0.011095410,0.042484700,0.033368170
1640837394.934460,-0.010788060,0.344773140,9.901947980,-0.001172720,-0.021614130,0.043536720
1640837394.939740,-0.321973590,0.106602820,10.205313680,0.016708670,0.019782780,0.033085050
1640837394.940720,0.054902790,0.162732530,9.305307390,0.045734640,-0.018867850,0.022333860
1640837394.942940,-0.255806570,0.249828350,9.989157680,0.054745380,-0.002859530,0.026790800
1640837394.944380,-0.143753860,0.185898180,9.775045390,-0.012181700,0.075081000,0.024779140
1640837394.948440,-0.029381310,0.545302810,9.871916770,-0.032305720,-0.022549930,0.031739480
1640837394.950000,-0.361800760,0.450912270,10.160467150,-0.051349390,-0.030852850,0.028611720
1640837394.953280,0.226942790,0.412861200,9.015126230,-0.037874280,0.028637050,0.022879240
1640837394.954470,-0.154097910,0.326126900,10.110324860,0.053425130,0.042106210,0.038191670
1640837394.957920,-0.390374930,0.138337950,10.572679520,0.017571450,0.035324700,0.044861440
1640837394.959450,0.029601190,0.341856480,9.378530500,-0.051169090,-0.077445800,0.059963760
1640837394.962990,-0.184418600,0.039488550,9.573866840,-0.089217740,-0.022293630,0.068920870
1640837394.964490,0.211100320,0.079691280,9.209632870,-0.075821590,0.130684690,0.046403710
1640837394.968610,0.108832620,0.131297080,10.058506970,0.015690920,0.047017630,0.026218590
1640837394.970340,-0.037938330,0.019624620,10.397874830,0.023858250,-0.006143750,0.025972730
1640837394.973020,0.241498980,0.203261200,9.216777800,-0.005309280,-0.016947090,0.038595500
1640837394.974470,-0.321543480,-0.072031010,9.899218560,-0.069998200,-0.002521280,0.050684820
1640837394.978000,-0.194074240,-0.204730290,9.574583050,-0.069715080,0.069266570,0.036107000
1640837394.979440,-0.186025750,-0.094140660,9.689288140,0.051043930,0.027863690,0.017681720
1640837394.983430,-0.318409440,0.003378040,9.951038360,0.036275380,0.043670830,0.025020540
1640837394.984540,-0.003525370,0.271441160,9.451002120,-0.026689470,0.040660800,0.050203510
1640837394.987970,-0.329825520,0.071826000,10.199666020,-0.051489480,0.011740630,0.055520240
1640837394.989410,-0.182681320,0.012965580,9.693774220,-0.017791990,0.008879600,0.047051910
1640837394.992940,-0.184938310,0.125997840,9.671783450,0.066077710,-0.019039220,0.024136900
1640837394.994420,-0.223072620,0.131025660,9.973326680,0.023637720,0.086849940,0.016963480
1640837394.998280,-0.042475680,0.403371040,9.893876080,-0.027468800,0.041751560,0.023761390
1640837394.999880,-0.229589460,0.311270330,10.333945270,-0.048558410,-0.030134620,0.020365420
1640837395.002980,0.141209740,0.311318730,9.217522620,-0.061297420,0.046305360,0.023555760
1640837395.004450,-0.017718440,0.379255440,9.782036780,0.026875730,0.017732380,0.032044950
1640837395.008380,-0.295546590,0.214266520,10.307370190,0.007539990,0.060819100,0.027202080
1640837395.009750,0.070721480,0.208969670,9.323551180,-0.038753450,-0.009629130,0.039163230
1640837395.013030,-0.251910750,0.080858390,10.126832010,-0.045259290,-0.009362400,0.047551100
1640837395.014460,-0.033637840,-0.069126670,9.473874090,-0.066950920,0.108823180,0.037325920
1640837395.018190,-0.034265950,-0.034162670,9.722346310,0.000751020,-0.003805760,0.027327240
1640837395.020230,-0.261539880,-0.076375750,10.169667240,0.014132260,0.040446220,0.018216670
1640837395.022920,0.137061240,-0.037534690,9.085353850,-0.003832580,0.042639680,0.028954450
1640837395.024440,-0.282607590,0.015855450,10.156091690,-0.019572680,-0.009875000,0.037756560
1640837395.027940,-0.068789410,-0.022619840,9.626253130,-0.064030300,0.107187030,0.019265710
1640837395.029460,0.078404440,0.068730690,9.549150470,0.004173810,0.020338590,0.018841030
1640837395.033080,-0.275396700,0.141993550,10.307088850,0.038076940,0.044621520,0.016935170
1640837395.035700,0.068298680,0.329813300,9.226217270,-0.010086600,0.065031660,0.016425550
1640837395.037960,-0.366785730,0.236453980,10.134751320,-0.021946430,-0.025467580,0.043398140
1640837395.039450,-0.354156880,-0.012784320,9.637177470,-0.022330880,0.053067510,0.029748670
1640837395.042950,-0.159449000,0.110156330,9.409287450,0.017778580,0.024525820,0.014999510
1640837395.045440,-0.519976020,0.198027860,10.518934250,0.023554270,0.053635240,0.025881830
1640837395.048120,0.036433550,0.375496180,9.520909310,-0.047548110,0.059022010,0.020483140
1640837395.049480,0.024763000,0.434347750,10.082083700,-0.060607490,-0.010468060,0.023424620
1640837395.053000,0.112105310,0.405870140,9.653256420,-0.045795740,0.080512470,0.018373130
1640837395.054770,0.272434350,0.336821410,9.496106150,0.007444620,0.029389560,0.020936130
1640837395.057980,-0.263647140,0.268240540,10.402290340,0.014847520,0.023430580,0.031816960
1640837395.059490,-0.085934140,0.127908720,9.308597560,-0.046093760,0.000149010,0.041319430
1640837395.062970,-0.191026960,-0.027203660,9.809510230,-0.058516870,-0.004985930,0.046730040
1640837395.064470,-0.242762830,-0.038951380,9.605934140,-0.048929450,0.125138480,0.041310480
1640837395.068470,-0.072227310,-0.040563870,9.871773720,-0.017859040,0.031270090,0.015176830
1640837395.069420,-0.238188360,0.096124890,10.239831920,0.003664200,0.030575690,0.023469330
1640837395.072920,0.111927880,0.143285970,9.007817270,-0.018228590,0.019277630,0.036826730
1640837395.074430,-0.205837850,0.088261460,10.061084750,-0.031384830,0.003513690,0.026136640
1640837395.077890,-0.093650090,0.075139110,9.478695870,-0.032252070,0.091372420,0.012205540
1640837395.079490,0.016074120,-0.024147950,9.716582300,0.000414250,0.001753870,0.006136300
1640837395.084970,-0.200333540,0.098016230,10.289909360,0.032490500,0.088037550,0.013989210
1640837395.085820,0.095691350,0.260853290,9.364048960,-0.017404560,0.043439860,0.017876920
1640837395.089620,-0.217394490,0.195057720,10.379598620,-0.040762130,-0.015807150,0.029717390
1640837395.090590,-0.166384070,0.231161270,9.440361020,-0.027631220,0.085407500,0.026389960
1640837395.093220,-0.114813380,0.146431880,9.551548960,-0.003373620,-0.017625090,0.014685090
1640837395.094560,-0.397325040,0.302178680,10.386172290,0.026193260,0.073321170,0.018411870
1640837395.098270,-0.040972360,0.395662100,9.445907590,-0.020000340,0.066180530,0.019150970
1640837395.099980,-0.255048420,0.299439280,10.437279700,-0.059704480,-0.023876130,0.027440490
1640837395.103930,-0.084521820,0.468793270,9.539816860,-0.065369910,0.068014860,0.029137730
1640837395.104450,0.228354990,0.258138690,9.332810400,-0.034631780,0.041060140,0.030772390
1640837395.107950,-0.207973550,0.177843050,10.580405240,0.017794970,0.092361870,0.036309660
1640837395.109420,-0.011527720,0.322795930,9.537677760,-0.020238760,0.009910760,0.026692450
1640837395.113360,0.054461540,-0.016432320,9.607623100,-0.071735700,-0.034584120,0.035770240
1640837395.114440,-0.030597270,-0.000284970,9.454512600,-0.072911390,0.144338620,0.026498740
1640837395.118320,0.062066960,-0.147190820,9.834645270,-0.039851670,0.083535920,0.005038080
1640837395.119430,-0.206588910,-0.130490780,10.368831630,0.029765070,0.028444830,0.021161140
1640837395.122980,-0.053859690,0.134688750,9.203809740,0.008423630,0.018757580,0.022223590
1640837395.124410,-0.224570140,-0.035645090,9.749613760,-0.060564290,0.036174060,0.046920780
1640837395.128180,-0.465133370,-0.043379430,9.898443220,-0.046192120,0.082589710,0.030399860
1640837395.129670,-0.201247350,-0.055552050,9.693649290,0.011138620,0.008314850,-0.004431610
1640837395.133080,-0.102289440,0.165179360,9.812468530,0.050967940,0.083798170,-0.006331500
1640837395.134480,-0.046190050,0.525503220,9.770016670,-0.020025670,0.089792920,-0.006560980
1640837395.137970,-0.008154820,0.476306740,10.244193080,-0.096827750,0.024868550,0.013481080
1640837395.139430,-0.108680480,0.312804580,9.822676660,-0.037401910,0.029963260,0.021982190
1640837395.142910,-0.148778410,0.304171350,9.619064330,0.013364850,-0.015112760,0.009052460
1640837395.144520,-0.229358550,0.156965510,9.812917710,0.027276580,0.071787840,0.022701920
1640837395.147950,-0.220894440,0.109136570,9.871347430,-0.016109650,0.089082120,0.019316380
1640837395.149470,-0.182653250,0.153453770,10.302540780,-0.071087490,0.028975310,0.032088160
1640837395.152950,-0.053087440,0.053932660,9.774252890,-0.056324910,0.036811830,0.014008580
1640837395.154440,0.077970470,0.301080790,9.417207720,-0.029079620,0.045157970,0.005084280
1640837395.157870,-0.137167810,0.351217030,10.002895360,-0.016501550,0.071427230,0.011777880
1640837395.159500,-0.144621880,0.208641620,9.822514530,-0.014430290,0.028046970,0.011698900
1640837395.163040,-0.061048650,0.177274410,9.696503640,-0.029426820,-0.006048380,0.015243890
1640837395.164510,-0.121961490,-0.010977550,9.722710610,-0.021556020,0.112466530,0.023299460
1640837395.168070,-0.106671090,0.049351110,9.821908000,-0.049893570,0.071990490,0.006401540
1640837395.169500,-0.188755750,0.108783110,9.995447160,-0.045162440,0.004439060,0.014132260
1640837395.173120,0.000207720,-0.046187720,9.345375060,-0.009952490,0.062748790,0.009886920
1640837395.174530,-0.075769170,0.050636560,9.666885380,-0.002659860,0.059953340,0.006043910
1640837395.178260,-0.321989240,-0.038437080,10.252305030,0.005544720,0.042010840,0.011011960
1640837395.179470,-0.027895850,-0.006490930,9.529789920,-0.003270810,0.044064220,0.006659330
1640837395.182890,-0.187616210,0.148605790,9.892277720,-0.010810790,0.037451090,0.009851160
1640837395.184450,-0.232066830,0.182537560,10.161860470,-0.017805400,0.082498790,0.016617780
1640837395.187960,0.018982580,0.395924540,9.564246180,-0.017394130,0.033745170,0.012749430
1640837395.189450,-0.268906030,0.367407230,10.119287490,0.002291800,0.017179550,-0.000216070
1640837395.193330,-0.156339380,0.431896900,9.657142640,-0.004954640,0.081306700,0.005170700
1640837395.194700,-0.116488730,0.491228790,9.712971690,-0.019378960,0.013387200,0.009566550
1640837395.197970,-0.457419930,0.282884570,10.562175750,-0.029888750,0.028425460,0.013388700
1640837395.199440,0.058428950,0.356380760,9.224924090,-0.053448970,0.064049660,0.017181040
1640837395.203120,-0.129639860,0.178343910,9.954940800,-0.042501100,0.002823770,0.011083480
1640837395.204450,-0.032031750,0.116290380,9.912529950,-0.030767920,0.137543690,0.016695260
1640837395.207980,0.200410600,0.115849580,9.477606770,-0.014194850,0.032803420,0.014719370
1640837395.209840,-0.312899860,-0.128733130,10.577187540,-0.020825860,-0.020457810,0.011861330
1640837395.213020,0.227421980,-0.076309370,8.791855810,-0.025607650,0.077161200,0.012083350
1640837395.214460,-0.063293460,-0.184530710,9.748494150,-0.014142690,0.040285290,-0.010842090
1640837395.217910,-0.316125960,0.027155280,10.364105220,-0.020039080,0.135296630,0.000080470
1640837395.219800,0.132589440,0.256065990,9.275941850,-0.026674570,0.015720730,-0.009478630
1640837395.222950,-0.402920510,0.130310370,10.391288760,-0.008343160,-0.003415350,0.004839900
1640837395.224510,-0.174846800,0.246933390,9.208782200,0.013928120,0.111716990,0.010375680
1640837395.227980,-0.394961420,0.069831510,9.964102750,0.014770030,-0.026515120,-0.011721250
1640837395.229490,-0.554264430,0.004420420,10.147313120,0.029835100,0.070522730,0.011378530
1640837395.232950,0.075790520,0.131200600,8.961852070,0.007893150,0.051404540,-0.004316870
1640837395.234430,-0.289560590,0.164299860,10.541600230,-0.032767650,0.043770670,-0.009697680
1640837395.237910,0.156301900,0.442673860,9.643422130,-0.042504080,0.106531400,0.010760130
1640837395.242850,0.123815590,0.335172980,9.980863570,-0.011008980,-0.031037630,-0.015102330
1640837395.243560,-0.200153140,0.316859190,10.134217260,0.011381510,0.048643340,-0.002717970
1640837395.244450,0.034681190,0.365427790,9.105006220,0.020317730,0.033847980,-0.001297890
1640837395.247990,-0.557468950,0.210305300,10.597268100,-0.018464030,0.013539200,-0.006665290
1640837395.249470,-0.352699490,0.418897780,9.466770170,-0.062046950,0.063823170,0.018550460
1640837395.253500,-0.130167260,0.295409050,9.480866430,-0.081485510,-0.021581360,-0.010146200
1640837395.255280,-0.252830270,0.265952050,10.091027260,-0.048288700,0.131493810,-0.011964140
1640837395.258000,0.054290960,0.273666590,9.647472380,0.019450490,0.064955650,0.003068150
1640837395.259460,-0.347036270,-0.000735630,10.724237440,0.016412140,-0.064687440,-0.015363100
1640837395.262940,-0.052747950,-0.063696820,9.014838220,-0.025296210,0.017328560,0.004327300
1640837395.264420,0.058288460,-0.157753840,9.156440730,-0.052240490,0.013962390,0.003007050
1640837395.267930,-0.240039910,-0.258301200,10.276441570,-0.054234270,0.152215380,-0.009916720
1640837395.269700,0.125780180,-0.052073400,9.559745790,0.014759600,0.037197760,-0.025500350
1640837395.273210,-0.224225640,0.032704740,10.492162700,0.046779210,-0.057820980,-0.020329650
1640837395.274930,-0.167663930,0.145370650,9.240560530,0.000496210,0.060805690,-0.011049210
1640837395.277900,-0.218391600,0.227469910,9.527058600,-0.030113760,-0.013899810,-0.005948540
1640837395.279480,-0.653041600,0.084422280,10.514934540,-0.007450580,0.069268050,-0.019860270
1640837395.282990,-0.162874370,0.352514090,9.225745200,0.034901500,0.023370980,-0.029432770
1640837395.284440,-0.356519310,0.518719970,10.266632080,0.018605590,-0.027245280,-0.029133260
1640837395.288300,-0.248877500,0.520735320,9.696885110,-0.049772860,0.100371250,-0.015972550
1640837395.290160,0.020775870,0.503147010,9.673425670,-0.051760680,-0.046738980,-0.009569530
1640837395.293070,-0.300652440,0.185309470,10.430101390,-0.010584290,0.001353030,-0.015261770
1640837395.298790,0.183022860,0.128082220,9.085630420,0.020796060,0.063396990,-0.004948680
1640837395.299250,-0.136293130,0.119562910,10.367840770,0.010916590,-0.008723140,-0.002527240
1640837395.299840,-0.276699450,0.047898840,10.135165210,-0.059025000,0.031824410,-0.008568170
1640837395.304150,0.291864750,0.101256420,8.958117490,-0.086383520,-0.033184890,-0.021083650
1640837395.304900,-0.110834510,0.084277580,10.022948270,-0.023691350,0.046250220,-0.042620290
1640837395.308110,-0.055489460,0.244491730,9.539009090,0.013141340,0.102372490,-0.029270350
1640837395.309490,-0.096047390,0.340947990,9.990176200,-0.000828500,-0.058296320,-0.023424630
1640837395.313010,-0.497272430,0.124469590,10.100030900,-0.038363040,-0.018830600,-0.004570190
1640837395.314520,-0.064954410,0.017159970,8.980235100,-0.046138470,0.031985340,-0.009237230
1640837395.317930,-0.382595450,-0.065796600,10.096187590,-0.011327860,0.034724170,-0.042858720
1640837395.319830,-0.317350390,0.012387880,9.952421190,-0.005030630,0.058513880,-0.057677920
1640837395.323530,0.166522550,0.242704530,9.360883710,-0.008180740,-0.014132260,-0.045558810
1640837395.324480,-0.200018750,0.169346410,10.084973340,-0.030756000,0.017206370,-0.039261580
1640837395.329820,0.068520370,0.239493370,9.592925070,-0.042118120,0.048333410,-0.026990470
1640837395.330360,-0.132730650,0.153071880,10.034422870,0.001707670,-0.033448640,-0.035604830
1640837395.332920,-0.452808980,0.053783640,10.187529560,0.015239420,0.009554620,-0.040657820
1640837395.334480,-0.051709350,0.278436060,9.367444040,0.003266330,0.009900330,-0.047019120
1640837395.338070,-0.409850150,0.291034220,10.192233090,-0.034873190,-0.004749000,-0.055156660
1640837395.340790,-0.177799750,0.444160760,9.704762460,-0.074590740,0.053036220,-0.048017510
1640837395.342940,0.074686090,0.587968650,9.475294110,-0.056089460,-0.011442600,-0.053581590
1640837395.344500,-0.250914630,0.416719650,10.254730220,-0.040023030,0.017358360,-0.056169930
1640837395.347930,0.073698620,0.427355380,9.610173230,-0.013533230,0.034065540,-0.028516350
1640837395.349470,-0.303144510,0.079200190,10.206563950,-0.009207430,-0.053982440,-0.039201970
1640837395.354040,-0.258408250,-0.197526900,9.685080530,-0.050450870,-0.000819560,-0.023740530
1640837395.355100,0.145059080,-0.175222640,8.985805510,-0.047987700,0.023610890,-0.039078300
1640837395.357940,-0.188729380,-0.288562690,10.223123550,-0.043462220,0.079710780,-0.043517350
1640837395.362300,0.022526630,-0.058466130,9.899230000,-0.007785860,0.037938360,-0.035223370
1640837395.363000,-0.181997270,-0.069454840,9.915426250,0.026661150,-0.102818020,-0.045137110
1640837395.364540,-0.184701100,-0.081885610,9.357192040,-0.002282860,0.008293990,-0.053817030
1640837395.367950,-0.073078560,0.139487190,9.287586210,0.000941750,0.053514540,-0.052697960
1640837395.370480,-0.485289930,0.028059650,10.528054240,-0.003992020,0.037670140,-0.067597640
1640837395.373510,-0.011548790,0.433995900,9.429107670,0.012806060,-0.009419020,-0.042958560
1640837395.374830,-0.136632010,0.548082350,9.699282650,-0.000949200,-0.041466960,-0.038027760
1640837395.377930,-0.177494450,0.307945970,9.806215290,-0.048653790,0.071947280,-0.028629610
1640837395.379550,-0.115756610,0.347197410,9.744648930,0.015732650,-0.022016470,-0.025558480
1640837395.382870,-0.492755260,0.008631730,10.434597020,0.044095520,-0.038963560,-0.042651590
1640837395.384530,-0.029293610,0.082359840,9.111448290,0.010797380,0.022770460,-0.047329070
1640837395.388320,-0.300304440,0.244026290,10.070271490,-0.020055470,-0.024321680,-0.043424960
1640837395.389540,-0.266671060,0.092676240,10.076673510,-0.078231100,0.052352260,-0.043624640
1640837395.392960,0.196787740,0.310813930,9.232600210,-0.019733610,-0.040639940,-0.052693500
1640837395.394550,-0.270471960,0.217153210,10.477499960,0.029759110,-0.012232370,-0.048631430
1640837395.397940,0.086050390,0.251807180,9.324975010,0.019186740,0.060513630,-0.032801930
1640837395.399470,-0.188136220,0.311677840,10.001682280,0.002476570,-0.102144480,-0.019259750
1640837395.404100,-0.308045150,-0.015345020,9.971881870,-0.074855980,0.018531090,-0.018447640
1640837395.405520,0.336035190,0.091149380,8.603504180,-0.035758320,0.022019450,-0.030948220
1640837395.409840,-0.349406420,-0.036795900,10.669670100,0.021344430,0.018411870,-0.046755380
1640837395.410820,-0.051653800,0.000906790,9.728084560,0.011509660,0.058344020,-0.038759410
1640837395.412960,-0.056392330,-0.120235610,9.716643330,0.041157010,-0.135938840,-0.038006900
1640837395.415300,-0.484093550,-0.298215870,9.988544460,0.014321510,-0.000251830,-0.036054850
1640837395.418240,0.067695070,0.010059510,8.715958600,-0.006979710,0.040066250,-0.042761870
1640837395.419550,-0.512068930,0.024376990,10.765425680,0.000371040,-0.012546780,-0.055366760
1640837395.422890,-0.101384660,0.256681440,9.860162730,0.015723710,0.057633220,-0.048083070
1640837395.424470,0.139086870,0.437041850,9.569452290,0.053872170,-0.089722880,-0.055807830
1640837395.427930,-0.377736990,0.349572720,10.402961730,0.021235650,0.009687240,-0.051063300
1640837395.429500,0.126472400,0.480843510,9.058940890,-0.003509220,0.022588670,-0.027892000
1640837395.433070,-0.395845230,0.246463810,10.515828130,0.013767190,-0.064535440,-0.023765870
1640837395.434820,-0.295280430,0.219787960,9.771535870,0.008539860,0.028748810,-0.021810830
1640837395.438320,0.074060310,0.289900690,9.203727720,0.023922320,-0.060065090,-0.029745700
1640837395.439470,-0.293630090,0.052062990,10.294325830,-0.011542440,0.033156580,-0.036115950
1640837395.443320,0.209741580,0.059566700,9.368591310,-0.012367960,0.062094640,-0.047962370
1640837395.444600,-0.095105820,-0.076457050,10.397839550,0.042338670,-0.064037740,-0.049930810
1640837395.447970,-0.155080770,-0.094217040,9.764492030,0.050787630,-0.000377000,-0.030705340
1640837395.449590,0.038652520,0.110005940,9.179621700,0.025096540,-0.050047040,-0.019006430
1640837395.452970,-0.449656610,-0.096290510,10.184316640,-0.012214480,0.008915360,-0.030183790
1640837395.454840,-0.054623280,0.004137020,9.105743410,0.017264490,0.030949710,-0.037820640
1640837395.457950,-0.202075630,0.137239590,10.068135260,0.088147830,-0.020885470,-0.050133470
1640837395.459520,-0.219111060,0.209315990,10.006999970,0.037486850,0.050976870,-0.043071810
1640837395.462970,-0.065872960,0.320806920,9.701128010,0.027075410,-0.069977350,-0.025168060
1640837395.464530,-0.354141980,0.045980770,10.064332010,0.029933450,-0.028243660,-0.020603840
1640837395.467970,-0.030755500,0.057318480,9.069505690,0.039142370,0.030249360,-0.035524370
1640837395.469700,-0.330236970,0.105512950,10.318366050,0.087988380,-0.031778220,-0.048048790
1640837395.472890,-0.290652300,0.088961040,9.902297020,0.046834350,0.028757750,-0.052022940
1640837395.474420,0.001542200,0.287211390,9.452374460,0.038859250,-0.068894030,-0.036589810
1640837395.477950,-0.349212260,0.223380540,10.332722660,0.027315320,-0.012764330,-0.036486990
1640837395.479480,0.067771870,0.280186360,9.301391600,0.022387510,0.047463190,-0.039172170
1640837395.484010,-0.273043660,0.368823260,10.433300020,0.079940260,-0.065271560,-0.030846900
1640837395.484680,-0.315277930,0.427481440,9.899170880,0.040248030,-0.011332330,-0.027440490
1640837395.488340,0.214237150,0.470086870,8.891099930,0.007192790,-0.061595450,-0.018624960
1640837395.489510,-0.295375940,0.327233490,10.427686690,0.002118950,0.018768010,-0.012908880
1640837395.493060,0.181276630,0.202630920,9.398405080,0.007797780,0.058221820,-0.027330230
1640837395.494520,0.211391880,0.110148390,9.967312810,0.065286460,-0.072395800,-0.021448730
1640837395.497980,-0.075382510,0.008418250,10.092370030,0.058031090,0.035920740,-0.009556120
1640837395.499530,0.163512260,-0.072731460,9.277664180,0.017240650,-0.011445580,-0.008709730
1640837395.503390,-0.483669160,-0.184734820,10.365686420,0.004664060,-0.075125690,-0.027726590
1640837395.504510,-0.133501320,-0.129445460,8.872659680,0.021943450,0.018474460,-0.035859650
1640837395.507930,-0.025057350,-0.042999380,9.437586780,0.085499890,0.027255710,-0.052197290
1640837395.509520,-0.499460190,0.125544680,10.725111010,0.080205500,0.088487570,-0.047354400
1640837395.513090,-0.013778640,0.296006200,9.688262940,0.046451390,-0.071002540,-0.025781990
1640837395.514520,-0.218516130,0.126326710,9.857511520,0.053387880,-0.087313360,-0.017638500
1640837395.517860,-0.093832220,0.181182820,9.026850700,0.045001510,0.060640280,-0.024315710
1640837395.519780,-0.010065120,0.169378490,9.792537690,0.080855190,0.012153390,-0.024484100
1640837395.522960,-0.151186090,0.197586880,10.390405650,0.093021990,0.042551760,-0.028829280
1640837395.524440,0.230001910,0.439205860,9.534166340,0.047858060,-0.046014780,-0.022226570
1640837395.527990,0.009118530,0.334089930,10.027364730,0.016854700,-0.010587270,-0.026364620
1640837395.529700,-0.096998730,0.369309010,9.621847150,-0.000993910,0.055751200,-0.030286610
1640837395.532930,-0.292367340,0.383874770,10.208742140,0.062139340,-0.054781140,-0.029043860
1640837395.534480,-0.456525860,0.340056990,9.912060740,0.072734070,-0.021912160,-0.038068000
1640837395.537980,-0.087542900,0.458651040,9.058325770,0.015209620,-0.023025280,-0.024659930
1640837395.539480,-0.168011580,0.347882360,10.129975320,-0.014303620,0.073702640,-0.003536050
1640837395.542890,-0.006888080,0.227258940,9.916898730,-0.028902300,0.081819300,-0.024150310
1640837395.544580,0.173489500,0.272359970,10.061393740,0.028887400,-0.081774600,-0.020931660
1640837395.547950,0.064652880,0.171532420,9.645730970,0.044254960,0.013148790,-0.011876230
1640837395.549470,0.180925550,0.116746670,9.089767460,-0.007472930,0.020949540,-0.017540160
1640837395.552880,-0.102397050,-0.079542290,10.223386760,-0.008137530,0.021791460,-0.002038480
1640837395.554670,0.067533430,-0.184432100,9.425669670,0.012284520,0.067813700,-0.030024350
1640837395.557900,0.133510170,0.004450570,9.696619030,0.040724870,-0.005488100,-0.018790360
1640837395.559510,-0.270397040,0.105565720,10.185530660,0.018814210,0.060053180,-0.012278560
1640837395.563030,-0.112566200,0.094112040,9.381115910,-0.021278860,-0.007185340,-0.018921490
1640837395.564510,-0.469035830,-0.077808080,10.070057870,0.056523090,-0.042788680,-0.003886220
1640837395.567980,-0.449907300,-0.046695440,9.312303540,0.087565170,0.055477020,-0.038279590
1640837395.569500,-0.242083240,0.167062180,9.633008000,0.060184290,0.002701580,-0.027436020
1640837395.572940,-0.517737390,0.327824350,10.393673900,0.014062230,0.050227350,-0.006932020
1640837395.574470,0.009197760,0.378572260,9.409345630,-0.033752620,-0.002220270,-0.022861360
1640837395.578010,0.067514440,0.508994400,9.970410350,0.013077260,-0.031602380,-0.014588240
1640837395.579560,0.011124910,0.424516800,9.798744200,0.048908590,0.091949110,-0.020511450
1640837395.582920,0.093405080,0.239482730,10.051862720,0.056126710,-0.018283730,-0.023102760
1640837395.584470,-0.232075110,0.245041120,10.245786670,0.046150400,-0.036411000,0.007686020
1640837395.587950,-0.010170840,0.066400750,8.995496750,-0.030687450,-0.006558000,-0.004507600
1640837395.589470,-0.065371590,0.140800670,9.635014530,-0.035583970,0.032424930,0.008508560
1640837395.592960,-0.284653960,0.088655460,9.870162960,-0.005114080,0.082062190,-0.007644300
1640837395.595530,-0.171284260,0.141189460,9.931276320,0.031556190,-0.035183130,-0.038665540
1640837395.597890,-0.296173930,0.291307900,9.901492120,0.047363340,-0.020121030,-0.018888710
1640837395.599520,-0.349046800,0.114643970,9.468643190,-0.004783270,-0.003096460,-0.013224780
1640837395.603800,-0.298359840,0.093464790,9.891204830,-0.016175210,-0.008963050,-0.016808510
1640837395.605950,-0.136143670,0.055350360,9.329456330,0.010497870,0.047732890,-0.014561410
1640837395.608260,0.125051040,0.081453540,9.571288110,0.017611680,0.021998580,-0.017787520
1640837395.609690,0.038956090,0.203294280,10.131517410,0.025908650,0.049689410,-0.001177190
1640837395.613100,0.039894010,-0.041370600,9.716400150,0.003704430,-0.033624470,-0.004164870
1640837395.614510,-0.132595140,-0.102949850,9.979276660,0.034284590,-0.057518490,-0.011073050
1640837395.617920,-0.254846100,-0.081860390,9.393748280,0.051896280,0.040823220,-0.022192300
1640837395.619730,-0.303179830,-0.048991880,9.847538950,0.032396610,0.006534160,-0.041566790
1640837395.622910,-0.444345090,0.347767440,10.276239400,0.019717220,0.028544670,-0.039152800
1640837395.624530,-0.205743430,0.428451240,9.146645550,-0.038948650,-0.018498300,-0.027732550
1640837395.628220,-0.244270090,0.186892210,9.589854240,-0.001928210,-0.041151050,-0.028595330
1640837395.629570,-0.447919460,-0.166867720,9.441738130,0.095643120,0.053875160,-0.013422970
1640837395.632860,-0.686002190,-1.096322540,9.730637550,0.194664300,-0.091861200,-0.006547570
1640837395.634450,-0.970208530,-1.767043350,9.942451480,0.275884540,-0.137358920,0.014482440
1640837395.637950,-0.556735400,-2.252190110,8.545359610,0.259874760,-0.071097920,0.029073660
1640837395.639550,-0.499310400,-2.449222560,9.831205370,0.274559860,-0.025554010,0.050307810
1640837395.642950,-0.225664330,-1.772877340,9.956092830,0.302663480,0.044068690,0.017686190
1640837395.645260,0.330568490,-0.870654820,9.527715680,0.342398910,-0.146622970,-0.000768900
1640837395.647960,0.232724560,0.286811980,9.494558330,0.384189190,-0.101788360,0.019808110
1640837395.649560,0.417668520,1.122503280,8.396290780,0.348581370,-0.049352660,0.004972520
1640837395.652910,-0.126690150,1.485420700,9.660817150,0.357376100,-0.133667930,0.019732120
1640837395.654760,-0.125815940,1.576480980,8.896186830,0.377497170,-0.043737890,0.055161130
1640837395.658310,-0.162631060,1.126150130,9.086549760,0.363350000,-0.087738050,0.069338110
1640837395.659560,-0.707743820,0.489720940,10.234218600,0.335691870,-0.021673740,0.099444400
1640837395.662970,-0.481881050,-0.376061470,9.318641660,0.340101120,-0.105415310,0.089296700
1640837395.664500,-0.837228540,-1.201084610,9.928194050,0.401403010,-0.177438530,0.048433250
1640837395.667940,-0.515979770,-1.095386860,8.746459010,0.411622260,-0.085610150,0.030535460
1640837395.669710,-0.295715270,-0.971757530,9.199392320,0.367431370,-0.108431290,0.019906460
1640837395.673410,-0.200670560,-0.215891820,9.878873830,0.336469710,-0.024977330,0.026282670
1640837395.674480,0.328566610,0.773281400,9.386558530,0.310158760,-0.140573100,0.036785010
1640837395.677900,0.333348630,1.342014550,9.756250380,0.319254340,-0.131511670,0.063139190
1640837395.679560,0.557793380,1.897132750,8.955698970,0.337474080,-0.034570690,0.088554620
1640837395.682920,0.024026760,1.751614570,9.999921800,0.330472080,-0.112645340,0.111223780
1640837395.684550,-0.155460700,1.479236480,9.420952800,0.287033620,-0.113715250,0.128684950
1640837395.688300,-0.125293510,1.064061640,8.581325530,0.220322620,-0.162993370,0.129255670
1640837395.691270,-0.554597910,0.283400540,9.541070940,0.186076750,-0.022289150,0.107733890
1640837395.693390,-0.413689170,-0.191837040,9.218297960,0.204764320,-0.047005710,0.077004740
1640837395.694640,-0.771086220,-0.622437480,10.310151100,0.277119900,-0.187258440,0.055412960
1640837395.698000,-0.462450920,-0.728771920,9.189324380,0.285407900,-0.109039250,0.073756280
1640837395.699530,-0.330184310,-0.536176560,9.097211840,0.228916110,-0.159238290,0.072212520
1640837395.703200,-0.264044430,-0.252278950,9.581793790,0.200437010,-0.071750590,0.099781160
1640837395.704580,0.544343530,0.338719070,8.621376040,0.201393650,-0.072428580,0.090515600
1640837395.707910,0.451921020,0.823715330,9.878759380,0.252918900,-0.074498360,0.113540890
1640837395.709520,0.539082650,1.174093840,9.753705020,0.227043000,-0.045217580,0.122264020
1640837395.712890,0.342724320,1.053397420,9.646798130,0.200819980,-0.170680880,0.124712300
1640837395.714450,-0.251316340,0.661869650,9.671954150,0.223970400,-0.137159210,0.129103630
1640837395.717920,-0.406255300,0.327477870,8.840107920,0.206306590,-0.095342100,0.103735930
1640837395.719920,-0.804688510,0.139622730,9.480407710,0.202164070,-0.092345480,0.112234060
1640837395.723080,-0.737907530,0.001887440,9.520192150,0.149378200,-0.056011970,0.120045270
1640837395.724830,-0.488766220,0.007000000,9.462016110,0.139062110,-0.108692060,0.119286800
1640837395.728000,-0.274120570,0.090080010,9.613410000,0.155596440,-0.098592050,0.125832860
1640837395.729560,-0.054731990,0.185304490,9.660174370,0.175979730,-0.081926590,0.124245890
1640837395.732950,0.094796020,0.311195490,9.672454830,0.203046230,-0.102110230,0.122593360
1640837395.734540,0.329897400,0.394607280,9.452604290,0.156119450,-0.125618260,0.136892500
1640837395.737970,0.560988780,0.453976870,9.178359990,0.147295000,-0.049762430,0.146150590
1640837395.739930,0.630790110,0.561074080,9.237003330,0.122809410,-0.003448130,0.151906920
1640837395.742880,0.440268730,0.572035370,9.848960880,0.107808420,-0.052414830,0.155864670
1640837395.744530,0.289042380,0.436070080,9.406841280,0.146617010,-0.075660650,0.174249710
1640837395.747860,-0.061492220,0.136096940,9.298655510,0.151924800,-0.085410480,0.181135550
1640837395.749480,-0.697508750,-0.114183580,9.706706050,0.172945870,-0.056934360,0.170972940
1640837395.753320,-0.914072160,-0.200651170,9.422734260,0.139322880,-0.090751060,0.147715210
1640837395.754570,-0.978933450,-0.189976220,9.576554300,0.123408440,-0.086104850,0.144989800
1640837395.757930,-0.836886290,0.238689150,9.383092880,0.126054880,-0.049678990,0.143210590
1640837395.759520,-0.335279910,0.577056880,9.633148190,0.082445150,-0.058753800,0.148868560
1640837395.762950,0.085101710,0.829602000,9.721365930,0.113210100,-0.031918290,0.182937130
1640837395.764490,0.535913290,0.944767770,9.730953220,0.111955420,-0.069630150,0.174698250
1640837395.767990,0.761880220,0.930136260,9.784426690,0.101940340,-0.036674740,0.204728560
1640837395.770120,0.753862500,0.700195670,9.407124520,0.081196430,-0.048886240,0.212183610
1640837395.773140,0.542060910,0.442788570,9.728232380,0.028847160,-0.043682750,0.207418220
1640837395.774560,0.302453160,0.265217300,9.195720670,0.032173100,-0.004032250,0.213013590
1640837395.777940,-0.139560370,0.021621240,9.367077830,0.023850800,-0.071528560,0.182321670
1640837395.779500,-0.554238440,-0.016727280,9.656098370,0.056898590,-0.005096200,0.194351390
1640837395.782920,-0.783561650,-0.077390720,9.393136980,0.055517260,-0.031238790,0.210666660
1640837395.784610,-1.005373950,-0.161377640,10.044204710,0.041124230,-0.095561150,0.210995970
1640837395.788300,-0.666871910,0.029658260,9.123650550,0.050313770,-0.019057100,0.208337630
1640837395.789540,-0.237050700,0.180262150,9.247903820,0.022587180,-0.008197130,0.194613610
1640837395.792920,-0.041201570,0.470055040,10.108851430,0.042858710,0.026877220,0.200490620
1640837395.794550,0.521601440,0.630252840,9.347917560,0.037501760,-0.043663390,0.215730070
1640837395.797880,0.764988060,0.434429530,9.677053450,0.044308610,-0.064864780,0.232951370
1640837395.799500,0.605038760,0.547831420,9.626471520,0.045017890,0.044161070,0.243745740
1640837395.802990,0.457616510,0.205467310,9.762834550,0.010211770,-0.016047060,0.250801470
1640837395.804940,-0.031791430,0.081359910,10.085414890,0.037026420,-0.012512510,0.246213410
1640837395.808020,-0.316193730,0.190208060,9.238496780,0.016391280,-0.029790400,0.226686920
1640837395.809760,-0.528862480,0.219633730,9.412498470,-0.010007620,-0.023567680,0.233990000
1640837395.812940,-0.786344530,0.345094000,9.522666930,-0.025089090,0.049282610,0.228682180
1640837395.814520,-0.717127260,0.363809470,9.857400890,-0.011199710,-0.019061570,0.230641660
1640837395.818110,-0.609201370,0.375566150,10.070487020,0.027312340,-0.018432740,0.254949960
1640837395.819510,-0.172737990,0.365410770,9.329102520,0.014337900,-0.014029440,0.270807680
1640837395.822920,0.130396130,0.254611550,9.804792400,-0.006227200,0.010150670,0.286240970
1640837395.824490,0.503709320,0.105449990,9.341003420,-0.033423310,0.060464450,0.276422500
1640837395.827930,0.867938880,0.109213980,9.319987300,-0.008761880,0.007990000,0.265567030
1640837395.829540,0.810637950,0.076853090,9.687161450,0.015413760,0.086759030,0.278522070
1640837395.833030,0.570049760,0.008181790,9.611173630,-0.013129420,0.055938960,0.273191960
1640837395.834550,-0.128833380,-0.080872070,10.224905970,0.012499090,-0.056178860,0.281880740
1640837395.838020,-0.424911230,-0.109055880,9.166906360,0.001835820,0.013092160,0.260449890
1640837395.839530,-0.718494890,0.058030780,9.178287510,0.003896650,0.052094460,0.252227490
1640837395.843190,-1.076077700,0.346110820,10.206153870,-0.003601610,0.090764450,0.266532570
1640837395.844600,-0.659456550,0.485987160,9.709568020,-0.033676620,0.034545360,0.275801150
1640837395.848060,-0.351612870,0.655432110,9.697636600,-0.002273920,0.006650390,0.288109480
1640837395.849740,-0.070417100,0.683433590,9.748220440,-0.022585690,0.077599290,0.290316340
1640837395.852910,0.344840110,0.552517890,9.647119520,-0.017473110,0.056976090,0.298068020
1640837395.854730,0.410018380,0.360859450,9.910005570,-0.022812190,0.027455390,0.302243260
1640837395.857870,0.639007330,0.224501940,9.562690730,-0.046582530,0.067457560,0.309275120
1640837395.859500,0.622273330,0.141252440,9.403445240,-0.044092530,0.076663500,0.294113190
1640837395.862930,0.239096250,0.122129400,9.897504810,-0.087016810,0.094097860,0.296294690
1640837395.864540,-0.050398050,0.047015090,9.834238050,-0.057330720,0.077693150,0.303742260
1640837395.867940,-0.400050580,-0.030739330,9.673553470,-0.023877620,0.016406180,0.296212760
1640837395.869540,-0.590978860,0.062293860,9.493164060,-0.005410610,0.065772240,0.309905440
1640837395.872900,-0.644328240,0.301100970,9.262372970,-0.041334330,0.110995780,0.307488440
1640837395.874540,-0.469636650,0.329989640,9.751605030,-0.127168000,0.105020400,0.306426020
1640837395.877900,-0.169689480,0.405551550,9.664088250,-0.061218450,0.088833290,0.316390480
1640837395.879540,0.050360160,0.401640920,9.587841030,-0.026662650,0.074352330,0.308625430
1640837395.883030,0.297968000,0.302073210,9.712182040,-0.018931930,0.099207470,0.330068110
1640837395.885970,0.110908410,0.079986920,9.881120680,-0.021904710,0.071877240,0.333562520
1640837395.887960,0.195328070,-0.121793900,9.645780560,-0.075729190,0.068026790,0.318939980
1640837395.889710,0.135862250,0.021610450,9.388281820,-0.070483980,0.117373470,0.326988040
1640837395.892980,-0.192427610,0.039719620,9.956167220,-0.083744530,0.108054280,0.306393240
1640837395.894640,-0.150798750,0.394092590,9.862149240,-0.066035990,0.088168680,0.301140580
1640837395.897990,-0.408614930,0.485660970,9.645743370,-0.064441560,0.074237590,0.304588680
1640837395.899480,-0.422039540,0.546695770,9.835773470,-0.080680850,0.097253920,0.312387940
1640837395.902930,-0.420747190,0.564372360,9.943205830,-0.055103020,0.129607320,0.345549020
1640837395.905610,-0.561938410,0.420850600,9.986678120,-0.077986720,0.054784130,0.355395670
1640837395.907910,-0.116614650,0.549056290,9.463433270,-0.099803520,0.044953830,0.358556210
1640837395.909490,0.178735930,0.470628830,8.998775480,-0.145107510,0.149582340,0.355780150
1640837395.913010,0.424044070,0.332841010,9.759310720,-0.142674150,0.176222640,0.349883740
1640837395.914770,0.246882140,0.194599430,10.596750260,-0.081782040,0.136734550,0.337033060
1640837395.917920,0.231597620,0.009465070,9.710201260,-0.069464740,0.024750830,0.330154600
1640837395.919550,0.097928800,-0.145053950,9.453528400,-0.066463660,0.026488300,0.351186100
1640837395.923050,-0.217513770,-0.245062010,9.238181110,-0.130145270,0.210288200,0.351613850
1640837395.924910,-0.213187810,-0.352779780,9.590853690,-0.123548530,0.163014250,0.354319810
1640837395.927920,-0.448615190,-0.169541360,10.245417590,-0.051988670,0.102427620,0.352311220
1640837395.929750,-0.140456450,0.042910760,9.170368190,-0.041179360,0.125861180,0.353601600
1640837395.932960,-0.311791930,0.164799630,9.799312590,-0.053119670,0.089551520,0.361493230
1640837395.934550,-0.561961230,0.229025170,10.011218070,-0.091546770,0.122949480,0.350718230
1640837395.938230,-0.090194000,0.318201090,9.257480620,-0.068490210,0.076027220,0.352521240
1640837395.939540,-0.142537270,0.340533200,9.889827730,-0.050345060,0.142763570,0.352370770
1640837395.942940,0.099049590,0.506142620,9.701076510,-0.075724730,0.200685860,0.358898970
1640837395.944590,0.052251530,0.487018110,10.072317120,-0.084675860,0.055529190,0.370943550
1640837395.947970,0.001564640,0.228673430,9.612711910,-0.098609930,0.085368750,0.370265510
1640837395.949530,0.132033750,0.042431060,9.230704310,-0.059551010,0.123232630,0.369663570
1640837395.952900,-0.384205670,-0.169078100,10.398644450,-0.026239450,0.137341040,0.366944070
1640837395.954940,-0.295829500,-0.047478820,9.947944640,-0.048938390,0.112049280,0.377142460
1640837395.957900,-0.295362230,0.080730930,9.825535770,-0.094221540,0.046537820,0.385743410
1640837395.959600,-0.154041950,0.109859040,9.375761030,-0.155580040,0.166468340,0.377775820
1640837395.963230,-0.014086810,0.277686390,9.543104170,-0.068184730,0.152325650,0.379526620
1640837395.964950,-0.287452040,0.216904460,10.388219830,-0.008630750,0.105264800,0.376051750
1640837395.967940,0.050787470,0.341368140,9.293273930,-0.018614530,0.081256040,0.386995020
1640837395.969600,-0.030381000,0.353305400,9.451313020,-0.066922600,0.060467410,0.408147280
1640837395.974140,-0.001767480,0.140290200,9.597160340,-0.152805460,0.211118190,0.407418700
1640837395.974680,0.212178590,0.116025590,9.605938910,-0.090028350,0.141908230,0.394840570
1640837395.978220,-0.164012270,-0.091189910,10.403594970,-0.019809610,0.095915790,0.370888440
1640837395.979540,0.115615190,0.010489630,9.166508670,-0.006625060,0.140370430,0.379551950
1640837395.982880,-0.305545960,-0.099208310,9.721775050,-0.038510560,0.079700350,0.388637210
1640837395.984530,-0.498307440,-0.215552290,9.886872290,-0.094586620,0.142514720,0.401319620
1640837395.988250,-0.234101000,-0.124228830,9.267903330,-0.046688320,0.104764100,0.392676920
1640837395.989550,-0.519902050,0.010117550,10.124794010,-0.019575660,0.130867960,0.389082730
1640837395.992970,-0.108635780,0.372389380,9.691677090,-0.033710890,0.170369450,0.393296810
1640837395.994630,-0.201245730,0.467918460,10.016032220,-0.042493650,0.069025170,0.394716920
1640837395.997900,-0.059096160,0.483018100,9.751832960,-0.071801240,0.096407530,0.397318630
1640837395.999520,0.221860320,0.571206270,9.282097820,-0.035932660,0.119033460,0.402013960
1640837396.002960,-0.139618050,0.398056210,10.082567210,-0.046841800,0.149226200,0.395055120
1640837396.004610,0.005870770,0.517774280,10.050285340,-0.063496820,0.120364120,0.410713200
1640837396.008090,-0.254052850,0.287614380,9.939013480,-0.085094580,0.033463540,0.417293700
1640837396.009810,-0.036177100,0.036533390,9.143454550,-0.103461740,0.101964200,0.412811370
1640837396.012980,-0.032696200,0.029605700,9.446165080,-0.051555040,0.169029850,0.409431820
1640837396.014560,-0.333409160,-0.161706250,10.228236200,-0.049604480,0.161072630,0.395843390
1640837396.017890,-0.013941830,-0.098109020,9.734581950,-0.045607990,0.066190960,0.410437610
1640837396.019500,-0.313242520,-0.081868180,9.797216420,-0.046615300,0.062169140,0.407119130
1640837396.022890,-0.095680180,-0.070667940,9.186634060,-0.086385020,0.151766840,0.399722190
1640837396.024560,-0.192615150,0.098757100,9.765135770,-0.050306320,0.113759940,0.395618440
1640837396.027990,-0.279210120,0.069652680,9.906361580,-0.020706660,0.128264730,0.384829970
1640837396.029580,0.226862760,0.340765660,9.277215000,0.004972520,0.107190020,0.401185480
1640837396.032880,-0.268017920,0.307726260,10.114895820,-0.032411520,0.110237290,0.423662330
1640837396.034560,-0.043656480,0.205125940,9.651909830,-0.089935970,0.113850840,0.422745940
1640837396.038340,-0.113703580,0.176565010,9.770643230,-0.040808320,0.085899240,0.400388240
1640837396.040700,-0.441818920,0.131952210,9.773218150,-0.012145940,0.117020320,0.393524800
1640837396.043040,-0.049252090,0.279460130,9.442773820,-0.013224780,0.094549340,0.395175780
1640837396.044820,-0.359380660,0.283035040,9.896102910,-0.053158400,0.123795870,0.393259560
1640837396.047910,-0.210930660,0.304517920,9.742155080,-0.089772030,0.103366380,0.414185230
1640837396.049570,-0.205662550,0.303522170,9.857908250,-0.054910780,0.061862170,0.402425230
1640837396.052910,-0.286636050,0.272616830,9.609750750,-0.038963550,0.106441970,0.397214320
1640837396.054770,-0.057792620,0.441850070,9.679104800,-0.029745700,0.091885040,0.415341560
1640837396.057930,-0.214962360,0.246227830,9.919178010,-0.076921290,0.112661730,0.415068950
1640837396.059580,0.130451320,0.123060200,9.223974230,-0.088073320,0.080339610,0.420947370
1640837396.062950,0.056927640,0.067585380,9.745928760,-0.038838390,0.099122550,0.422328770
1640837396.064510,-0.073669120,-0.125206380,9.676161770,-0.037612010,0.148060890,0.415077780
1640837396.067890,-0.047356300,-0.096958480,9.794732090,-0.027295950,0.028282410,0.416381660
1640837396.069560,-0.412205100,-0.285238240,9.840312960,-0.031636660,0.067198280,0.403183730
1640837396.072920,-0.169766020,-0.284598320,8.951862340,-0.027441980,0.103558620,0.387206730
1640837396.074820,-0.501356600,0.000826670,10.107979770,-0.011487310,0.082741690,0.378347990
1640837396.077940,-0.391742350,0.114970220,9.641816140,-0.031816960,0.128385440,0.387802720
1640837396.079570,0.017648780,0.333180900,9.367323880,-0.006732350,0.021010640,0.411517920
1640837396.083040,-0.368797180,0.301759540,10.129245760,-0.008279090,0.107243660,0.408744840
1640837396.084530,0.101019650,0.324497910,9.293032650,-0.016330180,0.113338250,0.411534340
1640837396.088260,-0.257029770,0.166092010,10.424259190,0.023891030,0.016300380,0.400546220
1640837396.090340,-0.233048130,0.154717450,9.617589950,0.009088220,0.086937850,0.396777720
1640837396.093080,0.157017390,0.296081870,9.024790760,-0.017282370,0.034707790,0.398452580
1640837396.094650,-0.350838810,0.283606200,10.154251100,-0.058496000,0.117312370,0.391301540
1640837396.097900,0.132449030,0.463407640,9.252882960,-0.066140300,0.112766030,0.400055970
1640837396.099570,-0.091648930,0.327078520,10.170084950,-0.020959970,0.020641090,0.392687410
1640837396.102910,-0.202760670,0.213749170,9.826947210,-0.000254810,0.103300820,0.392700730
1640837396.104600,0.007437910,0.301719670,9.484478950,0.004397330,0.027409190,0.418166850
1640837396.107980,-0.436020050,0.037498340,10.054820060,-0.049801180,0.070583820,0.417527590
1640837396.109540,0.145389070,0.043496450,8.800883290,-0.082156060,0.094391410,0.411023230
1640837396.112920,0.095310690,0.067945610,9.776463510,-0.039115550,0.104869910,0.400593940
1640837396.114490,-0.041670280,0.053089190,9.860745430,-0.006467100,0.164173560,0.398883280
1640837396.117900,0.109508030,0.152011890,9.792016030,0.006134810,-0.015726690,0.389170650
1640837396.119560,-0.277777730,-0.005807130,9.812671660,-0.023104250,0.041408840,0.393973290
1640837396.122990,-0.050197880,-0.012903340,8.728924750,-0.027294460,0.100438300,0.393751290
1640837396.125220,-0.502344790,0.038355110,10.243453980,-0.007197260,0.083917390,0.379744170
1640837396.130370,-0.406038700,0.195739980,9.683974270,-0.020529330,0.125804540,0.389546190
1640837396.131150,-0.153974040,0.387719840,9.530047420,-0.010900200,-0.015433130,0.404274490
1640837396.132910,-0.516652700,0.185685800,10.080687520,-0.014463070,0.080220390,0.388599960
1640837396.134580,-0.094057220,0.276464940,8.983881000,-0.002627070,0.085642940,0.384029750
1640837396.138790,-0.487077390,0.243154750,10.484073640,0.008881090,0.011296570,0.379578740
1640837396.139750,-0.313431320,0.222495440,9.569315910,-0.023922320,0.102174270,0.385923620
1640837396.142910,0.127025370,0.452954050,9.231926920,-0.037223100,-0.017017130,0.391320970
1640837396.144520,-0.294751410,0.374254440,10.242266650,-0.065292400,0.098776820,0.389510360
1640837396.147870,0.224839020,0.409857690,8.992854120,-0.053882610,0.096157190,0.391462530
1640837396.149540,-0.232351500,0.260549600,10.392422680,-0.006213790,-0.056090960,0.378844200
1640837396.152920,-0.238604710,0.075393240,9.413701060,-0.006917120,0.081637510,0.383184850
1640837396.154580,0.012878630,0.081438150,9.028970720,-0.019760430,0.009939080,0.388740060
1640837396.157920,-0.636788130,-0.080205420,10.402804370,-0.053673990,0.068104270,0.393542680
1640837396.159620,0.017183850,0.018212940,8.776230810,-0.072647640,0.071491300,0.392735000
1640837396.163110,-0.105706800,0.054154400,9.746611600,-0.027489670,-0.013114510,0.382289350
1640837396.166650,-0.209935640,0.022332530,9.705073360,0.004832450,0.134621560,0.390350850
1640837396.167930,0.037029490,0.142693500,9.552318570,0.011181830,-0.004516540,0.374954970
1640837396.169880,-0.495685640,-0.037428280,10.320090290,-0.000189240,-0.019335750,0.376892120
1640837396.172950,0.007406240,0.050728080,8.444246290,-0.010164080,0.037990510,0.380563770
1640837396.174850,-0.220928250,0.103346220,9.629976270,-0.020226840,0.040780020,0.371086600
1640837396.177900,-0.254266110,0.109210200,9.769669530,-0.018328430,0.132864710,0.363607730
1640837396.179560,0.020070450,0.339428070,9.700852390,0.024959450,-0.046519940,0.365436140
1640837396.182940,-0.387837410,0.153274420,10.138758660,0.016555190,-0.003227590,0.373522940
1640837396.184690,-0.014865890,0.153307680,8.889751430,0.001214440,0.043387710,0.368543000
1640837396.187900,-0.474767030,0.185552080,10.348511700,0.000526010,0.003284220,0.367529720
1640837396.190380,-0.327456470,0.139085370,9.511909480,-0.004775820,0.054264080,0.384426180
1640837396.192870,0.026587560,0.277161420,9.195538520,0.000008940,-0.061939660,0.376392900
1640837396.194590,-0.249371390,0.237066790,9.970960620,-0.013598800,0.071699920,0.374823840
1640837396.197900,0.193511610,0.311349840,9.055438040,-0.004379450,0.069436420,0.387175320
1640837396.199550,-0.305305900,0.289174850,10.582591060,0.011213120,-0.066047910,0.371375710
1640837396.203330,-0.077786660,0.231403690,9.218144420,-0.001111630,0.035806000,0.381271540
1640837396.205420,0.253499000,0.342281970,8.841764450,-0.009813910,-0.023901470,0.378900860
1640837396.208030,-0.302295450,0.262695910,10.179159160,-0.028279430,0.114451350,0.370712610
1640837396.210080,0.316267610,0.301589940,8.937728880,-0.048743200,0.065813970,0.367738340
1640837396.212930,-0.058627570,0.138567100,10.180648800,-0.007863340,-0.046421590,0.373242800
1640837396.214560,-0.165090200,-0.033002660,9.420091630,0.018712880,0.087630750,0.379866390
1640837396.217960,-0.094835560,-0.084258570,9.186621670,0.013716520,-0.043974820,0.372879300
1640837396.219550,-0.794325410,-0.283932570,10.090365410,-0.000694390,0.004324320,0.372155070
1640837396.222880,-0.057241250,-0.119584340,8.374253270,-0.002148750,0.058721010,0.363554060
1640837396.224790,-0.238476020,0.044631520,9.885231970,0.002363320,0.050458320,0.352087650
1640837396.227960,-0.239729390,0.284454230,9.965476040,0.001858180,0.121425110,0.357413380
1640837396.229620,0.171407490,0.470822360,9.510835650,0.011791290,-0.069475170,0.365977050
1640837396.232980,-0.370888140,0.299865190,9.933977130,0.019761920,-0.015734140,0.364109900
1640837396.234630,-0.008426350,0.266270520,8.680729870,0.020198520,0.030443070,0.359670850
1640837396.237900,-0.348494560,0.104259720,10.050533290,0.030839450,0.012296440,0.348165660
1640837396.239560,-0.357048840,0.164205880,9.707448010,0.025950380,0.070844600,0.358146460
1640837396.242950,-0.011523220,0.403942170,9.461189270,-0.018036370,-0.064389410,0.349275860
1640837396.245830,-0.229832830,0.393788610,9.736936570,-0.068390380,0.033390530,0.343348090
1640837396.247980,0.080564100,0.451760800,9.071636200,-0.035038590,0.034344200,0.348454650
1640837396.250040,-0.278844480,0.313427900,10.321550370,0.031922760,-0.018192830,0.326909120
1640837396.252880,-0.226575640,0.325607120,9.424110410,0.034610930,0.006829200,0.336660390
1640837396.254600,0.023484700,0.420100390,9.115036960,-0.016595420,-0.058825310,0.358408720
1640837396.258160,-0.258725140,0.204131290,9.732307430,-0.103586920,0.089283290,0.355169210
1640837396.259600,0.150741610,0.153249490,9.168188100,-0.087703790,0.045494740,0.342881740
1640837396.262920,-0.119517300,0.070867230,10.176513670,0.013187530,-0.047503410,0.322659340
1640837396.264660,0.023209240,0.048235950,9.133497240,0.049801180,0.044751180,0.315055250
1640837396.267900,0.083443440,0.177253440,9.257805820,-0.011841950,-0.020958480,0.310477640
1640837396.269540,-0.337114930,0.011116760,9.977668760,-0.089161100,0.037051740,0.306066900
1640837396.272900,0.186395730,0.049982420,8.668196680,-0.071237990,0.033922490,0.297988980
1640837396.274920,-0.232673730,0.067823750,9.864371300,0.010669230,0.008279090,0.284901200
1640837396.277930,-0.262395140,0.065750150,9.525402070,0.023724140,0.062489510,0.293950740
1640837396.279550,-0.046776130,-0.018071010,9.319181440,0.016404690,-0.049787760,0.305391850
1640837396.284150,-0.577096640,-0.340584780,9.956738470,0.022366640,0.006997580,0.297352640
1640837396.284760,-0.010410330,-0.219944820,8.747726440,0.014777480,0.040274860,0.279387830
1640837396.287980,-0.157562200,0.006788730,9.773181920,0.025990610,0.015920400,0.263904060
1640837396.290790,-0.124029900,0.303586100,9.761343000,-0.009097160,0.068661570,0.261826810
1640837396.294680,0.331877500,0.717214350,9.113235470,-0.027693810,-0.008083880,0.255507230
1640837396.295140,-0.188213510,0.614562210,9.883900640,-0.015734130,-0.017827750,0.248640780
1640837396.298640,0.004994780,0.549793600,9.188003540,0.015994910,0.050878530,0.251846020
1640837396.299590,-0.180806560,0.374536750,9.619411470,0.058612220,-0.011102850,0.241716180
1640837396.302920,-0.532211540,0.134445770,10.001146320,0.006282330,0.007958710,0.250479580
1640837396.304510,0.113878530,0.224669350,8.715028760,-0.047519810,0.035314270,0.251232090
1640837396.308050,-0.170166160,0.124594380,9.682863240,-0.071696940,0.025533140,0.219659520
1640837396.309840,0.068800470,0.270541280,9.484230040,-0.067022440,0.111062850,0.207427190
1640837396.312910,0.395353880,0.364623840,9.152417180,0.001765790,0.007638340,0.181187690
1640837396.314670,-0.199515090,0.218390600,10.191192630,0.019705290,0.008231400,0.186981230
1640837396.317930,0.182758530,0.359105910,8.801652910,-0.005371870,0.036293260,0.210924450
1640837396.319550,-0.179520100,0.091070940,9.564224240,-0.067420300,-0.014841560,0.207309440
1640837396.323110,-0.181325080,-0.011951020,9.279275890,-0.061102200,0.125481200,0.195679040
1640837396.324660,0.227074490,0.158544020,8.873443600,-0.002719460,0.060395910,0.173826550
1640837396.328400,-0.318995590,0.105829370,10.280644420,-0.013503430,0.063480440,0.160744790
1640837396.330100,0.176030490,0.170030650,8.788591380,-0.024627150,0.059510780,0.159357530
1640837396.333420,-0.066841690,0.012047810,9.504934310,-0.015145540,-0.011076040,0.130563970
1640837396.334630,-0.164453880,-0.001466830,9.115971570,-0.017037990,0.125725550,0.132393840
1640837396.337860,0.275689010,0.181842920,8.841229440,-0.014553970,0.080044580,0.128009920
1640837396.339550,-0.243352820,0.141405490,10.298560140,-0.031359490,0.116929400,0.121912370
1640837396.343060,0.100481550,0.206242370,9.087601660,-0.026409330,0.060717770,0.132070480
1640837396.344580,-0.178514180,0.140414310,9.565755840,-0.009517370,-0.012804570,0.117349650
1640837396.347920,-0.379403620,-0.066791780,9.222661970,0.017261510,0.108741220,0.097246460
1640837396.349540,-0.090241040,0.240236600,9.053536420,0.031296910,0.066734860,0.084283970
1640837396.352880,-0.284284260,0.440628350,9.809790610,-0.027166310,0.110711140,0.084000820
1640837396.354570,0.215634090,0.582791810,9.188773160,-0.105360170,0.118398670,0.084565580
1640837396.358120,0.281740990,0.736036000,9.786100390,-0.071299080,0.097329910,0.067284710
1640837396.359830,-0.033451190,0.595524190,9.905550000,-0.034044680,0.082094960,0.059609110
1640837396.362980,0.059322490,0.520644190,9.018885610,-0.015050170,0.024867060,0.058265030
1640837396.364700,-0.189522340,0.262621940,9.179594040,-0.023548300,0.065080810,0.054450330
1640837396.367980,-0.340248730,0.033043060,9.388843540,-0.082696980,0.136163830,0.065948080
1640837396.369600,0.027283360,0.089753870,9.141951560,-0.098601010,0.125154850,0.059923540
1640837396.372960,-0.030450230,-0.073140240,9.812875750,-0.099179130,0.115151700,0.025139750
1640837396.374600,0.185287270,0.172647660,9.197439190,-0.061641640,0.152827800,0.022085020
1640837396.377970,0.088372890,0.230791870,9.428163530,-0.032943490,0.057709220,0.007410350
1640837396.379580,-0.299359860,-0.027838030,9.650861740,-0.068227950,0.089496380,-0.002147260
1640837396.382890,-0.011894830,-0.069860900,8.541648860,-0.021123890,0.082579260,-0.007826090
1640837396.384520,-0.421854110,-0.128317340,9.630081180,-0.020216410,0.109040740,-0.019426640
1640837396.387860,-0.203873050,0.018967200,9.162224770,-0.067813690,0.202998530,-0.014533100
1640837396.389530,-0.010864940,0.221983510,9.595988270,-0.077077750,0.078083570,-0.027398770
1640837396.393100,-0.185083540,0.162450820,9.698378560,-0.050514950,0.122493520,-0.023198130
1640837396.394740,0.286914500,0.270617160,8.560989380,-0.010129810,0.104320050,-0.036442280
1640837396.398050,-0.105343410,0.287533790,9.776528360,-0.008465350,0.129935150,-0.048778950
1640837396.399650,-0.132932070,0.125789880,9.477617260,-0.040860480,0.137570500,-0.045879190
1640837396.402920,-0.033684360,0.193045170,9.302973750,-0.059366230,0.057634720,-0.054277490
1640837396.404620,-0.318310680,0.125048640,9.546674730,-0.053514540,0.122244680,-0.060464450
1640837396.408100,-0.162252900,0.165544450,9.163872720,-0.047251590,0.139391420,-0.053901980
1640837396.410010,-0.252406390,0.283833830,9.611058240,-0.007128720,0.103446840,-0.065052490
1640837396.413190,-0.344785840,0.223191430,9.588956830,-0.047904260,0.093309580,-0.076492140
1640837396.414550,0.184471030,0.369382290,8.842179300,-0.061281030,0.130306180,-0.068500650
1640837396.417870,0.005933110,0.308584240,9.720337870,-0.053077940,0.140202050,-0.076985370
1640837396.419550,-0.066318880,0.323556960,9.777953150,-0.075793270,0.143596530,-0.084865110
1640837396.422890,0.346421360,0.360363600,8.778699870,-0.064665090,0.060434650,-0.089868910
1640837396.424590,-0.126922400,0.016333770,9.545618060,-0.052848470,0.119479020,-0.096066300
1640837396.427980,-0.071317250,-0.060846380,8.932653430,-0.024491550,0.193586960,-0.088536740
1640837396.430810,-0.312336620,-0.144126270,9.773356440,-0.027620790,0.045242910,-0.100579860
1640837396.432870,-0.537767290,-0.337617370,9.574151040,-0.057943170,0.118418040,-0.107201940
1640837396.434540,0.023302660,-0.132893260,8.400376320,-0.049147010,0.108389580,-0.133900340
1640837396.437860,-0.419511740,-0.018609810,9.885710720,-0.036534670,0.163902340,-0.158303990
1640837396.439660,-0.080711920,0.098815710,9.258251190,-0.031971940,0.165975090,-0.161018940
1640837396.443100,0.048386350,0.210359230,9.528733250,0.013339520,0.028197470,-0.152248140
1640837396.444690,-0.309742810,0.108367560,9.528483390,0.017011170,0.106075410,-0.138521210
1640837396.448380,0.012425560,0.186080170,8.792072300,-0.020244720,0.110200060,-0.127415370
1640837396.449600,-0.399832370,0.004662780,9.912249570,-0.011044740,0.097768020,-0.136348620
1640837396.453040,-0.304162980,0.019508810,9.430526730,-0.004866720,0.117762390,-0.155247760
1640837396.454550,0.130483970,0.351804970,8.874385830,-0.000840430,0.090752550,-0.166869160
1640837396.458030,-0.176405500,0.498803440,9.697885510,-0.023469330,0.130359830,-0.180009020
1640837396.459620,0.011084070,0.660611510,9.281894680,-0.074948360,0.154772400,-0.183312570
1640837396.463300,-0.048876350,0.584084450,9.461850170,-0.047370790,0.029799340,-0.190964340
1640837396.464570,-0.542906760,0.146643580,9.928634640,-0.007982550,0.060749050,-0.189308810
1640837396.467890,-0.142427980,-0.019310060,8.584160800,0.046639140,0.103025150,-0.179062780
1640837396.469570,-0.622690500,-0.199791760,9.961459160,0.032435360,0.050000840,-0.187884260
1640837396.472910,-0.347985180,-0.257810260,9.135473250,-0.076602400,0.141942520,-0.191771980
1640837396.474580,0.399860260,-0.098596230,8.470155720,-0.077471140,0.075650220,-0.199492320
1640837396.478170,-0.168618290,-0.127303930,10.280754090,-0.004152950,0.161644800,-0.216828260
1640837396.480080,0.325334760,0.158686770,8.928909300,0.043916700,0.105884680,-0.246430980
1640837396.483120,-0.038540680,0.232153790,9.730112080,0.049738590,-0.053393840,-0.246687250
1640837396.484570,-0.224372910,-0.010452960,8.918048860,0.016106670,0.145587330,-0.235077780
1640837396.488030,-0.071851640,-0.002235960,8.796029090,0.002118950,0.102166830,-0.234231370
1640837396.489570,-0.914164900,-0.044807080,10.553335190,0.043119480,0.083139530,-0.240869810
1640837396.493000,-0.434813800,-0.107965530,8.906023980,0.051522250,0.045953690,-0.241933760
1640837396.495170,-0.461678860,-0.080757920,9.178351400,0.079026830,-0.001674890,-0.253838300
1640837396.497940,-0.628228600,-0.051089350,9.580907820,0.055845090,0.126500460,-0.280706670
1640837396.499720,-0.068702320,0.022908360,9.172832490,0.043025610,0.090356180,-0.287164780
1640837396.502890,-0.231666890,0.343060080,10.089786530,0.081872950,0.008642670,-0.304377110
1640837396.504590,0.094526420,0.484480020,9.264204030,0.019162890,0.064663590,-0.294610890
1640837396.507940,0.456683190,0.653901990,8.751160620,0.007304550,0.058548150,-0.274854930
1640837396.509650,-0.182799090,0.433127310,10.361914630,0.044034410,0.082227600,-0.271299510
1640837396.512940,-0.087281460,0.126514820,9.416005130,0.079895560,0.061292950,-0.272025200
1640837396.514550,-0.138760600,0.126842560,9.152545930,0.106686360,-0.084957490,-0.271430610
1640837396.517920,-0.448605750,-0.074605950,9.308051110,0.024384260,0.126853600,-0.277271870
1640837396.519650,0.089916860,0.075339750,8.550049780,-0.031290950,0.137263520,-0.290195610
1640837396.524410,-0.516031560,0.089217760,10.662384990,-0.001135470,0.020308790,-0.317431990
1640837396.524950,-0.045825970,-0.028316120,8.934040070,0.055407000,0.082291670,-0.333203380
1640837396.528080,-0.060467960,0.005342390,9.110000610,0.138917610,-0.031586000,-0.333245190
1640837396.533080,-0.775401120,-0.069477190,10.040615080,0.124025370,0.076398250,-0.303702060
1640837396.533640,-0.040834730,-0.172022970,8.429842000,0.026710330,0.010329480,-0.298775760
1640837396.535820,-0.244892310,-0.068106230,9.626812930,0.034229460,0.024433440,-0.297658180
1640837396.537930,0.109770790,-0.017536420,9.050687790,0.061526890,0.170443970,-0.326888260
1640837396.539600,0.348433490,0.140113150,9.544050220,0.100292270,0.039978320,-0.352600220
1640837396.543340,-0.171344550,0.256500010,10.199501040,0.136674940,0.015287100,-0.350376960
1640837396.544600,0.097325140,0.007616010,8.715839390,0.090849420,-0.014892220,-0.359174670
1640837396.547890,-0.280283030,0.083274680,9.172478680,0.099264100,0.016227370,-0.355158750
1640837396.549610,-0.609000620,0.022015590,9.706647870,0.081458700,0.105175390,-0.353239540
1640837396.552900,-0.417949260,0.109584150,9.407508850,0.093799840,0.025880340,-0.353674590
1640837396.554600,-0.566075620,0.340926320,9.833022120,0.125326230,-0.043450300,-0.357471410
1640837396.557900,-0.237930480,0.323193790,8.958065030,0.064930340,0.074172030,-0.372655780
1640837396.559700,0.083515040,0.501855190,9.039582250,0.097528110,0.045877710,-0.354991940
1640837396.563180,-0.337011340,0.388594900,10.478240010,0.101061180,0.039708630,-0.366835360
1640837396.564560,0.289861260,0.424941150,8.760880470,0.071610530,0.012348590,-0.371000200
1640837396.567980,0.170115190,0.389511320,9.408719060,0.079806170,-0.052610050,-0.368370210
1640837396.569720,-0.029043720,0.206847070,9.286268230,0.046606370,0.140421090,-0.378967820
1640837396.573070,0.235774860,0.172580780,8.894360540,0.044932960,0.002516810,-0.390399990
1640837396.574600,-0.339252020,-0.042552430,10.132438660,0.094532970,0.003582240,-0.392630730
1640837396.578020,0.011626590,-0.229865520,8.489514350,0.112879300,0.063970690,-0.396229420
1640837396.579600,-0.340005400,-0.084720940,9.662064550,0.109003480,-0.010927020,-0.396393180
1640837396.582870,-0.525600490,-0.015053290,9.544363980,0.045813620,0.084359940,-0.399594040
1640837396.584610,-0.023726800,0.008596510,8.601921080,0.028128920,-0.009362400,-0.423570010
1640837396.587880,-0.334166880,0.335516660,9.632452960,0.106823470,0.060266260,-0.423659410
1640837396.589600,-0.021628740,0.481922450,9.122285840,0.092203920,0.097963220,-0.425757500
1640837396.592940,-0.072522680,0.542722400,9.717104910,0.093764070,-0.030788780,-0.408379820
1640837396.595300,-0.243583020,0.460392710,9.636626240,0.073881450,0.020727520,-0.397695630
1640837396.597950,0.034406740,0.267855940,8.817290310,0.032447280,0.034157940,-0.393836200
1640837396.599560,-0.252703550,0.272425030,9.643125530,0.076164310,0.030069050,-0.403796140
1640837396.602990,-0.203523040,0.162838550,9.522624970,0.067074590,0.084015710,-0.425483320
1640837396.604620,0.008831980,0.242711900,9.039194110,0.057159370,-0.000217560,-0.424167600
1640837396.607960,-0.287775370,0.290523770,9.669871330,0.037603080,0.001601870,-0.437006380
1640837396.609660,0.015144030,0.236284330,8.870341300,0.002408030,0.100888310,-0.432930890
1640837396.613520,-0.260280250,0.229757370,9.874693870,0.066992630,-0.010941920,-0.417414340
1640837396.614600,-0.552561520,0.211962820,9.947005270,0.068892540,0.018146630,-0.414302970
1640837396.618100,0.049638970,0.222034170,8.370590210,0.046920780,-0.026421250,-0.406012000
1640837396.619560,-0.399321880,0.178594860,9.679746630,0.038482250,0.054216390,-0.400729480
1640837396.622900,-0.074791220,0.222999260,8.932062150,-0.003722310,0.124217550,-0.422343640
1640837396.624540,-0.010710450,0.225845220,9.538812640,0.021141770,-0.070586800,-0.426149400
1640837396.629880,-0.168115440,0.185023620,9.430460930,0.065889940,0.057707720,-0.424720350
1640837396.630410,0.069698550,0.059194990,8.843092920,0.059087580,0.006075200,-0.447893230
1640837396.632980,-0.584803340,0.061802440,10.224446300,0.056107350,-0.008094310,-0.443856480
1640837396.634590,-0.199956280,0.020042830,8.746388440,0.022232530,0.028163200,-0.452993900
1640837396.637840,-0.253561760,-0.021429380,9.299078940,0.040586300,-0.011616950,-0.446873990
1640837396.639570,-0.407387820,0.302289780,9.487555500,0.060208150,0.075650220,-0.444677560
1640837396.642940,-0.025777890,0.396680500,9.214213370,0.004099310,-0.029250990,-0.449968870
1640837396.645440,-0.241205630,0.412348510,9.658856390,0.034271180,-0.011743610,-0.417602120
1640837396.649080,-0.042238660,0.406867270,9.078925130,0.027267640,0.023977460,-0.446637000
1640837396.650540,-0.133373080,0.326732750,9.761440280,0.036428870,0.001536310,-0.438331010
1640837396.652900,-0.259923100,0.328998000,9.636353490,0.057466340,0.001351540,-0.445702730
1640837396.654590,-0.043652340,0.257544370,9.152482030,-0.002543630,-0.030747060,-0.459811150
1640837396.657900,0.022936660,0.245328290,8.885661130,-0.013728440,0.026130680,-0.451462060
1640837396.659630,0.010680760,0.121783900,9.285842900,0.004303460,0.067268320,-0.451877800
1640837396.663560,-0.047881950,0.087781020,9.714351650,0.046156350,0.022584200,-0.443772910
1640837396.664580,-0.238015250,-0.010731880,9.585118290,0.069667410,-0.066557530,-0.435212310
1640837396.667870,-0.107948110,-0.040235610,8.818407060,0.017651920,-0.019894550,-0.456239340
1640837396.669590,-0.146514270,0.064145070,8.919310570,0.001996760,0.064785790,-0.469698100
1640837396.672880,-0.377605710,0.213257340,9.787203790,-0.003021960,0.064125680,-0.474345740
1640837396.674600,-0.212136780,0.413129540,9.445249560,0.013968350,-0.025868420,-0.479813010
1640837396.678140,-0.184735630,0.432021500,9.171685220,0.039191540,-0.043545670,-0.458489420
1640837396.679620,-0.170260820,0.472853570,9.075450900,0.029940910,0.041505700,-0.454194930
1640837396.682970,-0.331044790,0.244893100,9.775953290,0.013960900,0.019557780,-0.446964890
1640837396.685220,-0.183020610,0.096211450,9.490281110,0.023168330,0.000651180,-0.451137210
1640837396.687910,-0.029302100,0.091847440,9.253824230,0.033810730,-0.018264360,-0.468275010
1640837396.689550,-0.102891440,0.174103110,9.356212620,0.007329880,0.058364880,-0.469540150
1640837396.692960,-0.049059090,0.471890240,9.153129580,-0.021976240,-0.000490250,-0.467740090
1640837396.694790,-0.323565130,0.395519440,9.815475460,-0.035721070,-0.017759210,-0.477398930
1640837396.698590,-0.094920610,0.526396390,8.942754750,-0.002631550,0.034356130,-0.467215540
1640837396.699920,-0.447699370,0.555348280,9.883405690,0.030140580,-0.054641070,-0.468087260
1640837396.702860,-0.396144660,0.535048960,9.456126210,-0.011400880,0.052994500,-0.449171750
1640837396.704570,0.008557200,0.556610470,8.775038720,-0.065167270,-0.030510130,-0.443331960
1640837396.707860,-0.244464310,0.267384140,9.856648450,-0.091291990,0.039102140,-0.449520440
1640837396.709620,0.515961350,0.262801950,8.387075420,-0.031965970,0.093403460,-0.457830790
1640837396.712940,0.000783490,0.060844960,10.173199650,0.012660030,-0.036181510,-0.468990270
1640837396.714690,-0.015443400,-0.049275000,9.419456480,-0.010158120,0.063140700,-0.460073410
1640837396.717930,0.160601600,-0.211927970,8.701038360,-0.031276060,-0.093062240,-0.471326800
1640837396.719650,-0.483959350,-0.343021720,9.766540530,-0.038193180,0.087727620,-0.483885470
1640837396.723220,0.107511130,-0.039924690,8.479886050,-0.013566020,0.113780810,-0.482519060
1640837396.724680,-0.504441200,0.087062880,10.388889310,-0.000305470,-0.034107270,-0.486156430
1640837396.729000,-0.166262750,0.398659710,8.948284150,-0.017386670,0.071840000,-0.457961860
1640837396.732770,-0.010654570,0.416099340,8.988175390,-0.013804440,-0.036467610,-0.452597500
1640837396.733370,-0.571743790,0.327670510,10.070199970,-0.018069150,0.092946010,-0.458456670
1640837396.734980,0.093638920,0.364065350,8.880136490,0.018729280,0.036905720,-0.462259410
1640837396.737850,-0.315440540,0.281793450,10.127659800,0.020320720,-0.005497040,-0.478045700
1640837396.739610,0.043325830,0.455880910,8.925319670,-0.037783390,0.097410400,-0.457067880
1640837396.742870,0.217695880,0.500747860,9.220537190,-0.075273240,0.008507070,-0.455388520
1640837396.744660,-0.187712010,0.320046900,9.739332200,-0.062555080,0.097358250,-0.454261960
1640837396.747910,0.135000050,0.304500970,9.034688950,0.000807640,0.022412840,-0.452815090
1640837396.749800,-0.400615900,0.183363970,9.854235650,0.026291610,-0.002105530,-0.454153210
1640837396.752890,-0.215206880,0.174053880,8.850140570,-0.025045870,0.062578920,-0.429534910
1640837396.754600,-0.266861590,0.104657230,9.510166170,-0.078836080,0.047355880,-0.429500670
1640837396.757870,-0.232225360,-0.075145450,9.392290120,-0.084270540,0.119268900,-0.447545950
1640837396.759640,0.141695920,0.019102900,9.227810860,0.002625580,0.031209000,-0.449302820
1640837396.763050,-0.143398810,-0.015361360,9.646078110,0.054597860,0.084373360,-0.453846220
1640837396.765980,0.043760060,-0.017880880,9.004839900,0.001297890,0.028225780,-0.442753820
1640837396.768030,-0.204503210,-0.122260280,9.633481980,-0.014302130,0.013384220,-0.432530050
1640837396.769700,-0.037178830,-0.183797390,8.775852200,-0.007158520,0.117352620,-0.446286860
1640837396.772900,-0.166485980,0.065118570,9.591968540,0.039759290,0.067272800,-0.444419770
1640837396.774740,-0.437150840,0.256288380,9.770818710,0.031174720,0.089487460,-0.446866510
1640837396.778100,-0.070261750,0.319770660,9.011839870,-0.000101330,0.003603100,-0.442440900
1640837396.779640,-0.464731310,0.272483530,9.691431050,0.043773650,0.059981640,-0.430622700
1640837396.782840,-0.345513910,0.182443200,9.099036220,0.042793170,0.080709160,-0.452786770
1640837396.784610,-0.422891740,0.164597080,9.822150230,0.064074990,0.006832180,-0.440828500
1640837396.787870,-0.400096680,0.221181660,9.471936230,0.041635340,0.084452350,-0.437949660
1640837396.789580,-0.050355980,0.225958060,9.254291530,-0.010621550,0.020684300,-0.443343820
1640837396.793070,-0.123522930,0.408205390,9.569050790,0.008088350,0.065168740,-0.427292380
1640837396.794660,0.103416050,0.359132020,9.212192540,0.005705660,0.070723900,-0.440935790
1640837396.797870,-0.081344980,0.352635290,9.907787320,0.039665390,0.040987140,-0.427134340
1640837396.799600,-0.115302780,0.300325010,9.323106770,0.051195920,0.035364920,-0.415973400
1640837396.803080,-0.087545690,0.108080020,9.452249530,0.026941300,0.008384880,-0.408871470
1640837396.805090,-0.144238010,0.201047000,9.235049250,0.008115170,0.116759520,-0.389733880
1640837396.807930,-0.142509520,0.073404220,9.443990710,-0.016129020,0.044986610,-0.418701800
1640837396.810160,-0.180172000,0.079871970,9.590680120,0.027807060,0.077764680,-0.419950460
1640837396.812930,0.017106980,0.188492460,8.835273740,0.069227810,0.065557640,-0.431607690
1640837396.814710,-0.412854700,0.162180770,10.169572830,0.042517490,0.027459860,-0.433209630
1640837396.817880,-0.171250480,0.144653290,9.121967320,0.021333990,0.075994430,-0.417587190
1640837396.819670,-0.225743990,0.006801660,9.484626770,0.034531950,-0.015482310,-0.424699490
1640837396.822870,-0.378771390,0.103352200,9.724094390,0.052805240,0.134623070,-0.422036650
1640837396.824610,0.061152760,0.240653190,9.034795760,0.045605000,0.064213570,-0.426313310
1640837396.827940,-0.408838450,0.203325470,10.457129480,0.039695210,0.013692680,-0.406999920
1640837396.829630,0.096836600,0.216466140,8.737395290,0.055597730,0.093516710,-0.395466390
1640837396.832890,-0.142073330,0.104389190,9.728754040,0.058510900,-0.010882320,-0.421895150
1640837396.834590,-0.339527900,0.253022250,9.972740170,0.062905260,0.135542470,-0.409707430
1640837396.838220,0.048923410,0.338702590,9.170459750,0.046065450,0.025105480,-0.419156280
1640837396.839650,-0.506817040,0.369504750,10.396599770,0.021007650,0.026856360,-0.423802410
1640837396.842970,0.067363960,0.665203450,8.731808660,0.012178720,0.102965540,-0.416234140
1640837396.845790,-0.189806370,0.514703510,9.873811720,0.013737380,0.027179720,-0.415398270
1640837396.847940,-0.404317770,0.500864800,9.821593280,0.039266050,0.123856980,-0.400273530
1640837396.849730,-0.043741540,0.447419460,9.045554160,0.043188040,-0.020320720,-0.398533140
1640837396.852930,-0.387866020,0.071317700,9.890099530,0.023041670,0.066006190,-0.378610190
1640837396.855290,0.082197590,0.073577340,8.910082820,0.020873550,0.128960610,-0.376789300
1640837396.857930,-0.088572350,-0.185396210,10.101664540,0.014960770,0.054283450,-0.398601650
1640837396.859610,0.176711370,-0.144888490,9.273299220,0.037148590,0.136889530,-0.404708120
1640837396.862940,0.278583110,0.017166110,9.276099210,0.077173120,0.041300060,-0.416407020
1640837396.864580,-0.226410880,0.060767550,9.984319690,0.031730530,0.120832030,-0.411120090
1640837396.867890,-0.010723360,0.183292360,8.974921230,0.039848690,0.044985120,-0.387784840
1640837396.869580,-0.506599250,0.099127590,9.922766690,0.070953380,0.037540500,-0.411982830
1640837396.872920,-0.225871430,0.431530510,8.841103550,0.069856650,0.175097610,-0.407451480
1640837396.875110,-0.464077800,0.577975330,9.996439930,0.049626830,0.069381300,-0.406360660
1640837396.877920,-0.505975600,0.594973920,9.947871210,0.003747640,0.132717190,-0.400060450
1640837396.879640,0.005561540,0.622033770,8.997015000,0.036823750,0.023052100,-0.390979650
1640837396.883150,-0.402503940,0.318620090,9.984316830,0.062951450,0.089506800,-0.398381080
1640837396.884630,0.038409880,0.350000980,9.015682220,0.063174960,0.167796020,-0.384837420
1640837396.888260,-0.320123260,0.202176000,10.289273260,0.058449810,0.039799520,-0.378653470
1640837396.889710,-0.240892540,0.132597680,9.691554070,-0.004132090,0.101000090,-0.368203250
1640837396.893230,0.241833480,0.129377540,8.792370800,0.010631980,0.063718870,-0.370916810
1640837396.895000,-0.155797780,0.133593080,9.843272210,0.035126500,0.154055640,-0.384695770
1640837396.897910,0.232773990,0.298972580,9.169668200,0.061771270,0.160193460,-0.382962820
1640837396.899590,-0.077486920,0.253053100,9.961904530,0.065486130,0.053009390,-0.384247240
1640837396.902860,-0.235406310,0.290287200,9.474272730,0.033983590,0.096911190,-0.365996390
1640837396.904720,-0.354846600,0.245080980,9.234601970,0.033880770,0.064131620,-0.360095530
1640837396.908120,-0.622412500,0.130846010,9.476729390,0.016678870,0.113171340,-0.376166430
1640837396.909630,-0.407568450,0.143495740,9.272168160,0.054359440,0.117975470,-0.380524990
1640837396.912840,-0.333480920,0.112929940,9.575976370,0.093148650,0.139524060,-0.371040400
1640837396.914660,-0.288129480,0.173344810,9.659716610,0.071381040,0.100888300,-0.363864000
1640837396.917900,-0.197171020,0.194136770,9.713859560,0.038458410,0.056268280,-0.351353020
1640837396.919640,0.030648750,0.067041050,9.179542540,0.023083390,0.100524750,-0.355494050
1640837396.923650,-0.227217240,0.043179240,9.780516620,0.094535950,0.093588230,-0.385341080
1640837396.924790,-0.150618400,0.310604960,9.549312590,0.098159920,0.115634520,-0.388440490
1640837396.928150,-0.157215950,0.419467930,9.461731910,0.061383840,0.060218580,-0.389830770
1640837396.929840,-0.359951700,0.562146720,9.725314140,0.023795670,0.095579030,-0.369059980
1640837396.932960,-0.090276050,0.640722810,9.134200100,0.008150940,0.090730200,-0.369179250
1640837396.934670,-0.354724530,0.486682920,9.819926260,0.051513310,0.088411570,-0.366535810
1640837396.938320,-0.163800550,0.532814980,9.629505160,0.078596180,0.139278170,-0.352449740
1640837396.940590,-0.247395860,0.317468940,9.835786820,0.050844260,0.066281880,-0.351213010
1640837396.942860,-0.227381690,0.126440790,9.579828260,0.015118720,0.068238380,-0.342126220
1640837396.944570,0.100826700,0.041344610,8.916870120,0.015366080,0.107230250,-0.350602030
1640837396.947850,-0.102129910,-0.190348150,9.543543820,0.042447460,0.150421290,-0.356850120
1640837396.949580,0.093748540,-0.012553920,9.604660990,0.080046080,0.112362220,-0.359477100
1640837396.953010,-0.039300860,-0.070580130,9.607829090,0.086197270,0.079730180,-0.356555040
1640837396.954980,-0.017519170,0.123325880,9.265022280,0.069481130,0.114083310,-0.348237190
1640837396.957900,-0.272625000,0.266369700,9.643182750,0.033079090,0.101436670,-0.354859260
1640837396.959760,-0.233122380,0.215366600,9.306592940,0.038675960,0.128480780,-0.365042660
1640837396.964600,-0.106443110,0.364787010,9.182270050,0.105242450,0.109577200,-0.368288160
1640837396.965320,-0.371299270,0.346138390,9.607470510,0.113022330,0.157906100,-0.361952130
1640837396.967950,-0.041660130,0.362980310,9.342512130,0.062949970,0.120739660,-0.337532220
1640837396.970230,-0.427120570,0.077650290,10.075841900,0.056684020,0.085484990,-0.330179960
1640837396.975210,-0.213812710,-0.195648100,9.320728300,0.083805630,0.125981870,-0.335986940
1640837396.975650,-0.147401330,-0.192073870,9.460001950,0.148786620,0.114679360,-0.359077750
1640837396.977900,-0.378922220,-0.036306550,9.796238900,0.128331800,0.163124500,-0.357541410
1640837396.979600,0.079401810,0.272658170,9.259467120,0.062949970,0.115957880,-0.352850590
1640837396.982890,-0.195765470,0.348634540,9.584472660,0.051355370,0.104612130,-0.359231320
1640837396.984690,0.039178830,0.536144500,9.157091140,0.068943190,0.135226550,-0.367459680
1640837396.988240,-0.125129920,0.612162230,9.605767250,0.137221810,0.145851090,-0.350204110
1640837396.989620,-0.431051340,0.477174610,9.908058170,0.127597170,0.106385370,-0.342263280
1640837396.992880,-0.158161570,0.324274330,9.384703640,0.093932460,0.091396270,-0.327134160
1640837396.994680,-0.207890940,0.012781630,9.084016800,0.078380110,0.157389040,-0.326654340
1640837396.997880,-0.131316800,-0.167230740,9.549310680,0.084288420,0.171785070,-0.336621700
1640837396.999650,-0.135044080,-0.161604810,9.623300550,0.121991350,0.167016700,-0.343582060
1640837397.003220,-0.133164140,-0.221518050,9.399888040,0.134639440,0.070483990,-0.349065660
1640837397.006150,-0.154365700,-0.148971170,9.430869100,0.146214680,0.107815850,-0.351506410
1640837397.008140,-0.176393240,-0.036278990,9.043319700,0.121656060,0.171758250,-0.356033440
1640837397.011300,-0.483640370,-0.006114460,10.173485760,0.123225160,0.121743980,-0.354340670
1640837397.012960,-0.378489110,0.328102560,9.513936040,0.163018720,0.151921810,-0.348496470
1640837397.014590,-0.193382220,0.581676900,9.146921160,0.141109530,0.074568390,-0.349590210
1640837397.018120,-0.348332640,0.770121570,9.611309050,0.118863600,0.175760700,-0.325511400
1640837397.019670,-0.045408290,0.812271890,9.070250510,0.074820240,0.168903170,-0.334005120
1640837397.022900,-0.354486550,0.567083360,10.293141370,0.110699220,0.094150000,-0.318166550
1640837397.024660,-0.162582930,0.510256170,9.279151920,0.145672260,0.144319270,-0.329060940
1640837397.027930,-0.142747610,0.311006640,9.450185780,0.114844760,0.083868220,-0.335973590
1640837397.029670,-0.309375080,0.302808790,9.665715220,0.075210630,0.189961540,-0.303106040
1640837397.033130,0.029876810,0.074027090,9.137706760,0.032940520,0.138057800,-0.336049590
1640837397.034600,-0.252103750,-0.123646620,10.002015110,0.095115620,0.134480040,-0.328251780
1640837397.037920,-0.180382070,0.043735020,9.149613380,0.171244160,0.144962970,-0.328916340
1640837397.039610,-0.517317890,0.009307170,9.824876790,0.133919760,0.044751170,-0.338557420
1640837397.043530,-0.461914240,0.239448920,9.021481510,0.059622520,0.143589080,-0.309522480
1640837397.044630,-0.204293940,0.094957660,9.096784590,0.056031350,0.125284480,-0.323657630
1640837397.047940,-0.300191850,0.154558900,9.938750270,0.131540050,0.240215690,-0.334319500
1640837397.049920,-0.023733000,0.519473020,9.448849680,0.165553390,0.126625610,-0.326615600
1640837397.052950,-0.324097930,0.196327510,10.258559230,0.116395950,0.048939890,-0.306200980
1640837397.055080,-0.041968030,0.063427790,8.635620120,0.121343120,0.131765010,-0.299638540
1640837397.057840,-0.406286060,-0.130905930,9.366347310,0.147503660,0.063996030,-0.322374790
1640837397.059650,-0.499874920,-0.107099080,9.609533310,0.142388060,0.216786560,-0.321939590
1640837397.062870,-0.146967460,0.195632670,9.317312240,0.140357020,0.115740320,-0.340732930
