# timestamp,accel_x,accel_y,accel_z,gyro_x,gyro_y,gyro_z
1640790706.289930,-0.438705920,0.538240430,10.641385080,0.069405150,-0.036060810,-0.038096310
1640790706.290990,-0.186306690,0.532564880,9.402727130,0.132182240,-0.069643560,-0.034740570
1640790706.294830,-0.336941480,0.597916130,9.738410000,0.156560580,-0.066605230,-0.033848000
1640790706.295580,-0.542954500,0.596187830,10.072716710,0.048375130,0.028555100,-0.016051530
1640790706.300330,-0.175952600,0.622880580,9.775587080,-0.014592710,-0.048303610,0.011473890
1640790706.302520,-0.100194500,0.312011300,10.088274000,0.039128960,-0.036044420,-0.018092990
1640790706.304940,0.246348410,0.322906520,9.545532230,0.102967030,0.023667510,-0.043258070
1640790706.306150,0.167215970,0.677085580,9.952816010,0.106117130,0.009398160,-0.016148390
1640790706.310130,-0.212289350,0.419067530,10.250902180,0.010833140,-0.056080520,-0.019134580
1640790706.311420,-0.032872680,0.217476490,9.501774790,-0.020420550,-0.111803410,-0.007611510
1640790706.314940,-0.241554070,0.294130620,9.240502360,0.054734950,0.002415480,-0.021815300
1640790706.315870,-0.338146150,0.052843410,9.812237740,0.074693570,0.049999360,-0.033578280
1640790706.320140,-0.423513620,0.305278720,10.371371270,0.071313980,0.020089750,-0.011014940
1640790706.322140,-0.375044490,0.203113590,9.857508660,0.043098630,-0.065015260,-0.021491950
1640790706.324940,-0.174288930,0.029891140,9.659467700,0.025063750,-0.068397830,0.004862250
1640790706.325580,-0.241822930,0.214024290,9.397916790,0.059570380,0.048100960,0.004972520
1640790706.329970,-0.215129840,0.016336720,9.839571950,0.080943120,-0.018744170,-0.024431950
1640790706.331130,-0.191304130,0.210970340,10.226482390,0.084625200,-0.030708320,-0.025275360
1640790706.335360,-0.078660380,0.457507100,9.301688190,0.064831980,-0.019146510,-0.029855970
1640790706.336350,-0.159563750,0.250378520,10.113462450,0.043451780,-0.042766330,-0.026392940
1640790706.341160,-0.428602580,0.470391810,10.212795260,0.064831960,0.014500320,-0.022654240
1640790706.343570,-0.392650660,0.501068170,9.614232060,0.078298150,-0.091697280,-0.026842950
1640790706.347960,-0.565171960,0.372199650,10.084808350,0.068303940,-0.073914240,-0.004956130
1640790706.348560,-0.325954850,0.602273640,9.216569900,0.055113430,0.037997960,-0.016859180
1640790706.351190,-0.325855340,0.642136810,10.211537360,0.013637540,-0.038969520,-0.019897520
1640790706.351950,-0.314972790,0.593820390,10.620149610,0.005894900,-0.030694900,-0.005571540
1640790706.354920,0.118676320,0.484909710,9.330261230,0.043515860,-0.066162650,-0.021354850
1640790706.355740,-0.048699190,0.408361260,10.110649110,0.068628790,-0.055599220,-0.018419330
1640790706.361030,-0.147186040,0.476106640,9.932668690,0.028900810,0.032117970,0.000424680
1640790706.361810,-0.104836550,0.395525250,9.746753690,-0.023053590,-0.093676150,0.008368490
1640790706.365370,-0.233614150,0.266985240,9.986893650,-0.006093080,-0.081123420,0.002141300
1640790706.366870,0.064042750,0.391655000,9.048416140,0.015701350,0.026381020,-0.007842480
1640790706.371130,0.055397470,0.571389140,9.848404880,0.013287370,0.014723840,-0.012634690
1640790706.371780,-0.187181760,0.442605290,10.553609850,-0.003036860,0.008176270,-0.009125470
1640790706.375300,0.040131810,0.368876870,9.737673760,-0.005596880,-0.072775780,-0.007979570
1640790706.375950,-0.239966850,0.289807770,9.643754010,0.021293760,-0.070109960,0.005383790
1640790706.380040,-0.303966130,0.060241320,9.435437200,0.014561410,0.015991930,0.009331110
1640790706.380820,-0.194671590,0.104027120,9.541148190,0.009498000,0.031583010,-0.001861160
1640790706.385350,-0.305916220,0.135558590,9.995140080,0.012989340,-0.006887320,-0.019454960
1640790706.386290,0.044555940,0.246267810,9.696846960,-0.000536440,-0.000393390,-0.003412370
1640790706.390160,-0.042334390,0.426238300,9.739566800,0.008307400,0.021876400,-0.000925360
1640790706.391050,-0.217766550,0.204660560,10.204251290,0.009134410,-0.022555890,-0.008185210
1640790706.394850,-0.099084320,0.292341590,9.750570300,0.035278500,-0.013920670,0.012081860
1640790706.395560,-0.203201680,0.339908540,9.329773900,0.042274600,-0.013667350,-0.014567380
1640790706.403030,-0.250307860,0.327381340,10.028943060,-0.001999740,0.017645960,-0.010614100
1640790706.403890,-0.256786730,0.640313630,9.975454330,-0.020109120,0.036211310,-0.000591580
1640790706.404860,-0.235641460,0.432783040,10.036171910,-0.020672380,-0.056459010,-0.020587440
1640790706.405600,-0.096600760,0.537405730,9.899157520,0.016573080,-0.016531350,-0.002473590
1640790706.409990,0.016329390,0.777502660,9.388728140,0.018356740,0.045837460,-0.002692640
1640790706.411010,-0.153136270,0.758404080,10.367468830,-0.065965960,0.021544100,0.014708940
1640790706.416410,-0.096779340,0.773073260,10.091069220,-0.087751450,-0.001542270,0.038784740
1640790706.417220,0.014191960,0.277877930,9.363622670,-0.029730800,-0.054709610,0.009851160
1640790706.420700,-0.088297720,0.271969620,9.751873020,0.014638900,0.015906990,0.001423060
1640790706.421970,-0.173762840,0.461132230,9.653709410,-0.021977720,0.089304160,0.015655160
1640790706.424840,-0.208408850,0.184237030,10.184652330,-0.110808010,-0.004854800,0.013570490
1640790706.425630,-0.186310340,0.154063630,10.096586230,-0.090412800,-0.015370550,0.018763540
1640790706.430110,0.117331880,0.274304780,9.121828080,-0.013756750,0.043262550,0.013393160
1640790706.431030,0.105686170,0.452919210,9.686049460,-0.037232040,0.074568390,0.011254850
1640790706.434840,0.056454330,0.596929130,9.975517270,-0.070412460,0.092656910,0.012533370
1640790706.435590,0.294291350,0.425239260,9.473167420,-0.089906160,0.022345780,0.003814700
1640790706.440020,0.007027300,0.317892550,9.808844570,-0.051882860,0.028733910,0.008979440
1640790706.440960,-0.185606330,0.226058950,9.754932400,-0.023277110,0.066375740,0.021125380
1640790706.444910,-0.220133570,0.069065500,9.669499400,-0.047115990,0.049410760,0.003874300
1640790706.445700,-0.432405620,-0.033694950,9.940734860,-0.044411420,0.054113570,0.000533460
1640790706.449870,-0.143728120,0.050288180,9.395691870,-0.061345100,0.108473010,-0.004860760
1640790706.450560,-0.127761680,0.257351010,9.738021850,-0.047837200,0.093594200,-0.023837390
1640790706.455610,-0.249618040,0.324944410,10.264721870,-0.042083860,0.060644750,-0.020974880
1640790706.456600,0.024339620,0.557928140,9.435573580,-0.059197850,0.054429470,-0.008887050
1640790706.460000,-0.240630150,0.423425500,9.826874730,-0.045339770,0.050479180,-0.011105840
1640790706.462700,-0.269704790,0.403571070,10.086438180,-0.040112430,0.107318170,-0.011466440
1640790706.464860,-0.265282120,0.668542090,9.845817570,-0.054599350,0.083051640,-0.007058680
1640790706.465550,-0.465537130,0.493648170,10.267522810,-0.086185340,0.007136170,-0.002127890
1640790706.469940,-0.090660590,0.542953310,9.437417030,-0.091621260,0.083613400,0.002829730
1640790706.471280,-0.005313690,0.554968180,9.452388760,-0.055432330,0.124266770,-0.007812680
1640790706.476320,-0.228934820,0.532828150,10.590345380,-0.083690880,0.119255490,-0.005266070
1640790706.476710,-0.104064240,0.678383470,10.022467610,-0.108611580,0.062081220,0.010117890
1640790706.480100,-0.255260830,0.349456760,9.878384590,-0.110290940,-0.015351180,-0.008562210
1640790706.481320,-0.316899480,0.454526010,9.698973660,-0.121110680,0.085106480,-0.003670160
1640790706.484820,-0.227983250,0.604966880,9.334869380,-0.117774310,0.131852940,0.007842480
1640790706.485560,-0.369241860,0.236135110,10.336097720,-0.129438920,0.086313470,0.006867940
1640790706.490020,-0.099755940,0.414475380,9.844473840,-0.111107530,0.086255380,0.005045530
1640790706.490960,-0.022575670,0.404032320,9.615280150,-0.092412540,0.052014000,0.007055700
1640790706.494940,-0.123714240,0.371575650,9.897482870,-0.162957580,0.085623550,0.010469550
1640790706.495580,0.013797350,0.488808900,9.496877670,-0.170573580,0.105980040,0.004640220
1640790706.499850,-0.085637770,0.217403100,9.849380490,-0.141850140,0.087519010,-0.022661690
1640790706.500570,-0.103183480,0.271867570,9.714307790,-0.102029730,0.095738460,-0.010792910
1640790706.505330,-0.191122460,0.392805310,9.627093320,-0.093688070,0.101336840,-0.011157990
1640790706.506190,-0.428326610,0.115699840,10.044405940,-0.165109350,0.079099830,-0.001052020
1640790706.509900,-0.469644700,-0.008171260,9.897730830,-0.145863000,0.039818890,0.003197790
1640790706.510840,-0.347575490,-0.042427730,9.461782460,-0.075624870,0.088633580,-0.014236570
1640790706.514970,-0.230932910,0.120892500,9.714317320,-0.088360920,0.128543390,-0.026746100
1640790706.516090,-0.221307780,0.454758610,10.318036080,-0.124527510,0.114761280,-0.024233750
1640790706.519890,-0.128698420,0.533298730,9.991448400,-0.168645380,0.052127250,-0.029234590
1640790706.521470,-0.160040750,0.472016070,9.745844840,-0.127698450,-0.001984830,-0.012584030
1640790706.527150,-0.260864350,0.550389710,9.618069650,-0.080952030,0.087195630,-0.021685660
1640790706.527520,-0.325790320,0.616349820,9.753845210,-0.107580430,0.111201410,-0.033280250
1640790706.529840,-0.574398160,0.574221670,10.601715090,-0.147503630,0.032684210,-0.002880390
1640790706.530570,-0.271872040,0.528484700,9.756253240,-0.175367270,0.046162300,-0.011990960
1640790706.534840,-0.068522070,0.516624630,9.445618630,-0.159011780,0.057558720,-0.027886030
1640790706.535560,-0.237935170,0.591053900,10.236218450,-0.146590170,0.108608610,-0.022552910
1640790706.539960,-0.098437200,0.639437680,9.775428770,-0.166434020,0.091943140,-0.018770990
1640790706.540670,-0.186336100,0.285254930,10.106765750,-0.161960740,-0.020156800,-0.020402670
1640790706.547520,-0.252499730,0.276183900,9.834939960,-0.159621240,0.050590940,-0.014941390
1640790706.548060,-0.070883970,0.368530150,9.226153370,-0.177867730,0.063356760,-0.020496550
1640790706.549870,-0.290783580,0.045785350,10.297570230,-0.193360450,0.075286630,-0.011062620
1640790706.550600,-0.138240610,0.118169330,9.814457890,-0.162477790,0.105762480,-0.011093920
1640790706.555250,-0.039742920,0.128192350,9.643851280,-0.107151280,0.008951130,-0.028523800
1640790706.556100,-0.307754160,0.261645380,9.977425580,-0.150828060,0.056123740,-0.015534460
1640790706.561980,-0.157577890,0.385679420,9.427503590,-0.203941760,0.068385910,-0.004783270
1640790706.562650,-0.400376890,-0.059848010,10.222348210,-0.164562480,0.021259490,-0.043244660
1640790706.564850,-0.399440050,0.080883090,9.928396220,-0.094442070,0.062273450,-0.046554210
1640790706.565540,-0.142580600,0.418147120,9.451169970,-0.080989300,0.048103930,-0.041933360
1640790706.569830,-0.467767300,0.374235240,10.502997400,-0.171345460,0.047300750,-0.025118890
1640790706.576340,-0.265446690,0.395365420,9.905156140,-0.200882570,0.018873810,-0.000935790
1640790706.578010,-0.264491500,0.092226740,9.717204090,-0.110961500,-0.009477140,-0.024095180
1640790706.579130,-0.370468560,0.094949230,9.960402490,-0.061400230,0.040479000,-0.029975170
1640790706.579860,-0.203700110,0.566083730,9.817424770,-0.085820270,0.043994190,-0.029665240
1640790706.580580,-0.383663800,0.482809690,10.496029850,-0.193691220,0.004413720,-0.032794470
1640790706.584820,-0.243426490,0.343829240,10.036064150,-0.210052740,-0.017201900,-0.017890340
1640790706.585560,-0.169379310,0.283831920,9.704822540,-0.083516550,-0.000283120,-0.027485200
1640790706.590160,-0.230720550,0.316486950,9.914430620,-0.061339150,0.038002430,-0.033451620
1640790706.591240,-0.257426080,0.498252120,10.081176760,-0.115935520,0.020810960,0.009799000
1640790706.594850,-0.307309840,0.213773730,10.102857590,-0.177983940,-0.017917160,0.011470910
1640790706.596310,-0.144263800,-0.016600210,9.727569580,-0.157310080,-0.023166840,-0.003673140
1640790706.599920,-0.101119720,0.169293300,9.815835950,-0.079175830,0.041176380,-0.007690490
1640790706.600860,-0.101612930,0.236354810,9.933220860,-0.091239800,0.070621070,-0.026080010
1640790706.604970,-0.123529550,0.192873080,10.185748100,-0.124876220,-0.013902790,-0.014849010
1640790706.606320,-0.169015380,0.127638040,9.927624700,-0.102417180,-0.020475690,-0.006124380
1640790706.610650,-0.140964170,0.132254110,9.376390460,-0.098082420,0.005133450,-0.012008850
1640790706.613440,-0.397907380,0.068185900,10.104161260,-0.084723530,0.009374320,-0.001482670
1640790706.614870,-0.315037670,0.130585690,9.904479980,-0.082957760,0.041982540,-0.020714110
1640790706.615580,-0.112265700,0.184351830,9.728024480,-0.070050370,-0.004586580,-0.022812190
1640790706.619880,-0.180079830,0.191931050,10.155253410,-0.069904330,0.026024880,0.005811450
1640790706.620980,-0.096532100,0.278555600,9.849626540,-0.081394610,0.034806130,0.003351270
1640790706.624950,-0.315157800,0.024551560,10.257188800,-0.050972400,-0.061175230,0.010262430
1640790706.625680,-0.307986410,0.011286690,9.813438420,-0.034868720,-0.019769370,0.016349550
1640790706.629850,-0.153116060,0.195014160,9.324984550,-0.033177440,0.030231480,-0.004534420
1640790706.630560,-0.390264030,0.206071260,10.617945670,-0.063498300,0.035539260,-0.013394650
1640790706.634900,-0.242757450,0.570833680,10.389653210,-0.097610050,0.009280440,-0.006237630
1640790706.635670,-0.114219160,0.547080280,9.899314880,-0.064964600,-0.072306390,-0.008763370
1640790706.640360,-0.231524270,0.433760230,10.103135110,-0.036406520,-0.012589990,0.001761320
1640790706.640890,-0.121462780,0.743728940,9.634789470,-0.031200050,0.044479970,0.021392110
1640790706.645770,-0.384246770,0.565336760,10.448797230,-0.086228560,-0.029715900,0.028890370
1640790706.646490,-0.332394750,0.305050700,10.404622080,-0.128781810,-0.039398670,0.050300360
1640790706.649870,-0.069907590,0.273201320,9.577422140,-0.060525540,-0.024072820,0.023944670
1640790706.650570,-0.181883470,0.123237010,10.209454540,-0.050787630,0.006335970,0.002886360
1640790706.655360,-0.030907480,0.374010770,10.081264500,-0.092172620,0.057874620,0.027333200
1640790706.656620,-0.088302400,0.253158570,10.198312760,-0.093689560,-0.030682990,0.019378960
1640790706.660680,-0.121482250,0.057256740,10.193700790,-0.092630100,-0.059202310,0.022032860
1640790706.661170,-0.048470290,0.531498070,9.438577650,-0.054369870,-0.013414030,0.040017070
1640790706.664830,-0.160500680,0.372434790,9.811080930,-0.091002890,0.026193260,0.039805480
1640790706.665540,-0.169584590,0.270712970,10.275454520,-0.114662950,0.039646030,0.046370920
1640790706.670000,-0.155148570,0.296514960,10.113592150,-0.055106000,-0.001932680,0.041653220
1640790706.670800,-0.196709110,0.060494260,10.007040020,-0.034746530,-0.034005940,0.037412350
1640790706.674880,-0.323692890,0.102248270,9.887707710,-0.050747400,-0.021259490,0.050580510
1640790706.675620,-0.287998200,-0.057339690,9.670825000,-0.071263310,0.007958710,0.033606590
1640790706.679930,-0.202238100,-0.208175320,9.854205130,-0.069023680,0.009338560,0.026701400
1640790706.680620,-0.135878370,-0.097824690,10.017492290,0.002260510,0.048720840,0.021930040
1640790706.685350,-0.071591710,0.103685650,10.075017930,0.000043210,0.016245250,0.012697280
1640790706.685920,-0.220956190,0.096910130,10.370018010,-0.024448340,-0.056402390,0.033988060
1640790706.690180,-0.319333730,0.082912920,9.849950790,-0.014255940,-0.037041310,0.047539180
1640790706.690940,-0.253319200,0.091863520,9.457651140,0.020547210,-0.020271540,0.043571000
1640790706.694840,-0.419648650,0.076215840,10.183776860,0.045625860,0.019110740,0.039851670
1640790706.695570,-0.264153120,0.383588700,10.188202860,0.006391110,0.037844480,0.019790230
1640790706.700120,-0.251059140,0.445167240,10.267895700,-0.022795800,-0.053407260,0.017429890
1640790706.701530,-0.230088790,0.387910690,10.185317990,-0.010786950,-0.062653430,0.017525250
1640790706.705340,0.009798210,0.590770240,9.513793950,0.009492040,0.011205670,0.018492340
1640790706.706700,-0.199076490,0.605652270,10.196926120,0.012484190,0.006352370,0.026305030
1640790706.710390,-0.278400300,0.458924410,10.573588370,-0.024583940,-0.024726990,0.049395870
1640790706.711460,-0.106024040,0.475149270,9.767898560,-0.018841030,-0.058870020,0.044785440
1640790706.714910,-0.320075720,0.303452250,10.143583300,-0.009512900,-0.049176800,0.046938660
1640790706.715600,-0.232060120,0.416089270,10.044495580,-0.041152540,0.025689610,0.057232390
1640790706.719870,-0.143663410,0.387999150,9.845930100,-0.036109990,-0.017753240,0.042738020
1640790706.721050,-0.102704810,0.113354480,10.291430470,-0.022615490,-0.033709400,0.031153860
1640790706.724920,0.044412050,0.399695400,9.797755240,-0.005522370,0.029413400,0.029703980
1640790706.725790,-0.153124620,0.420906660,10.099997520,-0.032015140,-0.056028380,0.031724580
1640790706.729840,-0.149053870,0.162662300,10.092284200,-0.077869010,-0.046969950,0.044986610
1640790706.730600,0.059457720,0.175865550,9.322674750,-0.013218820,0.009594860,0.038827970
1640790706.734840,0.019788030,0.062116070,9.957329750,0.018572810,0.021502380,0.026337810
1640790706.735580,0.008608540,0.243871450,10.319262500,-0.007379060,0.057423110,0.056810680
1640790706.739950,0.005721800,0.124025320,10.190560340,-0.024077300,-0.019375980,0.041058660
1640790706.740700,-0.161496850,-0.187642510,10.151315690,-0.013956430,-0.076073410,0.032787030
1640790706.744860,-0.214354130,-0.012582010,9.359534260,0.047089160,-0.011090940,0.035934150
1640790706.745740,-0.190709110,-0.029783900,9.320311550,0.040498380,0.048273810,-0.002844630
1640790706.749850,-0.371252510,0.099742560,10.391522410,0.000487270,0.050723550,0.005801020
1640790706.750580,-0.316552400,0.162812470,10.366383550,0.021463640,-0.014659760,0.023145980
1640790706.755180,-0.213126230,0.050951670,9.930358890,0.058674820,-0.067923960,0.021022560
1640790706.756220,-0.351720780,0.140906530,10.126477240,0.083942720,-0.013466180,0.031559160
1640790706.759940,-0.289293970,0.158274400,9.891869540,0.070412460,0.026284160,0.023916360
1640790706.760550,-0.247876580,0.151180510,10.067508700,0.049211080,-0.036077200,0.029559440
1640790706.764940,-0.138098210,0.210802930,9.982088090,0.071230530,-0.028300290,0.028119990
1640790706.765560,0.073115290,0.366122450,9.719360350,0.068618350,0.018189840,0.018675630
1640790706.769840,-0.226978470,0.462002580,10.535655980,0.065042080,-0.023266680,0.007870790
1640790706.770560,-0.337300870,0.375804160,10.597263340,0.065188120,-0.063507270,0.019226970
1640790706.776600,-0.187883150,0.425704570,9.715014460,0.073033570,-0.062255570,0.009867550
1640790706.777220,-0.421485220,0.558502500,10.093058590,0.066524750,-0.038062040,-0.002600250
1640790706.780160,-0.366570060,0.717302800,10.257920270,0.018970670,0.017830730,0.024838750
1640790706.782210,-0.198891100,0.652293150,9.912474630,0.005726520,-0.045797220,0.033648320
1640790706.784830,-0.205161140,0.306465090,10.309134480,0.058124960,-0.082501750,0.022892660
1640790706.785560,-0.006119390,0.280226440,9.791983600,0.082573290,0.008177760,0.024956470
1640790706.789990,-0.115944140,0.337573110,10.043758390,0.070412460,-0.042170290,0.015240910
1640790706.790840,-0.289196730,0.170913190,10.737459180,-0.015023350,-0.071051720,0.025761130
1640790706.794880,0.093117950,0.208143400,9.439838410,-0.019079450,-0.044405460,0.020393730
1640790706.796680,0.075277380,0.078707840,9.743690490,0.061616310,-0.031962990,-0.005434450
1640790706.799930,-0.000614650,0.192768340,10.232621190,0.086712840,0.044572350,0.002217290
1640790706.800590,0.007800000,0.375472280,9.958245280,0.073944030,-0.040401520,0.018291180
1640790706.804890,-0.250935080,0.078395900,10.437081340,0.031274560,-0.120963170,0.016461310
1640790706.806530,-0.118785120,0.117090260,9.556224820,0.020584470,-0.032235690,0.019557780
1640790706.811490,-0.180237440,0.024403890,9.511562350,0.088083740,-0.001803040,-0.001467760
1640790706.813210,-0.426206830,-0.115868960,10.614406590,0.103493060,0.006827710,-0.035449860
1640790706.814860,-0.219755750,0.187221990,9.986549380,0.102986400,-0.045219060,-0.029605630
1640790706.815600,-0.131284120,0.125587240,9.667943000,0.084337590,-0.095206520,-0.017042460
1640790706.819820,-0.158116330,0.071648750,9.882731440,0.053869190,0.002710520,-0.009472670
1640790706.820600,-0.171583550,0.147132980,10.106210710,0.105328860,-0.002504890,-0.009141860
1640790706.824940,-0.323914920,0.038882110,10.434445380,0.150471940,-0.065681340,-0.023543840
1640790706.825650,-0.166469740,0.187237170,9.916563030,0.148342560,-0.071892140,-0.025875870
1640790706.829870,-0.133393050,0.388914640,9.686764720,0.112979140,-0.019465390,-0.035242740
1640790706.830590,-0.261652200,0.490767000,10.233116150,0.053966040,-0.019250810,-0.041744110
1640790706.834840,-0.285867070,0.471456260,10.421509740,0.081199420,-0.060667110,-0.039096180
1640790706.835580,-0.193129780,0.507099570,9.904963490,0.142316520,-0.066129870,-0.049711770
1640790706.840030,-0.179741320,0.537957670,9.955226900,0.143982480,-0.047405070,-0.051295770
1640790706.841440,-0.284190450,0.633401040,10.406587600,0.091581050,-0.000390410,-0.022430720
1640790706.847090,-0.236163940,0.544839560,10.149490360,0.023484230,-0.061778720,-0.020711130
1640790706.848000,-0.079781360,0.231543510,10.033560750,0.062616170,-0.100186470,-0.028057400
1640790706.849860,0.052098660,0.291076900,9.728978160,0.128117200,0.018841030,-0.036321580
1640790706.850570,0.064772080,0.447151010,9.860515590,0.119513300,0.009864570,-0.044135750
1640790706.854990,-0.266579750,0.190642330,10.925750730,0.074704000,-0.068537890,-0.034420200
1640790706.856580,-0.109014120,0.231823330,9.730916020,0.050283980,-0.077942020,-0.037655240
1640790706.860310,-0.014890710,0.240598750,9.452925680,0.076438490,-0.075979520,-0.044703490
1640790706.860980,-0.116715410,0.152499530,10.263649940,0.090347240,0.071381040,-0.036321580
1640790706.864830,0.078763490,0.378209230,9.879814150,0.099548700,0.046031170,-0.043824310
1640790706.865580,-0.095497970,0.303365650,10.544459340,0.110389290,-0.098362570,-0.046810510
1640790706.869890,0.022818930,0.340217410,9.623218540,0.069077310,-0.011478360,-0.020712610
1640790706.870630,0.002272930,0.284369800,9.285524370,0.079166900,-0.017648940,-0.011795760
1640790706.876850,-0.405077040,-0.130484390,10.671493530,0.106871140,0.002440810,-0.041182340
1640790706.878740,-0.176769990,0.020363980,9.652441980,0.137400610,0.009556110,-0.050766770
1640790706.879860,-0.092746270,0.077879410,9.729042050,0.146383080,-0.054320700,-0.059735780
1640790706.880700,-0.255271850,0.143719210,10.410698890,0.075998910,0.055255000,-0.054071840
1640790706.884820,-0.089041760,0.435383800,9.942049980,0.072640180,-0.012514000,-0.043414540
1640790706.885560,-0.326949030,0.257358520,10.435077670,0.132033230,-0.092978780,-0.045654180
1640790706.890240,-0.134876000,0.339713540,9.588944440,0.148792560,-0.003345310,-0.034533440
1640790706.891060,-0.050217190,0.603621180,9.635361670,0.158272680,0.021618610,-0.038351120
1640790706.894860,-0.381818500,0.573399130,10.796083450,0.079827010,0.028686230,-0.044223670
1640790706.895620,-0.061984860,0.570029800,10.049757000,0.049063560,-0.045740610,-0.025704500
1640790706.899880,-0.031414650,0.466557500,9.895843510,0.110337140,-0.058802970,-0.043943520
1640790706.900640,-0.157453760,0.452878000,10.021852490,0.127805780,0.026890640,-0.043982270
1640790706.904980,-0.156779800,0.680275320,10.061565400,0.105880200,0.015288590,-0.023773310
1640790706.905660,-0.468128350,0.568504870,10.549551010,0.030539930,-0.057169790,-0.024668870
1640790706.910090,-0.195949730,0.311505710,9.790086750,0.022014980,-0.058282920,-0.017158690
1640790706.913460,-0.079181830,0.404252770,9.687979700,0.097523630,0.010783970,-0.027717650
1640790706.914830,-0.193748280,0.440653830,10.207555770,0.086343290,0.051914160,-0.039628150
1640790706.915620,-0.004820360,0.411858680,10.282090190,0.043238690,-0.012977420,-0.021386140
1640790706.919870,0.059089970,0.329888790,10.027673720,0.051206350,-0.020463760,-0.031982370
1640790706.921210,0.018006740,0.242233840,9.875519750,0.056691460,-0.013208390,-0.036337960
1640790706.925410,-0.064809580,0.282745120,10.054540630,0.069695720,-0.009591880,-0.005874040
1640790706.925950,-0.036244490,0.188203740,9.705366130,0.053235890,0.032897300,-0.024144350
1640790706.930080,0.018735700,0.069135150,10.003383640,0.066199900,0.011906030,-0.024999680
1640790706.930680,-0.055830790,0.156085330,10.132267950,0.090637810,0.062987220,-0.018036370
1640790706.934850,-0.177318680,0.098444010,9.988916400,0.076931720,-0.000727180,-0.028951470
1640790706.935600,-0.398286910,-0.054653890,10.423332210,0.088407110,-0.047543650,-0.029306120
1640790706.939960,-0.327829330,0.078521310,9.423006060,0.093778970,0.029407440,-0.043345980
1640790706.942320,-0.295437750,0.094697570,9.591752050,0.109538420,0.005297360,-0.048957760
1640790706.946960,-0.297575620,0.067012090,10.338076590,0.111936030,0.083178290,-0.045056640
1640790706.947670,-0.043375450,0.290879960,9.898189540,0.118629640,0.044275820,-0.052537020
1640790706.949850,-0.118128500,0.157959890,10.479968070,0.140607370,-0.064988430,-0.035753850
1640790706.950680,-0.033842490,0.129650880,9.735863690,0.141315160,0.026658180,-0.018054250
1640790706.955140,0.025891960,0.158086630,9.459474560,0.144723030,0.011858340,-0.030501180
1640790706.955940,-0.353511210,0.065970260,10.727599140,0.150738670,0.014351310,-0.028823320
1640790706.959970,-0.156171400,0.293138980,9.685171130,0.136038660,0.018583240,-0.046800080
1640790706.961080,-0.251864340,0.341889320,9.917343140,0.154353680,-0.049036730,-0.061753390
1640790706.964850,-0.454983380,0.446044270,10.431836130,0.130243630,0.046567630,-0.057989370
1640790706.965600,-0.246828140,0.745373670,9.738399510,0.117367510,0.017495450,-0.052665170
1640790706.969900,-0.475889710,0.597820160,10.664014820,0.123365250,-0.064264240,-0.046016280
1640790706.972130,-0.232062530,0.587297620,9.873229030,0.120076550,0.032931570,-0.041785840
1640790706.975000,0.020495740,0.799965380,9.628642080,0.139315430,-0.002631550,-0.035876040
1640790706.978190,-0.317823050,0.577848020,10.915820120,0.089785440,0.004531440,-0.016999240
1640790706.979970,0.172100750,0.562822820,9.645565030,0.058174140,0.000725690,-0.022675100
1640790706.980960,0.101319560,0.363512220,9.995492940,0.101415820,-0.050568580,-0.048699980
1640790706.984850,-0.092039390,0.358827470,10.396673200,0.095689300,0.062778590,-0.052596640
1640790706.985630,0.001676780,0.619661330,9.912911420,0.059859460,0.006534160,-0.048214200
1640790706.992060,-0.383762870,0.440755840,10.705125810,0.030562280,-0.072869660,-0.053654610
1640790706.992940,-0.165483240,0.532138350,9.624566080,0.017887350,0.009955470,-0.046134000
1640790706.994900,0.027142330,0.679365340,9.428839680,0.048331920,0.038264690,-0.038442010
1640790706.995630,-0.302881270,0.401150050,10.784111980,0.048995020,0.080031160,-0.030037760
1640790706.999820,0.053524910,0.333507420,10.133727070,0.059032440,0.018791860,-0.015316900
1640790707.000620,-0.063479150,0.105873410,10.115468980,0.066319120,-0.071938340,-0.028321150
1640790707.004960,-0.072349380,0.107826500,9.652287480,0.024966900,0.024954980,-0.026226050
1640790707.006040,0.205274250,0.179917400,9.384907720,0.005011260,0.077128400,-0.027793640
1640790707.010170,-0.000223730,0.028395890,10.435853960,0.027875600,0.089053820,-0.062616170
1640790707.012200,0.112318600,0.218315390,10.180595400,0.085496910,0.032538180,-0.067202750
1640790707.014840,0.013804790,0.369704460,9.813086510,0.103224810,-0.012144450,-0.044815240
1640790707.015650,-0.315449540,0.200450300,9.926982880,0.021986670,0.013718010,-0.042097270
1640790707.019910,-0.302345900,0.200907220,9.839021680,0.026677550,0.038027760,-0.027300420
1640790707.023390,-0.350785260,-0.052286900,9.841283800,0.090037290,0.056742140,-0.054070360
1640790707.024850,-0.144960600,0.017296540,9.875528340,0.125275570,0.070716440,-0.066611180
1640790707.026440,-0.077024920,0.255620180,10.273524280,0.118686260,0.090675050,-0.046125060
1640790707.029880,-0.136989770,0.027497160,10.324798580,0.055842110,0.030797720,-0.062279410
1640790707.030680,-0.143861410,0.164653360,10.037805560,0.070787970,-0.051592290,-0.045846400
1640790707.034830,-0.086865390,0.154299110,9.342707630,0.109465440,0.041164460,-0.051206360
1640790707.035860,-0.122132230,0.132312250,9.825520520,0.114411110,0.091931210,-0.082537520
1640790707.040030,-0.300131260,0.569000010,10.823601720,0.115774570,0.074252490,-0.065489110
1640790707.040860,-0.219999580,0.560150090,10.283338550,0.070399050,-0.005568560,-0.054657460
1640790707.044900,-0.186268540,0.529908660,9.990176200,0.057230890,-0.053063040,-0.049637260
1640790707.045630,-0.275532040,0.660597150,9.894570350,0.072790670,0.075012440,-0.037193290
1640790707.049930,-0.259757850,0.431364300,9.931526180,0.086869310,0.068406760,-0.045354660
1640790707.050650,-0.305633840,0.459852640,10.641996380,0.093531610,-0.013481080,-0.046911840
1640790707.054870,-0.015567650,0.676148590,9.913143160,0.043348970,0.044941910,-0.052772470
1640790707.059760,0.102671790,0.537039460,10.033711430,-0.023232400,0.027072430,-0.047014650
1640790707.061520,-0.164161950,0.550270800,10.788200380,-0.000314410,0.035624210,-0.050294400
1640790707.061990,-0.005686950,0.469001800,9.786948200,0.048863900,0.013133890,-0.056999930
1640790707.064900,-0.112328840,0.412953230,10.094181060,0.063170490,-0.029081110,-0.050765280
1640790707.065630,-0.254598170,0.855865240,10.119774820,-0.018206240,0.085173540,-0.022174420
1640790707.069920,-0.216031450,0.562629400,10.042091370,-0.102606430,0.009763240,-0.025112930
1640790707.070640,-0.293888750,0.246736030,10.616307260,-0.037343800,-0.030596550,-0.034674990
1640790707.075080,0.006139730,0.437656520,9.444993970,0.044783950,0.065895920,-0.059320040
1640790707.075720,0.025687820,0.285941570,9.991407390,0.029225640,0.037270780,-0.050999220
1640790707.079940,-0.178039490,0.338952900,10.670503620,-0.051695100,0.066283350,-0.024005770
1640790707.080870,0.101737820,0.117457930,9.728355410,-0.093899670,-0.009633600,-0.030846900
1640790707.085230,-0.067339410,-0.319099580,10.204967500,-0.011292100,-0.035296380,-0.024248670
1640790707.085750,0.029634160,-0.031820580,9.440821650,0.056031340,0.106258690,-0.040185450
1640790707.090270,0.060398120,0.026131560,9.901249890,0.031502550,0.053292510,-0.051660840
1640790707.091380,-0.268888710,-0.057408310,10.800862310,-0.028046970,0.038138030,-0.030720240
1640790707.094860,-0.027326700,0.164869770,9.487636570,-0.032900270,0.010176000,-0.045660130
1640790707.095650,-0.298225460,-0.098033850,10.181416510,0.035879020,-0.030262770,-0.044481460
1640790707.099840,-0.436810790,0.004119850,10.010600090,0.079758470,0.081601740,-0.047548120
1640790707.101330,-0.292429090,0.239708810,9.693995480,0.074933470,0.008299950,-0.067006060
1640790707.104870,-0.433643670,0.008941760,10.444564820,0.026741630,0.003701450,-0.032827260
1640790707.105830,-0.016790640,0.115816580,9.430250170,0.020489100,0.068065530,-0.036723920
1640790707.110990,-0.169937660,-0.030464360,10.362458230,0.085921590,0.002177060,-0.049312420
1640790707.112240,-0.336762670,-0.158029870,10.626463890,0.121362510,0.008021300,-0.034955150
1640790707.114850,-0.023440980,0.144167420,9.282451630,0.120930380,-0.042246280,-0.053845350
1640790707.115640,-0.321432350,-0.055108620,10.311388970,0.073693700,-0.009047990,-0.062368810
1640790707.119850,-0.314422370,0.258091780,10.122453690,0.035302340,0.077766180,-0.047670310
1640790707.120650,-0.345061840,0.431020710,10.266804700,0.091333670,-0.074174990,-0.062069290
1640790707.124930,-0.514422180,0.324494450,10.659237860,0.104489920,-0.049832470,-0.055615600
1640790707.125660,-0.124555850,0.679894800,9.402892110,0.112392010,0.004461410,-0.054153800
1640790707.129820,-0.348619430,0.491961930,10.619957920,0.085468590,-0.019191210,-0.049123170
1640790707.130640,-0.328518180,0.494209680,10.594764710,0.036595770,0.014105440,-0.036340950
1640790707.134810,-0.051102460,0.587321760,9.713551520,0.049632790,-0.091621290,-0.044101480
1640790707.135660,-0.258987550,0.310614760,10.521444320,0.055085130,-0.060674560,-0.051237650
1640790707.140200,0.042362220,0.408743320,9.714038850,0.053481760,0.028163190,-0.047035510
1640790707.141180,-0.056147180,0.231238530,10.249720570,0.078314540,-0.055897240,-0.054249170
1640790707.145680,-0.233933990,0.079143760,10.791347500,0.052858890,-0.024180120,-0.062410530
1640790707.146320,0.042125870,0.459956440,9.633280750,0.036883360,-0.043800470,-0.048913050
1640790707.150330,-0.411332670,0.279930060,10.568075180,0.007934870,-0.090852360,-0.032958390
1640790707.151400,-0.224289430,0.277139190,9.887771610,0.019235910,-0.011110310,-0.048199290
1640790707.154850,0.018600310,0.399056020,9.446228030,0.087836380,-0.038622320,-0.062350930
1640790707.156240,-0.126981230,0.278138370,10.536122320,0.068935760,0.018070640,-0.052063170
1640790707.160590,0.165869530,0.408544480,10.066541670,0.026261800,0.029265880,-0.035879010
1640790707.161240,-0.110774030,0.056439940,10.542469980,0.019589070,-0.119291270,-0.054484610
1640790707.165010,-0.114003990,-0.096875880,9.989514350,0.052846960,-0.065916780,-0.051885850
1640790707.165600,0.055432310,0.080353450,9.110360150,0.090146060,-0.010024010,-0.069291900
1640790707.169860,-0.244458970,-0.123334020,10.337378500,0.061929230,0.018619000,-0.063721840
1640790707.170640,-0.011656250,0.118257130,10.072011950,0.051020100,0.029508780,-0.059482460
1640790707.174920,0.009224550,0.175816150,10.033038140,0.070302180,-0.070820750,-0.060002500
1640790707.175660,-0.225095360,0.016213600,10.242817880,0.071081500,-0.033412870,-0.044257940
1640790707.180020,-0.153238740,0.148802220,9.627588270,0.122325130,-0.016534330,-0.047995150
1640790707.181720,-0.449094650,-0.029635230,10.172497750,0.119693600,-0.054936120,-0.077688690
1640790707.184840,-0.279837070,0.273415800,9.713567730,0.077563520,-0.009180610,-0.054907800
1640790707.185630,-0.131736620,0.335804730,9.722910880,0.069428990,0.007455050,-0.080685320
1640790707.189940,-0.329096170,0.228423010,10.705646510,0.060193250,-0.016392770,-0.081498920
1640790707.190750,-0.174779730,0.540035250,10.083575250,0.121384840,-0.063273300,-0.061008330
1640790707.194820,-0.245041400,0.318283110,10.024703980,0.112953790,-0.091095270,-0.076411670
1640790707.195630,-0.230108920,0.295066000,9.886412620,0.077199940,-0.003273790,-0.044180450
1640790707.199850,-0.237065270,0.506747900,10.016791340,0.078925480,-0.005643070,-0.064393860
1640790707.200660,-0.446630090,0.405185760,10.615990640,0.026358670,-0.087603930,-0.071640310
1640790707.205380,-0.158543650,0.647006210,9.677865980,0.047759710,-0.082005570,-0.048276770
1640790707.206570,-0.258452060,0.599902030,9.946001050,0.069510940,-0.041557850,-0.093221660
1640790707.210460,-0.383175430,0.712496460,10.436576840,0.023004410,-0.017690660,-0.072340670
1640790707.211220,-0.272370610,0.894000290,10.096245770,0.016668440,-0.088834770,-0.054392220
1640790707.215190,-0.277575640,0.604079540,10.336839680,-0.028325620,-0.101913510,-0.072278090
1640790707.215800,-0.138284090,0.817394080,9.787161830,-0.028885900,-0.038337710,-0.025068220
1640790707.219910,-0.155757550,0.606667040,9.931707380,-0.008825960,-0.058460240,-0.036557020
1640790707.220660,-0.142176230,0.294783530,10.357707980,-0.036454200,-0.057159360,-0.052759040
1640790707.224940,0.133765280,0.496718790,9.656751630,-0.012515490,-0.044824190,-0.040625040
1640790707.226480,-0.036258150,0.293353470,10.177286150,-0.057260690,-0.075907990,-0.065942090
1640790707.229900,-0.099948330,0.367439120,10.221055030,-0.103293360,-0.043672330,-0.050255660
1640790707.230860,-0.053529050,0.244851460,9.663785930,-0.056572250,-0.076669450,-0.062602760
1640790707.234840,-0.140609770,0.117596280,9.998619080,-0.041304530,-0.070604680,-0.090922420
1640790707.235650,0.053669270,0.579634850,9.505271910,-0.043828790,0.013938550,-0.058434910
1640790707.240540,-0.066709620,0.337331120,10.104990010,-0.096389650,-0.012648110,-0.060740120
1640790707.241160,-0.283951550,0.206024770,10.798963550,-0.104467580,-0.062461200,-0.046910350
1640790707.245830,-0.211609070,0.246246830,9.683966640,-0.031758840,-0.111098590,-0.051909690
1640790707.246250,-0.238869210,-0.041005070,9.454448700,-0.031954060,-0.086516160,-0.077478590
1640790707.249840,-0.180590020,0.339156690,9.599009510,-0.068466360,0.056621420,-0.070197870
1640790707.251090,-0.131226630,0.353864670,10.156932830,-0.116790840,0.012940170,-0.087589010
1640790707.255220,-0.238908950,0.265810430,10.797563550,-0.106079900,-0.098395350,-0.079262260
1640790707.256330,-0.057108130,0.566695630,9.529372220,-0.034892550,-0.094841410,-0.072421130
1640790707.259910,-0.233623790,0.241196320,9.777527810,-0.059974200,-0.060647730,-0.081595790
1640790707.260650,-0.502813520,0.520154830,10.221751210,-0.085647420,0.002166630,-0.067847970
1640790707.264840,-0.401341500,0.581108090,9.967599870,-0.120879690,-0.080166750,-0.082217140
1640790707.265670,-0.356905310,0.410344540,10.222296710,-0.139223050,-0.105074050,-0.071082990
1640790707.269950,-0.209937900,0.818690660,9.756822590,-0.101637860,-0.012929740,-0.074586280
1640790707.270690,-0.172036780,0.602892580,10.240167620,-0.115163640,-0.055226690,-0.079624360
1640790707.274940,-0.283160900,0.680018600,10.519976620,-0.139299050,-0.071541970,-0.060094900
1640790707.279980,-0.048856290,0.752502980,9.626255990,-0.157137230,-0.103314220,-0.072233380
1640790707.280720,-0.056364040,0.483114660,10.097115520,-0.202667710,-0.072124610,-0.062662360
1640790707.282700,-0.165081460,0.726643260,10.082941060,-0.188888620,-0.003108380,-0.053039190
1640790707.284820,-0.029646810,0.446041820,10.085684780,-0.180037320,-0.111486030,-0.077213330
1640790707.285620,-0.028120000,0.429556010,10.131705280,-0.178310280,-0.071062140,-0.059254470
1640790707.290020,0.172555970,0.736362580,9.240291600,-0.207893520,-0.009955460,-0.053228430
1640790707.291410,-0.140976150,0.443261950,10.619167330,-0.270013510,-0.051759180,-0.039510430
1640790707.295110,-0.229967710,0.426465750,10.299992560,-0.245255220,-0.060912960,-0.035125010
1640790707.295840,0.020715460,0.371672360,9.343001370,-0.195296140,-0.123958310,-0.071899600
1640790707.299840,-0.124160200,0.383726030,10.099876400,-0.211761920,-0.016245250,-0.045926870
1640790707.300680,0.100024580,0.473955780,9.470048900,-0.260584060,0.080305340,-0.038421160
1640790707.305300,-0.001568830,0.101602900,10.681694030,-0.270257890,-0.079396390,-0.043466690
1640790707.306620,-0.118220980,0.087757560,10.369609830,-0.206342320,-0.042484690,-0.025619570
1640790707.310520,0.152690410,0.156923760,8.928825380,-0.192274150,-0.069113080,-0.039350990
1640790707.311460,-0.276436120,0.029949320,10.377060890,-0.242790560,-0.022061170,-0.022442640
1640790707.315100,-0.062165650,0.203615260,9.561917300,-0.260332260,0.077904760,-0.037206710
1640790707.315690,0.038273930,0.099221120,9.974128720,-0.237640780,-0.061242290,-0.044405470
1640790707.319890,-0.310746640,0.129936260,10.609107970,-0.182931130,-0.000077490,-0.017717480
1640790707.320670,-0.051334570,0.207926290,9.326046940,-0.175637010,-0.037947300,-0.033487380
1640790707.325110,-0.499519470,0.030634220,10.488239290,-0.197643040,-0.090442610,-0.023743510
1640790707.326150,-0.426510300,0.237750010,9.655592920,-0.234955530,0.022628900,-0.009146330
1640790707.329910,-0.014361460,0.142394800,9.491725920,-0.218012940,-0.037010010,-0.029510260
1640790707.330730,-0.312586870,0.297424050,10.948627470,-0.188013930,0.035139920,-0.023932750
1640790707.334840,0.073462960,0.694390950,9.844682690,-0.206167970,-0.017978250,-0.024606290
1640790707.335620,-0.075634720,0.313019600,10.396659850,-0.210677120,-0.125663000,-0.010345880
1640790707.342980,-0.117118330,0.324267300,9.855509760,-0.203715280,0.013920660,0.002506380
1640790707.344330,-0.036118720,0.334965170,9.661216740,-0.190989670,-0.018887220,-0.015909970
1640790707.346560,-0.605145990,0.196395890,11.103074070,-0.211705280,-0.051632520,-0.001305340
1640790707.348460,-0.244026260,0.553534330,9.678181650,-0.254207820,-0.068470820,0.005327160
1640790707.349840,-0.171820770,0.398506730,9.848957060,-0.247350340,-0.070433330,0.001803040
1640790707.350660,-0.300279380,0.524089520,10.375902180,-0.247107450,0.056089470,0.016148390
1640790707.354840,0.060583790,0.766711240,9.871489520,-0.231403110,-0.020258130,0.004334750
1640790707.357380,-0.146117460,0.439002600,10.821467400,-0.237977490,-0.096262980,0.008852780
1640790707.359890,0.151864070,0.665686370,9.570917130,-0.268508430,-0.012935700,0.023658570
1640790707.363100,-0.000831460,0.499593940,9.815115930,-0.285436240,-0.053612900,0.017996130
1640790707.364820,-0.161724460,0.052215960,10.484107970,-0.287559630,0.005348030,0.027777250
1640790707.365620,0.121934170,0.197513310,9.554151540,-0.226317380,-0.002689660,0.016461310
1640790707.369850,-0.189943750,-0.034660480,10.295536040,-0.220556600,-0.054177650,0.016964970
1640790707.371310,-0.094803150,0.197462780,9.954119680,-0.281286240,0.012421610,0.053749980
1640790707.375000,-0.143534420,0.229658320,9.785540580,-0.296550990,-0.041665140,0.039996210
1640790707.377050,-0.182463940,-0.117177330,10.310625080,-0.256961610,-0.027973950,0.028203430
1640790707.380260,0.063164200,0.278458540,9.518365860,-0.193570570,0.044469540,0.023168330
1640790707.382980,-0.097119180,0.169952420,9.972078320,-0.203947720,-0.013758240,0.007717310
1640790707.384820,-0.074650180,0.076365470,10.436380390,-0.251479480,0.007557870,0.025826700
1640790707.385630,-0.109954280,0.117783930,9.737604140,-0.227342560,-0.030413270,0.029981140
1640790707.390440,-0.228286420,-0.253103140,9.817898750,-0.194379690,-0.070650870,0.028948490
1640790707.391570,-0.105353300,-0.057741960,9.579404830,-0.158071520,0.042432550,0.036850580
1640790707.394820,-0.153867630,0.017915820,9.745795250,-0.181443960,0.051562490,0.007188320
1640790707.395610,-0.250156700,0.023176630,10.688055040,-0.197501450,-0.028614700,0.035892420
1640790707.399840,-0.145691630,0.169380980,9.769989010,-0.170312820,-0.031545760,0.037926440
1640790707.400640,-0.174229430,0.008709160,9.736131670,-0.147515580,-0.059995070,0.034788260
1640790707.405180,-0.395727750,0.261507600,10.332170490,-0.120794780,0.015971060,0.055328020
1640790707.406130,-0.414896670,0.280102940,9.855106350,-0.140839830,-0.017350910,0.026686490
1640790707.411260,-0.307230920,0.307993140,10.153408050,-0.168776510,-0.080248720,0.026555360
1640790707.412090,-0.099568230,0.585370780,9.854774480,-0.165377570,0.044424840,0.035902860
1640790707.414840,0.045842170,0.495733080,10.003202440,-0.167824370,-0.003322960,0.033997000
1640790707.415630,-0.103146060,0.566659030,10.742086410,-0.127315540,-0.041212140,0.051498410
1640790707.420250,0.005722650,0.550870900,9.597514150,-0.150813180,-0.046153370,0.048805770
1640790707.420930,-0.095212930,0.161221550,9.884199140,-0.163082750,-0.082865340,0.064027320
1640790707.424920,-0.367337140,0.237495170,10.258017540,-0.147525970,0.025334960,0.070264940
1640790707.425670,-0.340338470,0.060063110,10.004852290,-0.164304670,-0.059892240,0.051687670
1640790707.429850,-0.292066130,0.070724240,10.219611170,-0.149770080,-0.088083750,0.061264630
1640790707.430670,-0.015343890,0.341643780,9.552303310,-0.152979790,0.045596060,0.037503250
1640790707.434910,-0.019634620,0.317487090,10.216399190,-0.167778100,0.001212950,0.052630900
1640790707.435670,-0.131871040,0.459025200,10.514468190,-0.141926090,-0.049281110,0.064007920
1640790707.440060,0.273523750,0.462696700,9.268269540,-0.151047140,-0.084076830,0.045354670
1640790707.440830,0.204805520,0.337880050,9.615630150,-0.154297070,-0.021401050,0.079688430
1640790707.445720,0.143874470,0.242505220,9.843010900,-0.149580840,0.099389260,0.062997640
1640790707.446320,-0.102017910,-0.108864820,10.571208950,-0.122419000,-0.031720110,0.053630770
1640790707.449830,-0.309446930,-0.185155470,10.274723050,-0.086538500,-0.110532360,0.076754400
1640790707.450700,-0.173430960,-0.145366040,9.035275460,-0.115773100,-0.054021180,0.059798360
1640790707.454860,-0.509978530,-0.353904550,9.882887840,-0.134107490,0.025676190,0.072838370
1640790707.455830,-0.406063410,-0.260884670,10.075305940,-0.088585920,0.038629770,0.053957110
1640790707.460650,-0.220701280,-0.054833520,10.107280730,-0.034601990,-0.066049400,0.023122130
1640790707.461270,-0.109986240,0.119224230,9.946864130,-0.046277050,-0.034654140,0.055579840
1640790707.464820,0.067436260,0.273928140,9.708024980,-0.072652090,-0.005444880,0.058604770
1640790707.465600,-0.273180600,0.060704160,10.533356670,-0.050054500,-0.050571570,0.057530410
1640790707.469860,-0.134519860,0.088958540,9.805968280,-0.005176660,-0.075772410,0.071422760
1640790707.470830,-0.107173950,0.214185940,9.516026500,-0.001141430,-0.072720650,0.043933100
1640790707.475670,-0.308008160,0.211640610,10.030248640,-0.039698180,0.007751580,0.049617890
1640790707.476410,-0.148214160,0.427532670,10.020483020,-0.059917570,-0.036294760,0.062613190
1640790707.479840,-0.359851450,0.234553050,10.437965390,-0.030340250,-0.080671910,0.048282740
1640790707.480650,-0.231459500,0.148281460,9.989298820,-0.000105800,-0.073365870,0.050683330
1640790707.484940,-0.292199340,0.323327450,9.969134330,0.018212200,-0.062720460,0.050389770
1640790707.485960,-0.601217570,0.158974080,10.515457150,-0.025190410,-0.052510200,0.057543810
1640790707.489960,-0.213836420,0.157584280,9.848382950,-0.048799820,-0.116486850,0.075732180
1640790707.490920,-0.083195820,0.219386610,9.672207830,-0.014998020,-0.075265770,0.051233170
1640790707.494800,0.167522860,0.290246220,9.806692120,-0.011904540,0.006298720,0.054006280
1640790707.495680,0.293525160,0.542479460,10.279872890,-0.004382430,-0.011456010,0.074496870
1640790707.499840,-0.069996140,0.409616950,10.625602720,-0.022290640,-0.120043750,0.055822720
1640790707.500710,0.219803270,0.442312300,9.530653000,-0.034014870,-0.140845750,0.069208450
1640790707.504860,-0.005979370,0.537785590,9.420260430,-0.032325090,-0.032800440,0.063039360
1640790707.506590,-0.089181730,0.173410130,9.986007690,-0.050041080,0.019122660,0.053203110
1640790707.510880,-0.021458530,0.172616150,10.278709410,0.012913350,-0.014790890,0.056536510
1640790707.511700,-0.207772640,0.015153720,10.073950770,0.032725940,-0.077685730,0.046771780
1640790707.514870,-0.146859010,-0.082538450,9.693922040,-0.005818900,-0.088526310,0.080688310
1640790707.515660,-0.228406620,0.012736620,9.588472370,-0.033898660,-0.029402970,0.085264440
1640790707.519850,-0.130405520,-0.291503610,9.756031040,-0.018902120,-0.029718880,0.057493160
1640790707.520660,0.100948910,-0.090258050,9.907728200,0.074681640,0.000639260,0.050385300
1640790707.524930,0.187107430,0.161012620,9.693223000,0.081467640,0.020159790,0.035420070
1640790707.526420,0.055007190,0.147479920,10.388532640,0.036056340,-0.052040820,0.047354400
1640790707.529860,-0.073585640,0.252760470,9.988941190,0.028009710,-0.068792700,0.058171160
1640790707.530650,-0.151348810,0.042394940,9.330148700,0.054712600,-0.099122530,0.055995580
1640790707.534930,-0.279000580,0.031235540,9.652902600,0.108401480,-0.005622210,0.056090950
1640790707.535660,-0.197322740,0.122431980,9.718374250,0.111553070,0.067490350,0.036023560
1640790707.540720,-0.311673610,0.138449860,10.625827790,0.079628830,-0.058344010,0.031600900
1640790707.541620,-0.163422230,0.250662000,10.085556980,0.065195550,-0.065419080,0.062662370
1640790707.544920,0.030390230,0.148204040,9.339453700,0.064356630,-0.059661280,0.047312680
1640790707.545640,-0.279240220,0.105468470,10.241900440,0.126126410,-0.030194220,0.058554120
1640790707.549880,-0.219757110,0.370462720,9.869822500,0.139951720,-0.013095140,0.043033070
1640790707.550690,-0.243609100,0.444876220,9.942760470,0.092986220,-0.115048890,0.039656450
1640790707.555250,-0.204631400,0.566383780,9.924769400,0.055539610,-0.038173800,0.049048660
1640790707.556380,-0.033584470,0.648383200,9.715006830,0.048388530,0.002141300,0.033810740
1640790707.562700,-0.248962070,0.609016720,10.657533650,0.090970100,-0.063616040,0.042074920
1640790707.563280,-0.017044220,0.705353860,9.901997570,0.110843790,-0.061598420,0.052906570
1640790707.565140,0.068919370,0.649965640,9.502532960,0.064088410,-0.074596700,0.045657160
1640790707.565670,-0.164757420,0.546458840,10.256627080,0.019782780,-0.013829770,0.064592060
1640790707.569850,0.054580030,0.428401920,9.853580470,0.011448560,-0.023692850,0.061732530
1640790707.570690,0.046287150,0.041041930,10.074356080,0.068767370,-0.068137050,0.046381360
1640790707.574910,0.089083400,0.119232100,9.884630200,0.105990450,0.002750750,0.042824450
1640790707.577080,0.137618150,0.211400820,9.676836010,0.055535150,-0.006176530,0.038743020
1640790707.579990,-0.298855330,0.011397740,10.438466070,0.014995040,-0.063531100,0.052291160
1640790707.582540,0.005385540,0.139087510,9.446962360,0.028291350,-0.067594650,0.046569110
1640790707.584840,0.012019950,0.097845270,9.488675120,0.084140900,-0.013403590,0.031223890
1640790707.585670,-0.036148450,0.189106540,10.040196420,0.104057800,0.066713990,0.041137640
1640790707.589940,0.086521370,0.370599030,10.214599610,0.098451990,0.020995740,0.044091050
1640790707.590950,-0.193717150,0.048554670,10.426965710,0.081543630,-0.090272720,0.042821460
1640790707.594840,0.029688740,0.105247450,9.290481570,0.087589030,-0.072976950,0.058875980
1640790707.595690,-0.118095310,-0.007808390,9.286610600,0.115996600,0.014874340,0.043524810
1640790707.599890,-0.276022880,-0.127569210,10.066823960,0.122097130,0.030457980,0.025084610
1640790707.600630,-0.089768280,0.306232090,10.037944790,0.129319740,-0.003997980,0.019964580
1640790707.605220,-0.199145750,0.214468690,10.081420900,0.103843210,-0.049911440,0.009362400
1640790707.606410,-0.070856430,0.299582090,9.920651440,0.092917670,-0.032314650,0.030350680
1640790707.609950,-0.261218670,0.445423450,9.958089830,0.136473750,-0.007487830,0.024189050
1640790707.611710,-0.400886420,0.160426940,10.056970600,0.145474080,-0.068280100,0.021015110
1640790707.614860,-0.271238360,0.468596760,9.762874600,0.141166150,-0.056374080,0.030156970
1640790707.615680,-0.298983340,0.411534400,9.737737660,0.108708460,-0.016047060,0.008054080
1640790707.619850,-0.159574270,0.423018630,10.232507710,0.067003060,-0.024954980,0.032620120
1640790707.620670,-0.071405700,0.644554970,10.188087460,0.098666550,-0.040538600,0.025494400
1640790707.624870,0.048567040,0.388973060,9.875765800,0.106205050,-0.065071880,0.004027780
1640790707.626590,0.134313400,0.596085910,9.915019990,0.117632770,-0.038005410,0.028067830
1640790707.629870,-0.139302660,0.591456530,10.023601530,0.081852090,-0.006772580,0.013814870
1640790707.630650,-0.199202790,0.346869860,10.154363630,0.035975870,-0.107076760,0.022450090
1640790707.634840,-0.230190690,0.504652980,9.793560980,0.068250290,-0.075246380,0.034630290
1640790707.635640,-0.158401580,0.299859880,9.456445690,0.064669560,-0.019267200,0.009597840
1640790707.639960,-0.104529850,0.354703930,10.220928190,0.064541410,0.008201600,0.040154160
1640790707.640920,-0.122192500,0.346784890,10.232133870,0.081972760,-0.001288950,0.020475680
1640790707.647350,0.045528980,0.124784910,9.982505800,0.062990190,-0.106915850,0.016209480
1640790707.648000,0.073559600,0.406553690,9.660882000,0.061903890,-0.049151480,0.047519810
1640790707.649820,0.184376090,0.195601760,9.199447630,0.034186250,0.014068190,0.017781560
1640790707.650650,0.192794920,0.024438450,10.188106540,0.062070790,0.001759830,0.014208260
1640790707.655280,0.073530530,0.330896850,9.982931140,0.114530320,0.020743910,0.008934740
1640790707.656250,0.111940480,0.143845950,9.740925790,0.080138440,-0.067406890,0.001558660
1640790707.659850,-0.235239920,0.208926360,10.219675060,0.059939920,-0.022292140,0.031360990
1640790707.660800,-0.264379230,0.158748480,9.330905910,0.059641900,-0.011710820,0.010417400
1640790707.664840,-0.277060360,-0.048723220,9.762943270,0.098067520,-0.059096530,0.000220540
1640790707.665650,-0.152851730,0.254262090,9.546935080,0.118823350,0.083854800,0.004808610
1640790707.669860,-0.022033790,0.205962480,9.826752660,0.097525130,0.014999510,-0.021359330
1640790707.670750,-0.257421760,0.141551430,10.762326240,0.092673310,-0.048020490,0.000549850
1640790707.674910,-0.072545800,0.278652070,9.250916480,0.097098950,-0.051206350,0.009849670
1640790707.675780,-0.097009740,0.021497530,9.543342590,0.125786680,-0.063312050,0.004710260
1640790707.680980,-0.175217580,0.218150090,9.885957720,0.132191200,0.072860720,0.005309280
1640790707.681800,-0.025265830,0.615244150,9.677193640,0.098300000,0.003702940,-0.015038250
1640790707.684850,-0.180311920,0.539442480,10.535700800,0.064913930,-0.064031770,-0.005650520
1640790707.685670,0.051702140,0.762150350,9.468009000,0.068852310,0.007081030,-0.008453430
1640790707.689920,-0.092070410,0.742449460,9.845238690,0.095956010,-0.046339630,-0.023181740
1640790707.692830,-0.439585090,0.614396270,10.440650940,0.091472280,0.005108120,-0.010748210
1640790707.694870,-0.226618770,0.826900010,9.361927990,0.057190660,-0.048665710,-0.018510220
1640790707.695700,-0.374750640,0.576115370,10.046930310,0.023734570,-0.069099660,-0.012052060
1640790707.699850,-0.167187020,0.601725820,9.769875530,0.001077350,0.051940980,0.006003680
1640790707.700700,-0.036788190,0.553072040,9.890578270,0.029672680,-0.035409630,0.000308450
1640790707.705240,-0.093616340,0.303965660,10.512351040,0.044511260,-0.039850180,-0.007243460
1640790707.706200,0.291051360,0.637462740,9.249114990,0.018377600,0.016511980,-0.009837750
1640790707.712210,-0.017066060,0.527442340,10.136015890,-0.026518110,-0.054933140,-0.016941130
1640790707.714530,-0.061106950,0.515919390,10.134794240,-0.060674550,-0.004093350,-0.006666780
1640790707.715010,0.111657430,0.715057850,9.234737400,-0.020171700,-0.046217450,-0.020027160
1640790707.715680,-0.061612190,0.528961240,10.066421510,-0.004690890,-0.011631850,-0.008659070
1640790707.720000,0.108950650,0.656924310,9.675481800,-0.026693940,0.091290480,0.001297890
1640790707.720750,-0.129036620,0.409802050,10.284035680,-0.032743810,-0.040450690,-0.007161500
1640790707.724900,-0.139847580,0.122352060,10.214887620,-0.043389200,-0.040687620,0.002832710
1640790707.725670,0.143906130,0.276087370,8.909665110,-0.032806410,0.014944380,-0.006110970
1640790707.730320,0.008504860,-0.040738460,9.724083900,-0.042380400,0.042770810,-0.019136070
1640790707.731040,0.156648620,0.019236600,10.044572830,-0.035457320,0.114052010,-0.026370590
1640790707.734800,0.149650020,0.172697560,9.851079940,0.001382830,0.001521410,-0.049813100
1640790707.735640,-0.024952420,0.074114320,10.130553250,-0.012552740,-0.039462750,-0.032132860
1640790707.740010,0.003426880,0.304487820,9.394436840,-0.022697450,0.052969170,-0.010560450
1640790707.741430,-0.214478630,-0.015659320,9.775277140,-0.013172630,0.029212240,-0.035510960
1640790707.745630,-0.228483560,0.082130220,10.134177210,0.031471260,0.053696340,-0.027297440
1640790707.746320,0.006096790,0.358345960,9.285717960,0.048100960,0.067627440,-0.044897200
1640790707.749820,-0.045753030,0.125269590,10.114030840,-0.005514920,0.031521920,-0.044980650
1640790707.750690,-0.184924290,0.273471560,10.281040190,0.004568700,0.080470750,-0.036150220
1640790707.755360,-0.158706900,0.110393170,9.560555460,0.044202800,-0.029030440,-0.065274540
1640790707.760100,-0.237225650,0.120603310,9.954345700,0.060629850,-0.010609620,-0.042834880
1640790707.761850,-0.119252280,0.355668870,9.265288350,0.039553640,0.146944840,-0.048089030
1640790707.762760,-0.292955130,0.230176000,10.434818270,0.013038520,0.031132990,-0.056551400
1640790707.764850,-0.335430500,0.407706380,10.569458960,0.026392940,-0.004062060,-0.022874770
1640790707.765660,0.084114300,0.369737090,8.912922860,0.049468870,-0.003029410,-0.047051910
1640790707.769810,-0.110502660,0.351689520,10.209792140,0.041674080,0.042894490,-0.037908550
1640790707.770720,-0.162155940,0.594144760,10.152083400,0.022608040,0.134500880,-0.034268200
1640790707.775270,-0.073621120,0.505883460,10.052461620,-0.001627210,-0.056900080,-0.063531090
1640790707.775930,-0.131711130,0.664158760,10.216382980,0.001437960,-0.019280610,-0.032585860
1640790707.780210,0.115332310,0.751049100,9.004623410,-0.011274220,0.098462400,-0.055783990
1640790707.781830,-0.082862230,0.545197610,10.379071240,-0.010891260,0.032916670,-0.046683850
1640790707.784790,-0.195443910,0.582153980,10.401950840,0.004976990,0.073485080,-0.030457980
1640790707.785690,0.200393130,0.432513180,9.289367680,-0.004197660,-0.018802290,-0.059919060
1640790707.791910,-0.132788150,0.509130660,10.377808570,-0.039163240,0.036317110,-0.028418010
1640790707.792920,0.069121600,0.529836770,9.445114140,-0.082299100,0.105628360,-0.030845410
1640790707.795010,0.102218300,0.071301510,9.983541490,-0.050884490,-0.007195770,-0.057952110
1640790707.795720,-0.050556510,0.269000920,10.032136920,0.017505880,0.080479690,-0.038436050
1640790707.799890,0.240149270,0.210951640,9.054202080,0.004932290,0.074604160,-0.060136620
1640790707.800710,-0.286368670,-0.004910750,10.699229240,-0.043350460,0.043620170,-0.036276880
1640790707.805330,-0.164628680,0.062479540,9.790663720,-0.062157210,0.055077680,-0.035262110
1640790707.807220,0.085698640,-0.271647040,9.326890950,0.011770430,0.008679930,-0.059667230
1640790707.809910,-0.072597270,-0.012549970,9.862607000,0.046163800,0.139503180,-0.050517930
1640790707.812080,0.239812280,0.335558270,9.396406170,0.014443700,0.153927520,-0.053496660
1640790707.814840,-0.062073230,0.087207500,10.574412350,-0.017024580,0.027740010,-0.057977440
1640790707.815670,-0.031024180,0.237559990,9.690157890,-0.001838800,0.032867480,-0.044238560
1640790707.820300,-0.009226170,0.007118270,9.007165910,0.074771070,0.037251410,-0.061753400
1640790707.822390,-0.437094180,-0.116050950,10.050715450,0.090710830,0.115022090,-0.073991720
1640790707.824900,-0.294182420,0.332408250,9.724918370,0.053372980,0.112219160,-0.063906610
1640790707.825690,-0.279225500,0.007849300,9.956989290,0.024200980,0.020129970,-0.061322750
1640790707.829860,-0.129289250,0.049362380,9.751389500,0.048112870,0.079295050,-0.039964910
1640790707.830700,-0.050778160,0.224420220,9.482276920,0.113572200,0.100740810,-0.058774660
1640790707.834820,-0.270368190,0.075598170,10.252906800,0.108030460,0.045867260,-0.064550350
1640790707.835770,-0.084801610,0.541480480,9.646539690,0.076399740,0.028905280,-0.050266100
1640790707.839970,0.048673200,0.457451760,9.225836750,0.040625040,0.058503450,-0.070998070
1640790707.841010,-0.048251600,0.438997830,10.163724900,0.045697380,0.121542800,-0.060577690
1640790707.844810,-0.227678660,0.808827400,10.233797070,0.091438000,0.079451500,-0.071169440
1640790707.845810,-0.353166370,0.578336950,10.078875540,0.078490380,-0.044898690,-0.067251930
1640790707.849780,-0.275560050,0.886719760,9.359529500,0.030691930,0.017693640,-0.039920210
1640790707.850820,-0.360224960,0.885457160,9.373791690,-0.023540860,0.101766010,-0.055500870
1640790707.855010,-0.284259260,0.655222480,10.309067730,-0.036153200,0.063486400,-0.030113760
1640790707.856490,-0.004600090,0.695091070,9.924303050,0.031474240,0.042752920,-0.050809980
1640790707.860110,0.179695200,0.331848980,9.689564700,0.037156050,0.032994150,-0.079576670
1640790707.860720,0.157113940,0.500336950,9.921757700,0.002914670,0.080208490,-0.037512180
1640790707.864780,-0.169023950,0.456004350,9.932729720,-0.060972580,0.031030170,-0.058655440
1640790707.865640,-0.074873630,0.206215260,9.730733870,-0.081427400,-0.037087500,-0.046931210
1640790707.870410,0.107821200,0.471441090,9.021971700,-0.020216410,0.080366430,-0.047975790
1640790707.871990,0.082539280,0.370281040,9.438946720,-0.005452330,0.136262180,-0.069196530
1640790707.875430,0.024564630,0.564737440,10.461026190,-0.016206500,0.119267410,-0.031365450
1640790707.875920,-0.171489610,0.416341010,10.147486690,-0.051201880,0.015811620,-0.050799550
1640790707.880760,-0.085622820,0.104371000,9.560262680,-0.050514950,-0.047428910,-0.052447620
1640790707.881250,-0.098446200,0.261731740,8.974749570,-0.013776120,0.101904580,-0.044928490
1640790707.885190,-0.171460060,0.010054870,9.390069960,-0.016973910,0.147749500,-0.073349480
1640790707.885770,-0.256145510,0.042808010,10.403445240,0.002455710,0.104722380,-0.062912700
1640790707.889870,-0.069555060,0.239981620,9.654036520,0.000506640,0.020276010,-0.062596800
1640790707.890790,-0.025904500,0.093132700,9.548807140,-0.024320190,-0.006696580,-0.047819320
1640790707.894860,-0.071469690,0.233627780,9.457308770,-0.008924310,0.125572090,-0.046122080
1640790707.895720,-0.151516350,0.174237310,9.732291220,0.003136700,0.085216760,-0.073449310
1640790707.899830,-0.310601620,0.270021260,10.162957190,0.029714400,0.026232000,-0.066187970
1640790707.900970,0.013336870,0.504472430,9.053123470,0.010551510,0.056163970,-0.062306230
1640790707.905340,-0.310024560,0.368218930,10.026513100,-0.029793390,0.044937430,-0.067934400
1640790707.906060,-0.455654140,0.525119660,9.995449070,-0.018620490,0.078909100,-0.060184300
1640790707.909850,-0.347849070,0.349260390,9.673624040,0.006228690,-0.025321550,-0.076024230
1640790707.910700,-0.487977860,0.376953240,9.936552050,0.034300980,0.027662510,-0.062072280
1640790707.914850,-0.088473130,0.698652090,9.116889950,-0.011084970,0.084319710,-0.061066460
1640790707.915680,-0.256032970,0.618283030,10.318659780,-0.079600510,0.026822090,-0.054357960
1640790707.919870,-0.124825410,0.574032250,9.934309010,-0.058794020,0.033409900,-0.045698880
1640790707.921670,0.132404830,0.346821810,9.367517470,0.000482800,-0.042696290,-0.075012450
1640790707.925560,-0.381304260,0.402690560,10.219435690,0.021877880,0.015895070,-0.065805020
1640790707.925950,-0.116219370,0.713722650,9.244045260,-0.044547030,0.036874410,-0.051428390
1640790707.929800,-0.297060190,0.385504900,10.202404980,-0.124116260,-0.052094460,-0.039143860
1640790707.930710,-0.164454800,0.413526920,9.661949160,-0.088125450,0.046005840,-0.037370620
1640790707.934920,0.242909740,0.473814400,9.167922020,-0.013144310,0.024706120,-0.062933560
1640790707.935690,-0.237593890,0.363881860,10.497774120,-0.004863740,0.046326220,-0.043660410
1640790707.939960,0.016256950,0.572633030,9.378469470,-0.066182020,0.001858170,-0.030049680
1640790707.942170,-0.053314730,0.168413920,9.734737400,-0.100678200,-0.086119760,-0.033156570
1640790707.944830,-0.200094520,0.173702120,9.438164710,-0.073774170,0.051006690,-0.018800800
1640790707.945710,0.095021770,0.278105410,9.060534480,-0.022925440,0.044134250,-0.036591280
1640790707.950180,-0.294258180,-0.074341640,10.604193690,-0.018562380,0.040823220,-0.039759280
1640790707.950970,-0.011913390,0.159501910,9.502922060,-0.025813290,0.008012360,-0.026854880
1640790707.954960,-0.059994080,-0.002626630,9.449648860,-0.020648540,-0.078625980,-0.032666330
1640790707.955790,-0.173057360,0.075623130,9.398698810,-0.057700280,0.038234890,-0.014951830
1640790707.959850,0.038076970,0.362353150,9.052639960,-0.041006510,0.048547990,-0.028975310
1640790707.960720,-0.249570790,-0.041325900,10.226018910,0.000649690,0.006267430,-0.048944350
1640790707.965050,-0.166754020,0.162689430,9.641645430,0.059321530,-0.012460350,-0.030550370
1640790707.965740,-0.235518110,0.149755450,9.224755290,0.062191490,-0.049634280,-0.038708750
1640790707.970230,-0.526492300,-0.089815080,9.950782780,-0.022548440,-0.013740360,-0.024265050
1640790707.971870,-0.412142930,0.141747120,9.270074840,-0.005690750,-0.001583990,-0.021149220
1640790707.974980,-0.205134940,-0.125385700,9.279687880,0.046245750,-0.043798980,-0.049000980
1640790707.975720,-0.096529580,0.216175540,9.694515230,0.089477000,0.053773820,-0.014655290
1640790707.981080,-0.125056740,0.431891290,9.626884460,0.070077190,0.019925830,-0.030884150
1640790707.982510,-0.337181570,0.101678960,10.411007880,0.022748110,-0.122757260,-0.017106530
1640790707.984780,-0.382455710,0.423502590,9.252635000,0.052210680,-0.085403020,-0.010450180
1640790707.985700,-0.348721090,0.232079790,8.861312870,0.062058870,-0.079292060,-0.034987930
1640790707.990890,-0.544648290,0.414197420,10.101512910,0.071278210,0.017794970,-0.014020500
1640790707.991530,-0.420483050,0.679700020,9.698542590,0.054237240,-0.039555120,-0.021991130
1640790707.994760,-0.201274170,0.274471340,10.006320950,0.042150920,-0.152997670,-0.002920630
1640790707.995700,-0.156669320,0.515392900,9.570034030,0.063583260,-0.031480190,-0.009775160
1640790707.999820,-0.179305550,0.593210880,9.527131080,0.035700200,-0.080674890,-0.031587480
1640790708.000720,-0.350483090,0.563298290,10.292384150,0.015003980,-0.123620060,0.000137090
1640790708.004900,-0.084259320,0.626130520,9.087363240,-0.001917780,-0.110907850,-0.011780860
1640790708.005700,-0.043832760,0.352912900,9.520338060,0.029355290,-0.107713050,-0.013709070
1640790708.009800,-0.176918910,0.530015110,9.988719940,0.050295900,-0.004953150,0.000831480
1640790708.010760,-0.293043820,0.473127370,9.937488560,0.007471440,-0.126256060,-0.004239380
1640790708.015160,-0.373265360,0.315528360,9.958390240,-0.001433490,-0.218363120,0.018139180
1640790708.015930,-0.001950140,0.363671510,8.646802900,-0.003324450,-0.094380970,0.010004640
1640790708.020290,-0.013818820,0.389387730,9.433822630,-0.003440680,-0.047887850,0.006748740
1640790708.021360,0.083122640,0.414488940,10.064092640,0.009331110,0.004439060,0.019577150
1640790708.024870,0.227841150,0.212760450,9.863407140,0.013351440,-0.141759220,-0.000587110
1640790708.025690,-0.121308530,0.036991850,9.825305940,0.049860780,-0.186747330,0.014007090
1640790708.029890,0.004119250,0.164430930,8.570858000,0.033089520,-0.119905180,0.015266240
1640790708.030740,-0.376768770,-0.015163080,9.477462770,-0.007553400,-0.103084760,0.013136860
1640790708.034850,-0.323413730,-0.018654120,9.611107830,0.020700690,-0.045686960,-0.000666080
1640790708.035720,-0.039369720,0.176772240,9.504470830,0.067912050,-0.108619030,-0.015597050
1640790708.039890,-0.283767880,0.269935400,10.020567890,0.073175140,-0.104106960,0.000807640
1640790708.041670,0.052760690,0.516760170,9.156222340,0.032317640,-0.117294500,0.006081160
1640790708.045020,-0.255239490,0.239388480,9.792997360,0.021687160,-0.154916940,0.006012620
1640790708.046330,-0.206965980,0.124534610,9.217564580,0.068885090,-0.119809810,0.012873110
1640790708.049880,0.013999290,0.254567980,9.076141360,0.116999430,-0.122189510,-0.004354120
1640790708.050700,-0.354965540,0.179533750,10.208951000,0.065577030,-0.064615910,-0.000211600
1640790708.054860,-0.096016300,0.363816020,9.714488030,0.029858950,-0.131087020,0.013212860
1640790708.055740,-0.251073390,0.170895160,9.838852880,0.047169630,-0.197979820,-0.001910330
1640790708.060020,-0.188683790,0.239375700,9.265254970,0.081394620,-0.126545130,0.003413860
1640790708.061460,-0.084780220,0.605149750,9.214223860,0.099445900,-0.099006300,-0.001561640
1640790708.064850,-0.383392070,0.646839500,10.252289770,0.008140500,-0.111869000,-0.002078710
1640790708.065710,-0.169873890,0.733822820,9.752176280,-0.002801420,-0.180971620,0.034609430
1640790708.070050,-0.108800190,0.388114300,9.517903330,0.066326560,-0.193223370,-0.000078980
1640790708.071170,-0.273604630,0.381494370,9.796188350,0.087842350,-0.120003520,0.010536610
1640790708.074850,-0.212634350,0.715711240,9.519265170,0.050938130,-0.123390560,0.034056600
1640790708.075720,-0.139807790,0.268942620,9.920963290,-0.044506790,-0.175841180,0.021608180
1640790708.079840,0.145258640,0.356972630,9.495837210,-0.016750400,-0.135797280,0.036706030
1640790708.080790,0.335779960,0.412062320,9.185438160,0.056061140,-0.123767550,0.009851160
1640790708.084920,0.261145620,0.335676940,9.951498030,0.028173630,-0.106121600,0.021477050
1640790708.086490,0.227037120,0.467390510,9.473475460,0.011052190,-0.099569570,0.040160130
1640790708.090270,0.054605260,-0.088300360,9.775394440,0.009018180,-0.190918180,0.014522670
1640790708.091130,-0.321865020,-0.062159760,9.830076220,0.053434070,-0.146050720,0.044296680
1640790708.094870,-0.188215030,0.136908220,8.632980350,0.050704180,-0.137110050,0.022546950
1640790708.095680,-0.295387030,-0.126123620,9.910708430,0.004404780,-0.102959560,0.013327600
1640790708.099790,-0.115347960,0.257954210,9.467324260,0.035199520,-0.002995130,0.036384170
1640790708.100760,0.220611230,0.244042780,9.541246410,0.070555520,-0.152793540,0.019237400
1640790708.104880,-0.036183760,0.285451290,10.239974980,0.089679670,-0.108893230,0.039234770
1640790708.105700,0.264128680,0.462322120,8.679429050,0.041086980,-0.120258330,0.034298000
1640790708.110270,-0.100368220,-0.131404100,9.926635740,0.067436690,-0.151710180,0.029699510
1640790708.111150,-0.194264740,-0.018606950,9.441752430,0.108686070,-0.041911000,0.022734700
1640790708.114870,0.035150100,0.211332160,9.117803570,0.116334860,-0.137987750,0.017061830
1640790708.115720,-0.329080640,0.072586000,10.433185580,0.064601000,-0.078728800,0.030459470
1640790708.119960,-0.022902480,0.276980310,9.296771050,0.043942030,-0.065308820,0.025348370
1640790708.121140,-0.173068820,0.146950680,9.846820830,0.126098110,-0.179579870,0.019647180
1640790708.124900,-0.063840640,0.399839370,9.481397630,0.131118300,-0.060921920,0.018201770
1640790708.126160,0.217607990,0.837751750,9.033658980,0.083170840,-0.047498940,0.018753110
1640790708.129860,-0.249200780,0.547520220,10.615572930,0.023403760,-0.097091480,0.042438500
1640790708.130690,-0.039067760,0.424460050,9.706025120,0.063076620,-0.127993520,0.047571970
1640790708.134810,-0.062837440,0.209629910,9.157254220,0.159978880,-0.160813330,0.022566320
1640790708.136470,-0.317504110,0.228666010,9.889402390,0.120149570,-0.044476990,0.033156580
1640790708.140040,-0.264024880,0.522846280,9.704473500,0.039020180,-0.054219370,0.056070090
1640790708.140900,-0.139283420,0.279318120,9.810766220,-0.005099180,-0.169286150,0.047095120
1640790708.144890,0.226602030,0.488300860,9.473492620,0.053608420,-0.059761100,0.039362910
1640790708.145730,0.375191330,0.713872910,9.202857970,0.107674290,-0.009009240,0.023031230
1640790708.149830,0.061754600,0.546033200,10.477492330,0.071677570,-0.085614630,0.032627580
1640790708.150880,-0.021151720,0.576661470,9.787305830,0.055344400,-0.104492920,0.059500340
1640790708.155890,0.023623510,0.093381630,8.991933820,0.033721330,-0.163571510,0.037387010
1640790708.156280,-0.229390250,0.067598370,9.652815820,0.064145030,-0.046642140,0.066576910
1640790708.159870,-0.067101940,0.106070870,9.102545740,0.072877120,0.035674870,0.053597990
1640790708.160730,0.020343960,-0.198299570,10.126827240,0.074212250,-0.063543030,0.044845040
1640790708.164780,0.025945000,0.122139290,10.018836980,0.096881400,-0.020295380,0.050550710
1640790708.165700,0.315223130,0.108983290,8.986589430,0.088188050,-0.084705660,0.030657650
1640790708.169900,-0.103938440,0.085372270,10.077895160,0.080746400,-0.070449710,0.063151130
1640790708.171440,-0.037753150,0.228124450,9.069262500,0.086292650,-0.004461410,0.043058400
1640790708.174810,-0.055411820,-0.139836560,9.521806720,0.133372860,-0.097425280,0.027848780
1640790708.175820,-0.255990890,0.124976990,9.816271780,0.178827360,0.024223330,0.050207980
1640790708.179860,-0.033979550,0.199706810,9.268691060,0.138807340,-0.009915230,0.043688720
1640790708.180760,-0.369708840,-0.090545300,10.477560040,0.117987420,-0.080499080,0.067596140
1640790708.185140,-0.129618690,0.104541470,9.247878070,0.142849980,-0.033816700,0.056070090
1640790708.185900,0.013784000,-0.075072680,9.087820050,0.204384340,-0.063624980,0.029212240
1640790708.191420,-0.176584450,0.160718530,9.941600800,0.199221090,0.036235150,0.032179060
1640790708.192170,0.026610830,0.508530140,9.652932170,0.157694500,-0.009599330,0.022082030
1640790708.194780,-0.210302350,0.168562470,10.261346820,0.144322230,-0.117802620,0.044345860
1640790708.195680,-0.147568090,0.295659360,9.546994210,0.188712790,-0.051884350,0.060294570
1640790708.199830,-0.200743060,0.306842770,9.413360600,0.228922050,-0.038909900,0.033500790
1640790708.201150,-0.358462660,0.306866140,10.121335980,0.189839270,-0.024868550,0.057747960
1640790708.205960,-0.102505370,0.701740980,9.535384180,0.145454670,-0.043003260,0.066280360
1640790708.206410,0.031624370,0.433131810,9.584368710,0.131118310,-0.052513190,0.047437850
1640790708.209890,0.139499460,0.581882360,9.913520810,0.156976280,0.002291800,0.052039330
1640790708.210720,0.066267790,0.727653500,9.819357870,0.189916800,-0.006060300,0.042499600
1640790708.214840,-0.117509320,0.385550350,10.202892300,0.153045340,-0.080572070,0.033573810
1640790708.215680,-0.074133200,0.667841260,9.616105080,0.128678980,-0.059297690,0.069220370
1640790708.220120,-0.090671330,0.452573750,9.332400320,0.109669570,-0.019410250,0.052288170
1640790708.221620,-0.020178440,0.406737800,9.965377810,0.104458650,0.024640570,0.080050530
1640790708.225590,0.063926950,0.577528000,9.697605130,0.140185650,0.041885680,0.076740980
1640790708.226070,0.226999910,0.171004210,9.884216310,0.132270160,-0.031617290,0.059029460
1640790708.229800,0.182585600,0.480676200,9.874055860,0.127680600,0.020796060,0.074197350
1640790708.230740,0.077453310,0.511522950,9.442109110,0.082698480,-0.009334090,0.067909070
1640790708.235130,0.017581280,0.137971480,10.000782970,0.064933310,-0.035251680,0.083111230
1640790708.235860,0.088215490,0.211861940,9.261239050,0.135433670,0.083380960,0.067961240
1640790708.239910,0.084915360,0.052188040,9.569181440,0.171820830,0.028575960,0.053671010
1640790708.240760,-0.033112520,0.160649120,10.239594460,0.151839880,0.065401200,0.098052640
1640790708.244890,0.103663880,0.145426500,9.178707120,0.087243320,0.046683840,0.076690320
1640790708.245800,0.027826510,-0.260475720,9.936889650,0.118622190,-0.021305680,0.084498520
1640790708.249840,0.118444660,0.004915080,9.208960530,0.184550880,0.125664490,0.083844360
1640790708.250970,0.286929220,0.110626900,9.176490780,0.187335920,0.077293820,0.049033760
1640790708.254890,-0.002445550,0.184587730,10.539513590,0.154426710,0.120010970,0.068251800
1640790708.255810,0.087001090,0.304363880,9.470773700,0.134438250,0.065550200,0.061030690
1640790708.259820,-0.151307750,-0.027322370,9.825248720,0.199793290,-0.044575330,0.074076660
1640790708.260720,-0.276108030,-0.005387070,9.309525490,0.241526960,0.117541850,0.079020850
1640790708.264780,-0.086056490,0.098392030,9.031424520,0.234256680,0.105121740,0.057902930
1640790708.265750,-0.265773530,0.038642000,10.362979890,0.193183150,0.103426000,0.075463960
1640790708.269980,0.363280860,0.264761000,9.264499660,0.170536340,0.144456340,0.079298020
1640790708.271940,0.260060550,0.197982610,10.009729390,0.233446110,0.082091990,0.055956850
1640790708.275000,0.011306350,0.361978230,10.332002640,0.245575650,0.102952140,0.066743800
1640790708.275970,0.024661630,0.591469760,9.269432070,0.233773930,0.038743020,0.069518390
1640790708.279880,-0.346534100,0.329974320,9.715320590,0.203174370,0.046084820,0.072939690
1640790708.280820,-0.210668060,0.522109150,9.367845540,0.179487450,0.172683610,0.070020560
1640790708.285450,-0.344328080,0.633131270,9.936491010,0.201289360,0.125010330,0.061814490
1640790708.286680,-0.315208760,0.553356230,10.498464580,0.185748960,0.082552460,0.074698040
1640790708.290350,0.111598240,0.748198390,9.312760350,0.185450910,0.106573130,0.074678660
1640790708.291430,0.032449460,0.484592850,9.698856350,0.169408340,0.106337670,0.067698960
1640790708.294800,0.023294370,0.578993440,10.029821400,0.160405050,0.172910090,0.076670950
1640790708.295720,0.044468510,0.678807620,9.657500270,0.149507810,0.070604680,0.083027770
1640790708.300760,0.045941080,0.289158250,9.899198530,0.121951110,0.046120580,0.083960600
1640790708.302680,0.186989110,0.481580050,9.229496960,0.157345800,0.179950890,0.080426040
1640790708.304850,0.034446290,0.411019560,9.847966190,0.149761130,0.162593990,0.062549110
1640790708.305740,-0.127353370,0.472920630,10.561713220,0.116243980,0.140637190,0.094403340
1640790708.309880,-0.021226640,0.594311000,9.504097940,0.100395090,0.085037950,0.075373060
1640790708.310760,-0.007776210,0.308643880,9.413968090,0.099438440,0.081251580,0.079028310
1640790708.314800,0.068972240,0.537796620,9.323587420,0.125637670,0.227327640,0.100529200
1640790708.315890,0.177740540,0.227066670,9.499539380,0.139935330,0.206416850,0.067278740
1640790708.320170,0.077110270,0.075951940,10.495635990,0.137785090,0.149424370,0.088500980
1640790708.322090,0.057770190,0.301155000,9.509977340,0.135500730,0.144182120,0.082324440
1640790708.324850,0.020748340,-0.120409750,9.395946500,0.091932720,0.088064370,0.077503930
1640790708.325690,-0.132072490,0.001748800,9.625664710,0.108638420,0.207342250,0.088200000
1640790708.329790,0.039281240,0.052826300,9.127114300,0.160040010,0.234515990,0.050030660
1640790708.330730,0.019375230,0.169947190,10.104054450,0.162810100,0.167971860,0.063662230
1640790708.334820,0.131516340,0.623148620,9.474284170,0.137867050,0.231951480,0.086371610
1640790708.335750,0.051503410,0.182886350,9.738481520,0.105488290,0.145606670,0.073350950
1640790708.339920,-0.379484420,0.103674230,10.282637600,0.168368220,0.147484260,0.097863390
1640790708.340830,-0.241208030,0.100418780,8.704164510,0.220730920,0.152488040,0.065951050
1640790708.344820,-0.242727460,-0.045368370,9.533869740,0.190843640,0.166966040,0.062429900
1640790708.345760,-0.334042550,0.370315520,9.889719010,0.130221250,0.311881330,0.075551870
1640790708.349920,-0.106602010,0.237551260,9.951305390,0.111460690,0.130563970,0.051574410
1640790708.350760,-0.271470790,0.194057270,10.306179050,0.185765340,0.088876490,0.074003640
1640790708.354910,0.077052940,0.500401140,8.625852580,0.220553580,0.179290760,0.047922130
1640790708.355790,-0.122449260,0.409523310,9.900163650,0.176328420,0.174301880,0.048029430
1640790708.359820,-0.309312910,0.648842450,10.223863600,0.111334030,0.210288180,0.079829990
1640790708.360790,0.131519330,0.516879080,9.327488900,0.108565390,0.101086500,0.068262230
1640790708.365100,-0.146453010,0.363543750,10.347992900,0.163304820,0.131224100,0.077931590
1640790708.365710,-0.076056870,0.675791800,9.376136780,0.171576430,0.217710440,0.074194370
1640790708.370260,-0.198039670,0.592733740,10.019591330,0.121869170,0.097985570,0.073571510
1640790708.371550,-0.303741400,0.595164600,9.979589460,0.070868430,0.149512290,0.090166950
1640790708.375000,0.178393650,0.720660150,8.820056920,0.069598850,0.161510720,0.062869490
1640790708.379950,-0.124828950,0.645905550,10.440786360,0.084748870,0.186574460,0.074785950
1640790708.380680,0.024053290,0.708523510,9.748417850,0.081323070,0.213423390,0.088019670
1640790708.381980,0.046233310,0.391916840,9.726509090,0.097110870,0.073090200,0.072255730
1640790708.384800,-0.298970790,0.251186790,9.982805250,0.081010160,0.148323150,0.095957510
1640790708.385730,0.022503940,0.409769120,8.770990370,0.044548520,0.175800920,0.100637970
1640790708.389950,-0.231768940,0.154881210,10.131558420,0.016975400,0.139117260,0.089341390
1640790708.391400,0.072605190,0.239424010,9.539096830,0.034828490,0.237020870,0.084251150
1640790708.394840,0.415445210,0.361565740,9.327367780,0.096812840,0.168333960,0.057570640
1640790708.395700,-0.019593970,0.398281780,10.464850430,0.077258060,0.198189910,0.069563090
1640790708.399880,0.227640450,0.514150080,9.210006710,0.020800540,0.160442320,0.085888810
1640790708.400750,-0.177317430,0.114630570,9.859189030,0.030949710,0.079490250,0.078926970
1640790708.404920,-0.354879200,-0.106641480,9.439313890,0.090168420,0.202651320,0.078021000
1640790708.406210,-0.096031170,0.023087070,8.989377020,0.137560080,0.190953910,0.068740550
1640790708.409800,-0.520053390,-0.019891190,10.570259090,0.080583980,0.205014650,0.062397120
1640790708.410770,-0.064054730,0.262139110,9.518745420,0.025115910,0.177994370,0.091351580
1640790708.414860,0.004832060,0.198639440,9.592190740,0.066213310,0.101269790,0.085805360
1640790708.415730,-0.120237680,0.200173910,9.656897540,0.097252440,0.208815960,0.074936450
1640790708.420220,0.134492440,0.502363920,9.229764940,0.132589060,0.184462960,0.062811380
1640790708.421170,-0.386666860,0.482798960,10.431627270,0.091053550,0.136047620,0.060988970
1640790708.424800,-0.135952490,0.531583130,9.493270870,0.034704800,0.133992750,0.082971160
1640790708.425740,-0.143798370,0.468657970,9.491666790,0.063696510,0.132738050,0.087036190
1640790708.430010,-0.468715040,0.324315250,10.279438970,0.073869510,0.195235030,0.069461750
1640790708.430810,-0.174067020,0.548982620,9.624558450,0.088089710,0.145643960,0.088521840
1640790708.434820,-0.329915940,0.511208950,9.979475020,0.058296330,0.088341530,0.084328660
1640790708.435770,-0.010667390,0.645830090,9.417811390,-0.012397770,0.175511840,0.079724190
1640790708.440530,0.105011450,0.958192350,9.642820360,-0.012740490,0.154015420,0.076906390
1640790708.441450,-0.209953170,0.749079350,10.483374600,-0.011174380,0.136731580,0.066564980
1640790708.445230,0.077126180,0.769460080,9.572640420,0.017465650,0.104179980,0.064824530
1640790708.445770,-0.232232850,0.629609110,9.798061370,0.022444130,0.090183300,0.058376780
1640790708.449820,-0.423653010,0.633240760,9.872867580,-0.048731270,0.132621820,0.078965730
1640790708.450780,-0.134849370,0.797509190,9.375540730,-0.104849060,0.111608230,0.110177710
1640790708.454960,-0.137929870,0.321276070,9.837316510,-0.109623390,0.136888030,0.096181040
1640790708.455730,0.240711630,0.331883610,9.607088090,-0.028635560,0.196036670,0.076365470
1640790708.459890,0.157766570,0.475060460,9.913286210,0.013309720,0.140999240,0.080846250
1640790708.460860,-0.143123110,0.356653210,10.105369570,-0.090934340,0.097073610,0.082428760
1640790708.464830,-0.012706010,0.402790220,9.351616860,-0.150041300,0.057557230,0.100439790
1640790708.465720,-0.274308650,0.086478090,9.385115620,-0.111132860,0.112611060,0.079315910
1640790708.470270,-0.216770100,0.098154840,9.504928590,-0.033770500,0.165018480,0.069740410
1640790708.471480,-0.128761560,0.407560910,9.730048180,-0.017139320,0.179998580,0.081749270
1640790708.474960,-0.282884600,0.239029770,10.152981760,-0.100950900,0.105020390,0.079962600
1640790708.475760,-0.058265980,0.276628880,9.576019290,-0.112713890,0.067904610,0.097130260
1640790708.479840,-0.213989360,0.142086540,9.175771710,-0.072412200,0.091391790,0.087936220
1640790708.480900,-0.106464710,-0.027234630,9.332525250,-0.040248050,0.119552040,0.075572740
1640790708.484810,-0.076874020,0.246382250,9.621978760,-0.018987060,0.179885330,0.054644050
1640790708.485770,-0.176609740,0.136266290,9.881572720,-0.057640670,0.100612650,0.048808750
1640790708.489930,-0.109751960,0.113583680,9.925937650,-0.068768840,0.070853540,0.076209010
1640790708.491920,-0.362086710,0.223437030,9.530992510,-0.049512090,0.083437550,0.068917860
1640790708.494890,-0.408426200,-0.015849490,9.540272710,-0.033593180,0.039006770,0.071997950
1640790708.495740,-0.362252410,0.207972290,9.454183580,0.004160400,0.111941990,0.069111590
1640790708.499810,-0.204907070,0.302984710,9.209667210,-0.029180950,0.114646550,0.048336390
1640790708.500760,-0.157493050,0.352486370,10.236543660,-0.065568090,0.098945200,0.059865420
1640790708.504960,-0.289812210,0.540844140,10.092505460,-0.061297420,0.079058110,0.058314210
1640790708.505770,-0.299528840,0.327821140,9.638510700,-0.030943750,-0.050573050,0.050464280
1640790708.510440,-0.350776910,0.392993450,9.430999760,0.005604330,0.020228330,0.069285940
1640790708.511140,-0.267105340,0.512133540,8.967761990,-0.039978330,0.130471590,0.046059490
1640790708.514830,-0.425997970,0.549811360,10.444727900,-0.103718060,0.057849300,0.064091390
1640790708.515710,-0.294562550,0.692653950,10.102805140,-0.108774020,0.024674840,0.072678930
1640790708.520130,0.051137350,0.605780960,9.266788480,-0.081281360,-0.028213860,0.042289500
1640790708.521260,-0.042794980,0.748275760,10.043330190,-0.071273740,0.066894280,0.060410790
1640790708.524840,-0.131813590,0.819480900,9.767647740,-0.101995490,0.102807600,0.053834930
1640790708.525750,-0.272740630,0.609396460,10.230906490,-0.148637610,-0.080868600,0.057327750
1640790708.529860,-0.270447310,0.580203650,9.696428300,-0.151596960,-0.007916990,0.066635010
1640790708.530760,-0.106628320,0.558451240,8.949211120,-0.150075570,0.034435100,0.042501090
1640790708.534790,-0.236661610,0.487700610,10.361522670,-0.169558840,0.037205220,0.065462300
1640790708.535760,-0.032831450,0.529621840,9.773426060,-0.157327940,0.082111360,0.055572380
1640790708.539990,0.163991240,0.393563270,9.751267430,-0.170987860,-0.043185060,0.039431460
1640790708.541210,0.017084400,0.538295570,10.025818820,-0.185596940,0.037175420,0.073267530
1640790708.544890,0.057479100,0.410349910,9.137901310,-0.208765270,0.017960370,0.064870700
1640790708.545780,-0.074176760,0.078829170,9.888038640,-0.196626810,-0.032363840,0.058098150
1640790708.549880,-0.075744150,0.152509470,9.412497520,-0.149932520,0.077354910,0.056059650
1640790708.550820,0.098913370,0.138226760,9.275002480,-0.154554840,0.030618910,0.051540140
1640790708.554940,-0.284225550,0.020581480,10.633740430,-0.181886550,0.050851710,0.069253150
1640790708.555790,-0.127747970,-0.014718940,9.558684350,-0.171698640,0.015529990,0.055076190
1640790708.559970,-0.085811030,-0.143413600,9.496769910,-0.133179130,-0.073315210,0.045968580
1640790708.561250,-0.098835780,0.062543150,9.274181370,-0.119811310,0.088495020,0.050011280
1640790708.564800,0.182774020,0.223282350,9.121463780,-0.149615110,0.101442640,0.026407840
1640790708.565740,-0.253486900,0.235363660,10.773794170,-0.159715120,0.000011920,0.030145050
1640790708.570260,-0.080213740,0.221201450,9.543858530,-0.125785170,-0.033706430,0.058239710
1640790708.571210,-0.078662820,0.061812740,9.235042570,-0.086842480,-0.052179400,0.055253520
1640790708.575590,-0.527295710,-0.004676360,10.163044930,-0.084215410,0.062975290,0.060783340
1640790708.576270,-0.325640980,0.083693880,9.584884640,-0.110232830,0.023818020,0.063462560
1640790708.580350,-0.322037970,0.120440020,9.871045110,-0.124679510,-0.055274370,0.041985520
1640790708.581110,-0.119245140,0.237053290,9.551026340,-0.119420870,0.026889140,0.026991970
1640790708.584830,0.102495940,0.580950920,9.463253970,-0.108934960,0.027193130,0.028263040
1640790708.585800,-0.213003950,0.682837840,10.434514050,-0.111560540,-0.021044920,0.027051570
1640790708.589930,-0.031640020,0.671706970,9.731979370,-0.134211790,-0.035718080,0.042098760
1640790708.591730,-0.038842560,0.715491590,9.506108280,-0.129449370,-0.031711160,0.042772300
1640790708.594780,-0.447136250,0.578376530,10.223097800,-0.135737660,-0.007843970,0.050689280
1640790708.595740,-0.206127180,0.576714630,9.672447200,-0.156155230,-0.030389430,0.071303550
1640790708.599860,-0.172164400,0.434265520,9.588144300,-0.153389570,-0.051890320,0.048801300
1640790708.600740,-0.055213150,0.244703380,9.751723290,-0.155407160,0.013682250,0.045759970
1640790708.604910,0.142037640,0.400715890,9.653742790,-0.150026400,0.035133960,0.042790180
1640790708.606050,-0.151561690,0.308891860,10.405266760,-0.170381370,-0.062094630,0.031942130
1640790708.609960,0.118077170,0.113686570,9.767380710,-0.184594110,-0.064384940,0.047233700
1640790708.610990,0.217577560,0.244405330,9.006958960,-0.134930030,-0.019122660,0.031240280
1640790708.614820,0.046543010,0.078298680,9.844265940,-0.134119390,0.029519200,0.044912100
1640790708.615720,0.059001490,0.195440280,9.879485130,-0.149387140,0.052915510,0.061346600
1640790708.620210,-0.135309380,0.120490460,9.958153720,-0.139664110,-0.088298330,0.040006640
1640790708.621420,-0.163379010,-0.118835040,9.607393260,-0.139346720,-0.074353810,0.062441830
1640790708.625500,-0.055331900,0.189678480,8.850238800,-0.118327160,0.026574740,0.043593350
1640790708.626790,-0.307179630,0.113374740,10.036927220,-0.134319070,0.025455660,0.020055470
1640790708.629830,-0.109331100,0.202816490,10.060169220,-0.143006440,0.015479330,0.030258300
1640790708.630760,-0.023902380,0.214008820,9.556145670,-0.085200380,-0.048138200,0.021086630
1640790708.634870,-0.209115740,-0.098924990,9.875507350,-0.068695830,-0.044290720,0.030528000
1640790708.637040,-0.205028340,0.005181310,9.340028760,-0.055730340,-0.017575920,0.041846930
1640790708.640080,-0.244751010,-0.187264380,9.460997580,-0.070820740,-0.043235710,0.012466310
1640790708.641790,-0.070128490,-0.107963380,9.593067170,-0.095988810,0.003510710,0.033080580
1640790708.644890,0.145554380,0.241762070,9.519262310,-0.052912540,0.042831910,0.029349330
1640790708.645840,-0.071140130,0.186819580,10.535666470,-0.055046380,-0.005131960,0.012591480
1640790708.649830,-0.166949180,0.507931950,10.136622430,-0.058653950,-0.080162290,0.031650070
1640790708.650870,-0.299096260,0.453115400,9.231500630,-0.036464630,-0.118656450,0.018607080
1640790708.655480,-0.374268860,0.237291890,9.307909010,-0.056378540,-0.027610360,0.013206900
1640790708.656290,-0.458733650,0.639924820,9.796312330,-0.040957330,0.038823490,0.025253000
1640790708.660470,-0.455318300,0.609267000,10.461791990,-0.084476180,-0.055904690,0.019370020
1640790708.660940,-0.093875250,0.508605720,9.952198030,-0.111767660,-0.099807990,0.036108490
1640790708.664830,0.135471390,0.510421810,9.468455310,-0.061796610,-0.037197770,0.035460290
1640790708.665770,0.049077350,0.273618700,9.879696850,-0.052888690,0.003257390,0.011397900
1640790708.670330,-0.005189650,0.561966180,10.058000560,-0.082439190,-0.069726990,0.030361120
1640790708.672300,0.045569250,0.536258640,9.647535320,-0.142888740,-0.115601730,0.028708580
1640790708.675490,0.199327900,0.263678340,9.191266060,-0.161328960,-0.038160390,0.014095010
1640790708.676040,-0.083330650,0.457690720,10.002183910,-0.089423370,0.008949640,0.025884810
1640790708.679900,-0.260884400,0.296491740,10.206118580,-0.063465540,-0.040853020,0.015851860
1640790708.680800,-0.211569250,0.251173620,9.912850380,-0.093869860,-0.128898020,0.024937100
1640790708.684900,-0.211294610,0.511204060,9.513206480,-0.140047070,-0.057755420,0.052054230
1640790708.686170,0.064801750,0.220610040,9.121914860,-0.173990460,0.008571150,0.039902340
1640790708.691790,0.039950530,0.126152530,10.159771920,-0.109004970,-0.005309280,0.036703050
1640790708.692670,0.183931480,0.166008200,9.804887770,-0.042030220,0.001935660,0.007753070
1640790708.694810,0.299529970,-0.005647770,9.632299420,-0.059147180,-0.106877090,0.004619360
1640790708.695740,-0.092754130,0.095417310,9.996985440,-0.114747880,-0.037172430,0.038716200
1640790708.699930,-0.070326670,-0.123519910,9.244189260,-0.139997910,-0.032287840,0.020495060
1640790708.701870,-0.331117510,-0.328991320,10.106966020,-0.068643690,-0.079280150,0.017283860
1640790708.705080,-0.249761430,0.102429900,9.415811540,-0.011369590,0.023636220,0.007538500
1640790708.706590,0.079749850,0.179892660,9.243097310,-0.038965050,-0.018030410,-0.001268090
1640790708.710080,-0.266617420,0.251445650,10.635766980,-0.085593760,0.003421310,0.021551550
1640790708.710980,-0.008736330,0.326357250,9.522927280,-0.086481870,-0.053682920,0.020879510
1640790708.714870,-0.083795670,0.038205490,9.780553820,-0.012131040,-0.153855980,0.016213960
1640790708.715820,-0.230674580,0.187466040,9.551305770,0.014537570,0.016987320,0.003550950
1640790708.719830,-0.002133770,0.315223370,9.342877390,-0.028400120,0.004602970,-0.007173420
1640790708.720790,-0.462846130,0.261097940,10.886378290,-0.070434810,-0.069105630,-0.002186000
1640790708.724900,-0.080128050,0.454394610,9.396621700,-0.073151300,-0.071135160,0.002010170
1640790708.726680,0.072906910,0.472580050,9.343038560,-0.038100780,-0.093983100,-0.002753730
1640790708.729800,-0.311158090,0.529648660,10.299059870,-0.018964710,0.028251110,0.001695750
1640790708.730790,-0.000189000,0.756691100,9.652503010,-0.060591110,-0.041624910,0.008723140
1640790708.734800,-0.193525600,0.590612890,10.270995140,-0.090777870,-0.142137720,0.018005070
1640790708.735740,-0.053850130,0.479591790,9.541713710,-0.094738590,-0.046402210,0.013598800
1640790708.739900,0.181355360,0.589327160,9.271809580,-0.082969670,-0.026296080,0.008556250
1640790708.740850,-0.283105910,0.417476240,10.600048070,-0.085526700,-0.042173270,0.001198050
1640790708.744860,0.034543080,0.358386400,9.704226490,-0.098931770,-0.066734840,0.004912910
1640790708.745760,0.085493620,0.415936200,9.513067250,-0.102126600,-0.106897960,-0.000457470
1640790708.749810,-0.104279640,0.429182110,9.806886670,-0.133290890,-0.017841160,0.002150240
1640790708.750780,0.216550040,0.463933910,9.518304820,-0.156572460,-0.008897480,0.007922950
1640790708.754890,0.065760350,0.244250770,10.038602830,-0.109918420,-0.039869550,-0.010794400
1640790708.755790,0.094677430,0.126983110,9.803746220,-0.064520550,-0.046685340,-0.013677780
1640790708.759840,0.161820410,0.282391250,9.375620840,-0.078102950,-0.031563640,0.007048250
1640790708.760780,-0.376109180,-0.004907440,10.045287130,-0.133869050,-0.055861470,0.010739270
1640790708.765010,-0.182207030,-0.276932180,9.665587430,-0.126233700,-0.068104270,0.003187360
1640790708.765790,-0.099940740,-0.076476660,9.130066870,-0.040951370,-0.028227270,-0.019839410
1640790708.769840,-0.053904010,-0.084421310,9.665602680,-0.041662170,0.020128490,-0.028668350
1640790708.771390,0.139098110,0.301900890,9.970128060,-0.086183850,0.049766910,-0.016514960
1640790708.775700,-0.056760720,0.290109010,10.166202550,-0.090353200,-0.075691940,-0.021444260
1640790708.776080,-0.040362820,0.032743130,9.748225210,-0.062008210,-0.126521290,-0.004640220
1640790708.779900,-0.072366540,0.198978360,8.868448260,0.003850460,-0.034064060,-0.009547170
1640790708.781490,-0.314539160,-0.013572880,9.627811430,-0.008308890,0.001017750,-0.034852330
1640790708.784850,-0.289750900,0.117994810,10.141548160,-0.054460770,-0.006613140,-0.025492910
1640790708.785750,-0.258767750,0.266952630,9.685629840,-0.055116420,-0.071124740,-0.026385490
1640790708.789990,-0.097245740,0.044441630,9.773601530,-0.049258770,-0.077898800,-0.024379790
1640790708.791130,-0.029401400,0.442711000,9.591683390,-0.009968870,0.018891690,-0.025489930
1640790708.794810,-0.097328730,0.462884960,9.887790680,-0.017374750,-0.036680700,-0.042095780
1640790708.795870,-0.073058290,0.404004600,10.077315330,-0.045804670,-0.077936050,-0.020992750
1640790708.799820,0.013945110,0.601400380,9.381302830,-0.038877120,-0.058527290,-0.038394320
1640790708.800760,-0.125054580,0.509261850,9.882492070,-0.063642870,-0.044010580,-0.042535360
1640790708.804880,-0.309231220,0.531708000,10.248904230,-0.072889040,-0.050838290,-0.022070120
1640790708.805760,-0.131863070,0.423939050,9.643682480,-0.031891470,-0.082549460,-0.032879420
1640790708.809820,-0.060843450,0.338854730,9.789659500,-0.049315400,-0.043681260,-0.043496490
1640790708.810800,0.014919290,0.661546350,9.858674050,-0.071622430,0.011259320,-0.033837560
1640790708.814960,-0.026957440,0.724432050,10.177157400,-0.132128610,-0.056786840,-0.039751840
1640790708.815810,0.127237310,0.518991950,9.867591860,-0.131984080,-0.103592890,-0.031436990
1640790708.819920,0.143510770,0.509342850,9.402842520,-0.061251230,-0.047834220,-0.035232310
1640790708.820820,0.051053820,0.468823130,9.557970050,-0.056980550,-0.000393390,-0.041472910
1640790708.824780,-0.189840750,0.347493080,10.268804550,-0.096580390,-0.042140490,-0.017029050
1640790708.825760,-0.243743460,0.304169830,10.009407040,-0.146849450,-0.069899860,-0.022026900
1640790708.829880,-0.055845050,0.097410220,9.444320680,-0.131925940,-0.076730560,-0.028787560
1640790708.830860,-0.039168850,0.243334230,9.624663350,-0.082215670,-0.001004340,-0.024360420
1640790708.834820,0.296421050,0.486342970,9.294782640,-0.103741880,0.061950090,-0.050294400
1640790708.835780,0.296759430,0.266075130,10.121456150,-0.129561140,-0.006434320,-0.056444110
1640790708.840900,0.106845250,0.267625510,10.044099810,-0.109618890,-0.041425220,-0.043021150
1640790708.841540,0.066501580,0.074315090,9.203772540,-0.075194240,-0.089521710,-0.046595930
1640790708.846690,-0.348692800,-0.220555570,9.863180160,-0.064276170,-0.061018770,-0.028514870
1640790708.847180,-0.316119670,-0.056802100,9.324924470,-0.085426850,0.047832720,-0.043000280
1640790708.849790,-0.085936610,-0.205138300,9.585850720,-0.080990780,0.005522370,-0.051750250
1640790708.850780,-0.188119680,-0.179307760,10.257453920,-0.052371630,0.034773350,-0.044851010
1640790708.854860,0.147022810,0.215544830,9.371279720,-0.026109820,-0.006431340,-0.065626200
1640790708.855840,-0.089633180,0.003422650,10.024621960,-0.025138260,-0.098018360,-0.054492060
1640790708.860020,0.033235150,0.159661340,9.169276240,-0.031742450,-0.000731650,-0.057826940
1640790708.861300,0.160259520,0.065729090,9.047116280,-0.002968310,0.017118460,-0.070957840
1640790708.864790,-0.280509800,-0.160464420,10.721090320,0.014653800,0.039161730,-0.079666070
1640790708.865760,-0.106982860,0.160909940,9.828371050,0.023895500,-0.032551590,-0.073219840
1640790708.872300,-0.185941030,0.006928430,9.632987980,0.023731590,-0.120392450,-0.057087840
1640790708.873180,-0.258880910,0.047152220,9.412901880,0.007347760,0.027418140,-0.038540370
1640790708.875400,-0.033454830,0.226950940,9.267375950,0.036746260,0.049234940,-0.056961180
1640790708.879910,-0.376572310,0.167422150,10.581533430,0.047256060,-0.032107530,-0.069294870
1640790708.880550,-0.021209010,0.522741500,9.619757650,0.027289990,-0.042936210,-0.070838630
1640790708.881190,0.050778400,0.658639730,9.504074100,0.007472930,-0.049750510,-0.076453400
1640790708.884820,-0.233003360,0.529016490,10.339184760,-0.019696360,0.009410090,-0.075098890
1640790708.885770,-0.081818110,0.635147990,9.811450960,0.030712790,-0.017151240,-0.065290930
1640790708.890910,-0.216387120,0.442178490,9.934270860,0.052291160,-0.097611570,-0.072680410
1640790708.891490,-0.028650990,0.459330140,9.466166500,-0.001133980,0.000426170,-0.057852270
1640790708.894820,0.097095420,0.655416130,9.653179170,-0.033697490,0.036934020,-0.049266230
1640790708.895800,-0.123573880,0.399360300,10.540701870,-0.065089760,-0.026117270,-0.051951410
1640790708.899780,0.282025580,0.469732110,9.681175230,-0.027425590,-0.048336390,-0.062051420
1640790708.900830,0.256338570,0.448731390,9.557039260,0.007392470,0.004933770,-0.083722180
1640790708.904860,-0.035341390,0.404709490,10.054824830,-0.026063620,0.044460590,-0.075325380
1640790708.905790,-0.199618640,0.473854180,10.150597570,-0.055749710,-0.054326660,-0.048960750
1640790708.909920,-0.218583970,0.132866980,9.517643930,-0.069250170,-0.071759530,-0.067117810
1640790708.914600,0.056196410,0.174667540,9.180386540,-0.030364100,0.004640220,-0.053671010
1640790708.915170,0.175830110,0.356893870,9.684087750,-0.005921720,0.128939750,-0.052602600
1640790708.915780,0.280507710,0.183240890,10.216144560,-0.038272140,0.064545880,-0.065363950
1640790708.919850,0.354855510,0.121318700,10.398392680,-0.032931570,-0.032663350,-0.050653520
1640790708.921630,0.292625760,-0.010519400,9.304464340,-0.003372130,-0.007982550,-0.067619980
1640790708.927070,0.118230330,-0.098700880,9.247716900,-0.004844370,-0.007686020,-0.071220110
1640790708.927790,-0.145125670,-0.009564080,9.731774330,-0.007653240,0.088767710,-0.071951750
1640790708.929780,-0.107623080,-0.097283310,9.441161160,-0.007247920,0.060975560,-0.105491280
1640790708.930760,-0.197947520,0.025336190,10.248316760,0.030036270,-0.005985800,-0.077088180
1640790708.934780,-0.103955920,0.239047410,9.514649390,0.033396480,0.098851320,-0.064159940
1640790708.935740,-0.092618370,0.007462560,9.776250840,0.024701660,0.005513430,-0.058673320
1640790708.942140,-0.293821360,0.020597850,10.286353110,0.056827080,0.039543220,-0.052262850
1640790708.945220,0.172402620,0.014987720,8.699541090,0.063240530,0.043894350,-0.079524520
1640790708.945840,0.077991060,-0.067476570,9.842321400,0.068914900,0.044262410,-0.085546080
1640790708.946240,0.039147340,0.201660420,9.977187160,0.062495480,0.154349210,-0.086112320
1640790708.949840,0.021311250,0.223193760,9.911736490,0.056739160,-0.038763880,-0.093434750
1640790708.950800,-0.331693050,0.244255450,10.362504010,0.068995360,-0.040994590,-0.068971510
1640790708.954920,0.020699050,0.373920290,8.723449710,0.074541580,0.095012780,-0.074343390
1640790708.955880,-0.246211050,0.324049950,10.176742550,0.085353850,0.061342130,-0.085110970
1640790708.961280,-0.416080300,0.657051270,10.504859920,0.053715710,0.092269490,-0.073233250
1640790708.961900,0.125509780,0.791197360,9.181859970,0.007380550,-0.038744510,-0.084874040
1640790708.964780,-0.098137730,0.613906200,10.077950480,0.016653540,0.007294120,-0.073607290
1640790708.965760,0.070468780,0.635332820,9.421595570,0.042453410,0.131620480,-0.079515580
1640790708.969810,0.031889850,0.565530480,10.105175970,0.055216250,0.017015640,-0.091388810
1640790708.975800,-0.237919230,0.486563980,10.623703960,0.014543530,0.023354590,-0.069408120
1640790708.976970,0.267101880,0.584593650,9.053780560,-0.039048490,0.024656960,-0.069729980
1640790708.977550,-0.055506080,0.460557040,10.172265050,-0.053912400,0.025589760,-0.057864190
1640790708.980960,-0.063630450,0.351341720,9.863638880,-0.019611420,0.106100720,-0.057430570
1640790708.981760,0.278026250,0.377939460,9.417240140,0.023840370,0.013411050,-0.081869980
1640790708.984760,-0.097332950,0.407817540,10.235040660,-0.006827710,0.058236710,-0.080396220
1640790708.985770,0.112563580,0.565251530,9.440876960,-0.078907610,0.101871800,-0.061373420
1640790708.989980,-0.192778300,0.316706540,10.247774120,-0.096341970,-0.014890730,-0.066255030
1640790708.991000,-0.253000350,0.071383560,9.835694310,-0.030384960,0.031165780,-0.061136490
1640790708.994800,0.263743310,0.169259010,8.747042660,0.031080850,0.084912780,-0.080354530
1640790708.995750,-0.037327120,0.166903410,10.221521380,-0.001688300,0.141279400,-0.067941840
1640790708.999780,0.187345100,0.102597930,10.094949720,-0.065511470,0.112138690,-0.043728940
1640790709.000770,0.224559310,-0.125637110,9.957359310,-0.043660400,-0.011132660,-0.063045330
1640790709.005000,-0.120274700,-0.259754330,9.717019080,0.023885070,0.026543440,-0.077323610
1640790709.005890,0.042675030,0.006501570,8.754427910,0.049659620,0.081190490,-0.078737760
1640790709.010090,-0.380639230,0.059039100,9.971434590,0.001491610,0.117510560,-0.088782610
1640790709.010820,-0.398482020,0.091548160,10.214418410,-0.031137470,0.085793430,-0.068202610
1640790709.014820,-0.118660860,0.136975780,9.743238450,0.023722650,0.012056530,-0.064866240
1640790709.015810,-0.402240040,0.074803530,9.911606790,0.067742190,0.055497890,-0.063352290
1640790709.020610,-0.081562680,0.324457080,9.492456440,0.057545320,0.090153520,-0.066331040
1640790709.021690,-0.195744540,0.352742580,9.956213950,0.021427870,0.077888350,-0.062410530
1640790709.026440,-0.039172820,0.324491020,9.885766030,-0.005173680,0.027467310,-0.060366100
1640790709.027150,0.292509200,0.522703230,9.385495190,0.032058360,0.062976780,-0.055629010
1640790709.029850,-0.083608490,0.394368170,10.070274350,0.039219860,0.079898540,-0.076876580
1640790709.030800,-0.210911120,0.475706010,10.338911060,0.029852980,0.039076800,-0.047954910
1640790709.034890,-0.452772050,0.439605770,9.890567780,0.029867890,-0.028315190,-0.048924980
1640790709.035810,-0.389857650,0.304645960,9.454617500,-0.009453300,0.003702940,-0.051414970
1640790709.040060,-0.191752660,0.719042480,9.601483350,-0.017409030,0.108274820,-0.032214820
1640790709.040930,-0.253785640,0.639641700,10.229332920,-0.034601990,0.101816680,-0.042200090
1640790709.044850,0.006455240,0.520610330,10.280995370,-0.022070110,-0.009323660,-0.032936040
1640790709.045760,0.155597850,0.557117940,9.591224670,0.023815040,0.014668700,-0.047101080
1640790709.049830,0.054432050,0.347711620,9.563175200,-0.019146500,0.036068260,-0.048959260
1640790709.050860,-0.083631370,0.471263290,10.007807730,-0.063329940,0.030793250,-0.008890030
1640790709.055200,-0.082137020,0.125521290,9.699819560,-0.072979910,0.034309930,-0.032399590
1640790709.055990,0.117906000,-0.047387760,9.645494460,-0.033803280,0.021557510,-0.028412040
1640790709.059790,0.111110310,0.324083210,9.728886600,0.025910140,0.104562950,-0.030189760
1640790709.060860,0.009591000,0.245259630,9.784893040,-0.032266970,0.070664290,-0.037702920
1640790709.064760,-0.098150260,0.294899850,10.222209930,-0.073178110,-0.006045400,-0.006444750
1640790709.065820,-0.202525540,0.159306590,9.435304640,-0.040850050,0.025187430,-0.036832690
1640790709.069930,-0.187412200,-0.050177630,9.268623350,0.010810790,0.002694130,-0.043720010
1640790709.072360,-0.254040810,0.322960640,9.741488460,0.018894670,0.111028570,-0.032016640
1640790709.074850,-0.210677330,0.089263340,9.821581840,-0.027614830,0.099028650,-0.049354130
1640790709.076120,-0.278880920,-0.052585670,10.505178450,-0.027537350,-0.043199960,-0.009191040
1640790709.079820,-0.165435610,0.099934010,9.310819630,0.020386270,0.013880430,-0.006780030
1640790709.080800,-0.006767080,-0.163973260,9.105725290,0.018829110,0.013312700,-0.022017960
1640790709.085290,-0.263818170,0.187851290,10.211343770,0.014123320,0.096997600,-0.011558830
1640790709.085960,-0.085745400,0.268451510,9.541172980,-0.005137920,0.037781890,-0.048786390
1640790709.089920,-0.013254780,0.139556360,10.067924500,0.015833970,-0.070828210,-0.032103060
1640790709.090900,-0.187475490,0.523859380,9.712507250,0.039301810,0.077159710,-0.026610490
1640790709.094820,-0.298479110,0.377660720,9.808840750,0.012390320,-0.010660290,-0.040084120
1640790709.095830,-0.695704760,0.381140020,10.551403050,0.019223990,-0.057160850,-0.011628870
1640790709.100040,-0.354261790,0.483631520,8.928981780,0.010238590,-0.018100440,-0.029847020
1640790709.101320,-0.235435130,0.339306090,9.702448840,0.002807380,-0.012254710,-0.023365020
1640790709.104960,-0.324337690,0.687286560,10.319076540,-0.021991140,0.092682240,-0.009343030
1640790709.105810,0.074525240,0.630451020,9.810860630,-0.042207540,-0.062994660,-0.026300550
1640790709.109860,-0.006897120,0.382659580,10.354611400,-0.019197170,-0.097608580,-0.000384450
1640790709.110850,0.108236460,0.566785400,9.205017090,-0.011032820,0.022430720,-0.030839440
1640790709.114870,-0.069545410,0.486605380,9.978476520,-0.043781110,-0.052237510,-0.031372910
1640790709.115810,-0.397691970,0.454587490,10.465297700,-0.084626670,-0.032278900,0.003537540
1640790709.121660,0.079754670,0.417712090,9.054038050,-0.078591710,-0.070434810,-0.027702750
1640790709.122480,-0.059596840,0.335489420,10.025434490,-0.048938390,-0.032992660,-0.017187000
1640790709.125020,-0.022501020,0.544748840,9.654772760,-0.056111810,0.073033580,-0.010035930
1640790709.125800,-0.071211070,0.371158690,10.119070050,-0.074011090,-0.094193220,-0.025716420
1640790709.129810,-0.281259270,0.168701620,10.334241870,-0.078643860,-0.090743610,0.002700090
1640790709.130810,0.147443260,0.241728430,8.608188630,-0.058580930,-0.042709700,-0.013072790
1640790709.134820,-0.039235270,0.087680180,9.837666510,-0.064070510,-0.009979310,-0.020554660
1640790709.135810,-0.038117130,0.071045130,9.989714620,-0.072935210,0.083765390,-0.000539420
1640790709.140310,0.097880870,-0.027882700,9.801888470,-0.033059710,-0.088150790,-0.024032590
1640790709.141880,-0.202595530,-0.071096860,10.228570940,-0.023020800,-0.099448860,-0.015334790
1640790709.144860,0.139506730,0.298432950,8.552593230,-0.054436930,-0.012926760,-0.000208620
1640790709.145790,-0.076834900,0.118309860,9.782094960,-0.081717960,-0.008578600,-0.019092850
1640790709.149860,-0.176675990,0.121972900,10.202477460,-0.057847800,0.056798760,-0.024421510
1640790709.150870,0.089366010,0.231501700,9.469203950,0.022839010,-0.078882280,-0.022336840
1640790709.154860,-0.351164340,-0.019122990,10.232122420,0.038163360,-0.081373760,-0.020909310
1640790709.155840,-0.182904050,0.171990390,9.214843750,-0.031217930,-0.014470520,-0.001877550
1640790709.159780,-0.399683890,-0.057281120,9.852711680,-0.039748850,-0.064380470,-0.005443390
1640790709.160800,-0.425245230,-0.191012890,10.000303270,-0.005081300,-0.033079090,-0.024254620
1640790709.165160,0.133734450,0.322283030,9.078623770,0.048910080,-0.021913650,-0.033538040
1640790709.165840,-0.075652360,0.500161470,10.211491580,0.006556510,-0.010876360,-0.028339030
1640790709.170210,0.084975620,0.625462530,10.017332080,-0.065469730,-0.023457410,-0.007671120
1640790709.171290,0.080765170,0.613440040,9.739622120,-0.025981660,-0.119861960,-0.009706620
1640790709.174780,-0.230499680,0.328244480,9.936790470,0.014042860,-0.078880790,-0.023151940
1640790709.175830,-0.152275100,0.527329440,9.450097080,0.033320490,-0.025106970,-0.013747810
1640790709.179930,-0.573430660,0.483609410,10.330756190,-0.029212240,-0.076127050,-0.017566980
1640790709.180850,-0.348101650,0.293267430,9.896784780,-0.092698630,-0.078131250,-0.000676510
1640790709.184860,-0.076047500,0.468020800,9.434329030,-0.049532950,-0.064496700,-0.004413720
1640790709.185770,-0.139643820,0.402411910,10.066383360,-0.033152100,-0.023214520,-0.025807320
1640790709.191450,0.097616980,0.655886410,9.849929810,-0.049008430,-0.035373870,0.000976030
1640790709.191960,-0.011261530,0.670360620,10.026232720,-0.072078410,-0.122733410,-0.005331640
1640790709.194760,0.093985540,0.465434040,9.698719980,-0.116553900,-0.093217200,-0.000210110
1640790709.195840,0.157518190,0.620879830,9.447809220,-0.087627750,-0.037743150,0.021485990
1640790709.199830,-0.037785370,0.340575780,10.075584410,-0.091284510,-0.030657650,-0.006218260
1640790709.200800,0.031825650,0.205128310,9.968879700,-0.083751980,-0.051546100,-0.000803170
1640790709.204950,-0.022105340,0.239916560,9.571568490,-0.058208410,-0.084768240,0.000286100
1640790709.205800,-0.119190310,0.091075180,9.589672090,-0.110113630,-0.075420740,-0.004409250
1640790709.209780,-0.041411070,0.191588150,9.565946580,-0.126856580,-0.032831720,0.007966160
1640790709.210850,-0.062125930,0.101273400,9.663402560,-0.096882890,-0.029794880,-0.017754730
1640790709.214860,0.046159050,0.077664110,9.859609600,-0.061522420,-0.048293180,-0.015507640
1640790709.215810,0.053078060,0.253717690,9.793127060,-0.038769840,-0.001238290,-0.000596050
1640790709.219970,-0.130933120,0.076689890,9.976141930,-0.080065430,-0.076571100,-0.010013580
1640790709.220880,-0.222012060,-0.077769380,9.907731060,-0.071234990,-0.105175380,0.015862280
1640790709.224790,-0.078472590,-0.141661930,8.887039180,-0.043328110,-0.039362910,-0.012816490
1640790709.225800,-0.091236750,-0.182867940,9.559458730,-0.021952390,-0.019891560,-0.029477480
1640790709.229830,-0.057610650,0.080684710,10.055357930,-0.018425290,0.025264920,-0.026781860
1640790709.230820,0.043569470,0.201979210,9.829296110,-0.055330980,-0.079700340,-0.033380090
1640790709.235270,-0.052838200,0.042714050,10.078965190,-0.032328070,-0.098714230,-0.004744530
1640790709.236640,-0.079208810,0.043647490,9.440066340,0.012157860,-0.015187260,-0.009174640
1640790709.240610,-0.364510740,0.051727540,9.937988280,0.041708350,-0.091336650,-0.022228060
1640790709.241100,-0.471290590,0.233527240,9.997540470,0.004810100,-0.068552800,-0.009083750
1640790709.245190,-0.088896750,0.441942510,9.032492640,-0.056117770,-0.058957950,-0.020268560
1640790709.245990,-0.169571280,0.276468100,10.101040840,-0.027896470,-0.031434000,-0.030270220
1640790709.249820,0.009342640,0.539204000,10.110788350,0.009499490,0.009529290,-0.036059320
1640790709.250810,0.041026280,0.734072390,9.980091090,0.014150150,-0.125859690,-0.041499740
1640790709.254930,-0.123280930,0.562820490,10.094719890,-0.038066510,-0.119116900,-0.023087860
1640790709.255840,0.065289570,0.611798410,9.075631140,-0.081875930,-0.030650200,-0.015178320
1640790709.259980,-0.241633090,0.442660360,10.145101550,-0.053367020,-0.075492270,-0.008223950
1640790709.261300,-0.159992040,0.243792310,10.264134410,-0.024753810,-0.038231910,0.001944600
1640790709.264830,0.120659570,0.342029210,9.403842930,-0.021359320,-0.081089150,-0.024524330
1640790709.265830,-0.098927510,0.200506340,10.294477460,-0.058145820,-0.065968930,-0.013272460
1640790709.270020,0.078824540,0.357425720,9.704067230,-0.099535300,0.008718670,-0.006324050
1640790709.270860,-0.008732520,0.341285530,9.884358410,-0.087964520,-0.132490660,-0.023336710
1640790709.274890,0.064393650,0.353274110,9.846383090,-0.069443880,-0.075906520,-0.013601780
1640790709.275950,0.425810100,0.656658590,8.876184460,-0.058494510,0.018961730,-0.015671550
1640790709.280450,0.096726510,0.285872820,10.339958190,-0.073505930,-0.016112630,-0.007189810
1640790709.281040,0.097001140,0.179849980,10.168043140,-0.067041810,-0.013272460,0.006443260
1640790709.285150,0.041634750,0.020916900,9.521829610,-0.035808970,-0.122517340,-0.016918770
1640790709.286440,-0.195612340,-0.134744240,9.713508610,-0.057512530,-0.065210450,-0.000247360
1640790709.290510,0.092705180,0.085791450,9.022348400,-0.078733270,0.050027660,-0.009225310
1640790709.291130,0.024865430,-0.179174530,9.970549580,-0.062137840,0.029131770,-0.034150480
1640790709.294920,0.075716530,0.040697880,10.315607070,-0.026558340,0.007025900,-0.027674440
1640790709.295810,0.259326160,0.238781820,9.348544120,0.014334920,-0.046983360,-0.025138260
1640790709.299770,-0.150288570,-0.048167140,9.934006690,-0.024278460,-0.065632170,-0.014919040
1640790709.300850,-0.161948340,0.121717320,9.458771710,-0.027245290,-0.001935660,-0.001952050
1640790709.304910,-0.178662810,-0.077167120,9.297819140,0.001490120,-0.016248220,-0.030702350
1640790709.305820,-0.236025710,0.007718540,10.051697730,0.009676810,0.019802150,-0.018614530
1640790709.310010,-0.040907820,0.368523780,9.697535510,0.024233750,0.047020610,-0.031976400
1640790709.310950,-0.178057540,0.174655840,10.305879590,-0.015755000,-0.071567300,-0.033441190
1640790709.314790,-0.154726670,0.319564160,9.789964680,-0.000652670,-0.052820150,-0.005364420
1640790709.315830,-0.023349030,0.107902250,8.983794210,0.038032230,-0.020466750,-0.031885510
1640790709.323660,-0.257441820,0.031772090,10.177413940,0.036199380,0.007073580,-0.028280910
1640790709.324260,-0.285645340,0.438205900,9.986140250,0.036601720,-0.000746550,-0.029727820
1640790709.326770,-0.153950300,0.255961980,9.761897090,-0.028201940,-0.103497530,-0.049665580
1640790709.327670,-0.180934300,0.511563240,9.919008260,-0.032393640,-0.034262230,-0.015273690
1640790709.329810,-0.005880870,0.623164420,9.500000000,0.009463730,0.021778050,-0.026288630
1640790709.330870,-0.189330310,0.530765180,10.436685560,0.007478890,-0.049929320,-0.026594100
1640790709.335190,-0.133018360,0.825395230,9.939212800,-0.002740320,-0.057472290,-0.003947320
1640790709.336510,0.134097680,0.582390550,9.294265750,-0.059741740,-0.066895780,-0.032386180
1640790709.341040,-0.118809020,0.560768720,10.174245830,-0.077891360,-0.013417010,-0.004661080
1640790709.342640,-0.048638250,0.467229550,9.830430030,-0.047214330,-0.014546510,-0.010813770
1640790709.344820,0.064437380,0.095635480,9.954465870,-0.029461090,-0.075511650,-0.036713490
1640790709.345850,-0.070000130,0.317143110,9.867752080,-0.018052760,-0.019609930,-0.016795100
1640790709.349830,0.091421600,0.354447390,9.458433150,-0.082293150,-0.014723840,-0.022888180
1640790709.350880,-0.163941550,0.134235930,10.318300250,-0.116080070,-0.055374210,-0.008349120
1640790709.354920,0.065616770,0.246606200,9.474949840,-0.055746740,-0.038602950,-0.007158520
1640790709.356250,0.322127910,0.201388080,9.317511560,-0.019440050,-0.012831390,-0.024279950
1640790709.360180,0.118872480,0.319502410,10.111152650,-0.034043190,0.067569320,0.000362100
1640790709.360950,0.171365870,0.335228260,9.889157300,-0.068819520,0.022353230,0.008076430
1640790709.364800,-0.092609110,-0.097836370,10.318717000,-0.067472460,-0.105260330,-0.005047020
1640790709.365860,-0.129062640,-0.083594790,9.244585990,-0.015603010,-0.048393010,-0.006960330
1640790709.369900,0.088627880,-0.012423870,8.752796170,-0.004085900,0.014381110,-0.016662470
1640790709.371920,-0.118174690,-0.119870400,10.085715290,-0.026062130,0.111602250,-0.013595820
1640790709.375610,0.130744410,0.035436710,9.990300180,-0.024850670,0.050197550,-0.025829670
1640790709.376800,0.127269730,0.032927440,10.083774570,0.009195510,-0.060217090,-0.026692450
1640790709.380430,-0.026996900,-0.038512630,9.588900570,0.031995770,-0.008858740,-0.002641980
1640790709.380890,-0.029474660,-0.006354250,9.202533720,0.037030870,0.005447860,0.000077490
1640790709.385210,-0.368470250,-0.238247140,9.921793940,0.049127650,0.026622420,-0.017383700
1640790709.386400,-0.121465180,-0.149482890,9.446658130,0.056907530,0.027044120,-0.010804830
1640790709.390190,-0.018653540,0.073924680,9.651962280,0.071538980,0.019541380,-0.014185910
1640790709.390860,-0.151778410,0.057589080,10.129613880,0.056427720,0.038094820,-0.014185910
1640790709.394830,-0.008332200,0.305324170,9.871603010,0.061810020,-0.022709370,-0.007340310
1640790709.395830,-0.139179160,0.298335280,9.697718620,0.086662170,-0.019431110,-0.019450490
1640790709.401160,-0.020678520,0.201402840,9.476514820,0.088539720,0.014834110,-0.015676020
1640790709.402460,-0.181350950,0.423066740,9.843311310,0.104342420,0.034895540,-0.025856500
1640790709.404960,-0.475578900,0.290340960,10.216714860,0.059522690,-0.032748280,-0.034774840
1640790709.405830,-0.185770350,0.362143610,9.663226130,0.055736310,-0.072422630,0.009082260
1640790709.409870,-0.247326030,0.280257850,9.490208630,0.087915370,0.019532440,-0.014282760
1640790709.410860,-0.150053650,0.276553900,10.078586580,0.073695180,0.036412480,-0.007766490
1640790709.414810,-0.101075370,0.680229900,10.170196530,0.070583810,0.002650920,0.012899940
1640790709.415830,-0.017363060,0.435876160,9.892955780,0.026755040,-0.067783890,-0.018069150
1640790709.419850,0.240248160,0.622624990,9.616172790,0.031493610,-0.007106360,0.008773800
1640790709.420840,0.082670410,0.735829230,9.682704930,0.039729480,0.041489310,-0.008781250
1640790709.424800,0.017886020,0.462115880,10.209589000,0.020091240,-0.028894840,-0.020429490
1640790709.425990,0.090961780,0.597709600,9.820400240,0.035923720,-0.005654990,-0.001752380
1640790709.429780,-0.087217960,0.370911150,9.636343000,0.014507770,-0.009849670,-0.029304630
1640790709.430840,-0.183453250,0.444883380,10.137857440,-0.018315020,-0.009605290,-0.001016260
1640790709.435230,-0.184384410,0.446849500,9.508605000,-0.020860140,0.010585790,0.014120340
1640790709.436080,0.039043230,0.030835400,9.538607600,-0.001442430,-0.016357010,-0.005634130
1640790709.439980,0.162273600,0.290978310,9.704863550,0.034248830,0.088597840,0.005152820
1640790709.442470,0.201951890,0.107831010,9.686061860,0.022734700,0.064671040,-0.007982550
1640790709.444830,0.005389740,-0.121171940,10.597260480,0.003986060,-0.037162010,-0.001378360
1640790709.445890,-0.060275610,0.023100880,9.600384710,0.019423660,-0.020520390,-0.020805000
1640790709.449770,-0.054874770,-0.214131890,9.100216870,0.032262500,-0.044682630,-0.022155050
1640790709.452710,-0.193107690,0.014822990,9.775266650,0.053176290,0.100994120,-0.001755360
1640790709.454970,0.016017200,0.182628140,9.412160870,0.042229890,0.119964780,-0.028382240
1640790709.456160,-0.057252640,0.157367470,10.422513010,0.046217430,-0.023113190,-0.006662310
1640790709.459820,-0.022308310,0.415416870,9.594332700,0.062443320,0.037936860,0.011216100
1640790709.460880,0.062495730,0.085394760,9.173122410,0.057891010,-0.015911460,-0.004929300
1640790709.464810,-0.376898740,0.018452260,10.366207120,0.080436460,0.040724870,-0.006055830
1640790709.465850,-0.198018040,0.081863750,9.178343770,0.091601920,0.053408750,-0.038421150
1640790709.473040,-0.210025910,-0.165967610,9.866963390,0.089144730,-0.038512060,-0.030256810
1640790709.474060,-0.352309290,0.120083990,9.887816430,0.090311470,0.095424060,-0.018960240
1640790709.474770,-0.206783040,0.107688340,9.506342890,0.078590230,-0.025641920,-0.037463010
1640790709.475810,-0.456472670,0.155707780,10.330694200,0.094674530,-0.062204900,0.001062450
1640790709.479850,-0.062935960,0.386458220,8.867497440,0.101681070,0.046595930,-0.009873510
1640790709.480890,-0.017921700,0.295974700,10.020895000,0.101225100,0.028620660,-0.019960110
