timestamp,accel_x,accel_y,accel_z,gyro_x,gyro_y,gyro_z
1640785502006990080,0.049365170,-0.137994950,9.659362790,0.016652050,0.101548430,0.008308890
1640785502009680128,-0.006757660,-0.004210070,10.185959820,-0.016471750,0.113923850,0.018143650
1640785502010159872,0.149821430,0.272114130,9.880568500,-0.027205060,0.035737460,0.017216800
1640785502014950144,-0.041143830,0.206901790,10.013691900,0.003424290,-0.004361570,-0.001244250
1640785502016059904,-0.048739230,0.237364160,9.317621230,0.026464460,0.086355210,-0.016106670
1640785502021420032,-0.278979720,0.203976540,10.032727240,0.071336310,0.080119080,-0.022237000
1640785502022129920,-0.567106900,-0.017880240,10.665327070,0.080578040,0.053632260,-0.022152070
1640785502024859904,-0.289192530,0.192243200,9.663055420,0.048890700,-0.006154180,0.007472930
1640785502025459968,-0.412308040,0.204403700,9.971928600,-0.009685750,0.010085110,0.004376470
1640785502029870080,-0.176197040,0.282946590,9.711709980,-0.035262110,0.120113800,0.002628560
1640785502031459840,-0.001113120,0.523378130,10.070196150,0.038422640,0.044374160,0.003081560
1640785502034979840,-0.109064830,0.565741660,10.564641000,0.058525790,0.011904540,-0.013892350
1640785502037159936,0.375588150,0.722906710,9.416350360,0.022745130,0.034217540,0.001247230
1640785502039739904,0.097099240,0.648993550,10.188773160,0.005668400,0.024478140,0.004246830
1640785502041969920,-0.182030690,0.429550890,10.341377260,-0.029702480,0.065997240,0.019839400
1640785502044960000,-0.092928540,0.318930570,9.760299680,0.000223520,-0.011867290,0.019398330
1640785502045679872,-0.468768270,0.190210130,10.288862230,0.036238130,-0.033622980,0.008040670
1640785502050050048,-0.170382750,0.313603070,9.471793170,0.001871590,0.079573700,0.020122530
1640785502051360000,-0.063035670,0.425132450,9.793980600,-0.041922920,0.045712290,0.023250280
1640785502054800128,-0.062257820,0.259918240,10.435290340,-0.072729590,0.067336860,0.014589730
1640785502055379968,0.440985230,0.420094880,9.677563670,-0.023558740,0.067515670,0.006198880
1640785502059969792,0.127667050,0.306560280,10.360662460,0.040751700,0.001604860,0.015188760
1640785502060709888,0.010951010,0.156075430,9.967304230,-0.000679490,0.020904840,0.010223680
1640785502065039872,0.128179490,-0.001699860,9.319019320,-0.012382860,-0.000756980,0.014661250
1640785502065559808,-0.163395020,-0.286465590,9.916520120,0.015677510,0.058580940,0.012294950
1640785502070060032,0.048386690,-0.073198340,9.645625110,0.020657480,0.138108430,0.010369720
1640785502070969856,-0.152291220,0.065698790,10.383443830,0.015461450,0.041720270,0.017152730
1640785502074720000,-0.282783330,0.075042770,10.379839900,-0.009873510,-0.007183850,0.017479060
1640785502075150080,-0.038144060,0.237217460,9.332917210,0.013370810,0.000606480,0.008678440
1640785502079949824,-0.307695840,0.087166830,9.701883320,0.062502920,0.052949790,-0.009123980
1640785502081049856,-0.223866570,0.074875100,10.097743990,0.082221640,0.095427050,-0.013668840
1640785502084909824,-0.167544050,0.167048390,10.219149590,0.107409070,0.023311380,-0.004424160
1640785502085649920,-0.205852050,0.089081940,10.203765870,0.049145520,-0.019457940,0.013157730
1640785502089659904,-0.023247720,0.283328090,9.730618480,0.006954370,0.031745430,0.018881260
1640785502090309888,-0.175055790,0.274826910,10.053464890,0.042840840,0.035932670,0.008954110
1640785502094720000,-0.131732690,0.350608530,10.282296180,0.076128540,0.013253100,0.000530480
1640785502095140096,0.010174030,0.609440570,9.928049090,0.093212720,0.017988690,-0.000679490
1640785502099920128,0.015279640,0.497262270,9.916585920,0.067748150,0.012004380,0.002054870
1640785502100859904,0.065712350,0.597724200,10.099473950,0.014606120,0.040803840,0.014153120
1640785502104780032,-0.111040700,0.602630500,10.063931470,-0.003929440,0.029881300,0.026091930
1640785502105289984,-0.154099430,0.229819240,10.167671200,0.013637540,-0.021633510,0.032688680
1640785502109710080,-0.126068700,0.203011890,10.001442910,0.084085770,0.006777050,0.019066040
1640785502110240000,-0.103855710,0.149188190,9.535222050,0.093249980,0.034524500,0.015756490
1640785502114859776,0.046539380,0.087958480,9.915322300,0.023418670,0.041057180,0.020684310
1640785502117189888,0.139652150,0.176307040,9.938933370,-0.004163380,0.083193180,0.020897390
1640785502120079872,0.236042500,0.148131620,9.895196910,0.019378960,0.016939640,0.010764600
1640785502120620032,0.069354390,0.347016270,10.214506150,0.056277220,0.000803170,0.014987590
1640785502124679936,-0.080016430,0.320017990,9.672333720,0.051514800,0.025144220,0.003568830
1640785502125039872,-0.048124080,0.055605740,9.725874900,0.048314030,-0.000272690,0.000278650
1640785502129779712,-0.246659870,0.015562130,10.034884450,0.091367970,0.080703210,0.003191830
1640785502132039936,-0.131166380,-0.078201990,9.703520770,0.094877180,0.060105320,0.013417010
1640785502134719744,-0.124161180,0.021075000,10.299504280,0.076499580,0.004862250,0.025460120
1640785502136499968,-0.137138020,0.217580020,9.822961810,0.036484010,0.038450960,0.027216970
1640785502139680000,0.043560590,0.234753470,9.569761280,0.018517670,0.011955200,0.012613830
1640785502140059904,-0.196366800,0.367582590,10.289573670,0.082643340,0.039823360,-0.006629530
1640785502144689920,-0.172397020,0.338410910,9.898729320,0.129172190,0.045941760,-0.018966200
1640785502145519872,-0.137809440,0.417406380,10.198781970,0.132970510,-0.032328070,-0.010776520
1640785502149809920,-0.399857100,0.463965710,10.194438930,0.067067150,0.006534160,0.010521710
1640785502150439936,-0.094904430,0.299856360,9.389136310,0.007286670,0.011180340,0.021539630
1640785502154729728,-0.195629390,0.452048510,10.287041660,0.043188030,0.018855930,0.022143130
1640785502155369984,-0.154091430,0.502088550,10.035868640,0.064691890,0.048239530,0.018098950
1640785502159719936,0.347903910,0.530866440,9.672567370,0.067870320,-0.017367310,0.005081300
1640785502160140032,0.165898260,0.658170340,10.290321350,0.055943430,0.041715790,0.011464950
1640785502165099776,0.163341060,0.542420860,9.924552920,0.003062190,0.063416360,0.009070340
1640785502165999872,0.007229410,0.504455510,10.350586890,-0.001461800,-0.037589670,0.022228060
1640785502169779968,-0.373420600,0.312790390,10.161842350,0.018517670,-0.036425890,0.016556680
1640785502170249984,-0.006556770,0.113314110,9.098047260,0.063128760,-0.010493400,0.019337240
1640785502174880000,-0.135356280,0.273121950,9.807734490,0.055980690,0.067086520,0.017143790
1640785502175510016,-0.032682650,0.183498100,10.068009380,-0.018098950,0.124335300,0.023457410
1640785502179739904,0.336845490,0.200255050,10.190713880,-0.017698110,0.024367870,0.029177970
1640785502180270080,-0.074857510,0.390568760,10.406377790,0.020150840,-0.027219950,0.019457940
1640785502185499904,0.007357560,0.365794990,9.326131820,0.004667040,-0.022554400,0.014132260
1640785502186129920,-0.054532890,0.318953810,9.497851370,0.013157730,0.005774200,0.006742780
1640785502189679872,-0.407255350,-0.003681600,9.908517840,0.043360890,0.079675030,-0.005134940
1640785502190029824,-0.139115620,-0.108651510,9.858325000,0.083953160,0.024570530,0.002843140
1640785502194739712,-0.265281230,0.017120210,10.245671270,0.070634480,0.001144410,0.015768410
1640785502195159808,-0.145598260,-0.013776200,9.850255010,0.006760660,0.023759900,0.029632450
1640785502199810048,0.064694550,0.170678700,9.763423920,0.000755490,-0.004984440,0.035373870
1640785502200499968,-0.209423440,0.345218780,9.797101020,0.022576750,0.021892790,0.003734230
1640785502204699904,0.035292890,0.413199990,9.620497700,0.060319900,0.013941530,-0.003345310
1640785502205119744,-0.123672350,0.619333030,10.255100250,0.086563830,0.022149090,-0.009673830
1640785502209920000,-0.390577500,0.529623030,10.244829180,0.030070550,-0.023566190,-0.001363460
1640785502211089920,-0.251467440,0.357325230,9.945243840,0.004148480,-0.071591150,0.027576090
1640785502219349760,-0.444478360,0.244181510,9.874519350,0.028058890,-0.007353720,0.014215710
1640785502219830016,-0.240719150,0.196346640,9.828898430,0.038538870,0.013412540,0.016121560
1640785502220349952,-0.049175440,0.543857990,10.170933720,0.027544790,0.006195900,0.035798550
1640785502220729856,0.149690370,0.610877450,9.878751750,-0.031112130,-0.008024280,0.029759110
1640785502224829952,0.441929880,0.678187910,9.877777100,-0.054579980,-0.013785060,0.026060640
1640785502225619968,0.226489690,0.849694970,10.173513410,-0.032509870,0.028900800,0.022399420
1640785502230069760,-0.048155330,0.509573340,10.222462650,-0.025421390,-0.056104370,0.010862950
1640785502231429888,-0.094877750,0.401821790,10.106553080,0.017924610,-0.085374710,0.013366340
1640785502234819840,-0.244999220,0.327794100,9.469347000,0.001277030,0.000064080,0.016079840
1640785502235350016,-0.183004510,0.102599840,9.681931500,-0.080610810,0.014680630,0.035825380
1640785502239729920,-0.072950090,0.205053930,10.094754220,-0.093266380,0.067438190,0.040934980
1640785502240199936,0.022636630,0.175912340,9.960335730,-0.064280630,0.018969170,0.027570130
1640785502244799744,0.075087500,0.385069160,10.176978110,-0.028859080,-0.067418820,0.029762090
1640785502245240064,0.072822850,0.479897860,9.549448970,-0.053654610,0.000555810,0.019215050
1640785502249760000,0.202015710,0.039918660,9.452782630,-0.072982910,0.017017130,0.004710260
1640785502250299904,0.005871270,0.003869390,10.353340150,0.003038350,0.048123300,0.006908180
1640785502254659840,-0.007684600,-0.024232250,9.841300010,0.022643810,0.041703880,0.011567770
1640785502255069952,-0.066419850,-0.135976210,10.191406250,-0.021941960,-0.054076320,0.027325750
1640785502259680000,-0.282219080,0.098391850,9.982294080,-0.062131890,-0.003558400,0.038430090
1640785502260079872,-0.141964110,-0.009751740,9.158243180,-0.067338350,-0.007657710,0.009958450
1640785502264989952,-0.174488160,0.244708900,9.985040660,-0.002378230,0.018785890,0.004111230
1640785502265559808,-0.106160690,0.529448150,9.970190050,0.045207150,0.104705990,-0.008772310
1640785502269649920,-0.007357800,0.576932610,10.378764150,-0.006374720,-0.029416380,-0.006152690
1640785502270040064,-0.232109010,0.742500720,10.491840360,-0.059115890,-0.043602290,0.021477050
1640785502274880000,-0.102134960,0.465187670,9.297601700,-0.083111230,-0.012987850,0.015091900
1640785502275660032,-0.267003830,0.238127960,10.037030220,-0.014087560,-0.015395880,0.013789530
1640785502279699968,-0.372442190,0.407081600,10.176039700,0.019282100,0.042465330,0.010664760
1640785502280310016,0.111294210,0.319621470,9.585102080,-0.035399210,-0.011663140,0.023682420
1640785502284780032,0.130487310,0.323702070,10.388665200,-0.075367090,0.006966290,0.025658310
1640785502286239744,0.240909490,0.578511180,9.921611790,-0.097994530,0.074774040,0.020886960
1640785502289860096,0.233981940,0.553245070,10.144769670,-0.101730230,-0.035379830,0.030621890
1640785502291319808,-0.116135430,0.548479380,10.376363750,-0.064337260,-0.026199220,0.011643770
1640785502294809856,-0.058058190,0.472645820,9.393680570,-0.028966370,-0.005814430,-0.002300740
1640785502295800064,-0.221852030,0.359654280,9.977223400,-0.035391750,-0.020709640,0.011527540
1640785502299769856,-0.344560410,0.297355560,9.888252260,-0.103540720,0.077819830,0.016799570
1640785502300379904,0.159440230,0.123332690,9.626207350,-0.122337040,0.035504990,0.018897650
1640785502304699904,-0.047857680,0.184046280,10.560578350,-0.067219150,0.012743470,0.029136240
1640785502305149952,0.061931400,0.337472980,9.669080730,-0.074450670,0.034606460,0.019100310
1640785502309710080,0.189229400,0.204301800,9.800718310,-0.095057490,-0.031682850,0.013738870
1640785502310309888,-0.173668350,0.088181230,10.161787990,-0.071351240,0.035062440,-0.007353720
1640785502315059968,-0.021036750,0.019232470,9.425724030,-0.040759140,0.033439700,-0.021718440
1640785502315739904,-0.293936340,0.021636840,10.487170220,-0.023324790,-0.015860800,-0.010886790
1640785502319699968,-0.380533870,0.179578930,10.033135410,-0.070311130,0.028777120,0.001423060
1640785502320080128,0.038483070,0.238345430,9.608901980,-0.104004150,-0.017298760,0.006657840
1640785502324729856,-0.256888900,0.426679850,10.368198390,-0.085900740,0.050759330,0.005209450
1640785502325249792,-0.119018850,0.584955630,9.840736390,-0.076088320,0.041827560,-0.013868510
1640785502329700096,0.021709480,0.771770180,10.174144740,-0.042535370,-0.052875280,-0.007379050
1640785502330259968,-0.160902460,0.819698690,10.042536740,-0.103358920,0.023442510,-0.000610950
1640785502334800128,0.104305540,0.555970550,9.530093190,-0.148749350,0.014668700,0.000858310
1640785502335439872,-0.206897650,0.377762820,10.559023860,-0.099211930,-0.006166100,-0.006094580
1640785502339749888,-0.278440450,0.207672400,10.000724790,-0.078496340,0.023001440,-0.000782310
1640785502340199936,-0.046540680,0.039567490,9.929545400,-0.089989600,-0.037619470,0.005437430
1640785502344709888,-0.235357270,0.013953820,10.227395060,-0.109736620,0.016175210,-0.002045930
1640785502345199872,0.183239760,-0.055068860,9.381432530,-0.115707520,0.038185710,0.009484590
1640785502349779968,0.287845370,0.207452180,9.973316190,-0.094430130,0.038604430,0.010634960
1640785502350400000,0.153507630,0.366217910,10.078992840,-0.132308900,0.078745190,0.007779900
1640785502354909952,0.280823800,0.270641680,9.947021480,-0.121957060,-0.029340390,0.008834900
1640785502355579904,-0.104874930,0.265845540,10.182963370,-0.051054360,-0.022137170,0.012153390
1640785502359660032,-0.285066810,-0.032495460,9.570328710,-0.052246450,0.021773580,-0.009301300
1640785502359989760,-0.245349480,-0.227528110,9.935152050,-0.036834180,0.004085900,-0.023210050
1640785502364960000,-0.389353630,-0.130221490,9.912268640,-0.042426590,0.067126760,-0.025451190
1640785502365669888,-0.019209520,0.030403660,9.548513410,-0.080914800,0.036637490,-0.006912650
1640785502369819904,-0.054550890,0.293427560,10.309804920,-0.105486810,0.033718350,0.005549190
1640785502371089920,-0.015260430,0.391016390,9.949972150,-0.106707240,0.034250320,-0.002060830
1640785502374719744,-0.001751080,0.179581640,10.097165110,-0.030507150,-0.044487420,-0.002516810
1640785502375369984,-0.274724510,0.158934530,10.059138300,0.035460300,0.029033430,-0.024519860
1640785502379689984,-0.217217950,0.003242140,9.828251840,0.014518200,0.021852550,-0.031942130
1640785502380309760,-0.330342200,-0.018016760,10.522091870,-0.016906860,-0.015571710,-0.007911030
1640785502385399808,-0.316681710,0.142802270,9.852795600,-0.081956390,0.024898350,-0.008010870
1640785502385949952,-0.133090510,0.225834100,9.696046830,-0.093176960,-0.032897300,-0.007033350
1640785502389659904,-0.270588520,0.562533200,10.263989450,-0.031135980,0.022321940,-0.004766880
1640785502390029824,-0.116288860,0.816715120,9.706018450,-0.024659940,0.015257300,-0.011435150
1640785502394690048,-0.101262550,0.735931400,10.404781340,-0.052458060,-0.055648390,-0.006113950
1640785502395149824,-0.059622300,0.563162450,10.127832410,-0.067807730,0.030885630,0.001005830
1640785502399789824,0.092391210,0.292578010,9.950635910,-0.059545040,0.011368100,0.000959630
1640785502400499712,-0.284161570,0.095987890,10.900328640,-0.032697620,-0.021085140,0.004912910
1640785502404749824,-0.217588500,0.072996560,9.681992530,-0.060008470,-0.044050810,-0.005677340
1640785502405200128,-0.065036220,-0.062637370,9.436834340,-0.065892940,-0.095181170,0.000129640
1640785502409669888,-0.111613960,0.075177310,9.730394360,-0.067532060,0.064907980,0.005884470
1640785502410039808,0.206807260,0.247090280,9.633362770,-0.085325540,0.081858040,-0.007185340
1640785502414779904,0.123670620,0.244000550,10.998126030,-0.050278010,-0.016114120,-0.008240340
1640785502415299840,0.123236430,0.427518870,10.255026820,-0.021520260,0.003771480,-0.006321070
1640785502420079872,0.099564030,0.353102510,9.614537240,-0.038072470,-0.072695320,-0.007297100
1640785502420979968,-0.397424040,0.015785260,10.237858770,-0.048872840,-0.020331140,0.001141430
1640785502424679936,-0.268734510,-0.216822740,9.184670450,-0.007458030,0.029812760,-0.018526610
1640785502425120000,-0.302639660,-0.352417830,9.933680530,0.052921470,-0.024649500,-0.018838050
1640785502429969920,-0.361438570,-0.123764280,10.284717560,0.011578200,0.068089370,-0.007581710
1640785502431479808,0.068264440,0.159018740,9.757820130,-0.065007810,0.003221630,0.000880660
1640785502435170048,-0.145927650,0.143101680,10.931989670,-0.051642950,-0.054553150,0.004388390
1640785502437760000,0.015063610,0.245024710,9.689892770,0.008893010,0.036378200,-0.028187040
1640785502439749888,0.058756660,0.268832560,9.812546730,0.085857520,-0.052365670,-0.051550580
1640785502440239872,-0.397502030,0.217452270,10.698786740,0.102277110,0.012752420,-0.039148330
1640785502445209856,-0.123376910,0.368030490,9.515012740,0.017325580,-0.017128880,-0.036104020
1640785502445689856,-0.298549440,0.267415970,10.398669240,-0.024996700,-0.101301080,0.007851420
1640785502449760000,-0.304976020,0.296933590,10.098731990,-0.028876960,0.059488420,0.003939870
1640785502450850048,-0.058701550,0.484007240,9.891751290,0.031840800,-0.002864000,-0.006742780
1640785502454889984,-0.416661620,0.570180650,11.227284430,0.056861350,-0.058870020,-0.001858180
1640785502455369984,-0.050485380,0.561224220,9.672925950,-0.002187490,-0.016145410,-0.015057630
1640785502459729920,0.061172140,0.424456540,9.709772110,-0.002549590,-0.084398680,-0.015383960
1640785502460039936,-0.303369970,0.297219780,10.587036130,0.006809830,0.033558920,-0.008142000
1640785502464769792,-0.006637260,0.260496140,9.702591900,-0.007605550,-0.007934870,-0.016832360
1640785502465299968,-0.263537730,0.005639160,10.782856940,0.028464200,-0.128622370,-0.005741420
1640785502470439936,-0.213226500,-0.006865590,10.209095950,0.031356520,-0.000348690,-0.012564660
1640785502470979840,0.048511510,0.025585170,9.553777690,0.029020010,-0.032188000,-0.009559090
1640785502474819840,-0.208123910,-0.014310260,10.817349430,0.015559790,-0.035375350,-0.016693770
1640785502475239936,0.253797590,0.283570560,9.666707040,-0.008021300,0.049047180,-0.016577540
1640785502480079872,0.275157630,0.378704580,10.082606320,0.033307080,-0.052993000,-0.002026560
1640785502480579840,-0.162985850,0.345355930,10.765146260,0.013001270,-0.011882190,0.005930660
1640785502486189824,0.016780950,0.270422460,9.684338570,0.003285710,-0.037813190,-0.001926720
1640785502486769920,-0.383473600,-0.249007790,10.492383960,0.079579650,-0.089824210,-0.004851820
1640785502489639936,-0.508355380,-0.405351910,10.069684980,0.103639060,0.017307700,-0.030483310
1640785502489949952,-0.254905400,-0.377804370,9.668294910,0.096079690,-0.014917550,-0.015603000
1640785502494679808,-0.459638060,-0.342665460,10.774238590,0.063639890,-0.031487640,-0.001613800
1640785502495119872,0.016087500,0.090789490,9.774513240,0.017775590,-0.001573560,-0.010977680
1640785502499810048,0.154333110,0.264534240,10.024191860,0.043027100,-0.062264490,-0.008937720
1640785502500419840,0.050490190,0.470522790,10.580408100,0.083422680,0.018551950,-0.019411740
1640785502505659904,0.246339570,0.738467570,10.108766560,0.110501040,-0.002890820,-0.026969610
1640785502506189824,-0.050505460,0.513809440,10.728832240,0.113321850,-0.089499350,-0.000751020
1640785502509680128,0.045793020,0.349170120,9.882524490,0.062954430,-0.018915530,-0.004193190
1640785502510099968,0.085165660,0.288389680,9.552955630,0.068557260,0.010320540,-0.001840290
1640785502515460096,-0.254802880,0.221428690,10.603305820,0.073313710,0.024990730,0.014182920
1640785502516359936,-0.088179510,0.446519020,10.135896680,0.026997920,-0.005304810,-0.008650120
1640785502519719936,0.064704490,0.427112250,9.920373920,0.033004580,-0.061298920,-0.008094310
1640785502520079872,0.064946010,0.487845240,10.043285370,0.051578880,0.048813230,-0.020757320
1640785502524679936,0.074088660,0.604048130,10.014285090,0.055421890,0.071345270,-0.020995740
1640785502525039872,-0.166241080,0.244779180,10.760673520,0.070406500,-0.025327510,-0.009153780
1640785502530069760,-0.157730240,0.229174570,10.191342350,0.084213920,-0.038717690,-0.012971460
1640785502530819840,-0.154452820,0.102300850,9.588292120,0.066557530,-0.020986800,-0.006696580
1640785502534759936,-0.259156470,0.035022500,9.990321160,0.037127730,0.043945020,-0.007143620
1640785502535620096,-0.076906930,0.294246580,10.106115340,0.022836030,0.075790310,-0.012809040
1640785502539670016,-0.017520770,0.314453070,10.424025540,0.049529980,0.021246080,-0.012207030
1640785502540099840,0.082037900,0.497750670,10.379478450,0.050941110,0.002910200,0.001655520
1640785502544699904,-0.119909270,0.445518820,10.438764570,0.038699810,0.016507510,0.004494190
1640785502545169920,-0.438298850,0.123762650,10.577285770,0.058689710,-0.026997930,-0.002412500
1640785502549739776,-0.540274320,0.036626060,10.153357510,0.093357260,-0.054048010,-0.012066960
1640785502550279936,-0.555457060,-0.042280430,9.839252470,0.098292530,-0.012242800,-0.013388690
1640785502554710016,-0.376423270,0.051585280,10.105237010,0.080065440,0.036391620,-0.004942710
1640785502555119872,-0.239218820,0.558283810,10.602807040,0.023943190,0.025992100,0.009991230
1640785502559699968,-0.045259590,0.744748770,10.504943850,-0.030680000,-0.030197200,0.014875830
1640785502560109824,0.269954440,1.007317190,10.011878970,-0.022493300,-0.043821340,0.006681680
1640785502565120000,0.124837310,1.073768380,10.239974980,0.052818660,0.008566680,-0.011068580
1640785502566059776,0.001755120,0.957548620,10.258301730,0.056242950,-0.007589160,-0.005467240
1640785502569700096,0.013306630,0.744019570,10.114034650,0.000679490,-0.047862530,0.020644070
1640785502570240000,-0.159615400,0.239502130,10.238866810,-0.045056640,-0.003971160,0.019122660
1640785502574769920,-0.177184130,0.004751630,10.153149600,-0.038634240,0.015179810,0.036592790
1640785502575419904,-0.444986580,-0.100109740,10.654846190,-0.005549190,-0.041006510,0.038394330
1640785502579670016,-0.478996250,-0.315282460,10.267899510,-0.008334220,-0.048200790,0.021228190
1640785502580829952,-0.116546360,-0.126130250,9.579132080,0.003966690,-0.030553350,0.018733740
1640785502585239808,-0.187343220,0.049825250,10.126807210,0.002528730,0.033931430,0.007015470
1640785502585719808,0.053562400,0.151550520,10.188919070,-0.024512410,0.065174680,0.012677910
1640785502589669888,0.125899140,0.360733330,10.550548550,0.003810230,-0.042717160,0.035290420
1640785502589969920,-0.154830770,0.228042070,10.448074340,0.041490800,-0.060677530,0.050352510
1640785502594789888,0.025948810,0.091841680,9.498233800,0.038418170,-0.034496190,0.053745510
1640785502595409920,-0.270174770,0.029381970,10.125700950,0.047287340,-0.001998250,0.058634590
1640785502599759872,-0.282507000,-0.254317250,10.226806640,0.054937610,0.045993940,0.042264170
1640785502600410112,0.030838520,-0.041429630,9.970808030,0.066448750,-0.020974870,0.049226000
1640785502604699904,-0.211338730,0.074604220,10.478565220,0.030757480,-0.004716220,0.048840050
1640785502605049856,-0.039616240,0.043372150,10.088525770,0.005893410,0.009989740,0.042343140
1640785502609799936,-0.212715220,0.241243270,10.395336150,0.062170630,-0.059428810,0.031670930
1640785502610869760,-0.395298360,0.193019780,10.229906080,0.080724060,-0.037638840,0.030019880
1640785502614789888,0.058567220,0.159466890,9.732675550,0.080150370,0.013712050,0.043976310
1640785502615369984,-0.163651480,0.310904060,10.795696260,0.073741380,0.046603390,0.060485310
1640785502619680000,-0.044681580,0.299346210,10.671055790,0.005255640,0.012731550,0.076952580
1640785502620090112,0.268361930,0.467232440,9.988042830,-0.023312870,-0.045509640,0.086691980
1640785502624809984,0.043872590,0.511099520,10.178785320,0.006961820,0.013180080,0.078701980
1640785502626329856,0.165909100,0.492566350,10.042921070,0.031456340,0.056883700,0.065591940
1640785502629900032,-0.028263540,0.612289550,10.434685710,0.036388640,0.004260240,0.073300310
1640785502630820096,-0.226310670,0.337114130,10.472392080,-0.012718140,-0.011403860,0.065609820
1640785502635289856,-0.001974690,0.295828340,9.959355350,-0.037172440,0.033825640,0.064381960
1640785502635899904,-0.331221670,0.345631540,10.428176880,-0.016650560,0.038987400,0.087848310
1640785502639699968,-0.326094930,0.136304560,10.420610430,-0.034916400,0.020034610,0.085738290
1640785502640100096,0.046815980,0.163562940,9.789953230,-0.008536880,0.001536310,0.083433090
1640785502644739840,0.069976640,0.158358980,9.909815790,0.007361180,0.056822610,0.080025200
1640785502645239808,0.328413900,0.170539990,10.060952190,-0.041174890,0.128835450,0.075012450
1640785502649720064,0.247690010,0.235478700,10.650166510,-0.040741260,0.074382120,0.088512880
1640785502650299904,0.014421740,0.078150130,10.758069990,-0.019970540,-0.017939510,0.079619880
1640785502654709760,0.046650790,0.051477510,9.813358310,-0.007751580,0.002202390,0.081799910
1640785502655190016,-0.384195120,-0.018922260,9.849736210,-0.005978350,0.065281990,0.068844840
1640785502659699968,-0.483523400,-0.240533380,10.097854610,-0.012843310,0.088302780,0.077079230
1640785502660049920,-0.400802220,-0.116718020,10.122990610,0.020992760,0.053793200,0.082425800
1640785502664759808,-0.395353320,0.041309670,10.098322870,0.017862020,0.024543700,0.096313660
1640785502665489920,-0.094812790,0.197254240,10.135230060,-0.037972630,0.064401340,0.106392810
1640785502669699840,-0.159909980,0.430403920,10.489127160,-0.042219470,0.073924670,0.098380460
1640785502670179840,-0.209219620,0.392863330,10.487816810,-0.002312660,0.009705130,0.087809570
1640785502675200000,0.048783420,0.474131580,9.949853900,0.027926270,0.002831220,0.072033700
1640785502675879936,-0.017624940,0.542748990,9.844263080,0.048811740,0.062818850,0.089731830
1640785502679729920,0.025080310,0.586978790,10.272593500,-0.018350780,0.078368200,0.111404080
1640785502680800000,0.065579180,0.696785930,10.336984630,-0.095303340,0.056891140,0.126440810
1640785502685339904,0.009702600,0.638631110,10.228208540,-0.103251650,0.028257080,0.123126820
1640785502685869824,0.057522910,0.670543310,10.321557040,-0.058789560,0.062297290,0.122313220
1640785502690029824,-0.198619990,0.711157440,10.375693320,-0.036673240,0.062124430,0.108717370
1640785502690650112,-0.377248790,0.444634500,10.342210770,-0.063472990,0.006100540,0.105020430
1640785502694789888,-0.262200980,0.291631820,9.857179640,-0.094872720,0.037799780,0.099737950
1640785502695269888,-0.381384430,0.111003430,9.880793570,-0.082463020,0.072970970,0.100518750
1640785502699719936,-0.326704620,-0.002154990,10.442517280,-0.087612870,0.073722010,0.111179070
1640785502700229888,-0.113906830,0.019052600,10.317547800,-0.095127520,0.049294540,0.108625000
1640785502704679936,0.056002640,-0.117172790,10.041629790,-0.069545220,0.011231010,0.102788230
1640785502705469952,0.343621340,0.064570280,9.794090270,-0.066603720,0.104825210,0.098852820
1640785502709689856,0.204296170,0.110730220,10.058457370,-0.087462370,0.128100810,0.099162780
1640785502710160128,-0.049854480,0.009207080,10.714903830,-0.082424290,0.026842950,0.102108700
1640785502715109888,-0.079537360,0.088177590,10.031626700,-0.063110900,-0.008834900,0.098383450
1640785502715879936,-0.431936980,-0.204360160,9.715476040,-0.043571000,0.021632020,0.091710690
1640785502719660032,-0.605273010,-0.336812760,10.222215650,-0.025242560,0.103098150,0.084553640
1640785502720120064,-0.602057280,-0.286938190,10.412094120,0.005261600,0.084252640,0.070546560
1640785502724720128,-0.525785210,-0.310472520,10.357365610,0.008776780,0.002567470,0.091752410
1640785502725100032,-0.149429530,-0.041069680,9.883628850,-0.010475520,0.045391920,0.113323340
1640785502729689856,-0.150745810,0.143063020,10.085056300,-0.028862060,0.059992090,0.096642990
1640785502730080000,-0.207170010,0.284693660,10.445666310,-0.015690930,0.034910440,0.097031910
1640785502734799872,-0.073936990,0.561060550,10.180812840,0.005571540,-0.010354820,0.081661340
1640785502736349696,-0.252458540,0.421516950,10.345756530,0.030569740,-0.012956560,0.086382050
1640785502739899904,-0.192959520,0.522335710,10.228586200,0.043410070,0.041413310,0.088803480
1640785502740640000,-0.243915330,0.730239150,10.250364300,-0.009857120,0.011785330,0.099475690
1640785502744709888,-0.338493620,0.610360150,10.470907210,-0.082734230,0.002846120,0.104102490
1640785502745189888,-0.046197030,0.752537910,9.931600570,-0.091218970,0.037695470,0.099483150
1640785502749779968,-0.241959100,0.627023820,10.410523410,-0.044998520,-0.001387300,0.094768390
1640785502750559744,-0.366056860,0.464768350,10.578001980,-0.025877360,-0.027410690,0.078077620
1640785502754690048,-0.118031840,0.334710900,9.664173130,-0.041036310,-0.031237310,0.070603200
1640785502755190016,-0.441029940,-0.225624840,10.474465370,-0.048863890,-0.012208520,0.076223920
1640785502759709952,-0.435958650,-0.506020310,10.461071010,-0.033868850,0.028887390,0.084763770
1640785502760140032,-0.337525550,-0.623034060,10.273438450,-0.006358330,-0.082656740,0.074847050
1640785502765120000,-0.366951260,-0.615189490,10.326622010,0.005592410,-0.085124400,0.065466760
1640785502766229760,0.160192730,-0.118112800,8.987889290,-0.032310190,0.032366820,0.062884400
1640785502769719808,0.088747710,0.127086680,10.223576550,-0.052782900,0.020885460,0.055122380
1640785502770089984,0.017714940,0.335549830,10.862052920,-0.033491850,0.022639340,0.065387790
1640785502774700032,0.230634380,0.583800670,9.977307320,0.030173370,-0.093401970,0.070141260
1640785502775329792,-0.289519280,0.427419630,10.583150860,0.051389630,-0.102719670,0.065699210
1640785502779680000,-0.343729650,0.304445270,9.726360320,-0.001768770,0.033813720,0.060148530
1640785502780109824,-0.476849560,0.127745020,10.171515460,0.000654160,-0.065501040,0.046256180
1640785502784770048,-0.654404640,0.060109150,10.629665370,0.004744530,-0.029112400,0.052757560
1640785502787689984,-0.036686240,0.280394700,9.206057550,-0.017909710,-0.003270810,0.037723780
1640785502789659904,-0.056567390,0.443304720,10.594818120,-0.028958910,-0.043155250,0.036509330
1640785502790020096,0.064826350,0.750664170,10.543621060,-0.077597790,0.056943290,0.047184520
1640785502794659840,0.430578920,0.710636380,10.108124730,-0.086911020,-0.061804070,0.047303740
1640785502795069952,0.222208680,0.485457660,11.101590160,-0.021903220,-0.050690770,0.051036480
1640785502799729920,0.441434090,0.385397820,9.703920360,0.008417670,0.059413910,0.044402480
1640785502800259840,0.299659460,0.119171480,10.150149350,0.010396540,-0.031450390,0.052627920
1640785502804689920,-0.143990410,0.092560200,10.612289430,-0.057379910,0.042644140,0.057011850
1640785502805129984,0.157881710,0.110972130,9.267587660,-0.115387160,0.011213120,0.036919120
1640785502809639936,-0.154471350,0.205558870,10.569433210,-0.082238030,-0.021994110,0.040435790
1640785502810050048,-0.204565470,0.443730350,10.348467830,-0.072777280,0.101676590,-0.005775690
1640785502815009792,0.085347660,0.432732790,9.938487050,-0.067070130,0.008268650,-0.030641260
1640785502815789824,-0.251051960,0.448375940,11.005778310,-0.030760470,0.043487550,-0.009505450
1640785502820219904,-0.105864760,0.276310980,9.789524080,-0.063680120,0.086583200,-0.005571540
1640785502820859904,-0.143962930,-0.050944990,10.218458180,-0.064581630,-0.050303350,0.027087340
1640785502824679936,-0.426430170,-0.230123270,10.358603480,-0.025442240,0.023432080,0.023843350
1640785502825090048,-0.048259530,-0.333524080,9.063421250,-0.032883880,0.033648320,-0.002193450
1640785502829649920,-0.173146400,-0.143521900,10.486130710,-0.042453400,0.065335620,-0.003615020
1640785502830080000,-0.165303390,0.066548280,10.746209140,-0.053887070,0.138756630,-0.031599410
1640785502835049984,-0.016781620,0.198245880,10.478140830,-0.049282610,-0.047248610,-0.037629900
1640785502837999872,-0.259480480,0.436637880,10.433788300,-0.016288460,-0.048100940,-0.027823450
1640785502839660032,-0.200077560,0.463479700,9.288153650,-0.029996040,0.050345070,-0.037598610
1640785502840209920,-0.464563640,0.430482060,10.395507810,-0.029750170,0.013941530,-0.022457540
1640785502844739840,-0.533580600,0.496785430,10.661050800,-0.015732640,0.021083650,-0.012898450
1640785502845199872,-0.165308360,0.312715830,10.100985530,-0.045043230,-0.016506020,-0.030982490
1640785502849959936,-0.021006780,0.443293900,10.544450760,-0.067029890,0.032712520,-0.019735100
1640785502850999808,0.083876130,0.460995500,10.390615460,-0.082568820,0.091578060,-0.029987090
1640785502854799872,0.100679670,0.240440260,10.576848980,-0.091695790,-0.014194850,-0.046619770
1640785502855360000,0.071546550,0.164915000,10.230731960,-0.043329600,-0.035892420,-0.036002700
1640785502859639808,0.074202710,-0.106595540,9.571434970,-0.001332160,0.006009640,-0.050894920
1640785502860039936,-0.107896450,-0.230805610,10.187068940,-0.024262070,0.049503150,-0.046484180
1640785502865139968,-0.299985620,-0.193291350,10.475337980,-0.050395730,0.062763700,-0.043711070
1640785502865939968,-0.326238510,-0.180194620,10.562001230,-0.050081320,-0.011429190,-0.034894050
1640785502869880064,-0.357035070,0.090203110,10.375965120,-0.025600200,-0.006084140,-0.026811660
1640785502871640064,-0.422223570,0.348496050,9.970951080,-0.029642880,0.012591480,-0.045758490
1640785502874749952,-0.397229520,0.437200130,10.169245720,-0.036589790,0.008255240,-0.053608420
1640785502875340032,-0.234482390,0.564009490,9.962424280,-0.003585220,0.045689950,-0.070591290
1640785502879659776,-0.205514580,0.568951850,10.230202670,0.004555280,0.007517640,-0.072786210
1640785502880059904,-0.157526670,0.599023640,10.509176250,-0.038965050,-0.006286800,-0.056870290
1640785502884869888,-0.058960820,0.544986720,10.217050550,-0.084556640,-0.006245080,-0.042556230
1640785502885710080,-0.247359690,0.208673370,10.666071890,-0.074206290,-0.013153260,-0.033143170
1640785502891670016,-0.179385420,0.195990370,10.337879180,-0.033663210,0.007414820,-0.057357550
1640785502892249856,-0.312419330,0.052841000,10.473341940,-0.003297630,-0.024843220,-0.063008060
1640785502894670080,-0.357284160,0.078971710,10.529405590,-0.022329390,-0.022470950,-0.047546630
1640785502895079936,-0.200132850,0.208316920,9.992000580,-0.068169840,-0.018385050,-0.065708160
1640785502900049920,-0.355179280,0.222856270,10.454492570,-0.082196300,-0.020334120,-0.057017810
1640785502901339904,-0.245000330,0.476976720,10.380821230,-0.066532190,0.024497510,-0.047756740
1640785502904749824,-0.285529350,0.413013940,10.489627840,-0.038352610,-0.047566000,-0.058528780
1640785502905229824,-0.322512980,0.335964920,10.481204030,-0.019817050,-0.069586940,-0.053983930
1640785502909669888,0.037095900,0.352782790,9.579874990,-0.036528710,-0.007036330,-0.058135400
1640785502910080000,-0.016013950,0.159967080,10.111086850,-0.057706240,0.009700660,-0.037923460
1640785502915299840,0.054802760,0.181299520,10.357835770,-0.087840860,0.028900800,-0.027014320
1640785502915949824,0.168753730,0.190102320,10.095083240,-0.081051880,-0.034636250,-0.043401110
1640785502919749888,-0.084740680,0.026396170,10.413757320,-0.047692660,-0.054085270,-0.031927230
1640785502920940032,-0.033273430,0.089605990,9.804028510,-0.035460300,0.020231310,-0.057241330
1640785502924679936,-0.228916990,-0.137424960,10.137603760,-0.035680830,-0.008630750,-0.076675420
1640785502925099776,-0.453198280,-0.249372330,10.406097410,-0.012072920,-0.004073980,-0.068582600
1640785502930060032,-0.185336140,-0.061050480,9.649345400,-0.011520090,-0.022189320,-0.076369950
1640785502930850048,-0.436792670,-0.157486560,10.280723570,-0.033204250,-0.035603340,-0.058226290
1640785502934739712,-0.374978960,-0.018610110,10.151105880,-0.030875210,0.011369590,-0.049619380
1640785502935399936,-0.325522300,0.051200030,10.174850460,0.013771650,-0.071927910,-0.071808700
1640785502939639808,-0.476700070,0.096719790,10.365339280,0.044548510,-0.065457820,-0.063845520
1640785502940039936,-0.168029620,0.448124770,9.787425040,0.037179890,-0.007307530,-0.067603600
1640785502944679936,-0.393445880,0.522642310,10.648047450,0.007507210,-0.069990750,-0.076822940
1640785502945189888,-0.417579950,0.643075820,10.348549840,-0.025393070,-0.085343420,-0.065737960
1640785502949799936,-0.102055110,0.805107240,9.531526570,-0.028125940,-0.102303930,-0.091756870
1640785502950400000,-0.424261750,0.694125710,10.534257890,-0.001697240,-0.071755060,-0.087113680
1640785502955299840,-0.279797320,0.789816980,10.186484340,0.013516840,-0.036324560,-0.088764710
1640785502955770112,-0.074040360,0.716965500,10.203670500,-0.022242970,-0.136950610,-0.093142700
1640785502959669760,-0.115373340,0.465148780,10.617463110,-0.071425720,-0.056420270,-0.080245730
1640785502960099840,0.190955770,0.548653010,9.857487680,-0.082373600,-0.012125070,-0.078389040
1640785502965039872,-0.175142210,0.241120870,10.900306700,-0.063125800,-0.118525330,-0.067731750
1640785502968209920,-0.235175000,0.110745530,10.145356180,-0.052665180,-0.111143290,-0.059197840
1640785502970249984,0.110294530,-0.061056900,9.193316460,-0.030662120,-0.121982400,-0.078433750
1640785502970660096,-0.261106130,-0.394705680,10.438392640,-0.011760000,-0.032977770,-0.074189920
1640785502974720000,0.017241680,-0.258526890,9.968848230,-0.028026110,0.034382940,-0.077912220
1640785502975639808,0.051455190,-0.299277690,10.596432690,-0.024776160,-0.115171060,-0.078757090
1640785502979699968,-0.158365040,-0.024393510,10.517149930,-0.038641690,-0.083647670,-0.076188150
1640785502980189952,0.142312870,0.233124430,9.223335270,-0.054818400,-0.060269240,-0.081767140
1640785502984750080,-0.330684720,0.080997970,10.466581340,-0.011269750,-0.082361700,-0.095736970
1640785502986419968,-0.345755960,0.218435140,9.823784830,0.037875780,-0.014576320,-0.101511200
1640785502989689856,-0.045593650,0.210055750,9.558870320,0.068940220,-0.081843150,-0.096610200
1640785502990049792,-0.363667790,0.174728920,10.736215590,0.024274000,-0.031484670,-0.069805980
1640785502995689984,0.011096190,0.325979710,9.824067120,-0.044646860,-0.009267030,-0.062456730
1640785502996189952,-0.087024680,0.255601230,10.510721210,-0.036510830,-0.122311730,-0.060819100
1640785502999739904,-0.230228500,0.340952990,10.161308290,-0.004260240,-0.020895890,-0.076819950
1640785503000369920,0.084276970,0.446351140,9.314852710,0.015321380,-0.036500390,-0.097660740
1640785503004799744,-0.410652430,0.453810300,10.727470400,0.033737720,-0.095905360,-0.087134550
1640785503005430016,-0.264219880,0.501997770,9.701519970,-0.032876420,-0.045755500,-0.089797370
1640785503009989888,-0.134745060,0.386328520,9.833246230,-0.053167340,-0.096853080,-0.079667570
1640785503011109888,-0.563986120,0.361884950,10.987320900,-0.028356910,-0.031051040,-0.080691290
1640785503014919936,-0.227508250,0.505644980,10.004115100,-0.022795800,-0.043527790,-0.085717440
1640785503015589888,-0.333106250,0.613564970,10.530981060,-0.018136210,-0.176270340,-0.083673000
1640785503019789824,-0.216083090,0.678746280,9.781394960,-0.066076220,-0.043623150,-0.090152030
1640785503020279808,0.228442040,0.732947950,9.165905000,-0.099428010,-0.038973990,-0.099407160
1640785503024709888,-0.153549450,0.639193180,10.919506070,-0.083364550,-0.059819230,-0.082999470
1640785503025479936,0.043714940,0.419630380,10.146491050,-0.083276620,-0.039903810,-0.094471870
1640785503029639936,0.043777580,0.083691800,10.199950220,-0.031198560,-0.187689050,-0.093741700
1640785503030099968,-0.296562140,-0.154281060,10.224394800,-0.021170080,-0.090423210,-0.098362570
1640785503036150016,0.123101100,-0.245632470,8.891362190,-0.087369990,-0.016872580,-0.107376280
1640785503036599808,-0.115216840,-0.357444850,10.375103000,-0.067326410,-0.049304970,-0.088690210
1640785503039680000,-0.129625950,-0.244570930,10.270847320,-0.039860610,-0.004428630,-0.100606690
1640785503040060160,0.156540330,-0.073816340,9.596288680,-0.015972550,-0.145292280,-0.107221310
1640785503044709888,-0.237351330,0.038672300,10.371194840,-0.027251250,-0.104077180,-0.103095180
1640785503045209856,-0.004965890,-0.027891830,9.492447850,-0.044262410,0.008165840,-0.119735300
1640785503049729792,-0.135855440,-0.180719050,10.353396420,0.036793940,-0.090447050,-0.111447280
1640785503050279936,-0.263550700,-0.122321480,10.441970830,0.069081790,-0.042028740,-0.105600070
1640785503054720000,0.176870820,0.031130090,9.473731990,0.026535990,-0.053171820,-0.099024200
1640785503055140096,-0.297015430,0.122413210,10.702342030,0.000472370,-0.078997020,-0.068733100
1640785503059699968,-0.121456970,0.358759340,9.791207310,-0.040833660,-0.035820900,-0.087615860
1640785503060109824,0.086469310,0.494872390,9.688901900,-0.012993810,-0.097240520,-0.101260840
1640785503064969984,-0.120128090,0.609712840,10.634539600,0.035230810,0.007222590,-0.105397400
1640785503066149888,0.185971050,0.717760800,10.106266020,0.014989080,0.021150710,-0.124846420
1640785503069659904,-0.080405460,0.539739970,10.787736890,-0.019454960,-0.110302860,-0.105449540
1640785503070080000,-0.168696610,0.330397960,10.095465660,-0.045569240,-0.042743980,-0.105091910
1640785503074859776,-0.052009310,0.184957180,9.412341120,-0.035989290,-0.048443680,-0.102365020
1640785503075599872,-0.504722180,0.045534080,10.423927310,-0.010423360,-0.044402490,-0.075858830
1640785503079689984,-0.186472800,0.070938130,9.706920620,-0.031423570,-0.001466270,-0.097408900
1640785503080219904,0.053622590,0.121133950,9.894450190,-0.028562550,-0.044812270,-0.109760480
1640785503084839936,-0.081868750,0.334316520,10.410435680,-0.038465860,0.033392020,-0.088953970
1640785503086449920,0.148389560,0.447179200,9.888038640,-0.062495480,-0.002646450,-0.102932750
1640785503089799936,-0.078831460,0.434401390,10.354918480,-0.031553210,-0.100195410,-0.103579470
1640785503090429952,0.007718600,0.605294410,9.565348630,-0.013898310,-0.034049150,-0.104896750
1640785503094709760,0.101363000,0.556825700,9.182595250,-0.046150390,0.002038480,-0.108043860
1640785503095109888,-0.234341650,0.432793200,10.238342290,-0.063607100,0.044998530,-0.114229340
1640785503099729920,-0.157450710,0.506756250,10.129422190,-0.073318190,0.008733570,-0.134967280
1640785503100509952,-0.329516530,0.356419710,10.170194630,-0.060434640,-0.098842390,-0.129002300
1640785503104829952,-0.458902030,0.199658840,9.813085560,-0.066772100,-0.042040640,-0.119204810
1640785503105989888,-0.424969460,-0.045163940,9.690822600,-0.060246890,0.002139810,-0.142344830
1640785503109669888,-0.615951960,-0.269625040,10.310467720,-0.006960330,-0.036409490,-0.141082720
1640785503110080000,-0.301671650,-0.083923940,9.786486630,0.007864830,-0.039061900,-0.129292890
1640785503114980096,-0.201830310,-0.028450190,9.906229020,-0.022359190,-0.046466290,-0.120726230
1640785503116179968,-0.268722590,0.305316510,10.306500430,-0.064374510,-0.042669480,-0.098335750
1640785503119769856,-0.183333350,0.649243470,10.210887910,-0.075706850,-0.080023710,-0.113491720
1640785503120250112,-0.311208610,0.709190190,10.161354060,-0.050616270,-0.103534770,-0.128984450
1640785503124709888,-0.312644090,0.925971570,10.085190770,-0.002947450,-0.078469510,-0.146503760
1640785503125179904,-0.425857370,0.997009160,10.272834780,-0.006002190,-0.085358340,-0.154933380
1640785503129689856,-0.434899330,0.754822670,10.131353380,-0.066789980,-0.108946870,-0.141841170
1640785503130050048,-0.307441650,0.711143140,10.067961690,-0.124616940,-0.106057540,-0.137172680
1640785503135689984,-0.413596030,0.405103710,10.141408920,-0.114952030,-0.100751230,-0.131674110
1640785503136260096,-0.329255910,0.166537910,10.034320830,-0.067363680,-0.131312030,-0.122952470
1640785503139659776,-0.325981140,0.161321280,10.088709830,-0.043681270,-0.136783720,-0.137820850
1640785503140069888,-0.167119130,0.022207610,9.652328490,-0.059308120,-0.123082120,-0.128324330
1640785503144679936,0.130915630,0.201620490,9.715787890,-0.068575140,-0.106745980,-0.105994950
1640785503145089792,0.016125020,0.362143460,10.171566010,-0.105521110,-0.055909160,-0.119328510
1640785503149720064,0.204774600,0.476332010,10.007887840,-0.118656460,-0.111912200,-0.121146440
1640785503150319872,0.123164410,0.673691270,10.301760670,-0.070297730,-0.162051600,-0.125965480
1640785503154769920,-0.100980760,0.551818310,9.751227380,-0.060120220,-0.107476120,-0.148126480
1640785503155299840,-0.040444230,0.525791760,9.474702840,-0.074817230,-0.116637330,-0.140000880
1640785503159680000,-0.463307650,0.380567070,10.212699890,-0.076450410,-0.090968620,-0.148686770
1640785503160059904,-0.242452560,0.264708130,9.388271330,-0.100439810,-0.091733050,-0.125676390
1640785503164870144,-0.185103570,0.190053540,10.148228650,-0.097268830,-0.135613980,-0.092960900
1640785503165469952,-0.319524020,-0.033208370,10.422908780,-0.108703980,-0.042375920,-0.113382940
1640785503169639936,0.124600280,-0.177932160,9.875147820,-0.055190920,-0.134111910,-0.107283900
1640785503170089984,-0.106236850,-0.159440220,10.439850810,0.002890830,-0.116375110,-0.117051620
1640785503174969856,0.186896990,-0.081076460,9.335251810,-0.044882300,-0.036939980,-0.132519020
1640785503175609856,0.312896430,0.240197990,10.016504290,-0.067263840,-0.122351970,-0.115890810
1640785503179649792,0.046040660,0.509975550,10.135577200,-0.097525130,-0.049005450,-0.121201580
1640785503180320000,0.409814150,0.702361520,9.185976980,-0.098527980,-0.074143720,-0.112704920
1640785503186279936,-0.064183400,0.862728710,10.632348060,-0.053825990,-0.064972060,-0.113023840
1640785503187359744,-0.112447840,0.892186160,10.042479520,-0.075326850,-0.002816320,-0.121404220
1640785503189689856,-0.041876740,0.689912080,10.057011600,-0.078307080,-0.117677440,-0.090195230
1640785503190039808,-0.357512120,0.316291660,10.350163460,-0.096443300,-0.028608740,-0.095908340
1640785503194710016,0.049584550,0.162524730,9.287719730,-0.112922490,0.006267430,-0.097160040
1640785503195089920,-0.143193450,-0.013972100,10.399932860,-0.090995440,-0.043042000,-0.069709120
1640785503199689984,0.035549000,-0.147095640,9.932804110,-0.114472210,0.012812020,-0.090178850
1640785503201479936,0.563013020,-0.232493210,9.577427860,-0.085201860,-0.037269290,-0.094813130
1640785503204800000,0.425690050,-0.206603780,10.203118320,-0.042179230,0.044479970,-0.095903870
1640785503205199872,0.633306620,0.058348010,9.691079140,-0.068551300,0.074093050,-0.104558480
1640785503209649920,0.365288790,0.169817190,10.279776570,-0.073510410,0.000427660,-0.081889330
1640785503210059776,0.037304610,0.266248820,9.960515980,-0.081354360,0.001448390,-0.064887110
1640785503214789888,-0.185031970,0.253603340,9.495382310,-0.036633010,-0.022940340,-0.071088970
1640785503215569920,-0.553089320,0.167365190,9.671011920,-0.020660460,0.029326970,-0.086148070
1640785503220109824,-0.506895480,0.137886840,9.688838960,-0.034497680,0.071780380,-0.090621420
1640785503220819968,-0.445971160,0.022722730,10.157049180,-0.002630060,0.070349880,-0.088675310
1640785503224659968,-0.151561480,0.079851770,10.026281360,-0.018186870,0.057628760,-0.072941190
1640785503225100032,-0.005579540,0.179163710,10.102733610,-0.045353170,0.044885270,-0.064939250
1640785503229920000,0.143239540,0.144268320,9.691852570,-0.045579680,0.038097800,-0.057956590
1640785503230929920,0.204714460,0.072033420,9.783468250,-0.018423800,0.036205360,-0.067450110
1640785503234839808,0.080773360,0.055856410,9.983448030,0.021830200,0.089941920,-0.079765920
1640785503238210048,0.233364280,0.047044270,9.854456900,0.030086940,0.071929420,-0.085107990
1640785503239640064,-0.023619460,0.178124520,10.599465370,0.002692640,0.047405070,-0.066101550
1640785503240079872,-0.101823430,0.254955530,9.740604400,-0.048843030,0.090822590,-0.047464670
1640785503244769792,-0.130568060,0.254320830,9.860691070,-0.049406290,0.033698980,-0.049662590
1640785503245189888,-0.446597580,0.459231350,10.066196440,0.006221230,0.093179950,-0.032313170
1640785503249859840,-0.147746620,0.525056300,9.283919330,0.006896260,0.086154040,-0.033108890
1640785503250720000,-0.237158430,0.341186760,10.377560620,-0.013509390,0.063385070,-0.025746230
1640785503254690048,-0.138372540,0.231885950,9.846694950,-0.013671820,0.138615090,-0.026522580
1640785503255179776,0.232187700,0.124051220,9.745847700,0.017362830,0.059832640,-0.034482780
1640785503259650048,-0.134096640,0.039970560,10.476737020,0.013747810,0.102007390,-0.026267770
1640785503260079872,0.222376230,0.143799020,9.238132480,-0.027537340,0.095853210,-0.033865870
1640785503267729920,0.165893700,-0.074252790,9.910174370,0.004914400,0.031410160,-0.028973820
1640785503268260096,0.077952800,0.080656870,9.323644640,0.019095840,0.172448170,-0.038868190
1640785503270099968,0.291895090,0.205049480,9.469631200,0.019055600,0.148293350,-0.047999620
1640785503270589952,-0.198840650,0.120705490,10.879020690,0.021994120,0.118234750,-0.028234720
1640785503274720000,-0.150643330,0.327156250,9.664248470,0.026568770,0.083045670,-0.015595550
1640785503275660032,-0.391034040,0.082547400,9.915651320,0.036066770,0.015878680,-0.017347930
1640785503279959808,-0.681134580,-0.104697150,9.789260860,0.040097540,0.151458380,-0.010220710
1640785503280839936,-0.446720690,0.006799360,9.536121370,0.085952890,0.111560520,-0.037726750
1640785503286000128,-0.500438210,0.044904110,10.215929030,0.093798360,0.074483450,-0.025083130
1640785503287119872,0.057228460,0.401603010,9.327385900,0.031827390,0.129485130,-0.012394790
1640785503289649920,0.219516920,0.658474450,10.036222460,-0.014874340,0.116711860,-0.013999640
1640785503290060032,0.079810360,0.714140360,10.375999450,-0.032493470,0.127194820,-0.008313360
1640785503294679808,0.151039570,0.872069420,9.960311890,0.036990640,0.038906940,-0.022506710
1640785503295079936,-0.168661480,0.634292360,10.076704980,0.076122580,0.031386320,-0.030277680
1640785503300099840,-0.106180830,0.517517450,9.400881770,0.058715050,0.107994680,-0.010910630
1640785503300859904,-0.267968680,0.458242830,10.041741370,0.010213250,0.111192460,0.003343820
1640785503304709888,-0.195688190,0.118405740,9.949833870,-0.053554780,0.139807130,0.008472800
1640785503305339904,0.098712880,0.342037050,9.809788700,-0.024336580,0.098106270,0.013504920
1640785503309690112,-0.164350520,0.480088770,10.261854170,-0.013369320,0.106100740,0.001153350
1640785503310099968,0.064084990,0.480253310,9.416933060,-0.039319690,0.093278280,0.020353490
1640785503315069952,-0.031059310,0.419212550,9.864921570,-0.005553660,0.058808930,0.013898310
1640785503316509952,-0.096454160,0.091933820,9.504318240,0.012239810,0.159658510,0.003647800
1640785503319719936,0.059623010,0.049777060,9.690505980,0.040097530,0.123395020,0.030058620
1640785503320150016,-0.444596530,-0.028318520,10.649375920,0.009809430,0.113865730,0.027573110
1640785503324669952,-0.023431640,-0.096580030,9.320724490,-0.037531550,0.061893470,0.030007960
1640785503325090048,-0.055084360,0.101073060,9.646466260,-0.001554190,0.065895910,0.023485720
1640785503329939968,-0.149720270,0.182827770,9.525719640,-0.011368100,0.213417430,-0.002677740
1640785503330649856,0.214456650,0.306282280,9.735282900,0.033037360,0.130163130,0.002773110
1640785503334849792,-0.220328170,0.324135120,10.734572410,0.071270770,0.094474850,0.010512770
1640785503336560128,0.003564930,0.267598000,9.236562730,0.019758940,0.101363650,0.024871530
1640785503339670016,-0.252001080,0.117264920,9.922160150,0.009065870,0.041006510,0.038471810
1640785503340119808,-0.681417820,-0.105298370,9.948337550,0.014388560,0.134381670,0.027437510
1640785503344679936,-0.304127660,-0.039481920,9.114106180,0.068570670,0.062200430,0.022828580
1640785503348499968,-0.612270590,0.014089360,10.228821750,0.086005040,0.084869560,0.026580690
1640785503349789952,-0.203735520,0.179736760,9.581713680,0.031839310,0.159449880,0.022061170
1640785503350509824,-0.074249370,0.425968920,10.304582600,0.036257510,0.047174100,0.033126770
1640785503354729984,-0.288875700,0.497466560,10.459136010,0.003556910,0.077784050,0.028412040
1640785503355549696,0.176337080,0.714612250,9.263632770,0.012010330,0.045332310,0.021995600
1640785503359629824,-0.082102460,0.566296880,10.066394810,0.072449450,0.059014560,0.028094650
1640785503360059904,-0.107976050,0.612368880,9.754137040,0.054043530,0.120539960,0.030303000
1640785503365120000,0.000885710,0.585881590,9.734134670,0.013381250,0.040143730,0.050868110
1640785503366380032,-0.310081390,0.322049920,10.225744250,-0.027900940,0.057594490,0.059145700
1640785503369689856,-0.185867730,0.423499520,9.599102020,-0.026778880,0.073875490,0.067530570
1640785503370159872,-0.349082950,0.283560690,9.992779730,0.004182760,0.036685170,0.061917310
1640785503374689792,-0.287141980,0.174994950,9.886196140,-0.007607040,0.066559020,0.048470500
1640785503375259904,-0.002784650,0.250625940,9.516939160,0.020800530,0.080201010,0.037632880
1640785503379709952,-0.147605020,0.077515690,10.040205960,0.001586970,0.080315750,0.037275260
1640785503380139776,-0.134186040,0.047437060,10.095909120,-0.013726950,0.051164630,0.048992040
1640785503385649920,-0.175228950,-0.023132850,9.847524640,0.022906060,-0.004093350,0.045450030
1640785503386259968,-0.134760360,-0.195365700,9.415772440,0.047019130,0.006473060,0.042262670
1640785503389659904,-0.144943130,0.068905810,9.423505780,0.053237380,0.093072660,0.050617750
1640785503390039808,-0.122633610,0.139368390,9.740320210,0.002729890,0.104464600,0.038933750
1640785503395000064,-0.066062700,0.220580350,10.313756940,0.010831660,0.024530290,0.050103670
1640785503395689984,-0.173605200,0.521095220,9.875540730,0.054027140,0.006900730,0.061677400
1640785503399809792,-0.249492840,0.356476190,9.456841470,0.027884540,-0.000056620,0.059056280
1640785503400489728,-0.573564230,0.325830130,10.175202370,0.049209610,0.006161630,0.067377090
1640785503404689920,-0.680051920,0.124273730,9.654644010,0.071513660,0.020241740,0.042361020
1640785503405349888,-0.579386770,-0.038850420,9.863116260,0.075292590,-0.049011410,0.043183570
1640785503409869824,-0.574181500,0.292586680,10.038364410,0.059787940,0.023593010,0.046387310
1640785503411180032,-0.238405660,0.401514500,9.618777280,-0.010713930,0.008395310,0.041754550
1640785503414819840,-0.262814340,0.650924440,10.448394780,-0.027915840,-0.055083640,0.057360530
1640785503415369984,-0.193845440,0.783381700,9.865244870,-0.017279380,-0.008809570,0.038580590
1640785503419719936,-0.019046400,0.532226860,9.704758640,0.032073260,-0.095111140,0.037637350
1640785503420100096,-0.354373010,0.500615480,10.396631240,0.086160000,-0.062365830,0.057834390
1640785503424800000,-0.233007550,0.221610980,9.404793740,0.013960900,-0.029405950,0.051917130
1640785503425839872,-0.333803860,-0.073372980,10.008551600,-0.028507410,-0.122946520,0.069145860
1640785503429639936,-0.457904760,0.040882020,9.957708360,-0.015538930,-0.026141110,0.066410010
1640785503430080000,-0.130667660,0.002201180,9.419112210,-0.017848610,-0.066205860,0.050970920
1640785503435609856,-0.367609320,0.160651730,10.506044390,0.028529770,-0.116251410,0.046329200
1640785503436300032,-0.039953500,0.291098710,9.482320790,0.029645860,-0.051392630,0.020644070
1640785503439669760,0.190785940,0.359253730,9.442533490,0.021168590,-0.107479100,0.025883320
1640785503444249856,-0.119554880,0.336294440,10.312911990,0.015552340,-0.035561620,0.051046900
1640785503444819968,0.110038660,0.181080940,9.680905340,0.010362270,-0.084359940,0.037957730
1640785503445169920,-0.180876870,-0.044796610,10.055451390,0.077186520,-0.202037410,0.062893340
1640785503449750016,-0.277745130,-0.066450630,9.252105710,0.078243020,-0.091351580,0.049628320
1640785503450349824,-0.205784870,-0.217421860,9.226274490,0.036835680,-0.076828900,0.035960970
1640785503454670080,-0.460852030,-0.210343700,10.321223260,0.066131350,-0.098742550,0.040726360
1640785503455099904,-0.100449640,0.067864650,9.660532950,0.082081560,-0.115388630,0.028392670
1640785503459679744,-0.093305510,0.160240010,9.861700060,0.073017190,-0.144071880,0.045014920
1640785503460089856,-0.185199020,0.333696630,10.230845450,0.054973370,-0.087484720,0.052617500
1640785503464709888,-0.094000990,0.326027660,10.036518100,0.081475090,-0.142413380,0.034792720
1640785503465639936,-0.235845550,0.294425490,9.907296180,0.123743730,-0.188367110,0.032056870
1640785503469669888,-0.028843410,0.560895920,9.319770810,0.099580010,-0.120559330,0.036668780
1640785503470180096,-0.023463010,0.556630610,9.647681240,0.046356020,-0.099456310,0.051906710
1640785503475319808,-0.107133510,0.597182100,10.157384870,0.010043380,-0.112384560,0.060626870
1640785503475970048,-0.112776640,0.745923640,10.039264680,0.000800190,-0.156189500,0.059261930
1640785503479689728,-0.260188370,0.521403670,9.894127850,0.042510030,-0.186148270,0.050990280
1640785503480219904,-0.259516330,0.472296030,9.698620800,0.076107690,-0.162294520,0.041386490
1640785503485299712,-0.367389980,0.332807840,9.815922740,0.044520200,-0.135348740,0.042651600
1640785503485809920,-0.291779430,-0.008047520,9.743488310,0.015360120,-0.147484240,0.057485710
1640785503490020096,-0.171723690,0.019961130,9.924450870,0.035506490,-0.164338960,0.056578220
1640785503490599936,-0.264434160,0.016813780,9.764372830,0.042361020,-0.154539940,0.057272620
1640785503494759936,-0.097772520,0.131048990,9.508682250,0.032195450,-0.214286160,0.070640440
1640785503495640064,-0.155396460,0.231452750,9.683626170,0.042389340,-0.196023290,0.047820810
1640785503499779840,0.084915540,0.343921420,8.928075790,0.049294540,-0.147606450,0.032781060
1640785503500460032,0.060055770,0.586689410,9.859472270,0.051027540,-0.135213150,0.034697350
1640785503504730112,-0.268374950,0.608590720,10.403649330,0.018808250,-0.138418390,0.039786100
1640785503505400064,-0.130668450,0.534045160,9.572742460,0.027406220,-0.288674290,0.051027540
1640785503509719808,-0.502765720,0.448234650,9.660675050,0.054660440,-0.271528960,0.046247250
1640785503510119936,-0.522698580,0.212315230,8.917696000,0.034077470,-0.137804450,0.036978730
1640785503514959872,-0.498349130,0.065499670,9.974860190,0.064830470,-0.208096210,0.046597420
1640785503515820032,-0.612573860,0.052674010,10.354781150,0.076191130,-0.196489690,0.036169580
1640785503519660032,-0.005915410,0.113732200,9.268264770,0.041413310,-0.238241270,0.029934940
1640785503520089856,-0.206325250,0.320192040,10.433362010,0.018545980,-0.252178340,0.035899880
1640785503524679936,-0.245965110,0.375795160,9.715061190,0.001189110,-0.193551150,0.020402670
1640785503525120000,-0.083485100,0.414578200,9.608532910,0.051122900,-0.335583030,0.017787510
1640785503529739776,-0.416318600,0.440393950,9.996470450,0.078551490,-0.261069830,0.025606160
1640785503530239744,0.039121710,0.451430170,8.902060510,0.051385170,-0.205735880,0.028319650
1640785503534929920,-0.159270170,0.472106310,10.292688370,0.018228590,-0.251190360,0.053042180
1640785503536069888,-0.174029310,0.380977720,9.836181640,-0.042828910,-0.201125460,0.056040290
1640785503539680000,0.219500270,0.321641980,9.379510880,-0.011362140,-0.315064220,0.041081000
1640785503540099840,-0.198209240,0.235981400,9.926621440,0.054419040,-0.272576510,0.041842460
1640785503544679936,0.128007960,0.139425960,8.780806540,0.038753450,-0.221057240,0.017653410
1640785503545090048,0.021308900,0.055873520,9.756362920,0.033740700,-0.265361310,0.006434320
1640785503549789952,-0.233664070,0.054456700,9.796442030,0.005665420,-0.216950480,0.010490420
1640785503550749952,0.099496690,0.062973800,9.344402310,0.013606250,-0.274299090,0.026671590
1640785503554909952,-0.312087680,0.145766240,10.229644780,0.023517010,-0.272855160,0.027312340
1640785503555399936,-0.012342920,0.180017170,9.161021230,0.016330180,-0.252378020,0.019371510
1640785503559689984,0.185460250,0.146709830,9.464275360,0.078286240,-0.249724090,0.012318790
1640785503560070144,0.056811960,0.351610990,9.553256990,0.066556040,-0.147373990,0.006444750
1640785503564979968,0.303209510,0.495922060,9.647490500,0.014640390,-0.249752430,0.026439140
1640785503566129920,0.091800820,0.589674590,10.063073160,-0.016714630,-0.286400260,0.039573010
1640785503569890048,0.060243540,0.552997290,9.083662030,-0.029364230,-0.254766670,0.023864210
1640785503571830016,-0.134933950,0.487450000,9.800068860,0.022369630,-0.248330850,0.010235610
1640785503574720000,-0.371078310,0.383965100,9.902572630,0.040526700,-0.170236860,-0.004236400
1640785503575399936,-0.142888920,0.273182930,9.721362110,0.050370400,-0.256048140,0.001753870
1640785503579660032,-0.017949210,0.256328760,9.797518730,0.016713140,-0.217244060,0.017535690
1640785503580070144,0.366008730,0.394330020,8.862925530,-0.049349670,-0.156803430,0.019179290
1640785503584739840,0.334030390,0.508343580,9.860917090,-0.059640410,-0.203369570,0.046212970
1640785503585409792,0.311583790,0.522574250,9.665709500,-0.050109620,-0.152345020,0.034032770
1640785503589649920,0.372382100,0.343047380,9.515652660,-0.012488660,-0.252345170,0.015205140
1640785503590070016,0.085817970,0.075256840,10.000200270,0.060254350,-0.196027800,0.020776690
1640785503594650112,0.189327730,-0.085985220,9.063178060,0.051119930,-0.122071800,0.003221630
1640785503595079936,-0.131139580,-0.265390490,10.047654150,0.008820000,-0.176018480,0.012227890
1640785503599729920,-0.022354430,-0.101027570,9.545355800,-0.026704370,-0.127334880,0.029617540
1640785503600430080,0.207760560,0.047247490,9.018858910,-0.012712180,-0.182922180,0.024320190
1640785503604749824,-0.039194890,0.335909610,9.732239720,0.009511410,-0.133615750,0.026758020
1640785503605409792,0.220216900,0.589586440,9.260302540,0.008377430,-0.075520580,0.003783410
1640785503609689856,-0.048554870,0.454979120,10.211164470,0.039705630,-0.182057930,-0.009912250
1640785503610139904,-0.025978390,0.494778660,9.685132980,0.062038000,-0.144030150,0.007049740
1640785503615029760,0.186744910,0.383219540,9.171957970,0.041294100,-0.128936780,0.003598630
1640785503615849984,-0.200058820,0.226714950,9.997690200,-0.001655520,-0.105643270,0.028429930
1640785503620399872,0.122270240,0.358415070,9.380036350,-0.021177530,-0.097808250,0.031520430
1640785503621449984,0.056901160,0.246397780,9.675802230,-0.007899110,-0.144223880,0.010868910
1640785503624659968,0.163457470,0.444831940,9.610306740,0.003208220,-0.081728400,0.022383040
1640785503625059840,0.424941360,0.641901670,9.581908230,0.008925800,-0.062292810,0.003594160
1640785503629699840,0.207859560,0.459807690,10.071987150,-0.019250810,-0.076790140,0.008542830
1640785503630449920,0.368892400,0.569109320,9.647503850,-0.030443080,-0.075522070,0.013725460
1640785503634840064,0.105241060,0.333081870,9.765113830,-0.010313090,-0.097824630,0.020392240
1640785503637489920,-0.081414570,0.066335140,9.417729380,0.003011520,-0.080975880,0.037465990
1640785503639659776,0.006221220,0.107124800,9.236108780,0.020292400,-0.075829030,0.022155050
1640785503640059904,0.030228580,-0.153770670,9.334319110,-0.013639030,-0.011676550,0.003115830
1640785503647939840,0.357765320,0.205269160,9.441466330,-0.015696880,0.032800430,0.022615490
1640785503649099776,0.220245820,0.424350440,10.223921780,-0.029744210,0.013369320,0.013719500
1640785503650089984,0.331200300,0.427523820,9.816085820,-0.062726450,-0.066304210,0.001120570
1640785503651140096,0.295978460,0.669272360,9.451363560,-0.001296400,-0.086423760,0.004787740
1640785503655040000,0.092274480,0.323059050,9.098241810,0.011627380,0.032915170,-0.024388730
1640785503655629824,0.066094120,0.244427100,9.504124640,0.018034880,0.047065320,-0.006146730
1640785503659639808,-0.260284720,0.257857890,10.359334950,0.017812850,0.018529590,-0.000183280
1640785503660140032,0.046516730,0.072376300,9.480009080,-0.035686780,-0.021785500,0.019259750
1640785503665109760,0.119653580,0.418192800,9.490494730,-0.055362280,0.001697240,0.030156970
1640785503666139904,-0.017268250,0.444580970,9.728297230,-0.084979840,0.092835720,0.008927290
1640785503671569920,0.225179730,0.493030520,9.753959660,-0.041860350,0.022485850,-0.000552830
1640785503672059904,0.062298920,0.676441310,10.000638960,0.011304020,-0.004179780,-0.022947790
1640785503674719744,0.403049410,0.446800320,9.190869330,-0.020425020,0.054678330,-0.020028650
1640785503675269888,0.345101800,0.540300250,9.609930040,-0.047735870,0.081990670,0.008594990
1640785503679739904,0.047290410,0.399686040,10.008346560,-0.088976320,0.106352580,0.014640390
1640785503680239872,0.267554880,0.291971740,9.622087480,-0.102424640,0.026242440,0.025835640
1640785503684800000,0.131772760,0.382331610,9.431727410,-0.053527950,0.029575820,0.029885770
1640785503685429760,0.368312690,0.195678320,9.015936850,-0.050050020,0.130131840,0.008706750
1640785503689719808,0.353021740,0.244337250,9.729052540,-0.059849020,0.175541650,0.005273520
1640785503690349824,0.161044120,0.191695810,10.043558120,-0.069302330,0.147911920,-0.002364810
1640785503694639872,0.287637770,0.138059660,9.828029630,-0.074490900,0.052905090,-0.005216900
1640785503695079936,-0.003586160,0.254380260,9.321693420,-0.052709880,0.086127220,0.010122360
1640785503699749888,-0.038706940,0.153399260,9.045290950,-0.077399620,0.119404510,-0.014579300
1640785503700429824,-0.191186400,0.041816530,9.857530590,-0.051838160,0.159515460,-0.012868640
1640785503704720128,-0.063704180,0.104854270,9.274031640,-0.001232330,0.174508960,-0.022269780
1640785503705129984,0.187626990,0.187623370,9.818794250,-0.018157060,0.126184540,-0.022156540
1640785503709719808,0.218157340,0.470946490,9.795828820,-0.066417440,0.208368910,0.004270670
1640785503710299904,0.374035180,0.482403870,9.457644460,-0.111021110,0.140130500,-0.002139810
1640785503715200000,0.184224010,0.438454000,10.171144490,-0.076656040,0.140030650,-0.005193050
1640785503717020160,0.111728360,0.561258730,9.200764660,-0.037518140,0.197798010,-0.028760730
1640785503720989952,0.032896190,0.384350060,9.893907550,-0.018355250,0.107997660,-0.029540060
1640785503721519872,-0.170303300,0.287565740,9.954433440,-0.037059200,0.205947500,-0.010606650
1640785503724629760,0.187069950,0.263793440,8.927555080,-0.079384450,0.184495750,-0.018303100
1640785503725080064,0.061485510,0.244716600,10.328689580,-0.098890070,0.207118700,-0.001674890
1640785503730049792,0.254802970,0.517904220,9.452718730,-0.107501470,0.281712410,-0.001136960
1640785503730749952,0.375327680,0.505954270,9.739486690,-0.096455220,0.129908340,-0.013121960
1640785503734729984,0.209386780,0.485215720,9.931252480,-0.090019410,0.208117070,-0.018772480
1640785503735440128,0.526305680,0.442507450,8.572510720,-0.077703600,0.257735040,-0.026203700
1640785503739670016,0.006102390,0.082563450,10.424694060,-0.048761060,0.203929860,-0.014893710
1640785503740069888,-0.124078880,-0.011402620,9.727436070,-0.080882010,0.269849570,-0.000870230
1640785503744669952,0.113068440,-0.224895890,9.213786130,-0.067396470,0.133676830,-0.003613530
1640785503745489920,-0.265564140,-0.342390450,9.978081700,-0.042064490,0.242279480,-0.004924830
1640785503749729792,0.151935520,-0.018910290,8.679989810,-0.058263540,0.324049590,-0.038278100
1640785503750340096,-0.010363620,0.104504700,10.208532330,-0.053444500,0.201611220,-0.056083500
1640785503754669824,0.037090780,0.426424530,9.732276920,-0.064580140,0.284919170,-0.045546890
1640785503755219968,0.391831160,0.608874920,9.032393460,-0.038479270,0.202532160,-0.036571920
1640785503759640064,-0.243845340,0.461002170,10.440713880,-0.030018390,0.222697870,-0.021880870
1640785503760099840,0.003533360,0.485767360,9.188455580,-0.049775850,0.277175010,-0.024482610
1640785503765090048,-0.223551870,0.199721630,9.848293300,-0.021970270,0.174187120,-0.027076910
1640785503766180096,-0.356734810,0.170243070,9.794362070,-0.033707920,0.277745660,-0.030209120
1640785503769729792,0.163821010,0.460809620,8.914260860,-0.061725090,0.257997240,-0.040158630
1640785503770319872,-0.102423610,0.536286710,10.215771680,-0.102584060,0.239189000,-0.035291910
1640785503774679808,0.221716940,0.800549810,9.452363970,-0.147096810,0.300127300,-0.033310060
1640785503775329792,0.188754570,0.767364140,9.791197780,-0.094182790,0.201302780,-0.051359840
1640785503779769856,-0.207451870,0.549609600,10.244146350,-0.045140090,0.218836960,-0.044946380
1640785503780189952,-0.007369860,0.528828140,9.203915600,-0.033748150,0.228807330,-0.036811830
1640785503784750080,-0.274362530,0.138129470,9.732511520,-0.079326330,0.211143510,-0.025412440
1640785503786249984,-0.049093780,0.049473900,9.280848500,-0.124670570,0.289049740,-0.018426780
1640785503789710080,0.082641880,0.285646020,9.325609210,-0.105646240,0.276043980,-0.018848480
1640785503790230016,-0.048888390,0.279333140,10.016735080,-0.134556010,0.243230180,-0.018888710
1640785503794779904,0.252090900,0.468794820,9.523689270,-0.121273090,0.224401030,-0.029410420
1640785503795259904,0.046888790,0.335069690,9.561672210,-0.077544140,0.220474620,-0.065034620
1640785503799699968,-0.015625390,0.249551480,9.522639270,-0.058299300,0.260736080,-0.067698960
1640785503800279808,-0.100152300,0.269912720,9.656914710,-0.056234000,0.268889960,-0.058615210
1640785503804699904,-0.347787740,-0.011509820,9.811916350,-0.100722910,0.214879260,-0.051848590
1640785503805159680,-0.284628540,0.025113540,9.520216940,-0.090220580,0.180694460,-0.020150840
1640785503809919744,-0.374529120,0.010842410,9.174457550,-0.072298960,0.248768970,-0.056016450
1640785503811129856,-0.279928620,0.052156280,9.601163860,-0.074368710,0.237360610,-0.061453880
1640785503815089920,-0.272639600,0.402157930,10.086264610,-0.041516130,0.233711300,-0.056932870
1640785503815889920,-0.001997370,0.439819840,9.564978600,-0.071908540,0.213272870,-0.072978440
1640785503819729920,0.022500590,0.584093930,10.002008440,-0.085049880,0.177413230,-0.047904260
1640785503820229888,-0.128070280,0.718606410,9.765804290,-0.089377160,0.225776430,-0.052455070
1640785503824819968,-0.051187290,0.491634100,9.536045070,-0.097402920,0.151477770,-0.043249130
1640785503825600000,-0.240226430,0.459376340,9.913351060,-0.064438590,0.169450010,-0.034935760
1640785503829639936,-0.040673310,0.258780420,9.109783170,-0.061233350,0.225299630,-0.055117920
1640785503830089728,0.019201170,0.250095610,9.794522290,-0.071619440,0.187696490,-0.033260890
1640785503834709760,-0.119114250,0.427726890,9.857030870,-0.119701030,0.228266460,-0.029599670
1640785503836310016,0.176539200,0.241674480,9.216351510,-0.167249140,0.176297170,-0.050352520
1640785503839639808,-0.171596660,0.250121380,10.057595250,-0.095036650,0.145354900,-0.037662690
1640785503840279808,-0.179329800,0.149327190,9.252312660,-0.037014480,0.197340550,-0.059354310
1640785503844770048,-0.198322420,-0.065394790,9.565655710,-0.033354760,0.123085080,-0.067856920
1640785503845249792,-0.402086880,-0.000579690,9.794053080,-0.051525230,0.199124220,-0.051252540
1640785503851859712,-0.037694670,-0.008911630,9.127120020,-0.084434430,0.195474940,-0.059995050
1640785503852439808,-0.254354890,0.039920190,10.101919170,-0.083847350,0.156512870,-0.030565260
1640785503854669824,-0.071552500,0.332684040,9.502173420,-0.081245600,0.176987070,-0.036716460
1640785503855109888,0.126313910,0.212519110,9.362880710,-0.042021280,0.116966660,-0.052662190
1640785503859670016,-0.146705250,0.276887570,9.661312100,-0.006024540,0.172309590,-0.058659910
1640785503860129792,0.004238890,0.310070960,9.356687550,-0.025717920,0.184676070,-0.077395140
1640785503864969984,-0.355321020,0.138969000,10.277009960,-0.027759370,0.117145500,-0.068809090
1640785503865700096,-0.352081810,0.224556680,9.628532410,-0.041961670,0.089952360,-0.055582830
1640785503869619968,-0.271252870,0.157302260,9.326616290,-0.047335020,0.109939260,-0.069679310
1640785503870089984,-0.481554630,0.140698390,9.754298210,-0.035071370,0.169914950,-0.055873390
1640785503874779904,-0.237463120,0.317278210,9.872451780,-0.003659720,0.128503130,-0.064592050
1640785503875599872,-0.207830290,0.302451910,9.914157870,-0.005218390,0.081859530,-0.060968110
1640785503879699968,0.117496510,0.429787990,9.306377410,-0.041651730,0.096045430,-0.041309000
1640785503880209920,0.177295770,0.449516860,9.667531010,-0.058577970,0.142733770,-0.052639840
1640785503884879872,0.000323840,0.367405210,9.973542210,-0.043906260,0.144875030,-0.049419700
1640785503885679872,-0.002845650,0.406800060,9.969461440,-0.017276410,0.037923460,-0.045953690
1640785503889910016,-0.240424320,0.233942340,9.727165220,-0.006523730,0.052283710,-0.073294340
1640785503890879744,-0.010336080,0.238626790,8.823585510,-0.015085940,0.099989780,-0.060465920
1640785503894670080,-0.192697080,0.309279200,9.802493100,-0.036150220,0.152216900,-0.049045690
1640785503895099904,-0.217484550,0.187070330,9.852499960,-0.075684490,0.162726660,-0.055803360
1640785503899789824,0.050204380,0.238963430,9.816699980,-0.024645030,0.019408770,-0.041741140
1640785503900440064,-0.231560720,0.221908330,9.817765240,0.011686980,0.055016580,-0.052553420
1640785503904669952,0.035070300,0.132714600,8.682201390,-0.022546950,0.107589380,-0.060673070
1640785503905280000,-0.201246920,-0.004247160,10.048583030,-0.010775030,0.086070580,-0.073157240
1640785503909689856,-0.311853770,-0.209266780,9.790368080,0.017386670,0.131788860,-0.088714060
1640785503910339840,0.046311180,-0.019344880,9.351388930,0.058147310,0.012971460,-0.071825090
1640785503915030016,-0.349625050,0.145413710,10.165431020,0.016939640,0.080130990,-0.060558320
1640785503916179968,0.018643010,0.304108920,9.031573300,-0.045776370,0.102873150,-0.051082670
1640785503919739904,-0.196791900,0.349503370,10.108213420,0.007204710,0.013443830,-0.055973240
1640785503920249856,-0.399855790,0.539338290,9.713290210,0.032940510,0.099110600,-0.079204130
1640785503924669952,-0.066050810,0.718424020,9.106964110,0.050190090,-0.000318880,-0.078733270
1640785503925129984,-0.532231690,0.647869410,10.335061070,0.014129280,0.016656520,-0.075288140
1640785503929679872,-0.160936710,0.689398830,9.129667280,-0.048458590,0.087307390,-0.066982220
1640785503930139904,-0.216664140,0.413677190,10.083379750,-0.027118620,-0.007060170,-0.063754630
1640785503934779904,-0.364249890,0.276313040,10.179832460,0.011959670,0.046332180,-0.061835350
1640785503936539904,0.159657360,0.443589780,9.103902820,0.018917020,-0.000666080,-0.056369610
1640785503939759872,-0.070094080,0.202325060,9.911970140,-0.028201940,-0.005713110,-0.042191160
1640785503940269824,0.235926820,0.160224710,9.090274810,-0.061772770,0.058175630,-0.048030910
1640785503944679936,0.249066490,0.182599080,9.556235310,-0.005546210,0.025694070,-0.059960790
1640785503945400064,-0.172953710,0.081989620,10.256635670,-0.000815090,0.027418130,-0.054135910
1640785503949869824,-0.103485540,0.158658650,9.670597080,0.017447770,-0.049667070,-0.051908200
1640785503950619904,-0.385767370,-0.059649640,9.639078140,0.030706820,-0.062656390,-0.065952530
1640785503954959872,-0.270836620,0.087078870,9.054395680,0.007800760,0.037002570,-0.063610080
1640785503955409920,-0.235016510,0.265592010,9.572343830,0.007368620,0.076173250,-0.057470810
1640785503959659776,-0.172393810,0.174589870,9.998785020,0.001393260,0.015808640,-0.062637040
1640785503960079872,0.046808380,0.484433440,9.659729960,0.044837590,-0.063264380,-0.040294230
1640785503964890112,-0.071188170,0.397827090,9.283285140,0.021886830,-0.014442210,-0.063727800
1640785503965549824,-0.158046600,0.232378210,9.599882130,0.001455840,-0.032146280,-0.064204630
1640785503969750016,-0.382446440,0.135670110,9.942326550,0.064654630,-0.020381810,-0.068213030
1640785503970899712,-0.202265920,-0.106511270,9.388439180,0.079491730,-0.040720400,-0.089970240
1640785503974829824,-0.204210910,0.084805030,9.866131780,0.075839470,-0.045216080,-0.057211520
1640785503975499776,-0.260693130,0.234115840,9.695169450,0.020276010,0.012877580,-0.057925290
1640785503979679744,-0.144868310,0.284540590,9.729762080,-0.012721120,-0.094871230,-0.050537290
1640785503980120064,-0.325227470,0.587023910,9.785745620,0.027069450,-0.082883240,-0.049996380
1640785503985519872,-0.015051390,0.572096770,9.065869330,0.044542550,-0.041511650,-0.071132190
1640785503986379776,-0.129522200,0.645394500,10.055708890,0.087513040,-0.046709180,-0.052626430
1640785503989659904,-0.240165410,0.624855760,10.085423470,0.041490790,-0.029841060,-0.050795080
1640785503990099968,-0.090087740,0.333440900,9.788273810,-0.015205150,-0.128312420,-0.064332780
1640785503994619904,-0.305755670,0.349084590,9.879896160,0.004893540,-0.111714010,-0.035710640
1640785503995169792,-0.142604010,0.296159390,9.217710490,0.025108460,-0.053992870,-0.046162300
1640785503999779840,-0.123047330,0.291931480,9.739441870,0.026589630,-0.083792210,-0.050759320
1640785504000579840,0.054618470,0.454635920,9.552204130,-0.005719070,-0.053967540,-0.051189970
1640785504004799744,0.315178040,0.383945170,9.610931400,-0.020983810,-0.042989840,-0.044676660
1640785504005479936,0.001860190,0.321455480,10.213351250,0.007298590,-0.055249040,-0.026617940
1640785504009729792,-0.030445710,0.220981660,9.888132100,0.017620620,-0.153467070,-0.037044290
1640785504010119936,-0.102624090,-0.048074930,9.423088070,0.044378640,-0.159801560,-0.046429040
1640785504014939904,0.066515770,-0.063351440,8.786134720,0.056260820,-0.030790270,-0.038273630
1640785504015980032,-0.102411090,-0.161648010,9.929191590,0.040547540,0.016266110,-0.044259430
1640785504021489920,-0.180558930,-0.083372290,10.154357910,0.039118520,-0.053010880,-0.041514630
1640785504022029824,-0.000560420,0.125943170,9.824975970,0.050668410,-0.193817880,-0.032863020
1640785504024639744,-0.254811080,0.204152440,9.410465240,0.040388110,-0.109303000,-0.030842430
1640785504025139712,-0.093178060,0.247874200,8.913212780,0.055648390,-0.044581300,-0.041937830
1640785504029619968,-0.357265710,0.100219600,10.392816540,0.117175290,-0.068858270,-0.057990860
1640785504030099968,-0.237451400,0.222103970,9.728494640,0.136916320,-0.082744650,-0.058096640
1640785504035779840,0.059593710,0.210326300,9.515215870,0.105299080,-0.172276790,-0.027219960
1640785504036389888,-0.240350480,0.151898180,9.817642210,0.047729910,-0.069770220,-0.022314490
1640785504039820032,0.068252270,0.299670990,9.241954800,0.042194140,-0.069336610,-0.031423570
1640785504040529920,-0.155903210,0.279019300,10.318548200,0.098048160,-0.146833080,-0.040344890
1640785504044639744,-0.071537460,0.459092710,9.427088740,0.108136240,-0.094592580,-0.052167480
1640785504045139968,0.191451340,0.565888460,9.350984570,0.115406520,-0.133904810,-0.046388800
1640785504049789952,-0.235354860,0.524989370,10.177211760,0.062806910,-0.065956990,-0.025185940
1640785504050659840,-0.001058230,0.654568310,9.385557170,0.028038030,-0.111353420,-0.017836690
1640785504054679808,-0.203539100,0.498310630,10.144994740,0.042861710,-0.194810350,-0.019820030
1640785504055269888,-0.189917300,0.473954590,9.311845780,0.063630950,-0.091132520,-0.013954940
1640785504059639808,-0.062269090,0.551949200,9.452484130,0.085578880,-0.134165590,-0.021398070
1640785504060129792,-0.197681960,0.308014360,10.106722830,0.036844610,-0.092218820,-0.011318920
1640785504065019904,0.391579690,0.332677810,9.112374310,0.031951070,-0.082379560,-0.011976060
1640785504065920000,0.199201120,0.273172140,10.085426330,0.055390600,-0.093448160,-0.016528370
1640785504071069952,0.202051130,0.276495580,9.652926450,0.018340350,-0.067904600,-0.011870270
1640785504071669760,0.143922090,0.315451090,9.614212990,0.038990370,-0.175982680,-0.011572240
1640785504074729984,-0.085033970,0.000651490,9.515211110,0.048249960,-0.131714310,-0.034724180
1640785504076220160,0.171043890,0.041710480,8.820872310,0.082093480,-0.041331360,-0.029800840
1640785504079660032,-0.308478240,0.019876840,10.247267720,0.099845240,-0.040762130,-0.033608080
1640785504080289792,-0.180465640,0.061413120,10.052930830,0.055278840,-0.100663330,-0.021922590
1640785504084960000,-0.157295580,0.320737690,9.545770650,0.041326880,-0.184921940,-0.009013710
1640785504087859968,-0.231934790,0.249322210,9.169136050,0.006796420,-0.105780390,-0.028809910
1640785504089609984,0.005306520,0.346259180,9.341387750,0.063192850,-0.045548390,-0.028806930
1640785504090109952,-0.236188620,0.283315300,10.122109410,0.134550050,-0.071799760,-0.048330430
1640785504094650112,-0.056349780,0.259448530,9.963644030,0.126127880,-0.157417330,-0.034974510
1640785504095119872,-0.007657790,0.342800710,9.521432880,0.069476660,-0.145149250,-0.009979310
1640785504099959808,-0.089063760,0.264871120,9.370872500,0.003212690,-0.099587450,-0.016558170
1640785504100780032,-0.163411530,0.384228020,9.968662260,0.033092500,-0.104875870,-0.008746980
1640785504104749824,-0.138342920,0.533332110,9.561554910,0.066336990,-0.115585330,-0.029723350
1640785504105239808,0.100811860,0.559993510,9.503433230,0.073243690,-0.149074240,-0.033229590
1640785504109769728,0.054884060,0.723279060,9.826353070,0.066946460,-0.057058050,-0.007086990
1640785504110259968,0.117007870,0.636167290,9.518988610,-0.003537540,-0.076451880,-0.005900860
1640785504114729984,-0.054940760,0.365434910,10.157935140,0.004585090,-0.153663770,0.011603530
1640785504115239936,0.073655910,0.263286320,9.299017910,0.040872400,-0.106480740,0.010006130
1640785504120489728,0.094232170,0.102992530,9.285958290,0.072491170,-0.114889450,0.001454350
1640785504121079808,-0.090934230,0.151981530,9.836557390,0.054976340,-0.077083710,0.011672080
1640785504124649984,0.323337290,0.073507620,9.259824750,-0.001746420,-0.039668380,-0.002326070
1640785504125139968,0.277818890,0.049992170,9.861259460,0.021974740,-0.075033300,-0.003482400
1640785504130050048,0.290767370,0.347674160,9.788068770,0.049138070,-0.043077770,0.005660950
1640785504130839808,0.164417580,0.288286920,9.736819270,0.037901110,-0.104555500,-0.010786950
1640785504134820096,-0.067594480,0.288045470,9.515948300,0.042134530,-0.122563540,-0.005452340
1640785504135399936,0.035439990,0.272834600,9.145747180,0.055502360,-0.066989680,-0.009889900
1640785504139689984,-0.238646060,0.130175260,9.506419180,0.072515020,0.006014110,-0.003521140
1640785504140139776,-0.121367510,0.245185490,9.803433420,0.070899730,-0.050918760,0.015027820
1640785504144839936,-0.107407960,0.240917460,10.309844020,0.042910870,-0.068314380,0.015106800
1640785504145689856,-0.029200010,0.353622170,9.273217200,0.022301080,-0.076243280,0.016905370
1640785504149819904,0.021853720,0.434238640,9.668062210,0.035803020,-0.098583100,0.003750620
1640785504150539776,-0.141538070,0.343999590,9.634976390,0.058937080,0.012530390,-0.010494890
1640785504154660096,0.050893140,0.521800580,9.467262270,0.073637070,-0.085298720,-0.010333960
1640785504155259904,-0.131089170,0.454841610,10.537950520,0.058886410,-0.091463330,0.008554760
1640785504159619840,0.160196350,0.356239500,9.026909830,0.022310020,-0.008612870,0.005893410
1640785504161199872,0.047441100,0.519654450,10.035162930,0.031334170,-0.105397430,0.016865130
1640785504164669952,-0.153080460,0.550921260,10.157444950,0.002342460,0.013801460,0.035321710
1640785504165179904,0.319214970,0.607484520,8.912582400,-0.001911820,-0.068995360,0.021445750
1640785504169750016,-0.030807550,0.544285770,10.228070260,0.038632750,-0.097404430,0.019676980
1640785504171330048,0.252326760,0.638044480,8.915757180,0.010722880,0.053517520,0.028170650
1640785504174649856,0.174221710,0.543005050,9.656635280,-0.010547040,-0.038473310,0.029514730
1640785504175129856,-0.246282550,0.182692840,10.626973150,-0.016781690,-0.039094680,0.044174480
1640785504179699968,0.223640650,0.092535570,9.030081750,0.038707260,-0.056384500,0.028984250
1640785504180179712,-0.059742110,-0.031311470,9.502480510,0.070831170,-0.063779940,0.019688900
1640785504184779776,0.120627490,0.150859550,9.270668030,-0.007323920,0.070188920,0.029291210
1640785504185479936,0.322511700,0.297792170,9.490704540,-0.036615140,0.055071720,0.029619040
1640785504189600000,0.077271170,0.265332460,10.214273450,-0.013208390,-0.019714230,0.031363960
1640785504190119936,0.223404790,0.522893130,9.522371290,0.032687190,-0.042213500,0.038798160
1640785504194769920,0.013472290,0.377322490,9.239623070,0.028733910,-0.014261900,0.025323040
1640785504195360000,-0.109163670,0.115581960,9.671883580,0.029197330,0.018653270,0.021667770
1640785504200009728,-0.208675160,0.097245500,9.783836360,0.059723860,0.059169540,0.022938850
1640785504200829952,-0.145543610,-0.112357400,9.562582970,0.041462480,-0.021892790,0.020509960
1640785504204630016,-0.194046570,0.080211710,9.983272550,0.042103230,-0.031562150,0.036697090
1640785504205159936,-0.172682140,0.352099090,9.266823770,0.000046190,0.041887160,0.017288330
1640785504209849856,-0.077298250,0.471840440,9.544451710,-0.025250010,-0.035437940,0.023432080
1640785504210799872,-0.193852860,0.741268220,10.084171300,0.016815960,0.030249360,0.025193400
1640785504214639872,0.160009250,0.752517580,9.319608690,0.038458410,0.029104950,0.012254720
1640785504215200000,0.007470210,0.844247940,10.170145030,0.046980370,-0.051341950,0.040370230
1640785504220489984,0.076918140,0.705801370,9.508223530,-0.026306520,0.048117340,0.039221350
1640785504221019904,0.230502710,0.436174120,9.308728220,-0.054623190,-0.005021690,0.039991740
1640785504224720128,-0.164792180,0.369636240,10.179303170,-0.013741850,0.006155670,0.062806900
1640785504225529856,0.042490960,0.239032060,9.329811100,-0.021345910,0.013352930,0.030426680
1640785504229629952,0.068902160,0.167255510,9.477402690,-0.013422970,-0.026628380,0.028654930
1640785504230099968,0.090795190,0.251025020,9.537545200,-0.026126210,0.071528550,0.038354100
1640785504234749952,0.140978350,0.190073100,9.685050960,-0.043800480,0.076702240,0.035284460
1640785504235319808,-0.121805190,0.113559310,10.103056910,-0.029563910,-0.006906690,0.046369430
1640785504239630080,-0.016818640,0.108465450,9.617078780,0.006987150,-0.048203770,0.040929020
1640785504240099840,-0.033704420,0.003706350,8.955542560,0.032851100,0.020687280,0.030381980
1640785504244719872,0.056530450,0.148201420,9.100686070,0.002534690,0.083130610,0.025002660
1640785504245219840,-0.023303690,0.211563140,10.218715670,-0.020019710,0.087662050,0.022651260
1640785504249789952,0.124111350,0.271507890,9.643490790,-0.006175040,0.028425460,0.029867890
1640785504250489856,0.201825800,0.428748280,9.699418070,0.007911030,-0.038345150,0.037549430
1640785504254629888,-0.118686990,0.300403000,9.611065860,-0.001053510,0.079686940,0.030624870
1640785504255620096,0.063474180,0.183564890,9.130062100,0.022688510,0.034759940,0.030064580
1640785504259729920,-0.350231830,0.051537580,10.240541460,0.068724160,0.012686850,0.016267600
1640785504260519936,-0.174194040,0.120695190,9.118282320,0.040848550,0.070244070,0.014650820
1640785504264709888,0.026048270,0.250379890,9.607560160,0.008194150,-0.006885830,0.023113190
1640785504266330112,-0.278652310,0.441222820,10.212024690,-0.027206540,0.097261370,0.029641390
1640785504270459904,0.174724300,0.703455210,9.170207020,-0.039735450,0.036942970,0.026966640
1640785504270999808,-0.121553910,0.660309140,10.294350620,0.012141460,-0.034013380,0.020861620
1640785504275109888,0.055550620,0.744844260,9.205622670,0.018003580,0.069974360,0.016096240
1640785504275859712,0.247611850,0.606075940,9.285371780,0.030794740,0.025834140,0.031419090
1640785504279680000,-0.180142160,0.228932530,10.220808980,-0.014324490,0.055648390,0.038710240
1640785504280259840,0.311987520,0.168160480,8.999298100,-0.036057820,0.039887430,0.047697120
1640785504284809728,0.185242160,-0.069573450,9.731556890,-0.005546210,0.043384740,0.049407790
1640785504287059968,-0.001935980,-0.089471410,9.860636710,-0.009629130,0.113168360,0.046832860
1640785504289700096,0.103975240,0.001426260,9.711162570,0.017367310,0.019608440,0.033254930
1640785504290829824,-0.014094800,-0.140757560,9.570336340,0.033560400,0.017404560,0.014385580
1640785504294669824,0.074466880,0.113779240,9.075407980,0.040307640,0.095149870,0.013837220
1640785504295179776,-0.116423100,0.201964510,9.694459920,0.028997660,0.099240270,0.023266680
1640785504299749888,-0.154827460,0.152051310,9.980503080,0.022059680,0.044749680,0.040729340
1640785504300419840,-0.195555810,0.323014230,9.724426270,0.070612140,0.005409120,0.046218930
1640785504304819712,-0.138769670,0.205903800,9.269044880,0.051979730,0.063899170,0.031772260
1640785504305809920,-0.223525430,0.262337120,9.925271990,0.044491890,0.072696810,0.039099160
1640785504309649920,-0.219186630,0.323896350,9.820775990,0.063662240,0.071178380,0.027890510
1640785504310129920,0.126330580,0.247152490,9.457829480,0.063219670,0.017426910,0.027927760
1640785504315099904,0.077998940,0.509028790,9.681984900,0.051604210,0.075829040,0.051520760
1640785504316359936,0.140871000,0.505801320,9.497606280,0.007690490,0.094851860,0.038100780
1640785504319809792,-0.009063900,0.366161410,10.200948720,0.030505660,0.010192390,0.045230980
1640785504320289792,-0.180031310,0.501352010,9.685791020,0.056064130,0.030328330,0.028418010
1640785504324689920,0.009632580,0.311363220,9.260366440,0.056692960,0.028228760,0.028559570
1640785504325209856,-0.206493590,0.271231170,9.789884570,0.060231990,0.082333390,0.054696210
1640785504329669888,0.005992250,0.365978540,9.348451610,0.020438430,0.109627840,0.040330000
1640785504330129920,-0.003602410,0.204644440,9.924232480,-0.000102820,0.029449170,0.048911570
1640785504334709760,0.002899880,0.294140400,9.519857410,0.033473970,0.055202850,0.056332360
1640785504335320064,0.064969110,0.168533240,9.371363640,0.058253110,0.032567980,0.028705600
1640785504339689984,-0.203767660,0.059119600,9.852079390,0.053435560,0.048172470,0.021266930
1640785504340399872,-0.032716920,0.055577350,9.361678120,0.057327740,0.056380040,0.017045430
1640785504344659968,-0.093625060,-0.074159420,9.778721810,0.078870360,0.058312720,0.016136470
1640785504345159936,-0.061025880,0.128664640,9.646603580,0.061646100,0.088332600,0.036486990
1640785504349710080,-0.089796030,0.343331160,9.899855610,0.036312640,0.016978380,0.043299790
1640785504350540032,-0.234169560,0.311664280,9.672932620,0.036223230,0.016091760,0.047180060
1640785504354769920,0.033373850,0.460693480,9.073726650,0.065697730,0.026676060,0.034867230
1640785504355859968,-0.289668410,0.502350570,10.040572170,0.091555710,0.074991570,0.007197260
1640785504359639808,-0.069688060,0.522388460,9.763522150,0.063619000,0.064007930,0.024704630
1640785504360139776,0.009223810,0.571920870,10.107980730,0.047062340,-0.016979870,0.035515430
1640785504364679936,-0.109166080,0.350327250,9.687903400,0.012500590,0.059661280,0.029948360
1640785504365499904,0.179409030,0.379099160,9.121778490,0.023642180,0.028680260,0.028765200
1640785504370829824,-0.224537800,0.324691980,9.961732860,0.056134180,0.022396450,0.039652000
1640785504373149952,-0.025347490,0.109763510,9.225080490,0.041835010,0.030317900,0.037220120
1640785504374660096,0.154863460,0.070384610,9.538144110,0.060786320,-0.004900990,0.040091580
1640785504375379968,-0.048743370,0.024615630,9.736962320,0.049977010,0.099447390,0.035741940
1640785504379659776,0.253476770,0.108733110,9.568579670,0.043509900,0.067389020,0.039669870
1640785504380139776,-0.110656000,0.108301860,10.421079640,0.035502020,0.010938940,0.040131810
1640785504384800000,-0.022378580,0.011295880,9.307103160,0.056837500,0.004515050,0.027588010
1640785504385579776,-0.062452250,-0.055459440,9.283373830,0.141289850,-0.014774500,0.011549890
1640785504389619712,-0.389272390,0.017710940,9.388098720,0.133252160,0.082287190,-0.007982550
1640785504390240000,-0.020931350,0.237840490,9.369110110,0.076814010,0.061199080,0.018079580
1640785504394649856,-0.188301970,0.284800440,10.360486030,0.055885320,0.040492410,0.034670540
1640785504395190016,0.037755500,0.370179180,9.552007680,0.055767600,0.039972370,0.041735180
1640785504399729920,-0.019540540,0.488093230,9.916682240,0.113508110,-0.019378960,0.039374830
1640785504400489728,-0.242704810,0.393015650,9.805693630,0.102896990,0.034235420,0.028535730
1640785504404749824,-0.161125750,0.285536740,9.438148500,0.125260670,-0.010955330,0.018599630
1640785504405509888,-0.297043230,0.155161930,9.866675380,0.139796730,0.002241130,0.010602180
1640785504409659904,0.109460290,0.278964250,9.205458640,0.087788700,0.042720140,0.011454520
1640785504410119936,0.148898540,0.598501560,9.789380070,0.055731840,0.040848560,0.030906500
1640785504414629888,0.161940870,0.742061320,9.962781910,-0.006474550,0.063940870,0.039695200
1640785504415369984,0.157980750,0.743999360,9.838598250,0.019584600,-0.016063450,0.036807360
1640785504419800064,-0.067220750,0.535549940,9.746758460,0.115396090,-0.027211010,0.022253400
1640785504422619904,0.011826820,0.227434370,9.179168700,0.135900100,0.013476610,0.011576710
1640785504424769792,-0.174368960,0.079703490,9.508784290,0.105662640,0.054407120,0.022177400
1640785504425210112,-0.082100040,-0.105135220,9.573495860,0.029709940,0.069701670,0.027570130
1640785504429659904,0.025405410,-0.128058170,9.875746730,0.020240250,0.026921930,0.040215250
1640785504430119936,-0.088095130,0.069042360,9.696785930,0.064760450,0.011478360,0.027048590
1640785504434779904,0.003598380,0.065049130,9.621064190,0.083127630,-0.011000040,0.011891130
1640785504435659776,-0.090024720,0.151436540,9.480732920,0.140543280,0.027808550,-0.000971560
1640785504439709952,-0.032594750,0.311679720,9.321907040,0.136670490,0.044432280,-0.013573470
1640785504440259840,-0.061593940,0.373275220,10.135582920,0.093592700,0.034014880,0.011889630
1640785504444630016,-0.104234300,0.551899910,9.646566390,0.046238310,0.024673340,0.031208990
1640785504445159936,0.010346840,0.582691730,9.715946200,0.051179540,-0.053727640,0.028517850
1640785504450359808,-0.265082720,0.554573240,9.728118900,0.075216580,0.035747890,0.027385350
1640785504452239872,-0.159635960,0.542458470,9.215609550,0.098586080,0.013113020,0.005356970
1640785504454639872,-0.281006250,0.315610710,10.326078410,0.110808020,-0.017085670,0.014986100
1640785504456399872,-0.050832530,0.255243900,9.381823540,0.078167010,0.046873090,0.010912120
1640785504459669760,0.213969220,0.293590310,9.493894580,0.048552460,-0.018583240,0.000627340
1640785504460179968,0.013825850,0.323539730,10.069603920,0.023227930,0.047972810,0.023649640
1640785504464669952,0.247911940,0.352926790,9.099107740,0.026293100,0.018765030,0.029344860
1640785504465619968,-0.074632860,0.076350470,10.204616550,0.094299030,-0.082898140,0.027516480
1640785504469750016,0.026949960,-0.031586420,9.246778490,0.144104660,0.028951470,0.018800800
1640785504470389760,0.109646280,-0.019673420,9.147450450,0.156475620,0.006620590,0.000104310
1640785504474659840,-0.266048970,0.065661940,10.224872590,0.072887520,0.045706330,0.014890730
1640785504475509760,0.176852870,0.371724010,9.199923520,-0.008198620,0.049240890,0.019203120
1640785504479650048,-0.070120830,0.424393270,10.022786140,0.038056080,-0.040040910,0.013217330
1640785504480150016,-0.119443700,0.551526370,9.516832350,0.098262740,0.014217200,0.010497870
1640785504484750080,-0.021664290,0.616888230,9.225024220,0.123228140,-0.026047230,-0.013360380
1640785504485499904,-0.469249990,0.238907620,10.095015530,0.114603360,0.004951660,-0.011199710
1640785504489649920,-0.173684000,0.067718250,9.554797170,0.115725410,0.023584070,0.006291270
1640785504490180096,-0.228716520,0.043382310,9.873099330,0.113967060,-0.035415590,0.004149970
1640785504494639872,-0.129524440,0.229021120,9.633231160,0.047257550,0.007507210,0.007717310
1640785504495219968,0.163938920,0.617996870,9.488041880,0.013370810,0.024218850,0.022260840
1640785504499719936,-0.124737430,0.614139620,9.978882790,0.025330490,-0.003801290,-0.009244680
1640785504500289792,0.095065110,0.708208680,9.676828380,0.086237500,-0.046703220,-0.017790500
1640785504505920000,-0.026830790,0.732934530,9.780609130,0.130456700,-0.018192830,-0.013345480
1640785504506459904,-0.068399000,0.525368090,9.622624400,0.061239310,0.002044440,-0.000894070
1640785504509670144,-0.070082680,0.506223680,9.986749650,0.016601390,0.000943240,0.023692850
1640785504510399744,-0.211073830,0.314116980,9.643570900,-0.015024840,0.002986190,0.020974880
1640785504514809856,-0.040866610,0.230094550,9.466844560,0.018364190,-0.047527260,0.031153850
1640785504515339776,-0.181029250,0.291926680,9.760568620,0.055797390,-0.007605550,0.009784100
1640785504519729920,0.114238250,0.083627910,8.920303340,0.034207110,0.015415250,-0.009375810
1640785504520249856,0.067675970,0.133168350,9.975366590,0.071388480,-0.009235740,-0.008991360
1640785504524659968,-0.078704280,0.172089140,9.924450870,0.037132200,0.052522130,-0.024417040
1640785504525179904,0.064322620,0.161683290,9.541578290,-0.002789500,-0.078172970,-0.004513560
1640785504529839872,-0.344877120,0.129720210,10.161248210,0.036545100,-0.065219400,0.004734100
1640785504530299904,-0.178260700,0.051745610,8.843252180,0.067664680,-0.000876190,-0.020107630
1640785504534989824,-0.343880270,0.131860240,9.658956530,0.115729870,-0.052571300,-0.009486080
1640785504536359936,-0.366997570,0.190977250,9.999595640,0.071467470,0.055289280,-0.013557080
1640785504539719936,0.043243090,0.292845100,9.542030330,0.028014180,-0.034710770,-0.007610020
1640785504540400128,-0.195578980,0.442537840,10.277295110,0.040780000,-0.078549990,0.009125470
1640785504544760064,0.068644060,0.635285320,9.293145180,0.011241440,0.002312660,-0.012855230
1640785504545889792,-0.090620500,0.631413340,9.624451640,0.022758550,-0.051894790,-0.007876750
1640785504549609984,-0.304966600,0.449096920,10.099146840,0.056855390,-0.050009800,-0.014580790
1640785504550190080,-0.095752180,0.266803950,9.455992700,0.077445800,-0.069563080,-0.021925560
1640785504555660032,-0.113965710,0.147800160,9.479463580,0.087797650,-0.048831110,-0.006891790
1640785504556449792,0.029811940,0.351383950,9.743142130,0.015060600,0.017763680,0.008194150
1640785504559619840,0.115847520,0.452033610,9.916125300,-0.060735650,0.005015730,0.014996530
1640785504560150016,0.220716790,0.483600970,9.737186430,-0.050848730,-0.059674690,0.016792120
1640785504564649728,0.240397690,0.503562750,9.829168320,0.033621490,-0.051538650,-0.002071260
1640785504565159936,0.089890930,0.384192410,9.190461160,0.087055550,-0.015850360,-0.005626680
1640785504569720064,0.125282500,0.172778040,9.453439710,0.057502090,-0.053061550,-0.006634000
1640785504570629888,-0.040857650,-0.061223560,9.870622630,0.013117490,0.041218100,0.005070870
1640785504574619904,0.158612400,-0.099406140,9.272583010,0.013837220,0.025552510,0.020971900
1640785504575660032,-0.088341220,0.043459390,10.438964840,0.032134360,-0.061328720,0.015482310
1640785504579660032,-0.088101250,0.317421820,9.368237500,-0.009350480,0.023405250,0.007724760
1640785504580150016,0.103094340,0.336148920,9.211258890,0.012397770,-0.055934500,-0.012359020
1640785504584719872,-0.334268330,0.358110130,10.209226610,0.062619170,0.026014450,-0.030201680
1640785504586269952,0.009441380,0.469975500,9.026429180,0.064891580,0.040605670,-0.031840810
1640785504589649920,-0.217760680,0.309612810,10.508622170,0.064446040,-0.082522630,-0.007011000
1640785504590139904,-0.287175660,0.297811300,9.981473920,0.015583630,0.021813810,0.010012090
1640785504594650112,0.111704200,0.308136760,9.028384210,-0.003415350,-0.041201710,0.006429850
1640785504595140096,-0.261165020,0.268738030,10.384492870,0.021532180,-0.002475080,0.008898970
1640785504599629824,0.081283540,0.555737790,9.341713910,0.023770330,0.056564820,-0.005374850
1640785504600160000,0.063905320,0.571241740,9.978034020,0.028423970,-0.076264150,-0.019377470
1640785504604709888,-0.066665060,0.589876890,9.996752740,-0.002597270,-0.003618000,-0.006914140
1640785504606759936,0.190415650,0.696982980,9.213346480,-0.018100440,0.009524820,-0.016230340
1640785504609839872,-0.314285730,0.481153010,10.326726910,-0.007171930,-0.021328030,0.001116100
1640785504611320064,-0.288356570,0.397589710,9.861785890,-0.015698370,-0.020752850,0.011701880
1640785504614679808,-0.141709130,0.229023140,9.514716150,0.016061960,-0.067099910,-0.006568430
1640785504615200000,-0.164793760,0.000731200,9.518321990,0.017814340,0.007966160,-0.006429850
1640785504619699968,0.139428050,0.263893690,9.429951670,-0.010788440,0.053714230,0.005359950
1640785504620219904,0.101985830,0.186150700,9.962822910,-0.052215170,0.029779970,-0.002244120
1640785504626149888,0.242427780,0.146029830,9.892384530,-0.037625440,-0.034449990,0.011298060
1640785504626909952,0.144318980,0.297801700,9.683911320,0.035457320,-0.047600280,0.002935530
1640785504629619712,-0.073528390,0.076367590,9.338195800,0.020143390,0.003691020,-0.017572940
1640785504630149888,-0.249144020,0.032468620,9.920559880,0.030457980,-0.002312660,-0.003865360
1640785504634699776,-0.467193070,-0.083676010,9.872312550,0.054876510,0.003784890,-0.019063060
1640785504635979776,-0.218811680,0.047814860,9.374986650,0.034756950,-0.048735730,-0.007240470
1640785504640559872,-0.326824280,0.535098370,9.846978190,0.009678310,-0.000071530,0.011992460
1640785504641100032,-0.084402240,0.666044470,9.496204380,-0.063869360,0.032196940,0.003191830
1640785504644699904,-0.024762630,0.741952420,10.136575700,-0.031322240,-0.043675300,0.012303890
1640785504645229824,-0.135498820,0.767923770,9.993309970,0.026674570,-0.014394520,-0.010141730
1640785504649649920,0.119667480,0.586865430,9.507640840,0.042548780,-0.042584540,-0.020124020
1640785504650169856,-0.227157590,0.493542340,10.178514480,0.030994420,-0.040146710,0.013993680
1640785504655369984,-0.055730130,0.261841950,9.370750430,-0.049920390,-0.017069280,-0.000476840
1640785504655930112,0.077666830,0.034300730,9.548137660,-0.064913930,-0.042495140,0.010114910
1640785504659689984,-0.027676680,0.172700000,9.703811650,-0.013251600,0.036990650,0.016243760
1640785504660140032,0.085470800,0.174767180,9.824731830,-0.001101200,-0.017184020,0.011016430
1640785504664620032,-0.060774520,0.115616270,10.119559290,-0.011561810,-0.066964340,0.010307130
1640785504665189888,0.140160990,0.063511520,9.284266470,-0.009018180,-0.028088690,-0.009925660
1640785504669730048,0.066796470,0.010779360,9.637392040,0.021511320,0.004287060,-0.018648810
1640785504670500096,-0.082616820,0.140867640,9.875549320,0.026986010,0.035154820,-0.003181400
1640785504674830080,-0.089070140,0.231971130,9.921893120,-0.012935700,-0.060114260,0.003506240
1640785504675510016,-0.231419220,0.137107570,9.666897770,-0.000607970,-0.072887550,0.013312700
1640785504679659776,0.014737270,0.265954430,8.992360120,0.029382110,-0.009082260,0.011205670
1640785504680169728,-0.274062370,0.222388650,10.077447890,0.042480230,0.042414670,-0.008107720
1640785504685129984,-0.089827720,0.334047730,9.855179790,0.036393110,0.004267690,-0.013944510
1640785504685649920,0.067517590,0.451424450,9.892567630,0.029744210,-0.075632320,-0.001305340
1640785504689779968,-0.078356420,0.465172620,9.632299420,-0.007674100,-0.005912780,0.000442560
1640785504690670080,0.138111160,0.544888440,9.348451610,-0.021809340,-0.001721080,0.006373230
1640785504694619904,-0.321731300,0.474308340,10.455072400,0.011776390,-0.018082560,0.000749530
1640785504695159808,-0.216739910,0.410098730,9.692679410,0.030197210,-0.044363750,0.004191700
1640785504699659776,-0.009564460,0.393302170,9.697401050,0.038875640,-0.071817640,0.007519130
1640785504701429760,-0.211539120,0.405355810,9.783345220,-0.011993940,0.033026930,0.018514690
1640785504704720128,0.235372830,0.526372970,9.359201430,-0.059883300,0.012519960,0.032353400
1640785504708039936,0.084761690,0.451220990,10.164584160,-0.058098140,-0.018842520,0.028057400
1640785504710289920,0.185171750,0.411329030,9.479030610,-0.036561490,0.001443920,0.013943020
1640785504710819840,0.230171530,0.380716410,9.743787770,0.035603340,-0.063838060,0.009271500
1640785504714680064,-0.127000270,0.176858410,9.769807820,-0.004430110,0.009812410,0.001302360
1640785504715209984,0.064515520,-0.032353290,9.331745150,-0.030393890,-0.021696090,0.000679490
1640785504719699968,-0.205286260,-0.239245920,10.218196870,0.005055960,0.005064910,0.006107990
1640785504720290048,-0.135138930,-0.106494670,9.312805180,0.013732910,0.037157540,0.009189550
1640785504724640000,-0.166061370,0.136920540,9.912178040,0.011096890,-0.059278320,0.018824640
1640785504725240064,-0.200923030,0.186508860,9.792462350,-0.045175850,0.023549800,0.018329920
1640785504729649920,-0.006146820,0.238395350,9.426270480,-0.006552040,-0.023356080,0.003929440
1640785504730129920,-0.259333040,0.351763370,10.356796260,0.068327780,-0.018289690,-0.015747550
1640785504734880000,0.026774750,0.530439730,9.544137950,0.038670010,0.016675890,-0.018832090
1640785504735599872,-0.059397540,0.601865530,10.033056260,0.007584690,-0.060157480,0.014242530
1640785504740829952,0.002542920,0.413871170,9.836933140,-0.043118000,0.002497430,0.022642320
1640785504741420032,0.274118480,0.435728070,9.288990020,-0.020787120,0.009675320,0.017188490
1640785504744689920,-0.044029100,0.395985960,10.074217800,0.028629600,-0.000241400,0.024846200
1640785504745189888,0.109661720,0.338434010,9.799991610,0.001901390,0.002171100,0.021904710
1640785504749619968,0.029563790,0.283354850,9.761112210,-0.019732120,-0.031617290,0.012914840
1640785504751319808,-0.020010540,0.119993650,9.675725940,-0.030913950,-0.004552310,0.006207820
1640785504754849792,0.108891750,0.039090200,9.712636950,0.000646710,0.041271750,0.008423630
1640785504757210112,-0.158587130,0.087218430,9.985915180,0.028420990,0.050599870,0.011831520
1640785504759660032,-0.148805020,0.062082420,10.209056850,0.001910330,-0.055120890,0.024265050
1640785504760219904,-0.100257410,-0.075738330,9.605741500,0.024092200,-0.026674570,0.027279560
1640785504764619776,0.110228590,-0.041842290,8.979964260,0.054423510,0.022229550,-0.000961130
1640785504765219840,0.043325440,0.207688150,10.111009600,0.039458270,0.080740450,0.002445280
1640785504769979904,0.113849920,0.397570010,9.868526460,-0.006808340,0.077877940,0.013153260
1640785504770919936,0.208018480,0.419738830,10.039783480,0.003173950,-0.072893500,0.009982290
1640785504774759936,0.001270940,0.420032500,9.873191830,0.035198030,0.011819600,0.012357530
1640785504775310080,-0.039369780,0.347400720,9.158817290,0.040395550,0.037249920,-0.000393390
1640785504779660032,-0.560174350,0.094173650,10.639180180,0.072389840,-0.038149960,0.002913180
1640785504780160000,-0.445813860,0.082001880,9.589443210,0.068248820,0.021968780,0.006039440
1640785504784790016,-0.091064670,0.168281450,9.281330110,0.042904910,-0.020815430,-0.002098080
1640785504785489920,-0.257047620,0.378635110,10.525677680,0.003220140,0.071509180,0.020581480
1640785504789669888,0.248946990,0.815155450,9.520437240,-0.043948010,0.069306790,0.029602650
1640785504790289920,0.123884740,0.785990600,10.390003200,-0.024662910,-0.056627390,0.023157890
1640785504794659840,0.103972900,0.685412820,9.876317980,0.011578200,0.011920930,0.017891820
1640785504795199744,0.280933890,0.538459060,9.208276750,0.076438490,-0.002922120,-0.001801550
1640785504800339968,-0.239501940,0.191393320,10.237680440,0.064846880,-0.000335280,0.010113420
1640785504801070080,0.068550930,0.168922360,9.307223320,-0.030909480,0.062295790,0.029905140
1640785504805840128,0.061480720,-0.032016580,9.655426980,-0.048354270,0.020225350,0.025708980
1640785504806520064,-0.095282030,0.000727610,10.105407710,-0.015400350,0.050415100,0.033935910
1640785504810459904,0.154767830,0.370528250,9.654800420,0.019676980,0.026302050,0.020881000
1640785504810950144,-0.222052310,0.250934870,10.024320600,0.005744400,-0.016912820,-0.002877410
1640785504814619904,-0.077183840,0.163451120,9.565855980,0.025327500,0.002777580,-0.002259020
1640785504815699712,-0.184149120,0.154921620,9.605309490,0.076042120,0.045275690,-0.010657310
1640785504819840000,-0.238465280,0.050843600,9.771276470,0.053371500,0.038777300,0.004053120
1640785504822069760,-0.076398830,0.268231060,10.166080470,0.025667250,-0.004452470,0.039318200
1640785504824640000,-0.076784460,0.288279090,9.690382000,-0.013948980,0.016900900,0.028084220
1640785504825169920,0.175599960,0.443610370,9.547508240,0.000198190,-0.000227990,0.031560660
1640785504829609984,-0.024540980,0.704585910,10.333098410,0.030629340,0.065955530,0.015439090
1640785504830210048,0.066855160,0.691958430,9.725832940,0.009115040,0.023728610,-0.006094580
1640785504834939904,0.047917960,0.728499110,10.065046310,0.013528760,-0.067408390,0.012208520
1640785504836069888,-0.027948210,0.497110610,9.542909620,-0.011375540,0.076013800,-0.012846290
1640785504839769856,0.003672040,0.368109760,9.323367120,-0.022099910,0.030356650,0.005017220
1640785504840329984,-0.484253730,0.209845930,10.761964800,0.009472670,-0.009147820,0.027300420
1640785504844669696,-0.134877400,-0.085382370,9.386807440,-0.019668040,0.022925430,0.011515620
1640785504845199872,0.051085090,-0.186278750,9.562973980,0.022214650,-0.046736010,0.023037200
1640785504850060032,0.014471650,-0.040138660,9.938833240,0.048434750,0.119681670,0.008721650
1640785504852160000,0.405745210,0.206050900,9.384118080,-0.002717970,0.090348740,0.004103780
1640785504855699968,0.079498940,0.381259920,10.566210750,-0.031733510,-0.032487510,0.017060340
1640785504856179968,0.217124210,0.427887110,9.572400090,-0.022310020,0.001828370,0.009679800
1640785504859629824,0.056178540,0.198581740,9.247304920,0.065131490,-0.009472670,0.005482140
1640785504860199936,-0.429844440,0.178510030,10.027702330,0.100281830,0.050355490,-0.015349690
1640785504864649984,-0.350207360,0.204509200,9.910273550,0.048430260,0.053228440,-0.009296840
1640785504865860096,-0.324003310,0.116372150,9.943429950,0.006286800,-0.000390410,0.013177100
1640785504869720064,-0.053874790,0.358305990,9.760258670,-0.022654230,0.030316410,0.022721290
1640785504870339840,0.043587430,0.552201870,9.786931040,-0.021596250,0.077788530,0.013262030
1640785504874680064,0.035394070,0.676229950,9.921235080,0.004735590,0.019326810,0.009039050
1640785504875219712,0.046006470,0.663541080,10.240625380,0.024655460,-0.015825030,0.009462240
1640785504879689984,-0.036654200,0.380909620,9.707213400,0.034865740,0.023430590,0.005283950
1640785504880189952,0.061256220,0.210394010,9.753774640,0.046025220,-0.003170970,0.001317260
1640785504885259776,-0.136402670,0.260340540,10.328136440,0.011700390,0.053989890,0.021207330
1640785504886240000,0.133049990,0.381164850,9.303392410,-0.059296200,0.066876420,0.031496590
1640785504889590016,0.084789310,0.429130260,10.216151240,-0.073413550,0.011284650,0.036802890
1640785504890220032,-0.054136250,0.543092310,9.859848020,-0.024354460,0.069300840,0.022110340
1640785504894639872,0.203102740,0.524706300,9.200231550,0.009557610,-0.002704560,0.020658970
1640785504895219968,-0.203003640,0.294663430,10.381537440,0.010143220,0.020448870,0.013606250
1640785504899669760,-0.122561310,0.091729300,9.366345410,-0.007557870,0.102739040,0.006173550
1640785504900229888,-0.143593340,-0.057456180,10.080339430,0.018863380,-0.013320150,0.011573730
1640785504904700160,-0.559397220,-0.066712800,10.387545590,-0.004458430,0.042594970,0.025059290
1640785504906129920,-0.035149470,0.033734730,9.023997310,-0.036093590,-0.000144540,0.024461750
1640785504909649920,-0.178980310,-0.077850710,10.077629090,0.017750270,0.012436510,0.010554500
1640785504910169856,0.041862570,0.215421530,9.392545700,0.050681840,0.127993520,-0.004343690
1640785504914880000,0.277421710,0.513003410,9.887700080,0.041729220,0.024400650,-0.005407630
1640785504915809792,-0.064742850,0.587681060,10.736184120,-0.006185470,0.024965410,0.013691190
1640785504919749888,0.135826530,0.700909550,9.485649110,-0.030258300,-0.002044440,0.026436150
1640785504920509696,-0.305751560,0.419083300,9.988863950,0.008650120,-0.028471650,0.017692150
1640785504924599808,-0.559778690,0.356426480,9.844587330,0.028046970,0.047612190,0.015482310
1640785504925259776,-0.572758440,0.361773700,9.931148530,0.063209240,0.001257660,0.021888320
1640785504929849856,-0.593818550,0.139056120,10.131566050,0.014734270,-0.010491910,0.020597880
1640785504930349824,-0.022822610,0.332581550,9.338734630,-0.028178090,0.017723440,0.031679870
1640785504935079936,0.131898480,0.526954890,9.879975320,-0.040337450,0.069502000,0.026693950
1640785504935989760,0.353228270,0.629541160,10.016166690,-0.068251790,0.066988180,0.038932270
1640785504939709952,0.338295340,0.695403640,10.180972100,-0.036974250,-0.028280910,0.033496320
1640785504940239872,0.213028540,0.261876200,9.718405720,0.017197430,-0.035408140,0.017590820
1640785504944640000,0.277865350,-0.062482830,9.261028290,0.075204670,-0.011205670,0.017182530
1640785504945499904,-0.251907020,-0.109911030,9.832265850,0.065682820,0.081004200,0.020070370
1640785504949649920,-0.226901800,-0.298523580,9.792547230,-0.043129920,0.051514800,0.033773490
1640785504950369792,-0.216269120,-0.127884920,10.143210410,-0.037877270,-0.013719500,0.061835350
1640785504955440128,-0.174492690,0.117912230,9.546589850,-0.002099570,0.042013830,0.024577980
1640785504956039936,-0.043884820,0.358009190,9.581624980,0.024072820,0.026266270,0.012712180
1640785504959620096,-0.361506070,0.554684820,10.158248900,0.042410190,0.031827390,-0.000205640
1640785504960169984,-0.126833540,0.384170560,9.693636890,0.034306940,0.002224740,-0.006775560
1640785504964640000,-0.144863410,0.227986020,10.043462750,0.065340100,-0.027933720,0.023956600
1640785504965189888,-0.126063780,0.257544520,9.672336580,0.054275990,0.046165280,0.030590590
1640785504969679872,0.090030300,0.254173610,9.908658030,0.008621810,0.023791190,0.041808190
1640785504970279936,-0.030508400,0.344863410,10.294473650,-0.016976890,0.033228100,0.062271950
1640785504974710016,0.236288550,0.400925160,9.586202620,-0.018075110,0.009171670,0.032761690
1640785504975309824,0.217854800,0.356227960,9.853981020,0.049382450,0.000061090,0.021579860
1640785504979669760,0.123229970,0.521064580,9.497678760,0.064790260,0.078947830,0.018593670
1640785504980189952,-0.033323810,0.444522320,9.936205860,0.005790590,0.016646090,0.024487080
1640785504984900096,-0.340728550,0.174621300,10.225512500,-0.021731850,0.008799140,0.040587780
1640785504985679872,-0.273396550,0.051103800,9.493790630,0.020077830,-0.018870830,0.024795540
1640785504989600000,-0.501667860,-0.059577480,9.859955790,0.074754640,-0.000606480,0.016182660
1640785504990219776,-0.378154810,0.055556020,9.484431270,0.041756030,0.059849020,0.010378660
1640785504994889984,-0.199403430,0.157382260,9.814679150,0.019840890,0.022077560,0.008204580
1640785504995419904,-0.140045210,0.226448340,9.998796460,0.024774670,0.016936660,0.014144180
1640785504999660032,0.231276740,0.567754810,9.413676260,0.025601690,-0.001470740,0.016768280
1640785505000279808,-0.071294890,0.541160170,10.108230590,0.019378960,-0.005972390,0.014908610
1640785505006539776,-0.035271820,0.414725480,9.718460080,0.039280950,0.010716920,0.017584860
1640785505007379968,-0.225483540,0.355838570,10.009272580,0.082997990,-0.048014530,0.003798310
1640785505009939968,-0.471702400,0.316448240,10.017145160,0.050671400,-0.008316340,-0.003498790
1640785505011139840,-0.076041390,0.441217060,9.554095270,0.009672340,-0.001344080,0.005322690
1640785505014639872,-0.342329080,0.474168360,10.219398500,-0.024317210,-0.005283950,0.010356310
1640785505015209984,-0.063174550,0.523408890,9.545928960,-0.028947000,0.006191430,0.013019140
1640785505019759872,0.153303120,0.620037140,9.742003440,0.017911200,-0.019121170,0.003321470
1640785505021570048,-0.195329520,0.473945980,10.102954860,0.024332110,0.008361040,-0.002144280
1640785505024679936,0.023258000,0.339380920,9.642681120,0.013521310,-0.054837770,0.001809000
1640785505025440000,-0.157662880,-0.031607710,9.918636320,-0.001581010,-0.044588740,-0.004762410
1640785505029669888,0.021783460,-0.247579110,9.228073120,0.024825330,0.028596820,-0.003294650
1640785505030210048,0.036007570,-0.125169610,10.066854480,0.072278090,0.019748510,0.010338430
1640785505034829824,-0.200210090,-0.008255200,10.096046450,0.005818900,0.016923250,0.004372000
1640785505035460096,0.163198770,0.095294420,9.467029570,-0.017192960,-0.084021680,0.014400480
1640785505039660032,-0.041929420,0.120137860,9.919968610,0.048090520,-0.001989310,-0.017303230
1640785505040249856,-0.099512630,0.275258720,9.334641460,0.082616500,0.058151790,-0.041455030
1640785505044679936,-0.246111680,0.475894990,10.458932880,0.098557770,-0.051517790,-0.023539360
1640785505045440000,-0.379061460,0.424819260,10.164964680,0.031514470,0.002612170,-0.015860800
1640785505049999872,-0.109325120,0.457585420,9.405000690,0.018022960,-0.058887900,-0.000044700
1640785505050979840,-0.456404780,0.435441820,10.501557350,0.043702120,-0.015299020,-0.007720290
1640785505054619904,-0.169180900,0.509800790,9.479287150,0.032505390,0.036035480,-0.012029710
1640785505055219968,-0.061923290,0.606482270,10.042820930,0.051946940,-0.075905030,0.001040100
1640785505059660032,0.084439810,0.497197750,10.013988490,0.017353890,0.028835240,-0.001144410
1640785505060189952,0.557427880,0.444555610,9.142803190,0.000642240,0.029797860,-0.015325850
1640785505064679936,0.139980930,0.420781050,10.517196660,0.033758580,-0.002983210,-0.007143620
1640785505065219840,0.118611570,0.320598810,9.949196820,-0.002326070,0.019073490,-0.005106630
1640785505069659904,-0.105309420,0.028772650,9.788858410,0.020308790,-0.094756480,-0.002995130
1640785505071189760,-0.486707420,-0.195853810,9.971180920,0.077381740,-0.049987440,-0.011950730
1640785505075160064,-0.217410550,-0.073588710,9.074652670,0.076925740,0.048106910,-0.021222230
1640785505075769856,-0.353338840,0.073657410,9.849913600,0.048029430,0.049442050,-0.005167720
1640785505079660032,-0.186254290,0.336553220,10.307643890,-0.021408500,0.030519070,-0.002400580
1640785505080169984,0.063915280,0.567530450,9.807795520,0.005269050,-0.028300290,-0.005097690
1640785505084719872,-0.026455000,0.640804290,9.601842880,0.057895490,-0.053296990,-0.003939870
1640785505085589760,0.005830040,0.606658340,9.788563730,0.052689020,-0.001540780,-0.020489090
1640785505089740032,-0.210978840,0.366915640,9.871083260,0.065258150,0.034774840,-0.022137170
1640785505091029760,-0.203048260,0.076375310,10.094902990,0.077788540,-0.059939930,-0.020059940
1640785505094619904,-0.215292320,0.023358710,10.064116480,0.063307590,-0.011152030,-0.014300650
1640785505095269888,-0.066372760,0.223763570,9.194872860,0.009509920,0.013020640,-0.013715030
1640785505100119808,-0.070161280,0.374211220,10.202657700,-0.026994950,-0.026467440,-0.008726120
1640785505100859904,-0.041285470,0.638997670,9.864253040,-0.017818810,0.052070620,-0.015361610
1640785505104669696,0.114647840,0.673528080,9.795327190,0.017227230,-0.044153630,-0.030764940
1640785505106370048,-0.141511690,0.699736540,10.785588260,0.064572690,-0.025245550,-0.013408070
1640785505109720064,-0.042078120,0.651451410,9.451285360,0.033177440,0.028216840,-0.006151200
1640785505110630144,-0.140145180,0.304091070,9.947451590,-0.016276540,-0.074468560,-0.001294910
1640785505114660096,-0.312419560,0.221627920,9.979956630,-0.017851590,0.036847590,0.020787120
1640785505115219712,0.094103190,0.192235710,8.977890010,0.000217560,0.025798380,0.000509620
1640785505119819776,-0.208594810,0.179342050,10.515196800,0.009600820,-0.045660140,0.002929570
1640785505120909824,0.072930920,0.393978510,9.494786260,-0.031334170,0.050729520,-0.013267990
1640785505124659968,0.308532600,0.345183520,9.423927310,-0.028210880,-0.011211630,-0.028543170
1640785505125280000,-0.198792430,0.353477600,10.554684640,-0.003828110,0.038720670,-0.016310810
1640785505129659904,0.000304900,0.431182090,9.542603490,-0.006660820,0.026439130,-0.022253390
1640785505130249984,-0.356587290,0.049656320,10.117838860,0.014123320,-0.100348900,-0.013250110
1640785505134749952,-0.387374790,-0.076354310,9.373923300,0.041584670,-0.012759870,-0.003841520
1640785505135379968,-0.219576980,-0.062339680,9.233741760,0.036245580,0.045660140,-0.035266570
1640785505139719936,-0.495677830,-0.033381710,10.320404050,0.011825560,0.013242660,-0.027479230
1640785505140189952,-0.017838240,0.400507270,9.809056280,-0.002659860,-0.021675230,-0.011523070
