# timestamp,accel_x,accel_y,accel_z,gyro_x,gyro_y,gyro_z
1640833066.532889,-0.367495000,0.232299950,10.236427310,0.002197920,0.047874450,-0.019311900
1640833066.538230,-0.248083930,0.406244580,10.502973560,-0.053139030,0.082767020,0.006048380
1640833066.540120,0.029905940,0.625477250,10.249963760,-0.077275930,0.010687110,0.008864700
1640833066.542100,0.014891880,0.659768580,10.174741740,-0.041745610,-0.022134180,0.007160010
1640833066.543460,0.016902730,0.665387810,9.290077210,-0.018852950,0.003415350,-0.003169480
1640833066.548319,-0.004760550,0.508762780,9.246452330,-0.005877020,-0.016996270,0.015911460
1640833066.552080,-0.211320640,0.043491880,9.838986400,-0.001844760,0.046522920,0.015164910
1640833066.556730,0.150143640,-0.031036700,9.604305270,-0.028561060,0.067438190,0.032234200
1640833066.560459,0.013244030,-0.101280090,10.465576170,-0.048020490,0.039556620,0.032755740
1640833066.564610,-0.029766000,-0.125659990,10.309413910,-0.070379680,0.055865950,0.006440280
1640833066.567260,0.119015640,0.271199880,9.490879060,-0.047647950,-0.025013090,-0.009298320
1640833066.568509,-0.273960320,0.087202540,9.893802640,-0.017340480,0.009474160,-0.016379360
1640833066.569010,-0.149029340,-0.002029130,9.139529230,0.037936870,0.073821840,-0.013810400
1640833066.569460,-0.446183410,0.156957490,9.744006160,0.067907580,-0.018045310,-0.029043850
1640833066.569850,-0.541794180,0.055958510,9.940840720,-0.007365640,0.030694900,-0.000040230
1640833066.574190,-0.072295880,0.285737480,9.389829640,-0.044304140,0.010497870,0.009217860
1640833066.580690,-0.271463960,0.384572060,10.493254660,-0.057671960,0.020799040,0.002746280
1640833066.582990,0.188970850,0.317158250,9.875864980,-0.017018610,0.088262550,0.027416640
1640833066.583570,0.215652880,0.195100250,10.126510620,0.076979400,-0.001892450,0.006310640
1640833066.584060,-0.173200920,-0.028121560,10.356335640,0.081641970,0.002433360,-0.022688510
1640833066.584360,0.025570270,0.056724500,8.931079860,0.040535630,-0.037603070,0.005038080
1640833066.587270,-0.474064140,-0.011771280,9.760421750,-0.018432730,-0.045715260,-0.017242130
1640833066.592059,-0.305599780,0.255936980,9.544176100,-0.061203540,0.074867910,-0.022603570
1640833066.592810,-0.085365620,0.724629760,9.915761950,-0.016149880,0.033640870,-0.003501770
1640833066.593350,-0.422231850,0.653033080,11.269036290,0.001180170,0.035627190,-0.015914440
1640833066.597290,-0.033752930,0.901880860,10.034658430,0.018666680,-0.022487340,-0.003826620
1640833066.599799,-0.363153760,0.755666080,10.044035910,0.015689430,-0.116670130,0.010737780
1640833066.602330,-0.375669030,0.293776450,9.361786840,-0.046482690,0.009632110,0.000138580
1640833066.602929,0.195909340,0.421789290,8.563105580,-0.042006370,0.027389820,0.019794700
1640833066.607550,-0.018760580,0.096345780,10.226264950,-0.055022540,0.075605520,0.019244850
1640833066.609089,0.385837730,0.035834770,10.107313160,-0.046364970,0.086405870,0.008434060
1640833066.614830,0.204190150,0.153415170,10.536700250,-0.008092820,-0.087985390,-0.006577370
1640833066.616580,-0.155695900,-0.096790370,10.342110630,-0.029240550,-0.051641470,-0.013577940
1640833066.617370,0.158174840,-0.034043300,8.875881200,-0.013768670,0.013709070,-0.026184320
1640833066.618330,-0.320718590,0.017038330,9.803071980,0.007373100,0.047752270,-0.042888530
1640833066.622750,-0.329151390,0.185719850,9.601269720,-0.027163330,0.081774580,-0.014446680
1640833066.624339,-0.284462330,0.257730600,9.630637170,-0.013820830,-0.061240780,0.007076560
1640833066.627260,-0.516870080,0.162533330,10.073630330,-0.016319750,-0.035278500,-0.006823240
1640833066.628229,-0.234274570,0.168030040,9.627339360,0.001703200,0.024433440,-0.001208480
1640833066.632160,-0.228647190,-0.091162060,10.498684880,0.071819130,0.017786030,-0.017830730
1640833066.633289,0.004393800,-0.003585660,10.315205570,0.063639890,0.068858270,-0.039584940
1640833066.638749,0.178183540,0.298162970,9.892557140,0.016488140,-0.015415250,-0.013780590
1640833066.640760,-0.088990230,0.262812610,9.885178570,-0.036500390,-0.044132770,-0.000561770
1640833066.648820,-0.006242810,0.433638840,8.993697170,-0.031916790,-0.049193200,-0.032620130
1640833066.650030,-0.096128820,0.624304470,9.311300280,0.031118090,-0.003148620,-0.015427170
1640833066.651059,-0.156028640,0.446077380,10.135677340,0.045038760,0.104236600,-0.016769770
1640833066.651490,-0.141858060,0.462650510,10.921287540,0.049152970,0.025030970,-0.021526220
1640833066.658340,-0.280740440,0.467874350,10.803325650,0.004297500,-0.060074030,0.006943940
1640833066.658690,-0.115076090,0.385268990,9.310765270,-0.062969320,-0.059592720,-0.014108420
1640833066.658980,-0.101446110,0.379386400,9.091623310,-0.063300130,-0.005620720,-0.026756530
1640833066.659210,-0.029941290,0.377821650,9.134557720,-0.032044950,0.104361790,-0.021901730
1640833066.662660,-0.002639080,0.137468490,9.905383110,0.025129320,0.030739610,-0.018313530
1640833066.664759,-0.170841840,-0.079413790,10.670136450,0.047139820,-0.032916670,-0.005462760
1640833066.668680,0.041631890,-0.176720680,9.816416740,0.004181270,-0.040021540,0.001476710
1640833066.669459,-0.183954330,-0.420307640,10.161307330,-0.004009900,-0.029261410,-0.010643900
1640833066.672180,-0.080911880,-0.147659200,9.618855480,-0.006715950,0.072778770,-0.030069060
1640833066.672760,0.173484210,0.291668830,9.305110930,-0.007265810,0.020931660,-0.044837590
1640833066.677630,-0.157532170,0.330871910,10.128432270,0.010536610,0.024013230,-0.025227670
1640833066.679679,-0.097321940,0.512064810,9.372390750,0.034205620,-0.013387210,-0.030468410
1640833066.682350,-0.512703900,0.360628400,9.996087070,0.054514400,-0.123301150,-0.042407210
1640833066.684810,-0.509569050,0.188206000,9.835006710,0.044859950,0.029553480,-0.020252170
1640833066.687700,-0.127492520,0.302719000,9.748661040,0.035040080,0.048971180,-0.027272110
1640833066.688629,-0.371342990,0.286462750,11.132447240,-0.001244250,0.035318730,-0.017464160
1640833066.692090,0.169884090,0.432030860,9.676715850,-0.028842690,0.019018350,0.016607350
1640833066.692809,0.017623650,0.316055770,9.794230460,0.013943020,-0.124488780,-0.012388830
1640833066.697450,-0.249279040,0.268233840,9.617926600,0.031197070,-0.015565750,-0.025612120
1640833066.698140,0.093149270,0.300967370,8.815681460,0.046791140,-0.003477930,-0.023852290
1640833066.702980,-0.457074220,0.038644590,10.869810100,0.044827170,-0.016304850,-0.041113800
1640833066.703680,0.007798510,0.356532480,10.092984200,-0.002780560,0.073379290,0.000065570
1640833066.707250,0.178752180,0.431690600,10.215291020,-0.037115820,-0.055757180,0.004090370
1640833066.710280,-0.130873750,0.346863630,10.500967030,-0.052963200,-0.005628170,-0.012098250
1640833066.714069,0.422834520,0.650981370,8.695377350,-0.005544720,0.009539720,-0.026895100
1640833066.717800,-0.230932120,0.342734220,10.105070110,0.033183400,-0.043070320,-0.024549660
1640833066.718449,-0.295292140,0.164930310,9.672239300,0.034894050,0.041355190,-0.014905630
1640833066.719990,-0.116383540,0.102669850,9.318336490,0.017493970,-0.066596270,-0.004723670
1640833066.722050,-0.503481450,-0.232719120,10.404536250,-0.030617420,0.006720420,0.008666520
1640833066.722610,0.149382080,-0.088380330,9.411616330,-0.023204090,0.094933810,0.002540650
1640833066.728160,-0.036652100,0.036278230,10.678298950,0.008888540,-0.029276310,-0.021474070
1640833066.732710,0.014575130,0.065471470,10.113026620,0.023394820,0.017316640,-0.009053940
1640833066.734059,0.327387120,0.122046340,9.017954830,0.062564020,-0.021497910,-0.017020110
1640833066.737870,-0.397986080,-0.056968740,10.146485330,0.058557090,-0.013428920,-0.035755330
1640833066.738760,-0.228365270,0.052626970,9.140003200,0.057131060,0.018507240,-0.017531220
1640833066.739250,-0.305469990,0.093404950,9.806064610,0.066526230,-0.047683720,-0.037935380
1640833066.744269,-0.336705090,0.341971640,10.306392670,0.012530390,0.053399800,-0.027263160
1640833066.749680,0.108251370,0.644124150,9.970580100,-0.000068550,0.057643650,0.013434890
1640833066.751910,-0.227845220,0.444069240,11.010907170,0.020222370,-0.015325850,0.000710790
1640833066.754920,-0.092311220,0.515355650,9.743521690,0.061170750,-0.053066010,0.008715690
1640833066.756270,-0.165758450,0.435235770,9.269207000,0.079055130,-0.101107370,0.001436470
1640833066.756709,-0.357626050,0.271557870,9.385345460,0.011491780,0.012925270,-0.015915930
1640833066.757160,0.007692200,0.417945770,9.297789570,-0.023174290,0.046771760,-0.011761490
1640833066.758270,-0.072582000,0.438711050,10.727010730,-0.040778520,0.026908520,-0.000934300
1640833066.762230,0.146177500,0.430852650,10.465181350,-0.035093730,0.026454030,-0.002023580
1640833066.763090,0.071028910,0.549599410,10.437883380,0.019724670,-0.076904890,-0.004400310
1640833066.769379,-0.206174000,0.450554130,10.082934380,0.002393130,-0.047309700,0.003531570
1640833066.771299,-0.025110440,0.150389080,8.892493250,-0.008314850,-0.012199580,0.010535120
1640833066.772050,-0.162266490,0.086591990,9.530539510,-0.010502340,0.017672780,-0.004309420
1640833066.772670,-0.039863340,0.047084080,9.509009360,-0.036796930,0.099076340,0.009772180
1640833066.779090,-0.111110420,-0.017446480,10.190062520,-0.005818900,-0.037176910,0.017882890
1640833066.779960,-0.256381270,0.082727230,10.557923320,-0.010444220,-0.040234630,0.005345050
1640833066.783020,0.062002900,0.079017760,9.553334240,-0.025744730,-0.010366740,-0.005362930
1640833066.783740,-0.130310120,-0.041473330,10.240290640,0.026884680,0.012941660,-0.009927150
1640833066.787079,0.051665530,0.008016180,9.687148090,0.045105810,0.096939510,-0.028121470
1640833066.787999,-0.023289390,0.074689860,9.602503780,0.045406820,-0.027482220,0.000081960
1640833066.792019,-0.335229750,0.089680870,9.810358050,0.005450850,-0.036966800,0.017912690
1640833066.793360,-0.128589600,0.043734680,9.019581790,-0.017401580,-0.027793650,0.005443390
1640833066.802600,-0.424933520,-0.019661570,10.134103780,0.038476290,-0.012706220,0.004428630
1640833066.804260,-0.201290340,0.004254380,10.328598980,0.084899370,0.100159650,-0.012280050
1640833066.805460,-0.064463900,0.199286890,10.549063680,0.103451320,0.010249020,-0.034947690
1640833066.806530,-0.327309040,0.546469090,10.676735880,0.040008130,-0.038352610,0.008329750
1640833066.807040,0.050629420,0.620157420,9.010760310,-0.048561390,-0.042663510,0.015230480
1640833066.807570,-0.275630240,0.617653970,9.335823060,-0.026759510,-0.061571600,-0.000663100
1640833066.812320,-0.217285380,0.808975820,9.373718260,0.005042550,0.068092330,-0.002141300
1640833066.813140,0.087681990,0.521989460,9.921423910,0.052894650,0.035870080,-0.005197530
1640833066.819540,-0.272262450,0.353696550,11.323385240,0.049448020,0.007060170,-0.003600120
1640833066.820220,0.129122260,0.493715700,10.078925130,-0.029855970,-0.022278730,0.019015370
1640833066.821930,0.035051730,0.051482350,9.902235980,-0.068961090,-0.074224170,0.019551810
1640833066.822729,-0.088281150,0.120971550,9.404773710,-0.058826810,0.047333550,-0.007902090
1640833066.831310,0.164913400,0.311332490,8.987071040,-0.018496810,0.026766960,-0.009381770
1640833066.837489,-0.321489750,0.011489980,10.315187450,0.011374060,-0.002531710,0.003623960
1640833066.838680,-0.147684710,0.166252790,9.626990320,0.010454650,0.005894900,0.006033480
1640833066.839160,-0.153816690,-0.029524750,10.026964190,-0.005842750,-0.070396070,0.017587840
1640833066.839540,-0.276806920,-0.147003810,10.116394040,-0.008080900,0.063590710,0.027145450
1640833066.839840,0.209189160,0.211865590,9.546151160,0.009189550,0.047333530,-0.004017350
1640833066.841950,-0.041556690,0.288630280,10.507386210,-0.015671550,0.004389880,0.010664760
1640833066.842650,0.178901630,0.435786870,9.315310480,-0.037112830,0.039914250,0.014552480
1640833066.847319,0.015309010,0.244841430,9.646095280,0.004072490,-0.058828310,-0.015443570
1640833066.849579,-0.466775210,-0.012752630,9.959886550,0.045590100,0.007413330,-0.015267730
1640833066.852239,-0.248336090,0.030966320,9.209784510,0.082142660,-0.004751980,-0.019377470
1640833066.854720,-0.463706580,-0.049843230,10.520716670,0.028704110,-0.003968180,-0.020399690
1640833066.857190,-0.087449240,0.300233540,9.875535010,-0.054666390,0.105494250,0.035005800
1640833066.857880,0.056577820,0.327623990,10.318738940,-0.051732370,-0.004817550,0.038726630
1640833066.862320,-0.228614400,0.172385160,10.594336510,0.008282070,-0.002844630,0.016996270
1640833066.863839,0.071691820,0.495457830,8.873472210,0.086307510,-0.054708120,0.006157160
1640833066.868080,-0.288164260,0.288156810,9.768851280,0.075925910,-0.043553120,-0.011563300
1640833066.868700,-0.130644140,0.348664220,9.500478740,-0.009872020,0.104160610,-0.009512900
1640833066.873580,0.071483420,0.605015810,10.078094480,-0.048393010,0.014743210,0.020658970
1640833066.874539,-0.066615410,0.385095330,10.993370060,-0.065597890,0.042192640,0.026787820
1640833066.877359,0.327451380,0.594578620,9.555162430,-0.025403500,0.021216280,0.025060770
1640833066.880669,-0.222100450,0.598092200,10.375084880,0.003103910,-0.076016780,0.007684530
1640833066.882269,-0.243617730,0.198116500,9.365158080,-0.026941310,0.024516880,0.012353060
1640833066.883040,-0.087852800,-0.024018590,8.871319770,0.010405480,-0.013610720,-0.010007620
1640833066.888229,-0.435169130,-0.232337530,10.227036480,0.003907080,0.062836710,-0.002892320
1640833066.888980,0.026850150,-0.240976780,9.486996650,-0.012524430,0.095047060,0.030563770
1640833066.892380,-0.186962710,-0.083182740,10.700915340,-0.011734670,-0.052739690,0.024403630
1640833066.894440,-0.090779070,0.107778010,10.229406360,-0.052000590,0.019976500,0.033158070
1640833066.898140,0.255958200,0.071559760,9.216259000,0.006875400,-0.001259150,0.026467440
1640833066.899570,-0.237276490,0.047131210,10.331678390,0.077745320,0.034864250,-0.016087290
1640833066.902439,0.138371260,0.280196990,9.193608280,0.066007660,0.073571500,-0.012415650
1640833066.905560,-0.168958470,0.301883340,9.881430630,0.037235030,-0.037196280,0.018264360
1640833066.907359,-0.332737620,0.389811810,9.935387610,-0.038284060,0.012575090,0.007931890
1640833066.908120,-0.002875940,0.520459950,9.211633680,-0.048747660,-0.003167990,0.024056430
1640833066.914719,-0.432630540,0.411943260,10.620927810,0.007401410,0.031366950,0.031121080
1640833066.918840,-0.074449890,0.361961450,10.114213940,0.051403040,0.088296820,-0.000283120
1640833066.920050,-0.212552730,0.416249870,10.438672070,0.059732800,-0.044409930,0.017984210
1640833066.921929,-0.393311500,0.395784440,10.052873610,-0.020593400,-0.029838090,0.026865300
1640833066.923869,0.067118620,0.304746870,8.771199230,-0.079837450,-0.009101630,0.008989870
1640833066.924379,-0.154616980,0.483806520,9.689341550,-0.061294450,0.028218330,0.020943580
1640833066.927160,0.108361770,0.489371540,9.728776930,-0.042663510,0.118428470,0.021128360
1640833066.928439,0.171205130,0.268429190,10.419942860,0.015850370,0.001287460,0.018490850
1640833066.932639,-0.125791270,0.314837490,10.648722650,0.012432040,-0.019060070,0.027272110
1640833066.933950,0.162003930,0.010098430,9.399241450,-0.036075710,-0.017666820,0.022710860
1640833066.937070,-0.124105570,-0.111023780,9.684700010,-0.042638190,0.017482040,0.009633600
1640833066.937760,-0.058445250,0.254099970,9.233403210,-0.051984200,0.111150760,0.009134410
1640833066.947990,-0.017462370,0.143717070,9.690579410,-0.046123560,0.034278630,0.026881700
1640833066.949620,-0.445771780,0.228798720,10.266087530,-0.016939640,0.011307000,0.037400420
1640833066.950569,-0.257660810,0.189844790,9.457280160,-0.007960200,-0.052446120,0.020721550
1640833066.950960,-0.374670570,-0.162302030,10.041410450,0.019225480,-0.011530520,0.027121610
1640833066.951929,-0.145839120,0.000442630,9.694868090,0.034217540,0.129538760,0.001999740
1640833066.956980,0.139255900,0.163086910,10.235592840,0.002194940,0.046986340,-0.000308450
1640833066.957450,0.026607010,0.331230730,10.352368350,-0.041505690,0.043766200,0.042773790
1640833066.958400,0.342319010,0.552780810,9.006597520,-0.061258680,-0.020951030,0.023476790
1640833066.962819,-0.218201710,0.391045300,9.976800920,-0.024296350,-0.049875680,0.012892480
1640833066.964700,-0.340144010,0.482722520,9.314682960,0.020331140,0.052702440,0.020791590
1640833066.967219,-0.224546910,0.309583130,9.901189800,0.041127200,-0.002355870,-0.003866850
1640833066.967700,-0.484531460,0.231746880,10.958312030,-0.003665690,0.092367850,0.027266150
1640833066.972689,0.037464610,0.475851120,9.708105090,-0.075080980,0.055542580,0.043413050
1640833066.974700,-0.206580670,0.241205600,10.598690990,-0.093355780,-0.066246090,0.029720370
1640833066.979460,-0.091571990,0.487326410,9.165869710,-0.068625810,0.035275520,0.016529860
1640833066.981390,0.147878620,0.484461160,8.818790440,-0.017721950,-0.032371280,0.005786120
1640833066.981950,-0.312874380,0.058770610,10.343177800,0.008662040,0.072166320,0.019066030
1640833066.982650,0.235913560,0.183429750,9.174821850,0.007072090,0.083591050,0.018228590
1640833066.987120,0.002766080,-0.022490140,10.778431890,-0.032335520,-0.027519470,0.036539130
1640833066.988050,-0.044288610,-0.022886900,10.108871460,-0.087895980,0.093384090,0.049287080
1640833066.992250,0.283672480,0.285830890,9.077234270,-0.073112550,-0.037331880,0.026720760
1640833066.993889,-0.428185760,0.197221960,10.406873700,-0.046344100,0.022965670,0.031435490
1640833066.998020,-0.070511510,0.227831270,8.657087330,-0.000406800,0.092701620,0.007708370
1640833067.001520,-0.426835150,0.054903350,10.015797620,0.041925900,-0.061219930,-0.010448690
1640833067.002460,-0.730356280,-0.054040280,10.118493080,0.016792120,0.082080070,0.004179780
1640833067.002840,-0.128227760,0.023163700,9.113018040,-0.007915500,-0.032667820,0.008891520
1640833067.011930,-0.459090020,0.099644040,10.853247640,-0.042282040,-0.005796550,0.025819240
1640833067.013249,0.238915230,0.314734010,9.292457580,-0.064192720,0.132004920,0.051519280
1640833067.014180,0.249338610,0.251994430,10.319125180,0.010475520,-0.029654800,0.035300850
1640833067.014670,-0.230347020,0.319870440,10.578016280,0.040349360,0.030577180,0.013802950
1640833067.017540,0.197843510,0.377750130,8.664770130,0.032190980,-0.082725290,0.012539330
1640833067.020180,-0.475202590,0.311484900,10.050235750,-0.001840290,-0.072298940,0.011266770
1640833067.024449,-0.169062210,0.529905860,9.043521880,-0.082020450,0.127269340,0.008133050
1640833067.028560,0.040829770,0.640873070,10.058811190,-0.074860450,0.021092600,0.030045210
1640833067.030279,-0.351726740,0.589373230,11.342560770,-0.054745380,0.077602270,0.033247470
1640833067.031880,0.218790590,0.548892560,9.535926820,-0.034244350,-0.021529200,0.012397770
1640833067.032420,-0.308203400,0.295102950,10.205804820,-0.005464260,-0.118394200,0.034292040
1640833067.032750,-0.228690530,-0.075563940,8.850812910,-0.032259520,0.052124270,0.012886520
1640833067.039019,0.080808090,-0.358967330,8.876642230,-0.025370720,0.008989870,0.007854400
1640833067.039800,-0.369661240,-0.303877620,10.387014390,-0.012557210,0.092580910,0.035569060
1640833067.042739,0.164660480,-0.302666490,9.740213390,-0.040371720,0.038082900,0.015564260
1640833067.044849,-0.139920670,-0.011624520,10.802808760,-0.019769370,-0.093425810,0.022022430
1640833067.049549,-0.128590480,0.222615810,9.728940010,-0.028690700,0.009877980,0.015047190
1640833067.052199,0.158881310,-0.053435420,9.245597840,0.025568900,0.004667040,0.001920760
1640833067.052749,-0.418023940,0.225333940,10.148694040,0.091442470,0.058022140,-0.008444490
1640833067.053579,-0.124741060,0.273392890,9.232293130,0.049605980,0.009621680,-0.007165970
1640833067.058200,-0.320562210,0.261865410,9.954558370,0.004611910,-0.091196620,0.025683650
1640833067.059630,-0.390176620,0.657708290,9.446626660,-0.064961600,0.024823840,0.009351970
1640833067.062250,-0.093421070,0.431410970,9.825695990,-0.056128200,0.000812110,0.026991970
1640833067.064509,-0.378995930,0.351426570,10.877260210,0.045964130,0.054703650,0.024504960
1640833067.066969,-0.003494030,0.421381740,10.002448080,0.077985230,-0.006622080,-0.028258560
1640833067.067629,-0.218883400,0.291681380,10.356069560,0.031252210,-0.096415010,0.013691190
1640833067.074790,-0.279985280,0.452022250,9.054888730,-0.058037050,-0.019846850,0.009946520
1640833067.076599,0.022862620,0.361537370,8.934805870,-0.113704820,-0.060555350,-0.001446900
1640833067.078980,-0.108432890,0.476843210,9.945883750,-0.062063340,0.068688400,0.042535360
1640833067.080109,0.274139820,0.499364910,9.814632420,0.002269450,0.081728410,0.007016960
1640833067.083670,0.020709140,0.338136550,11.433794020,0.016479190,-0.056330860,0.016036630
1640833067.084869,-0.130525410,0.426195000,10.177457810,-0.028739880,-0.033757090,0.024436420
1640833067.088220,0.051746730,0.024343860,9.034141540,-0.087641190,-0.107362870,-0.014717880
1640833067.089059,-0.258040220,0.012656030,9.366076470,-0.058156260,0.040985640,0.007328390
1640833067.092450,0.009333900,0.227419790,8.506070140,-0.037346780,0.108724850,0.009056930
1640833067.094169,-0.198344470,0.008780940,10.543525700,-0.023256240,-0.023579600,0.012519960
1640833067.099290,-0.292316290,0.210874710,10.332387920,-0.033248960,0.015391410,0.024485590
1640833067.100410,0.069473420,0.033921290,9.685743330,-0.048218670,-0.092473630,0.002221760
1640833067.102259,-0.259889250,-0.324753910,10.541419980,-0.000745060,0.018917030,-0.003382560
1640833067.104760,0.098537120,-0.083022130,9.090898510,0.045609480,0.103931140,-0.030766430
1640833067.107190,-0.036708410,0.032587600,10.044785500,0.025732820,-0.041408840,-0.007918480
1640833067.108650,-0.273119090,0.186169590,9.644332890,-0.026778880,0.013454260,0.020949540
1640833067.112239,0.065797090,0.348321940,8.718294140,-0.063760580,-0.083756450,0.004415210
1640833067.113030,-0.418665740,0.242117880,10.427899360,-0.019124150,-0.023467840,0.018690530
1640833067.117349,-0.171305660,0.168875980,9.854521750,0.058639060,0.102977450,0.004443530
1640833067.119300,-0.162517490,0.256857540,10.867783550,0.095990300,-0.041173400,-0.014826660
1640833067.122030,-0.457129900,0.398806010,10.759188650,0.013707580,0.001996760,0.014007090
1640833067.123720,0.058123500,0.383294140,8.669586180,-0.078840560,-0.066271420,0.009454790
1640833067.127550,-0.322758260,0.478179400,9.627309800,-0.064943720,-0.083836900,0.003118810
1640833067.128399,-0.153148990,0.532862250,8.797822000,-0.033341340,0.076369930,0.007462500
1640833067.132120,0.127642910,0.294600610,9.668092730,0.028187030,-0.013495980,0.009742380
1640833067.133149,-0.275093140,0.185171480,11.248982430,0.040557980,0.023274130,0.010934470
1640833067.137840,0.178228320,-0.252752540,9.964938160,0.005143880,-0.029207770,0.031372910
1640833067.138520,-0.114082300,-0.824097990,10.240884780,0.041587650,-0.104983160,0.034038720
1640833067.144680,-0.223881660,-1.114182710,9.085206030,0.084812950,0.033152100,-0.000466410
1640833067.150740,-0.032559630,-1.341616870,8.761550900,0.154188250,-0.041837990,0.029008090
1640833067.152560,-0.590553880,-1.403500560,10.022488590,0.229048730,-0.006029010,0.043815380
1640833067.153190,-0.264516440,-1.294667600,9.293005940,0.226303950,-0.042371450,0.015895070
1640833067.153720,-0.403393980,-0.685723660,10.352909090,0.243493960,-0.122106090,0.043280420
1640833067.154219,-0.226830070,-0.012476710,9.938010220,0.205449790,0.040498390,-0.006565450
1640833067.157090,0.345779150,0.779272910,9.665642740,0.190697660,-0.013212860,-0.001394750
1640833067.157960,0.026341560,1.457619070,10.447201730,0.221663710,0.003938380,0.040382140
1640833067.163990,0.425147530,1.323727730,8.991270070,0.230391320,-0.029340390,0.029377640
1640833067.164950,-0.061623570,1.073439480,9.563263890,0.267185300,-0.138722360,0.057536370
1640833067.167330,-0.385027110,0.629429820,9.175573350,0.232636940,-0.019228460,0.046283010
1640833067.168890,-0.183525070,-0.268736330,9.455710410,0.199192780,-0.046730040,0.032791500
1640833067.172040,-0.539487120,-0.312048670,10.803561210,0.214627400,0.036495920,0.019352140
1640833067.172860,-0.025726260,-0.375537510,10.060412410,0.179970260,0.013598800,-0.014077130
1640833067.180760,-0.072120960,-0.239666310,10.522813800,0.182619720,-0.087678450,-0.011159480
1640833067.181769,-0.122123770,0.439300720,9.384786610,0.183171080,-0.032433870,-0.030770900
1640833067.182340,0.171604540,0.554099500,8.864809040,0.167931630,-0.095996260,-0.014972690
1640833067.184460,-0.165841390,0.804470000,9.585368160,0.217294710,0.000572200,0.043801970
1640833067.188690,0.195298850,0.811637280,9.232368470,0.207759470,0.023540860,0.029088560
1640833067.189299,0.177205500,0.606409010,10.522583960,0.184771420,-0.020448870,0.066705050
1640833067.192400,0.126828750,0.655548100,10.023419380,0.154274670,0.043146310,0.053732100
1640833067.193189,0.317480270,0.332373680,9.781792640,0.113081950,-0.073471670,-0.000688430
1640833067.197130,-0.258700910,0.265926120,9.880230900,0.139936800,-0.023660060,0.019288060
1640833067.198010,-0.240858900,0.013510510,8.662734030,0.171865510,-0.026355680,-0.037285680
1640833067.204180,-0.577824120,-0.274793120,9.735069270,0.195579230,-0.065706680,-0.042125590
1640833067.206630,-0.727844770,0.009489320,9.312100410,0.184758010,0.033037370,-0.018295650
1640833067.207150,-0.419349880,-0.114963820,9.872949600,0.133523340,-0.061206530,-0.026388470
1640833067.207720,-0.467906330,0.223749090,10.688935280,0.135688480,-0.017870960,0.012980400
1640833067.212989,0.204454410,0.548461680,9.429810520,0.133417560,-0.005103650,0.024306770
1640833067.215160,0.354730490,0.282025310,10.371707920,0.169916470,-0.020599360,0.028088690
1640833067.218560,0.243061940,0.470272840,9.882869720,0.224642490,0.043845180,0.024367870
1640833067.219800,0.332627390,0.368091550,9.472003940,0.195133690,-0.116996470,0.005266070
1640833067.222000,-0.175521600,0.200873850,9.826716420,0.158636270,-0.078883770,0.002755220
1640833067.222910,-0.114051090,0.468534980,8.715085980,0.106124590,-0.009766220,-0.016810000
1640833067.227690,-0.230532010,0.484983950,10.064946170,0.077420470,-0.005969400,-0.000268220
1640833067.228469,-0.483126850,0.505847390,10.640852930,0.120496770,0.071167950,0.006572900
1640833067.232479,-0.297377530,0.621374730,10.210663800,0.156727430,-0.095044080,-0.006613140
1640833067.233919,-0.614382330,0.521847370,10.334620480,0.152960430,-0.150875750,0.017175080
1640833067.237320,-0.285396220,0.318810250,8.547921180,0.099115070,-0.027918820,0.017766660
1640833067.237929,-0.062699870,0.113964430,9.178582190,0.087732090,-0.026275220,0.011670590
1640833067.242159,-0.052926130,0.002847190,9.990318300,0.111012170,0.070293250,0.023412700
1640833067.243640,0.560568990,-0.061575390,9.649990080,0.129321220,-0.010402500,0.008788700
1640833067.248020,0.352531730,0.053794200,10.668319700,0.139854860,-0.079095370,0.004272160
1640833067.250110,0.284558590,0.005224910,9.782434460,0.101129720,-0.023642180,0.002899770
1640833067.253170,0.273142460,-0.140431720,9.307660100,0.123935950,-0.060682000,0.003258880
1640833067.253700,-0.318052380,-0.115458920,9.703664780,0.181785200,0.029811260,-0.019979480
1640833067.257040,-0.326229100,-0.012957370,9.129042630,0.186395660,0.012063980,-0.004357100
1640833067.257740,-0.762835860,0.161358160,9.942126270,0.180988010,-0.091461830,0.014632940
1640833067.269189,-0.929796700,0.286315800,9.749158860,0.111454750,-0.064185260,-0.012607870
1640833067.270450,-0.506808640,0.461422740,9.383663180,0.098185240,-0.067918010,0.006796420
1640833067.271469,-0.600186880,0.422245950,10.501554490,0.173880140,0.022774940,-0.018952780
1640833067.271989,-0.053951840,0.491911920,10.220443730,0.202025470,0.023868680,-0.040431320
1640833067.274740,0.137218940,0.837803360,10.177322390,0.188222500,-0.097727770,0.006686150
1640833067.275529,0.135221900,0.624904220,9.621479030,0.085011130,-0.092849140,-0.008502600
1640833067.277109,0.576926650,0.716520670,8.513483050,0.018240510,-0.066530690,-0.004477800
1640833067.278859,0.220735790,0.809389170,9.543522830,0.057710720,0.000940260,0.000260770
1640833067.283830,0.144707380,0.346813770,10.279318810,0.099435450,0.046949090,-0.032517310
1640833067.285260,0.025739620,0.556165100,10.425441740,0.151136520,-0.079093880,-0.014922020
1640833067.287050,-0.494913700,0.333987440,10.541489600,0.082089010,-0.095528370,-0.015158950
1640833067.288250,-0.402384340,0.004405440,9.107102390,0.004705790,-0.054749850,-0.011028350
1640833067.292050,-0.704121590,0.255711560,9.111891750,0.028780100,-0.067001580,-0.019316380
1640833067.292719,-0.755833330,0.081619680,9.503655430,0.045523050,0.008264180,-0.025084620
1640833067.297420,-0.214603470,0.251600980,9.183735850,0.106543310,-0.026065110,-0.008413200
1640833067.299290,-0.287422180,0.325710680,10.470830920,0.099398200,-0.079311430,-0.027677420
1640833067.302050,0.156940800,0.177798180,10.027636530,0.036710500,-0.030584630,-0.018028910
1640833067.302709,0.492898970,0.212453380,9.648211480,0.067268300,-0.061698250,-0.022012000
1640833067.307320,0.400139570,0.219713320,10.097921370,0.059190400,0.015094880,-0.030271710
1640833067.309190,0.658246580,0.497237410,9.172529220,0.060810160,0.002492960,0.019407270
1640833067.318060,0.172272790,0.325225440,9.651228900,0.051268950,-0.076121110,0.010551510
1640833067.318630,-0.156299800,0.212767090,9.463897710,0.024382770,-0.040091570,-0.021247570
1640833067.319110,-0.400779780,0.238376290,9.308687210,0.073747340,-0.070461630,-0.017982720
1640833067.319490,-0.720384180,0.015702000,10.194041250,0.089371200,-0.015424190,-0.058780610
1640833067.321990,-0.388663200,0.422505800,9.939821240,0.055865940,0.042706720,-0.044170020
1640833067.322630,-0.339483530,0.611479940,10.434162140,0.009106100,-0.008749960,0.003199280
1640833067.327980,-0.202433760,0.505086420,10.196120260,-0.039575990,-0.019417700,-0.003722310
1640833067.331179,-0.026005430,0.743258060,9.360234260,0.007650260,-0.101323430,-0.002504880
1640833067.332810,-0.064732530,0.584369600,9.290128710,0.041280680,-0.075162950,0.003291670
1640833067.333230,0.264296740,0.341870730,9.221158030,0.035826860,0.024639070,-0.007459520
1640833067.337060,0.414975140,0.360719920,10.205718990,0.035239750,0.044977660,0.011953710
1640833067.337750,0.517944340,0.218216360,10.564940450,-0.032179060,0.050088760,0.017362830
1640833067.341940,0.479064610,0.237261590,10.252550130,-0.049197670,-0.037309530,0.002731380
1640833067.342599,0.081189110,0.446923880,9.780370710,-0.047272440,-0.061424080,-0.009067360
1640833067.347530,-0.200669540,0.388616030,8.920405390,-0.042910880,-0.032913690,-0.017811360
1640833067.349409,-0.622120200,0.166619960,9.305207250,0.008089840,-0.012552740,-0.020635130
1640833067.351950,-0.672806440,0.168574110,9.467229840,0.022055200,0.049181290,-0.012537840
1640833067.352609,-0.525343120,0.062779620,9.971481320,0.001600380,0.004348160,0.008977950
1640833067.356950,-0.450228510,-0.015318560,10.577962880,-0.023132560,0.006009640,0.024390220
1640833067.358230,0.021311450,0.209775870,9.810632710,-0.059358770,-0.026601550,0.022725760
1640833067.362290,0.085043410,-0.027005120,9.946431160,-0.020048030,-0.045125200,0.030209130
1640833067.363730,0.299217730,-0.107279690,9.320230480,0.042238830,0.049647690,-0.010629000
1640833067.367030,0.186937440,0.066794720,9.522088050,0.082118810,-0.018207730,-0.029668210
1640833067.367659,-0.273756920,0.015345360,10.185249330,0.048866880,-0.039379300,-0.002044440
1640833067.372010,-0.027871280,0.331612650,9.156756400,-0.028516350,-0.057072940,-0.008761880
1640833067.372609,-0.355450240,0.573625680,10.068612100,-0.067900140,-0.042875120,0.001175700
1640833067.377080,-0.242041840,0.715559600,10.092222210,-0.054840750,0.091953590,0.031092770
1640833067.377830,-0.134890620,0.836966160,10.249761580,0.013892350,-0.008544320,-0.001779200
1640833067.381970,-0.619086270,0.779103280,10.904702190,0.026448070,-0.081710520,-0.000481310
1640833067.382660,-0.176661790,0.690368350,8.784435270,-0.022760030,-0.069864100,0.019539890
1640833067.387040,-0.414157810,0.414663640,9.281476020,-0.067286180,-0.117367490,-0.000292060
1640833067.387679,-0.266252820,0.371056290,9.378343580,-0.113977500,0.076365470,0.029256940
1640833067.391970,0.416929270,0.299408350,9.460490230,-0.090065620,0.061145430,0.029854480
1640833067.392640,0.005797120,0.115360240,11.645331380,-0.049081450,-0.017805400,0.012870130
1640833067.396950,0.446615870,0.307979550,9.972444530,-0.056013460,-0.025273860,0.023059540
1640833067.397650,0.279265610,0.066917360,9.605456350,-0.065641110,-0.152421010,-0.002826750
1640833067.402030,-0.212466630,-0.001957860,9.417499540,-0.072512040,0.031134490,-0.000600520
1640833067.402700,0.157231880,0.213927490,8.411960600,-0.058037050,0.053873670,0.002326070
1640833067.408110,-0.563863460,0.054914690,10.550779340,-0.043801970,-0.020791590,0.016881530
1640833067.408800,-0.392497060,0.383765760,9.782145500,-0.074374680,0.007881230,0.032590330
1640833067.412020,-0.283846970,0.389485000,9.918535230,-0.093510750,-0.123783950,0.014780460
1640833067.412900,-0.545033100,0.139988060,10.496509550,-0.080992290,0.007627900,0.020450360
1640833067.416940,0.213263360,0.218540640,9.049424170,-0.015297530,0.065660480,-0.012229390
1640833067.417650,-0.108690630,0.054983530,10.477715490,0.014805790,-0.027514990,-0.007873770
1640833067.422040,-0.000467250,0.164871990,9.449206350,-0.039127470,0.008392330,0.026968120
1640833067.423529,0.240201790,0.097587600,9.050338750,-0.087113700,-0.125242770,0.018289690
1640833067.426920,-0.395861090,-0.082095410,10.214792250,-0.107963380,-0.033697490,0.025455660
1640833067.427680,0.036400520,0.009484100,9.329990390,-0.017783050,0.036560000,0.015693900
1640833067.431910,-0.166830930,0.022551060,10.922987940,0.045347210,-0.023919340,-0.018754600
1640833067.432629,-0.196860600,0.419218420,10.534920690,-0.013259050,0.059863920,0.021518770
1640833067.437219,0.055849510,0.585443500,9.653933530,-0.074224170,-0.083100790,0.014255940
1640833067.437950,-0.560410200,0.633461480,9.952546120,-0.126186030,-0.105027850,0.012525920
1640833067.442040,-0.156561060,1.056111100,8.124125480,-0.117982920,-0.025711950,0.031116600
1640833067.442930,-0.262303800,0.770257530,9.686459540,-0.068871660,-0.018268820,0.032489000
1640833067.447070,-0.227979440,0.518403470,10.568831440,-0.057223450,0.081203890,0.024634600
1640833067.447650,0.389905510,0.380645840,10.332905770,-0.044631960,-0.026682020,0.041584670
1640833067.451920,0.110802800,-0.124138080,11.045590400,-0.089061260,-0.041675570,0.028201940
1640833067.452669,0.387608560,-0.020111100,9.031264310,-0.133417560,-0.005823370,0.016598410
1640833067.458449,0.180073800,-0.045325280,9.121317860,-0.130672770,-0.069518390,0.031875070
1640833067.458989,-0.255221580,-0.189753200,9.258041380,-0.103010240,0.038392840,0.025211280
1640833067.462230,-0.127369940,-0.032373050,9.115646360,-0.035889440,-0.040043890,0.017201900
1640833067.463199,-0.557299440,-0.117912670,10.728855130,-0.017376240,-0.029741230,0.003115830
1640833067.466950,-0.235147270,0.049288400,9.826536180,-0.051741300,0.039318200,-0.005331640
1640833067.467620,-0.149795280,0.253268690,10.407303810,-0.072331730,-0.033800310,0.018565360
1640833067.472000,-0.212997820,0.372341390,10.152542110,-0.089351840,0.055220720,0.044929980
1640833067.472800,0.075054470,0.416314510,9.077061650,-0.052393980,-0.061830890,0.049459950
1640833067.477069,-0.279298100,0.391413840,9.651962280,-0.021922590,-0.093083080,0.034859770
1640833067.477670,0.013821750,0.371169980,8.668335910,-0.048108390,0.012849270,0.016817450
1640833067.481959,-0.105908390,0.137357260,10.198859210,-0.037814680,-0.031065940,0.010910630
1640833067.482610,-0.115739550,0.244693790,10.855020520,-0.055623050,0.071601580,0.001168250
1640833067.487239,0.276395410,0.317296890,10.197827340,-0.083836910,-0.031912330,0.007113810
1640833067.488040,-0.163908110,0.381942270,10.670086860,-0.081050400,-0.063037870,0.029046840
1640833067.491950,-0.030355020,0.565189000,8.928640370,-0.101770480,-0.003519650,0.008806590
1640833067.492659,-0.295488480,0.437307600,9.308933260,-0.077044960,-0.096061830,0.039115550
1640833067.497059,-0.506569560,0.370206330,9.592782970,-0.050586460,0.018826120,0.041668120
1640833067.497670,0.058286350,0.256377310,9.206432340,-0.061400230,0.012242790,0.038041170
1640833067.502270,-0.182158830,0.174403910,10.975102420,-0.069963940,0.021110480,0.067926940
1640833067.503199,0.202290000,0.242164890,10.183995250,-0.120618940,0.067438190,0.026358660
1640833067.507750,0.249038920,0.298981490,10.186742780,-0.121401260,-0.098525000,0.014624000
1640833067.508180,-0.158408730,0.401068210,9.682196620,-0.104053320,-0.021851060,0.039638580
1640833067.511910,0.172585930,0.088640750,8.357095720,-0.071911500,-0.009946530,0.006687640
1640833067.512630,-0.496348980,-0.014046700,9.961441040,-0.026105350,-0.022642310,0.026051700
1640833067.516929,-0.392715280,0.064969380,9.504910470,-0.057525940,0.062103580,0.032782570
1640833067.517779,-0.179411310,-0.140888960,10.209523200,-0.090098380,-0.065620250,0.020791590
1640833067.522030,-0.478862700,0.206872200,10.760158540,-0.108711430,0.017350910,0.039944050
1640833067.523480,0.203202580,0.212445290,9.375956540,-0.100694600,0.005596880,0.030574200
1640833067.526990,-0.204485570,-0.040904640,10.522486690,-0.016495590,-0.042469800,0.024914740
1640833067.527629,-0.258110260,0.290281000,9.379413600,0.017404560,0.022532050,0.024048990
1640833067.531950,-0.097870330,0.099930960,9.268043520,-0.012135500,-0.131264330,0.019495190
1640833067.532650,-0.594217720,0.212520540,9.975070950,-0.067353270,-0.025165080,0.039412090
1640833067.537200,0.046351790,0.646300380,8.988596920,-0.128954650,0.027039650,0.031214960
1640833067.538120,-0.098494690,0.513185320,11.063697810,-0.121058520,-0.011625890,0.048068160
1640833067.541960,-0.101265850,0.718221190,10.543791770,-0.060574710,0.059162090,0.033311550
1640833067.542630,0.235804010,0.700620290,9.889291760,-0.029428300,-0.139187250,0.003488360
1640833067.547479,-0.446031720,0.466223540,10.134300230,-0.045157970,-0.079213080,0.033563380
1640833067.548300,-0.062416140,0.415661330,8.202740670,-0.108464050,-0.030064580,0.022149090
1640833067.551940,-0.134911180,0.182179900,9.585184100,-0.141818820,-0.038830940,0.032982230
1640833067.552620,-0.181284250,0.109864230,9.847472190,-0.132264200,0.123529140,0.059160590
1640833067.557010,0.298395310,0.018173730,10.156388280,-0.081349900,-0.036197900,0.027297430
1640833067.557710,-0.236584950,-0.024379100,11.415728570,-0.064755980,-0.072036680,0.029335920
1640833067.561920,0.073780250,-0.034866080,9.117606160,-0.075496730,-0.049072510,0.027471780
1640833067.562690,-0.037374810,-0.371934350,9.563622470,-0.062856090,-0.085407500,-0.006124380
1640833067.567139,-0.400265960,-0.203022490,9.352063180,-0.039623690,0.088596370,-0.000548360
1640833067.567780,-0.106081340,0.011122620,9.082190510,-0.032699100,-0.035816430,0.014053280
1640833067.571960,-0.520515680,0.083378270,10.659549710,-0.041809680,-0.065551710,0.025059280
1640833067.572790,-0.100322370,0.462269840,9.260713580,-0.091832860,-0.023391840,0.040344890
1640833067.576959,-0.031547360,0.341317210,10.349859240,-0.059242550,-0.061474740,0.051350890
1640833067.577679,-0.202970070,0.241536650,10.604175570,0.011828540,0.072965030,0.017848610
1640833067.582120,0.171229810,0.470693230,9.590270040,0.030520560,-0.065903370,0.007608530
1640833067.583140,-0.238752020,0.468147310,10.226919170,-0.022782390,-0.097131740,0.037764010
1640833067.587060,-0.069191140,0.504468920,8.669101720,-0.129650520,-0.022463500,0.009296830
1640833067.587730,-0.083591720,0.641932900,9.464984890,-0.141668320,-0.083860750,0.024896860
1640833067.591920,-0.305333610,0.610325160,10.228947640,-0.086364160,0.059135270,0.032095610
1640833067.592599,0.141634320,0.379664060,9.982254980,-0.025431810,-0.009568040,0.007756050
1640833067.597250,-0.187857630,0.476626570,11.266254430,-0.009971860,-0.061509010,0.035335120
1640833067.598209,0.037734050,0.247797950,9.602787970,-0.104992110,-0.024881960,0.033566360
1640833067.601960,0.102182940,0.005891130,9.205550190,-0.149351360,-0.100588820,0.022946300
1640833067.602680,-0.183197380,0.292492270,9.309394840,-0.120486330,0.044527640,0.019800660
1640833067.606950,0.066186880,0.057166300,8.961627960,-0.098036240,0.007237500,0.021275880
1640833067.607679,-0.369254110,0.081089000,10.584937100,-0.030854350,-0.062219800,0.035169720
1640833067.611980,-0.224219830,0.190854430,9.934366230,-0.065132980,-0.018218160,0.015446550
1640833067.612650,-0.005022490,-0.174874540,9.998024940,-0.081834200,-0.069880490,0.036714970
1640833067.616989,-0.236980240,-0.020713680,10.304971690,-0.047704570,0.042247770,0.010189410
1640833067.617720,0.271261960,0.166917380,9.174607280,-0.062401590,0.011086460,-0.001931190
1640833067.622630,-0.050116500,0.219693780,9.833313940,-0.055202840,-0.057882070,0.055381660
1640833067.622980,-0.159208310,0.344815790,9.217326160,-0.069373850,-0.012099740,0.010351840
1640833067.626999,-0.117691080,0.134829670,9.554272650,-0.061431530,-0.107990220,0.016859180
1640833067.627760,-0.512056890,0.162159990,10.271747590,-0.001661480,-0.005525350,0.019034750
1640833067.632200,0.042690210,0.127198790,9.732151030,-0.010286270,0.026844450,-0.022332370
1640833067.632830,-0.118100810,0.321144010,10.920848850,-0.042930250,0.007985530,0.033713880
1640833067.637080,-0.134976250,0.408069370,10.181629180,-0.086157020,0.012688340,0.046187640
1640833067.637709,0.054154640,0.220213500,9.467282300,-0.085335970,-0.155328230,0.019998850
1640833067.641970,-0.363614380,0.542589250,9.270421030,-0.041532520,-0.086258350,0.044900180
1640833067.642670,-0.028196970,0.312921820,8.679476740,-0.035344060,0.019858780,0.019995860
1640833067.647650,-0.087833320,0.202724840,10.497565270,-0.037032370,0.023955100,0.017476080
1640833067.649129,-0.155050950,0.511435570,10.872708320,-0.055767600,0.050158800,0.030311940
1640833067.651899,0.328662750,0.275532600,10.282604220,-0.103376810,-0.082597140,0.010606650
1640833067.652680,-0.101452740,0.512465300,10.004634860,-0.099208950,-0.066825750,0.016874070
1640833067.657009,-0.028127090,0.629404780,8.652537350,-0.112067190,-0.011371080,0.025676190
1640833067.657729,-0.134339480,0.145881030,9.381331440,-0.077407060,-0.026431680,0.041753050
1640833067.662180,-0.430896040,0.020987530,9.844015120,-0.013120470,0.008143480,0.029309090
1640833067.664209,0.019925080,-0.211036090,9.837327960,-0.023216010,-0.022763010,0.023177270
1640833067.667019,-0.123911500,-0.235518110,10.588536260,-0.057725600,0.012391800,0.018931930
1640833067.667690,-0.066974930,0.059290020,9.987764360,-0.112368170,0.007036330,-0.001999740
1640833067.672150,0.195156540,0.064043070,9.718797680,-0.107352440,-0.048880280,0.021417440
1640833067.672760,-0.237616020,0.027870330,9.600464820,-0.004570190,-0.006799400,0.022761520
1640833067.677060,-0.177517190,0.121826220,9.140000340,0.036908690,-0.059521210,0.007435680
1640833067.678579,-0.314186480,0.109270270,9.674986840,0.031246250,-0.052973630,0.028117000
1640833067.681939,-0.381343570,0.089919340,9.839810370,-0.035586950,0.012907380,0.011458990
1640833067.682649,0.109468680,0.235143270,10.128503800,-0.069515410,0.024190550,0.025886300
1640833067.687009,-0.019419080,0.278779920,10.705403330,-0.033800300,0.044764580,0.034320360
1640833067.687810,0.087527870,0.311619310,10.093888280,-0.003679100,-0.028200450,0.010307130
1640833067.691910,-0.079125180,0.499083700,9.666733740,0.029338900,-0.123435260,0.012075900
1640833067.692620,-0.505126600,0.246364040,9.162667270,-0.003153090,-0.090754040,0.010114910
1640833067.697300,-0.285698410,0.149966670,9.005178450,-0.028626620,-0.020788610,0.019669530
1640833067.697929,-0.256784080,0.205205710,10.194028850,-0.018391020,0.058043000,0.022670630
1640833067.701920,-0.046540700,0.157932890,10.862848280,-0.023777780,0.054103140,0.004084410
1640833067.702620,0.200292050,0.529485880,10.547562600,-0.028616200,-0.059218710,-0.006991630
1640833067.706960,-0.037587150,0.646404860,9.823320390,-0.072854760,-0.115863980,-0.005364420
1640833067.707660,0.001060480,0.290979240,8.776987080,-0.057528920,-0.060746070,0.026917460
1640833067.712040,-0.105554310,0.095888820,9.076831820,0.038734080,-0.008146460,0.022748110
1640833067.712690,-0.155347510,-0.226661910,9.856142040,0.053459410,0.043751300,0.022202730
1640833067.716940,0.070304740,-0.205619930,10.119002340,0.027713180,0.014877320,0.031010810
1640833067.717690,-0.001247080,0.004632210,10.599894520,-0.065192580,-0.033015020,-0.003528600
1640833067.722119,0.137248500,0.141035870,9.900675770,-0.119648880,-0.007998940,0.004346670
1640833067.722740,0.022272460,0.260093180,9.482855800,-0.014500320,-0.031299890,-0.007268790
1640833067.727120,-0.193999450,0.117556210,9.449829100,0.083860750,-0.016281010,-0.045745080
1640833067.727710,-0.222032440,0.251796900,9.076325420,0.112544020,-0.009010730,-0.020697720
1640833067.731940,-0.435345620,0.252066670,9.878192900,0.036916130,-0.030846890,-0.006474560
1640833067.732669,-0.195101140,0.143481640,9.971788410,-0.069300840,0.010059770,0.025330490
1640833067.737040,0.045848190,0.323887970,10.123419760,-0.056932870,0.012503570,0.045098360
1640833067.738610,0.117641290,0.141114310,10.499331470,0.012280050,0.046843290,0.020647050
1640833067.742420,0.095000820,0.215616570,10.075426100,0.087229910,-0.005289910,-0.020711130
1640833067.743409,-0.197794940,0.366144980,9.754738810,0.090616930,-0.116585180,-0.009746850
1640833067.747340,-0.166812300,0.149259370,8.888875010,0.008700790,-0.047023590,-0.012394790
1640833067.748180,-0.157219500,0.339691520,9.179615970,-0.029391050,0.019201640,-0.000864270
1640833067.751880,-0.239271720,0.485220220,10.458501820,-0.033558910,0.083091860,0.016485160
1640833067.752720,0.048961080,0.575670900,10.509239200,-0.020956990,0.038717690,0.004011390
1640833067.757050,-0.097214270,0.855877040,10.732508660,0.000119210,-0.076602410,-0.004673000
1640833067.758479,-0.080387940,0.759170770,9.603304860,-0.033666190,-0.046193590,0.009667870
1640833067.762179,-0.002741440,0.383119110,8.781446460,-0.014191860,-0.052703920,-0.006571410
1640833067.763409,-0.144421560,0.162826340,9.466489790,0.009077790,0.051048390,0.011333820
1640833067.766899,0.268499400,-0.036447280,9.229876520,0.000940260,0.098624820,0.030751530
1640833067.767700,0.051704810,-0.132673320,10.808602330,-0.021086630,-0.017070770,0.013725460
1640833067.772529,0.069457020,0.065113820,10.442127230,-0.075148050,0.006987150,0.020068880
1640833067.772899,0.263877390,-0.090817930,9.552025790,-0.064264250,-0.049676000,-0.006791950
1640833067.777030,-0.233137240,-0.326657770,10.114346500,0.041490800,0.019633770,-0.031727550
1640833067.777890,0.029721660,-0.050837000,8.704735760,0.112704930,0.088287900,-0.037054720
1640833067.781989,-0.337251040,-0.128073300,9.809781070,0.098699330,-0.040392580,-0.008690360
1640833067.782670,-0.488706200,0.171478960,9.813995360,-0.005324190,0.031049550,0.021041930
1640833067.787040,-0.059343200,0.448013780,9.217251780,-0.076887030,-0.033681100,0.019398340
1640833067.787730,-0.448258040,0.201492180,10.875778200,-0.020247700,0.026543440,0.022009020
1640833067.792039,0.117074980,0.326943580,9.574739460,0.102272650,0.119633970,-0.026570260
1640833067.792680,-0.057383420,0.280265570,10.490655900,0.165408850,-0.059247030,-0.043176110
1640833067.796990,-0.313243210,0.133444150,9.983386990,0.096024570,0.002555550,-0.014275310
1640833067.797690,0.218616050,0.293513660,8.291916850,-0.006125870,-0.066611180,-0.007936360
1640833067.801910,-0.404894260,0.267948150,10.210253720,-0.057038670,-0.016584990,0.026501720
1640833067.802680,0.071504460,0.391729030,9.367281910,-0.022895630,0.148607810,0.026316940
1640833067.807279,0.144994540,0.597339030,10.744687080,0.058200970,-0.018078090,-0.025679170
1640833067.808970,-0.405602630,0.757350150,11.418548580,0.061221420,0.023667510,-0.017264490
1640833067.811930,0.103577290,0.716228840,8.872631070,0.015394390,-0.067470980,-0.022318960
1640833067.812650,-0.506362080,0.539366780,9.880854610,-0.028538700,-0.117227440,-0.023406740
1640833067.816959,-0.215957880,0.598864140,8.473205570,-0.067843500,0.130532700,0.020578500
1640833067.817690,0.192048240,0.348053010,9.355453490,-0.034543870,0.032363830,0.022853910
1640833067.822399,-0.311198170,0.318576040,11.454638480,-0.008647140,0.058737400,0.021019580
1640833067.825520,0.443233190,0.288678880,9.683609010,-0.043936070,0.004096330,0.006800890
1640833067.826939,0.105173990,-0.140915950,10.580946920,-0.027430060,-0.096432860,-0.022031370
1640833067.827659,-0.058680980,-0.119873740,9.445837020,-0.012741980,0.078269850,-0.041054190
1640833067.831920,0.281050980,-0.108816500,8.653315540,0.012512510,0.008355080,-0.018724800
1640833067.832650,-0.483886630,-0.161389230,10.316774370,0.024184590,0.025910140,0.008511540
1640833067.837000,-0.122020540,0.068875120,9.170331000,-0.026641790,0.028477610,-0.003916030
1640833067.837710,-0.233562800,0.145378250,10.274796490,-0.031036140,-0.070846090,0.022073090
1640833067.841970,-0.366893590,0.123435900,10.212391850,-0.000640750,0.092092160,-0.020505490
1640833067.842700,0.182274490,0.210265930,9.685791970,0.040860470,0.049991910,-0.049126140
1640833067.847240,-0.369046150,0.403318080,10.859262470,0.090140110,0.005811450,-0.013060870
1640833067.848270,-0.084079160,0.311498880,9.162478450,0.028097630,-0.016668440,-0.032171610
1640833067.851970,-0.050965340,0.421528520,9.217151640,-0.025184450,-0.093515220,0.005143880
1640833067.852690,-0.320737120,0.403445810,9.526498790,-0.043813880,0.083237890,0.022621450
1640833067.858600,0.079831350,0.004569950,9.890736580,0.010211770,0.066651410,-0.010281800
1640833067.859279,-0.270592000,0.336843550,11.323313710,0.092445300,0.001782180,-0.009536740
1640833067.861940,-0.089235100,0.317017380,10.123911860,0.038093330,-0.014273820,-0.028455260
1640833067.862749,-0.035154250,0.279879090,9.684104920,-0.025995080,-0.084432940,-0.032800440
1640833067.866950,-0.346964960,0.805764260,9.312913890,-0.056795780,0.031472740,-0.009237230
1640833067.867699,-0.107053770,0.500879050,9.112917900,-0.062575940,0.007176400,-0.005759300
1640833067.872010,-0.190656810,0.659735380,10.123928070,0.003325940,-0.003589690,0.013923650
1640833067.874430,0.021617530,0.696202100,9.913859370,-0.004027780,0.042252240,-0.008520480
1640833067.877139,0.133053330,0.180407330,10.544055940,-0.042442980,-0.003321470,-0.000585620
1640833067.877800,-0.070956850,0.237403630,10.317595480,-0.036124880,0.009563570,-0.032046440
1640833067.881919,0.121116970,-0.018461140,9.301641460,-0.059136760,-0.038406260,-0.028648980
1640833067.882670,-0.071698410,-0.217522730,9.472106930,-0.012062490,0.003016000,0.022101400
1640833067.887159,-0.170899880,-0.087771870,9.199375150,0.005985800,0.045520070,-0.010795890
1640833067.888039,-0.154329270,-0.166123380,10.001434330,-0.027263170,-0.032985210,0.007572770
1640833067.894610,-0.230300890,-0.075182740,10.169427870,-0.006453690,0.030031810,-0.000444050
1640833067.895130,0.063977320,-0.053362960,9.794353490,0.003555420,0.031083820,-0.058351460
1640833067.897179,-0.196433900,0.147434370,10.476909640,0.036525730,0.011958180,-0.025814770
1640833067.898209,-0.202921690,0.284250920,9.461476330,0.052998960,0.006629530,-0.010897220
1640833067.902079,-0.169535410,0.183034760,9.413661000,0.027266150,-0.087201600,-0.021222230
1640833067.902700,-0.319869760,0.371421610,9.485938070,0.005549190,0.022336840,0.023315850
1640833067.908660,0.052777980,0.149056930,9.326119420,0.010666250,0.044907630,0.005437430
1640833067.909200,-0.030988970,0.132182660,10.790139200,0.045038760,0.034458940,-0.020563600
1640833067.911960,-0.009942000,0.374101370,10.359561920,0.061637170,0.049698350,-0.006674230
1640833067.912670,0.008596990,0.184583260,10.024086000,0.039209430,-0.096662340,-0.026829550
1640833067.916950,-0.385537920,0.468493400,9.755839350,0.007554890,-0.054363920,-0.035543740
1640833067.917780,-0.214181470,0.593409420,8.639161110,-0.021912160,-0.002247100,-0.011356180
1640833067.921980,-0.274067610,0.397675010,9.950487140,0.007350740,0.008647140,0.001022220
1640833067.923640,-0.258790250,0.665499210,10.431138990,0.041027370,0.073041030,-0.011609490
1640833067.926960,0.136317400,0.657158730,10.203526500,-0.000675020,-0.026276710,0.002938510
1640833067.927690,-0.115436230,0.574427720,10.652284620,-0.049984460,-0.054481630,-0.014102460
1640833067.931949,-0.010724770,0.619456530,9.407313350,-0.085498400,-0.016951560,-0.019991400
1640833067.932670,0.018367330,0.404641120,9.234934810,-0.048398980,-0.046533350,0.001671910
1640833067.937000,-0.283597080,0.219735460,9.878862380,0.012171270,0.024795530,0.000536440
1640833067.937749,0.132589820,0.181477280,9.395666120,-0.015559790,0.018085540,0.015147030
1640833067.941969,0.111807470,0.074531070,10.146155360,-0.058428950,-0.009030100,0.023716690
1640833067.942750,0.069106330,-0.058614210,10.268740650,-0.091987830,0.065515930,-0.012305380
1640833067.947300,0.278587430,0.135559930,9.727053640,-0.063018510,-0.006580350,-0.011037290
1640833067.948380,-0.208639350,0.128092480,10.066692350,0.004389880,-0.033122300,-0.013488530
1640833067.951959,-0.234644030,0.072020280,9.195907590,-0.002504890,-0.011663140,-0.023759900
1640833067.952679,-0.270578320,0.247090350,9.156112670,-0.010050830,-0.041653220,-0.004540380
1640833067.956940,-0.540449200,-0.055150920,10.061899190,-0.034438070,0.051766630,-0.006404520
1640833067.957700,-0.045685790,0.108385260,9.791058540,-0.015303490,0.042006380,-0.006538630
1640833067.961959,-0.098159370,0.322242020,10.481204030,0.003799800,-0.015881660,0.013124940
1640833067.962679,0.037813030,0.013875920,10.082099910,-0.028359890,0.031937660,0.004996360
1640833067.967020,0.124178990,0.145501850,9.376061440,0.022715330,-0.046934190,0.003311040
1640833067.967710,-0.385028480,-0.063039530,9.928754810,0.044098490,-0.045695900,-0.024250150
1640833067.972100,-0.076392770,-0.002461320,9.002490040,0.037297610,-0.009372830,-0.024108590
1640833067.972930,-0.207393570,0.398720150,9.831635480,0.021533670,-0.026993460,-0.019025800
1640833067.976980,-0.148121010,0.272536930,10.516154290,-0.041060150,0.094991930,0.003540520
1640833067.977710,0.114232700,0.512438480,10.231110570,-0.004777310,0.009462240,0.012424590
1640833067.982010,-0.375282290,0.600953400,10.896187780,0.031538310,-0.094372040,-0.024680800
1640833067.983189,-0.199731160,0.614807840,9.267084120,0.004677470,-0.046162310,-0.018438700
1640833067.986990,-0.281974430,0.690299570,8.994200710,-0.000183280,-0.087644170,-0.010679660
1640833067.987720,-0.310049920,0.432401150,9.735865590,-0.053398310,0.050503020,-0.008358060
1640833067.991880,0.287253500,0.440121500,9.524212840,-0.044453140,0.078694510,0.018942350
1640833067.992760,0.107703610,0.368591670,10.970264430,-0.011630360,-0.017699600,0.001470740
1640833067.997470,0.207756180,0.315141200,10.396234510,-0.059138240,-0.000327830,-0.020566580
1640833067.998340,0.198043090,0.375699670,9.437858580,-0.067672130,-0.102239850,-0.010097020
1640833068.001880,-0.232379650,-0.015931750,9.684048650,-0.038364530,-0.030304490,-0.011028350
1640833068.002740,0.047707380,-0.026506450,8.717280390,-0.013539200,0.057785220,-0.022587180
1640833068.006990,-0.146130840,0.091740680,9.767704010,0.017073750,0.006602700,0.009490550
1640833068.007710,-0.118656810,-0.005843520,10.268259050,-0.033557420,0.060671580,0.002957880
1640833068.011910,0.095100380,0.281167780,9.952878950,-0.075927380,-0.027896470,-0.002188980
1640833068.012679,-0.251462700,0.228204240,10.460659030,-0.064297030,-0.039243700,0.003953280
1640833068.016960,0.051245550,-0.000498220,9.163859370,-0.007700920,0.024308260,-0.046829870
1640833068.017730,-0.076202700,0.029607050,9.401659970,0.090226550,0.006620590,-0.048692530
1640833068.022280,-0.362745400,0.031768470,9.892599110,0.064513090,0.055733330,-0.025141240
1640833068.022709,-0.111975640,0.005946900,9.499424930,-0.008118150,-0.044086570,-0.019715720
1640833068.026899,-0.242603030,0.189126060,9.970738410,-0.058615200,-0.045010440,0.021739300
1640833068.027720,0.071739170,0.122271520,9.582734110,-0.043907760,0.087443000,0.025111440
1640833068.032150,0.030150600,-0.002437420,10.541139600,0.063957280,0.052157040,-0.022929910
1640833068.032680,-0.257843910,0.254167020,10.682551380,0.120343280,-0.006011130,-0.037465990
1640833068.037010,-0.109612070,0.320682820,9.346796040,0.079245880,-0.105083000,-0.043366860
1640833068.037740,-0.481243910,0.429227710,9.372431760,-0.008086860,-0.082364690,-0.028407580
1640833068.041940,-0.248837470,0.833415450,8.853542330,-0.082014510,0.055523220,-0.005203490
1640833068.042690,-0.041814340,0.703779160,10.138809200,-0.051140790,0.062967840,0.001655520
1640833068.047089,-0.083738420,0.813817020,10.991809840,0.014315550,0.069075820,-0.004437570
1640833068.048159,0.205065730,0.985808130,10.300433160,0.010919570,-0.054112070,-0.022882220
1640833068.051920,-0.151375560,0.407901760,10.372877120,-0.023657080,-0.112563380,-0.007799270
1640833068.052700,-0.012763180,0.244478550,8.520160680,-0.045113260,-0.001199540,-0.015500190
1640833068.056919,0.019714660,-0.029289510,9.010401730,-0.042596460,-0.004906950,-0.002178550
1640833068.057720,-0.205099180,-0.263810550,10.065529820,-0.027447940,0.117626790,0.021201370
1640833068.062460,0.161650600,0.083151850,9.855745320,-0.025407970,0.010456140,-0.008812550
1640833068.064469,-0.186729650,0.075365030,11.166044240,-0.060857830,-0.093799840,-0.010488930
1640833068.066939,-0.038512390,0.092823460,9.449156760,-0.066483010,0.009469690,-0.019757450
1640833068.067740,0.028220030,0.092188610,9.274449350,0.004588070,-0.037352740,-0.071592630
1640833068.072790,-0.425277170,0.068549160,10.045038220,0.059580810,0.075592100,-0.041493770
1640833068.073249,-0.034329310,0.338667690,8.830261230,0.042749930,0.001682340,-0.023061030
1640833068.077010,-0.302562240,0.434572670,10.275944710,-0.051082670,-0.104956350,-0.004860760
1640833068.077870,-0.108688260,0.521948930,9.495393750,-0.127205250,0.067330900,0.046853720
1640833068.082440,0.097047340,0.206286460,10.000082970,-0.043807920,-0.007523600,0.003279750
1640833068.083130,-0.344745990,0.062135320,11.304742810,0.073347980,0.028231740,-0.036051870
1640833068.087040,0.090509590,0.216737060,9.221482280,0.107397150,-0.008404260,-0.027833880
1640833068.087930,-0.305284620,0.069156420,10.020961760,0.032833220,-0.136318800,-0.042536860
1640833068.091899,-0.320525140,0.376620740,9.116266250,-0.111117960,0.037676100,-0.019748510
1640833068.092739,0.055116940,0.467285990,8.900113110,-0.115548090,-0.021246080,0.003957750
1640833068.097309,-0.356861740,0.432283670,11.245833400,-0.014360250,0.031903390,-0.027452410
1640833068.098179,0.205293920,0.861835600,9.856378560,0.030490760,0.057832900,-0.034061070
1640833068.101920,-0.036149770,0.741434040,10.821275710,0.006051360,-0.124935810,-0.028888880
1640833068.102739,-0.214586820,0.525273080,9.989764210,-0.082999450,-0.000172850,-0.033608080
1640833068.106959,0.284823330,0.464722660,8.248953820,-0.108572830,-0.044223660,-0.018291170
1640833068.107720,-0.284672500,0.192790360,10.016987800,-0.062246620,-0.006651880,0.011537970
1640833068.113180,0.150490730,0.097199940,9.138670920,-0.049209600,0.107173620,-0.001078840
1640833068.113860,0.070047030,0.115210880,10.489717480,-0.035138420,-0.073315190,0.007748600
1640833068.117050,-0.325680020,-0.077573430,10.944282530,-0.058326130,0.002235170,-0.006771090
1640833068.117720,0.321351620,-0.269442860,8.983366010,-0.060579180,-0.032630570,-0.061245260
1640833068.122630,-0.210264190,-0.087074230,10.181901930,-0.002703070,-0.007219610,-0.046330690
1640833068.123070,-0.054902070,0.026836390,9.174148560,0.001646580,0.103580960,-0.041595100
1640833068.126960,0.068825390,0.146892740,9.454454420,-0.005298850,-0.075429670,-0.018355250
1640833068.127740,-0.288775710,0.490677710,10.132267950,-0.059354310,0.005586450,0.010766090
1640833068.132180,0.281559850,0.187103060,9.209540370,-0.070151690,0.043058400,0.002856550
1640833068.132740,-0.149822240,0.056457720,10.882514000,0.033721330,0.005623700,-0.014099480
1640833068.137019,-0.121097510,0.148399200,10.187761310,0.076493630,0.090990970,-0.032010670
1640833068.137780,0.007399480,-0.137357160,9.769234660,0.049118700,-0.071707380,-0.010444220
1640833068.142000,-0.518640520,0.121400150,9.843313220,0.005327170,-0.033454600,-0.011150540
1640833068.143800,-0.060407560,0.225995110,8.587269780,-0.071056170,0.002850590,-0.015117230
1640833068.146940,-0.292552020,0.138772730,10.115894320,-0.024047500,0.007453560,0.026337800
1640833068.147920,-0.187022810,0.499421540,10.328531270,0.050275030,0.105683510,-0.035317250
1640833068.151929,0.144511830,0.590558170,10.586998940,0.044490400,-0.038926310,-0.027440490
1640833068.152740,-0.200519620,0.706583380,10.678071020,0.008590520,-0.018525120,-0.005333130
1640833068.158409,0.145943910,0.739917460,8.977234840,-0.062085700,-0.018900630,-0.054223850
1640833068.159190,-0.080224660,0.714187620,9.513963700,-0.076878080,-0.038209560,0.016886000
1640833068.161870,-0.131461980,0.558882240,9.129919050,-0.050552190,0.096866500,0.026741630
1640833068.162680,0.071089540,0.202452060,9.956898690,-0.006732340,-0.005665420,0.002175570
1640833068.166920,-0.341484310,0.103897110,10.912756920,0.006239120,0.006385150,0.038297470
1640833068.167709,0.009242730,-0.242857130,9.587508200,-0.028777120,-0.014241040,-0.013810400
1640833068.172740,-0.135452270,-0.432809500,10.222443580,-0.049871210,-0.026807190,-0.027263170
1640833068.173120,-0.246921550,-0.100063940,9.354528430,-0.024428960,0.091500570,-0.010630490
1640833068.177130,-0.071952980,-0.234413560,9.356248860,0.007319450,-0.042736530,-0.026257340
1640833068.177749,-0.448514250,0.101232570,10.134595870,0.023682420,-0.031220920,0.001801550
1640833068.181929,-0.030132990,0.350188610,8.909817700,-0.009416040,0.003871320,0.006741290
1640833068.182700,-0.088612120,0.061627660,10.488806720,-0.004154440,-0.018315020,-0.008496640
1640833068.187039,-0.115972080,0.355392550,10.274837490,0.028756270,0.105120260,0.000931320
1640833068.187889,0.214601190,0.316974160,9.826862340,0.049956140,-0.038063530,-0.005905330
1640833068.192010,-0.250898990,0.130596910,10.528750420,0.039741400,-0.050860640,0.009708110
1640833068.192720,-0.022461100,0.425436910,8.584882740,-0.006262960,-0.015133620,0.000898540
1640833068.197310,-0.173644380,0.166763190,9.687143330,-0.024808950,-0.070954870,0.000250340
1640833068.198690,-0.368415590,0.100866300,10.135600090,0.022286180,0.108334420,-0.007699430
1640833068.201920,0.072122830,0.307210620,9.912539480,0.053446000,-0.003178420,-0.038984420
1640833068.202700,-0.330881420,0.298679770,11.375153540,0.031082340,-0.029183930,-0.015451020
1640833068.207700,-0.029437240,0.398411040,9.436021800,-0.024135410,0.016903880,-0.017033520
1640833068.208540,-0.031119560,0.540944280,9.539751050,-0.036062300,-0.120711350,-0.021985170
1640833068.211949,-0.376450660,0.526672360,9.693156240,-0.028789050,0.047755240,0.019083920
1640833068.212730,0.163720800,0.448422880,8.771178250,-0.003093480,0.013114510,0.010849540
1640833068.216980,-0.191615340,0.389059100,10.939473150,0.023290510,-0.033870340,0.017605720
1640833068.217720,0.083136630,0.267270950,9.944525720,-0.015300520,0.080254690,0.015650690
1640833068.223379,0.343969880,0.081686500,9.959650040,-0.035457320,-0.078041850,-0.012792650
1640833068.224370,-0.135589530,0.211915780,10.471285820,-0.050817430,0.041025870,-0.022031360
1640833068.226899,0.220442490,0.109789150,8.749076840,-0.048060720,0.012922290,-0.010012090
1640833068.227720,-0.270377100,-0.070609600,10.010622980,0.029729310,-0.086981070,-0.001330670
1640833068.231920,-0.373953730,-0.049570980,9.388689990,0.026114280,0.042463840,-0.009362400
1640833068.232699,-0.076923620,-0.150877390,9.394182210,0.026088950,-0.046116110,0.005508960
1640833068.237040,-0.508628670,-0.063525660,10.864109040,0.009179120,0.033782430,-0.007809700
1640833068.237759,0.147739080,0.186342400,9.597973820,-0.034090880,0.066785520,-0.020967420
1640833068.242040,-0.063448200,0.229294090,10.543610570,0.010304150,-0.050434470,0.022074580
1640833068.242780,-0.193994910,0.291363890,9.854966160,0.042828920,0.008957090,-0.015746060
1640833068.247040,0.027623500,0.309514050,8.896911620,0.051653390,-0.097431240,-0.008672480
1640833068.248560,-0.527578530,0.343194070,9.873262410,0.046809020,-0.028507410,0.020630660
1640833068.251880,-0.031207630,0.178996820,9.322378160,-0.004616380,0.069871550,-0.020860140
1640833068.252760,-0.015969720,0.361561360,10.624703410,0.004440550,-0.007984040,0.020752850
1640833068.258020,-0.170443360,0.408524540,10.820796970,0.008735060,0.040897730,0.005644560
1640833068.258790,0.207697530,0.321750100,9.723655700,-0.008507070,-0.075069080,-0.039258600
1640833068.261890,-0.400208590,0.733557220,10.006459240,0.000803170,-0.080010300,-0.005365910
1640833068.262760,-0.272598360,0.407484260,8.855141640,-0.013303760,-0.009477140,-0.009420510
1640833068.266950,-0.235472340,0.182158630,9.455780980,0.021952390,-0.044745210,0.010949370
1640833068.267720,-0.297650870,0.433789280,10.076241490,0.024952000,0.054399670,0.018556420
1640833068.272040,0.272708450,0.017330340,10.106277470,-0.030402840,0.033079090,0.013771660
1640833068.272869,0.110482380,0.303758030,10.798452380,-0.031967460,-0.026424230,0.001461800
1640833068.276980,0.147421150,0.408761110,9.683701520,-0.051821780,-0.024512420,-0.019752980
1640833068.277730,0.151066080,-0.041958380,9.319600110,-0.004947190,-0.089721390,0.001741950
1640833068.282070,-0.280152620,0.075239840,9.148649220,0.060525540,0.012575090,-0.017863510
1640833068.282719,-0.166408020,-0.108821280,9.142101290,0.042432540,-0.001336630,-0.027056030
1640833068.287119,-0.407817300,-0.108233160,10.319394110,0.027948620,-0.009939070,0.008884070
1640833068.287890,-0.216927300,0.243760900,9.966558460,-0.035509470,0.018642840,-0.013978780
1640833068.291940,0.011898430,0.086584020,10.420087810,-0.045427690,-0.025098030,0.014598670
1640833068.292719,-0.263255450,0.149084460,10.284614560,0.047315660,0.019240380,0.001066920
1640833068.296960,-0.067223300,0.201239270,9.450927730,0.101368140,-0.079497700,-0.051596760
1640833068.298130,-0.296832710,0.206000430,9.661231990,0.089649860,-0.083540380,-0.009146330
1640833068.301999,-0.128445660,0.417291370,8.783430100,0.016820430,0.020909310,-0.020438430
1640833068.303390,0.081882070,0.521472930,9.987123490,-0.066463650,-0.006645920,-0.001402200
1640833068.307750,0.036899850,0.626147090,10.675501820,-0.044506790,0.080700220,0.042270130
1640833068.308359,0.291248500,0.637372790,10.279554370,0.012059510,-0.014489890,-0.011534990
1640833068.311910,-0.082016800,0.624354060,10.751288410,0.042742490,-0.095069400,-0.014698510
1640833068.312700,-0.243613080,0.518089060,9.049291610,0.021211800,-0.045254830,-0.005784630
1640833068.316939,-0.200090180,0.106707570,8.902867320,-0.021961330,-0.086286660,-0.017000740
1640833068.317829,-0.409672410,0.072724490,9.637541770,-0.036589810,0.069557130,0.017793480
1640833068.322759,0.026470870,0.007087280,9.611873630,-0.028720500,0.072173770,0.014428800
1640833068.323590,-0.027198880,0.047904520,11.156897540,-0.014081600,-0.043784090,-0.005158780
1640833068.326959,0.078711230,0.351396020,10.119184490,-0.043767690,-0.003442170,-0.007164480
1640833068.327740,0.302468150,0.177307930,9.491236690,-0.039155780,-0.076372910,-0.017470120
1640833068.332039,-0.014644120,0.088000790,9.722513200,0.025799870,0.011308490,-0.020693240
1640833068.332710,0.209583760,0.146101650,8.620843890,0.043098630,0.058637570,-0.010803340
1640833068.337030,-0.043243780,0.029031940,9.870374680,0.026915960,-0.023837380,0.017607210
1640833068.337770,-0.292415860,0.126459540,10.135390280,-0.027264660,0.018067660,0.010578340
1640833068.341910,-0.006365640,0.189446790,9.678130150,-0.069509450,-0.056275730,0.019839410
1640833068.342739,-0.406263590,-0.040019560,10.534459110,-0.007374590,-0.000028310,-0.009302800
1640833068.346959,-0.238937270,-0.086132590,9.633614540,0.070431840,0.062350940,-0.052452090
1640833068.348009,-0.300321820,0.092232850,9.963703160,0.120306040,-0.054116550,-0.021085140
1640833068.351940,-0.520535350,0.095377180,9.730201720,0.059193370,-0.024017690,-0.008884070
1640833068.352720,-0.114836480,0.149051950,8.891461370,-0.040377680,-0.067353250,0.007197260
1640833068.356969,-0.293828900,0.400814920,10.035733220,-0.034007430,-0.015349690,0.030207630
1640833068.357710,0.060125170,0.279385180,10.056241990,0.006838140,0.084808450,-0.008167330
1640833068.361889,0.289611760,0.587064500,10.624040600,0.079353150,-0.018356740,-0.020381810
1640833068.362720,-0.069952770,0.740946470,10.838027000,0.076977910,-0.030954190,-0.025263430
1640833068.367360,0.155937110,0.502091940,9.226240160,-0.010614100,-0.093238060,-0.032769140
1640833068.368240,-0.171861480,0.834943000,9.076540950,-0.053624820,-0.097610060,-0.009045000
1640833068.372959,-0.263837670,0.558583560,9.130474090,-0.087787220,0.065748390,0.017774110
1640833068.373430,-0.080823460,0.272608580,9.878179550,-0.012274090,0.028058890,0.029087070
1640833068.376979,-0.416197240,0.442287800,11.032629010,0.040644400,-0.043469660,0.002844630
1640833068.377730,-0.034178330,0.029227430,10.101962090,-0.020153820,-0.044341380,-0.003957750
1640833068.381990,-0.013804200,0.031746500,9.713999750,-0.031107660,-0.056748090,-0.012743470
1640833068.382910,-0.126385600,-0.048442860,9.617914200,-0.038257240,0.020514430,-0.038380920
1640833068.386970,0.121839340,-0.041919660,9.189960480,-0.001707670,0.009500980,0.007230040
1640833068.387800,-0.231995610,0.278832140,9.701648710,0.025373700,-0.067427740,0.010448690
1640833068.391950,-0.040043540,0.211549550,9.508087160,-0.050629680,-0.040537120,0.001648070
1640833068.392720,0.105406410,0.306990590,9.640350340,-0.048194820,0.003373620,0.014741720
1640833068.397090,-0.116206540,0.162931400,10.538016320,0.008165840,0.037278230,-0.035922230
1640833068.398559,0.201058880,0.176376340,10.199085240,0.031711160,0.008609890,-0.028282410
1640833068.401909,-0.052919890,0.310106130,9.812591550,0.041805210,-0.049763920,0.005406140
1640833068.402760,-0.193801420,-0.088747700,9.312495230,-0.025951860,-0.043280430,-0.012589990
1640833068.406900,-0.310104730,-0.000469370,9.186265950,-0.016476210,-0.051665310,0.013315680
1640833068.407780,-0.507901130,-0.041666430,9.560907360,0.037086010,-0.034740570,-0.000876190
1640833068.411909,-0.073313260,-0.053459050,9.921879770,0.046387310,0.026829540,-0.032122430
1640833068.412740,0.032292760,0.477381230,10.564806940,0.036148730,0.057299440,-0.006331500
1640833068.416999,0.081080740,0.445696710,10.789197920,-0.017498440,-0.005060430,-0.020366910
1640833068.417739,0.134932070,0.597898540,10.086152080,-0.019197170,-0.095514950,-0.016848740
1640833068.422629,-0.178862780,0.839730140,9.087642670,0.001169740,-0.092984740,-0.001752380
1640833068.423139,-0.091083050,0.606434820,8.783820150,-0.010648370,-0.044538090,0.002802910
1640833068.426950,-0.091691530,0.612429980,9.485697750,-0.004790720,0.060421240,0.019869210
1640833068.427749,0.028998630,0.436586950,10.425195690,-0.036272410,0.073562570,0.020860140
1640833068.432250,0.136397240,0.126412840,11.046196940,-0.040397050,-0.016489630,0.004915890
1640833068.433499,0.057968750,0.218762800,10.202593800,-0.030374520,-0.065121050,-0.012287500
1640833068.436950,0.007704490,0.147842990,9.276088710,-0.057603430,-0.073707100,-0.018812720
1640833068.437770,-0.177713070,-0.027354810,9.139590260,-0.021977720,-0.012175740,-0.001670420
1640833068.441990,-0.158886610,0.016879960,9.034964560,0.012038650,0.036624070,0.005520880
1640833068.442720,0.006170550,0.005549470,9.690088270,0.005443390,0.007583200,0.029215220
1640833068.446960,-0.012090030,0.039854460,10.327945710,-0.004528460,0.047938520,0.017499920
1640833068.447770,0.176213940,0.372030410,10.231867790,-0.056253370,-0.015908480,0.003319980
1640833068.452020,0.073006660,0.324041960,10.181915280,-0.051879890,-0.034295020,0.007510190
1640833068.452740,0.100574500,0.076555560,9.349443440,0.005140900,0.033876300,-0.017263000
1640833068.456930,0.055756100,0.153806000,9.256341930,0.062794980,0.022441150,-0.024196510
1640833068.457759,-0.389909060,-0.065647000,9.886866570,0.065441440,0.005280970,-0.000686940
1640833068.462380,-0.179150300,-0.101760360,9.253795620,0.005422530,-0.039623680,0.005280970
1640833068.463199,-0.277868930,0.081353250,9.865908620,-0.035208460,-0.031146410,0.012910370
1640833068.466950,-0.226017270,-0.020347870,10.251892090,-0.043806440,0.091457370,0.016552210
1640833068.467749,-0.035964660,0.122757300,10.356169700,0.052581730,0.021959840,-0.009417530
1640833068.472669,-0.319273680,0.361934600,10.517086980,0.110358020,-0.053200130,-0.039148330
1640833068.473009,-0.114029670,0.472101840,9.123967170,0.055465100,-0.056429210,-0.014939900
1640833068.478129,-0.200240390,0.743416070,9.028903960,-0.016966460,-0.077927110,-0.002792480
1640833068.479420,-0.188911200,0.757973670,9.436343190,-0.092370810,0.048235060,0.005863610
1640833068.482309,0.355652090,0.784478960,9.703554150,-0.054040550,0.090372570,0.022254890
1640833068.483189,0.000634930,0.711017130,11.386071210,0.014002620,0.013902780,-0.020399690
1640833068.487079,0.085591200,0.610961140,10.562205310,-0.012990830,-0.036266450,-0.022798780
1640833068.488659,-0.024291110,0.480574100,9.425113680,-0.032143290,-0.127261890,0.002673270
1640833068.491900,-0.471195910,0.037509870,9.343321800,-0.077120970,-0.030301520,-0.018511720
1640833068.492710,-0.036562130,0.037583140,8.415015220,-0.081318620,0.064189730,0.027897960
1640833068.497010,-0.253359050,-0.070792270,9.971383090,-0.019961600,0.037035350,0.023715200
1640833068.497740,-0.237710360,-0.007318000,10.754329680,-0.045786800,0.037951770,-0.002279880
1640833068.501960,0.187555780,0.421105830,9.994787220,-0.069464740,-0.080737480,0.012286010
1640833068.502709,-0.171206070,0.100750250,10.363677020,-0.088642540,-0.051839650,-0.022196770
1640833068.506950,0.217485340,0.234639940,8.985273360,-0.044755640,0.047516820,-0.029779980
1640833068.507740,0.116725430,0.368717220,9.234383580,0.024707610,0.005264580,0.004327300
1640833068.511950,-0.094938850,0.060660610,9.816253660,-0.015835460,0.034326320,0.009125470
1640833068.512730,0.177773420,0.327323850,9.301044460,-0.058981790,-0.026041270,0.027900940
1640833068.516929,-0.291971890,0.102250690,10.333488460,-0.094048680,-0.043845180,0.028027600
1640833068.517799,-0.074623030,-0.228608640,9.864173890,-0.064799190,0.035500530,-0.002203880
1640833068.522480,-0.059809200,-0.041025820,9.920459750,0.043194000,0.026392940,-0.028783080
1640833068.522970,-0.366693380,-0.123677170,10.433587070,0.054107620,0.040543080,-0.028455260
1640833068.527220,-0.216222840,0.048500110,9.448344230,0.016181170,-0.059011580,-0.001728530
1640833068.527959,-0.429409650,0.297540370,9.283949850,-0.038725140,-0.119870900,0.009916720
1640833068.532250,-0.217894550,0.333528520,9.083586690,-0.086729210,0.035190580,0.024434920
1640833068.532930,-0.042183400,0.515803580,9.969403270,-0.010444220,0.064332780,0.008343160
1640833068.537010,-0.033719950,0.684758370,11.091700550,0.031496590,0.030407320,-0.009781120
1640833068.539860,0.254923850,0.715689360,10.445984840,0.006994610,-0.032742320,-0.001090770
1640833068.542029,0.085230040,0.645115670,9.838140490,-0.038266190,-0.092063840,-0.009845200
1640833068.543350,0.011166980,0.598845180,9.009511950,-0.117352600,-0.027586520,-0.002926590
1640833068.546980,-0.044652580,0.370607940,8.969983100,-0.087164340,0.009498000,0.033842030
1640833068.547789,-0.155044020,0.138511180,9.790201190,-0.027823450,0.034941730,0.024190550
1640833068.551920,-0.074445100,0.117487540,10.240525250,-0.023119150,0.006172060,0.014080110
1640833068.552800,-0.088188750,-0.046806370,10.390804290,-0.051493950,-0.021271410,0.016620760
1640833068.556949,-0.024746790,-0.104380980,9.885252000,-0.090195240,0.002145770,-0.024798510
1640833068.557950,-0.074925390,0.073992550,9.717144010,-0.068405280,-0.003169480,-0.009942060
1640833068.561869,-0.087161090,0.059260580,9.424116130,-0.023114680,0.004211070,0.017595290
1640833068.562780,0.020690660,0.213685810,9.122711180,-0.012132530,-0.007538500,0.005267560
1640833068.566900,-0.104002480,0.234889100,9.696783070,-0.025011600,0.005725030,0.036130850
1640833068.567760,0.103078200,0.096309730,9.680203440,-0.059197850,0.049225980,0.012786690
1640833068.572680,0.181580160,0.131165500,10.087419510,-0.039006770,0.025103990,-0.012518470
1640833068.573150,0.086989160,0.087052780,10.278852460,-0.001323220,0.058659910,0.007081030
1640833068.577050,0.110096460,0.100017340,9.622972490,0.011232500,0.007945300,0.004543360
1640833068.577819,-0.449912430,0.012535550,9.925056460,0.004936750,-0.064195680,-0.002300740
1640833068.582239,-0.372402220,0.029464550,8.908912660,-0.021360820,-0.020612780,0.020158290
1640833068.582810,-0.345288490,0.022388140,9.224117280,0.000429150,0.006140770,-0.003820660
1640833068.587010,-0.408392010,0.138572470,10.438640590,0.014418370,0.097975140,-0.014771520
1640833068.587910,0.146304210,0.467213750,10.144348140,0.005885960,0.069354480,0.009532270
1640833068.592219,-0.092200070,0.465011920,11.014629360,-0.005914270,-0.049459930,-0.015909970
1640833068.592860,0.048726060,0.704795660,9.645896910,-0.038775800,-0.026316940,0.001363460
1640833068.596979,0.112417260,0.798356830,8.798941610,-0.037668650,-0.068518520,0.019754470
1640833068.597890,-0.263214590,0.413071420,9.688175200,-0.029373170,0.035834320,0.020344560
1640833068.601859,0.322129640,0.563503030,9.104427340,-0.015294550,0.104255970,0.040225680
1640833068.602830,0.058473720,0.241633790,10.792896270,-0.013823810,0.004388390,0.040698050
1640833068.607650,-0.012657140,-0.011793160,10.645970340,-0.067092480,0.049380970,0.003981590
1640833068.608539,0.151738930,0.287231590,9.471278190,-0.082577760,-0.050981350,-0.007911030
1640833068.611909,-0.549967890,-0.022074410,10.115148540,-0.070062290,-0.042825940,-0.000980500
1640833068.612720,-0.144418950,-0.058829300,8.517024990,-0.013433400,0.051634020,0.001145900
1640833068.617020,-0.285829510,0.107735810,9.465529440,0.035369400,-0.006933510,0.005421040
1640833068.617790,-0.328228210,-0.007780240,10.248165130,-0.021287800,0.095956030,0.030589110
1640833068.623989,0.307873130,0.242800440,9.610052110,-0.052364170,0.022491810,0.021511320
1640833068.624830,-0.039726070,0.308530810,10.849338530,-0.080944600,-0.027556720,0.012892480
1640833068.626960,0.303580670,0.185572000,9.452236180,-0.042194130,0.053319330,0.022767480
1640833068.627780,0.168994640,0.169347080,9.403840070,0.051663820,-0.026251380,-0.013397630
1640833068.631940,-0.345077460,0.039914770,9.833950040,0.034318860,0.044678160,-0.006686150
1640833068.632740,-0.022210030,-0.006116560,8.922731400,0.005784630,0.003254410,0.017465650
1640833068.637019,-0.508909640,0.001283240,10.222475050,-0.027282530,-0.040611620,0.010621550
1640833068.638090,-0.210332170,0.113292040,9.740122800,-0.058691210,0.071360170,0.034411260
1640833068.642010,-0.106471140,0.074656960,10.188871380,0.004732610,0.039473170,0.025540590
1640833068.642880,-0.549630280,0.203349260,11.054818150,0.037577740,0.004577640,-0.016865130
1640833068.646930,-0.164443700,0.464045350,9.403242110,0.047636030,-0.080600380,0.000177320
1640833068.648020,-0.259621290,0.482393650,9.191634180,0.022135680,-0.089527670,0.008046630
1640833068.651890,-0.077086520,0.697092290,8.991992950,-0.065995760,0.068771840,0.018450620
1640833068.652700,0.270251870,0.719868480,9.663248060,-0.082303590,0.072437520,0.057335200
1640833068.657009,0.150327680,0.571283400,10.994395260,-0.037434700,0.038707260,0.030414760
1640833068.658720,0.375599410,0.597045660,10.311219220,-0.009448830,-0.023984910,0.009536740
1640833068.661929,0.056728360,0.397105100,10.182185170,-0.016257170,-0.101344290,0.015778840
1640833068.662750,-0.095560010,0.063685660,9.103238110,-0.059500340,-0.007538500,-0.003406410
1640833068.666930,-0.089621260,-0.190536980,8.808037760,-0.049789250,0.038883090,0.003811720
1640833068.667760,-0.371012030,-0.315541300,9.791168210,-0.003531580,0.070334970,0.035126510
1640833068.672089,-0.262411180,-0.270502210,9.908078190,-0.002205370,0.009576980,0.021992620
1640833068.672770,-0.363470080,-0.064189310,10.414250370,-0.029438740,-0.072214010,0.022320450
1640833068.677009,-0.139716770,0.086966710,9.725809100,-0.068885100,0.010286270,0.010149180
1640833068.677840,0.105443020,-0.017485990,9.622653960,0.000005960,0.031173230,-0.029596680
1640833068.682119,0.094897780,0.245536400,9.979227070,0.073371830,0.075513130,-0.026571750
1640833068.682770,0.319606010,0.481581120,9.305021290,0.071923430,0.015299020,-0.001484160
1640833068.687120,-0.024055490,0.381052850,9.857359890,-0.004887580,-0.079341230,0.025802850
1640833068.691140,-0.004234660,0.512272660,9.109781270,-0.091601890,-0.008270140,0.046177200
1640833068.691929,0.007220810,0.063743650,9.542346000,-0.038610400,0.015003980,0.018614530
1640833068.692720,-0.300639060,-0.208577920,10.808419230,0.085182480,0.106872620,-0.029757620
1640833068.696940,-0.118635910,0.178738010,10.098506930,0.123912100,0.027254220,-0.031861670
1640833068.697820,-0.497151260,0.013406320,10.477870940,0.039790570,-0.112171490,-0.022287670
1640833068.702180,-0.388144700,0.291632770,8.985109330,-0.073111060,-0.026692450,-0.003805760
1640833068.702890,-0.243073360,0.608102860,8.802650450,-0.086545950,-0.044389070,0.012421610
1640833068.707310,-0.393458720,0.413225020,10.262177470,-0.006259980,0.063250960,0.027892000
1640833068.707780,0.298126340,0.761268440,9.657547000,0.074779990,0.089837600,0.010050830
1640833068.711949,0.063175510,0.693076550,11.341116910,0.051341950,-0.054907800,0.010000170
1640833068.712750,0.133512630,0.428353820,10.243391040,-0.043547160,0.000864270,0.018988550
1640833068.716899,0.374615070,0.408012840,8.680920600,-0.074395540,-0.113226500,-0.013282900
1640833068.718000,-0.261774000,0.214140580,9.736464500,-0.059051820,-0.003135200,0.008937720
1640833068.722020,0.073001060,0.192913490,8.568532940,-0.013799970,0.107340510,0.028623640
1640833068.722760,-0.194999440,0.082448510,10.454455380,0.008650120,-0.070983160,0.007724760
1640833068.726960,-0.357559200,-0.025280270,10.559421540,-0.034055120,0.051081180,0.023397800
1640833068.727779,0.149124190,-0.097787290,9.359923360,-0.027683380,-0.034752490,-0.011137130
1640833068.732240,-0.420951340,-0.135481640,10.810589790,-0.002461670,-0.035178670,-0.027644640
1640833068.733019,0.019416370,0.081249170,8.804234500,0.009846690,0.083547820,0.001439450
1640833068.737040,-0.092580150,0.039248410,9.486923220,0.030368570,-0.079326320,-0.001236800
1640833068.737840,-0.405684590,0.181708170,9.936486240,0.001919270,0.018277760,0.021006170
1640833068.741910,0.259593550,0.260710980,8.627944950,-0.004124640,-0.013963880,0.018624960
1640833068.742750,-0.156398940,0.137695550,10.690245630,0.015863780,-0.023904440,-0.009872020
1640833068.746899,0.239279170,0.277641360,9.826744080,0.015252830,0.128076990,-0.006248060
1640833068.747779,0.285934930,0.212675870,10.189085960,0.052511690,-0.036367780,-0.005640090
1640833068.751960,-0.328871010,0.125678490,10.622544290,0.038170820,-0.015683470,-0.005184110
1640833068.752800,-0.039333250,0.245822550,8.599780080,0.012524420,-0.058473640,0.000585620
1640833068.756919,-0.600862800,0.141525160,9.704249380,0.018791850,-0.103332120,0.005933640
1640833068.757779,-0.368605050,0.223472220,9.220572470,0.014689560,0.097954280,-0.009007750
1640833068.761860,0.105291300,0.504126430,9.926909450,0.024993720,0.052972140,-0.007070600
1640833068.762740,-0.222146650,0.588099660,11.488518710,0.002622600,0.050289930,0.001233820
1640833068.767040,0.379270970,0.732289200,9.657193180,-0.037856400,-0.035044550,-0.032012160
1640833068.768410,0.102861930,0.811674650,9.756237980,-0.032740840,-0.115260480,-0.009630620
1640833068.771940,-0.049430850,0.522793650,8.900637630,-0.028119980,0.044806310,0.009797510
1640833068.773680,0.248679310,0.108885880,8.905225750,0.017607210,0.016143920,0.016729540
1640833068.777109,-0.087280850,0.008935020,10.263976100,0.037780410,0.067928440,0.038695340
1640833068.777830,0.277188090,-0.327085730,9.831811900,-0.007392470,0.070303690,0.011967120
1640833068.782440,0.079250060,-0.315910070,10.750741000,-0.023978950,-0.024643540,-0.006283820
1640833068.783270,-0.183266060,0.028357320,9.889075280,-0.046530370,0.013951960,-0.005644560
1640833068.787050,-0.027379180,-0.177852180,9.064600940,0.001475220,-0.051794950,-0.021605190
1640833068.787799,-0.407421770,0.062568790,9.444943430,0.077550110,0.044032920,-0.022937360
1640833068.791880,-0.188121320,0.255028070,8.956202510,0.077730420,0.067520150,-0.017629570
1640833068.792739,-0.289534720,0.247997420,10.372922900,0.043591860,0.005991760,0.011591610
1640833068.796900,-0.111195590,0.737493630,9.931292530,-0.037485360,0.047153230,0.022260850
1640833068.797940,0.247418540,0.469358090,9.933274270,-0.068715230,-0.006066260,0.033804780
1640833068.801910,-0.064979040,0.188206000,10.415084840,0.024241210,0.064580150,0.030958650
1640833068.802790,0.087456030,0.243993610,9.213197710,0.109320900,0.005398690,-0.024080280
1640833068.806929,-0.292176010,-0.119901960,9.947766300,0.104436260,-0.082871300,-0.024080270
1640833068.807799,-0.244726320,0.071362880,8.955931660,0.016751890,0.053483260,-0.011931360
1640833068.811910,-0.063638390,0.066516510,9.573331830,-0.055570910,-0.002118950,-0.009158250
1640833068.812729,-0.350250270,0.087356970,10.961553570,-0.020311770,0.088605270,0.030435620
1640833068.817279,0.108772620,0.526476380,9.816727640,0.041688980,0.040069230,-0.009064380
1640833068.818329,-0.241187450,0.591641720,10.871885300,0.055831660,-0.092738860,-0.005772710
1640833068.822290,-0.288307580,0.731187110,9.377995490,0.012335180,0.015106800,0.027529900
1640833068.822780,0.066234880,0.499068890,8.591731070,-0.017996130,-0.058595830,0.010554490
1640833068.826910,-0.300829380,0.252673510,10.060421940,0.004366040,0.053828960,0.040997560
1640833068.827770,0.415800870,0.384403410,8.941698070,0.010684130,0.125227850,0.027838350
1640833068.831920,0.207436000,0.273355040,10.989130020,-0.015491250,-0.030304490,0.002664330
1640833068.833330,-0.011590870,0.431011770,10.622159960,-0.072109700,0.054356460,0.008530910
1640833068.837020,0.296216010,0.205115390,9.139735220,-0.054474180,-0.083434570,-0.012023750
1640833068.837819,-0.482555480,-0.191591830,10.111604690,0.033590190,-0.030167400,-0.020913780
1640833068.841910,-0.116075990,-0.083849750,8.236382480,0.072841350,0.115364780,-0.006079670
1640833068.842759,-0.252899500,-0.257227300,9.813241960,0.063325470,-0.027525420,0.007314980
1640833068.847129,-0.499583100,-0.054967660,10.562698360,-0.023083390,0.075289610,0.024981800
1640833068.847859,0.296037610,0.184112520,9.258298870,-0.077264020,-0.018280740,0.024297840
1640833068.852000,-0.232381840,-0.066470910,10.974632260,-0.008335710,-0.011278690,0.004111230
1640833068.852790,0.025287910,0.180472780,9.432388310,0.090982020,0.097291180,-0.033013520
1640833068.857080,-0.011188820,0.232592180,9.713136670,0.148174170,-0.091038630,-0.031651560
1640833068.857800,-0.452604890,0.257532210,9.964783670,0.082683590,0.004892050,-0.009712580
1640833068.861940,0.263717770,0.471895580,8.272759440,-0.036406520,0.012859700,0.015731160
1640833068.862919,-0.159722120,0.358343150,10.569495200,-0.059594220,0.016039610,0.047656890
1640833068.866959,-0.077190810,0.373232010,10.239887240,-0.005000830,0.144957010,0.013469160
1640833068.867780,0.086587210,0.456559240,10.334279060,0.090299550,-0.093622510,-0.015106800
1640833068.872680,-0.595732810,0.471956790,10.658084870,0.103767220,-0.050666930,-0.014609100
1640833068.873109,-0.132839100,0.428763210,8.429061890,-0.001206990,-0.013621150,-0.021468100
1640833068.877020,-0.380622120,0.484193120,9.711268420,-0.047913190,-0.048193340,0.014284250
1640833068.877830,-0.189984720,0.472863500,9.690857890,-0.064045200,0.143767890,0.021192430
1640833068.882259,0.371595800,0.504647200,9.976116180,-0.023828450,0.003743170,0.009880960
1640833068.883530,-0.112169300,0.784131350,11.234683990,-0.007063150,-0.019384920,0.014500320
1640833068.886979,0.275393660,0.460453930,9.415443420,-0.065974890,-0.030361120,-0.007791820
1640833068.887859,0.110110010,0.171361830,9.489250180,-0.028514860,-0.086875260,-0.005185610
1640833068.891880,-0.152800740,0.018895060,9.241477010,-0.007219610,0.088675330,0.000783800
1640833068.892740,0.193569790,-0.316487430,9.166569710,0.003397470,0.046227880,0.034968550
1640833068.896950,-0.262337510,-0.046906400,10.539433480,-0.000639260,0.003924970,0.029434260
1640833068.897830,-0.082655480,0.024967280,9.772838590,-0.086969140,-0.007712840,0.008705260
1640833068.901919,-0.047096020,-0.131302210,9.864362720,-0.064077980,-0.052525100,0.013121960
1640833068.902819,-0.301939340,0.004304580,9.789000510,0.035059460,0.080600370,-0.053548810
1640833068.906970,-0.025265890,0.008167650,9.525568010,0.090573740,0.036230690,-0.054295360
1640833068.907800,-0.349470880,0.259652500,10.077374460,0.092726940,-0.012980400,-0.003266330
1640833068.911990,-0.123075790,0.403408530,9.190831180,-0.037582220,-0.025586780,-0.007812680
1640833068.912779,0.012442670,0.349992160,9.653436660,-0.094774370,-0.017786030,0.064641240
1640833068.916950,-0.090280840,0.250954990,10.000933650,-0.010052320,0.102181740,0.038079920
1640833068.917770,0.181894780,0.007035160,10.208468440,0.082258900,0.026869780,-0.027385360
1640833068.922109,-0.093326010,0.175114360,10.568622590,0.135438160,-0.009836260,-0.001484160
1640833068.922770,-0.096547380,0.146595090,9.304387090,0.055682660,-0.037576260,-0.042569640
1640833068.926920,-0.181053120,0.224983930,9.372000690,-0.057104230,-0.081707540,-0.019593540
1640833068.927800,-0.326168840,0.644140900,9.171435360,-0.083784760,0.074453660,0.023506590
1640833068.932119,-0.078333080,0.535789970,9.857994080,-0.036814810,0.041390960,-0.004307930
1640833068.932760,-0.259268310,0.857855740,11.087532040,0.036409500,0.017061830,0.009292360
1640833068.937009,0.012821180,0.913992700,9.833542820,0.026567280,-0.012065470,0.003321470
1640833068.937899,0.002949820,0.354902710,10.013463020,-0.035527350,-0.093315550,-0.006863480
1640833068.942289,0.006188100,0.359094950,9.086938860,-0.047445300,0.056360660,0.013263520
1640833068.943410,0.280020920,-0.022525740,8.942397120,-0.054715580,0.032296780,0.016751890
1640833068.946970,0.048988130,-0.233757700,10.395290370,-0.005160270,0.038677460,0.025695560
1640833068.947800,0.246263910,0.109060700,9.621071820,-0.020946570,0.039468710,0.010861460
1640833068.951900,0.139497850,-0.084857840,10.292096140,-0.059013070,-0.066918140,0.000567730
1640833068.952800,-0.091870660,-0.148828940,9.854704860,-0.041319430,0.061996280,-0.014707450
1640833068.956910,0.025348460,-0.053033550,9.158224110,0.021594760,0.036774580,-0.045935810
1640833068.957909,-0.481633750,-0.087824000,10.353259090,0.086322430,0.002986190,-0.006300210
1640833068.961870,-0.328844430,0.257807700,9.150757790,0.035914780,0.020384790,-0.006473060
1640833068.962800,-0.158205350,0.423124580,9.512023930,-0.071425740,-0.060307980,0.022169950
1640833068.966920,-0.245150640,0.225248110,10.088031770,-0.077839180,0.090733160,0.036418430
1640833068.967779,0.237358120,0.112556210,9.633666040,0.028499960,0.083190210,-0.016427040
1640833068.972720,-0.061270500,0.169144410,10.959194180,0.133849680,-0.005429980,-0.020608300
1640833068.973240,0.015565980,0.149714230,9.676506040,0.091344130,0.014309590,-0.022225080
1640833068.977000,0.195862810,0.240936990,9.039772990,-0.020129980,-0.084230310,-0.010231140
1640833068.977810,-0.175245730,0.318927050,9.655467030,-0.074817230,0.063003580,0.028303270
1640833068.982309,0.103718850,0.212417500,9.374973300,-0.033998490,0.107830770,0.012832880
1640833068.983130,-0.203489840,0.536769930,10.893843650,0.062979770,-0.011809170,-0.008417670
1640833068.986960,-0.366881760,0.719783900,10.389900210,0.036324560,0.012713670,-0.010414420
1640833068.987820,-0.074110740,0.519527610,9.316582680,-0.028227270,-0.061234830,-0.013771650
1640833068.991930,-0.454164480,0.556510980,9.757757190,-0.039300330,0.006304680,-0.005844240
1640833068.992790,-0.074256120,0.241193040,9.032500270,-0.041478860,0.093485410,0.020313260
1640833068.996940,0.075093840,0.146328030,9.833942410,0.015726690,0.019752980,0.034779310
1640833068.997799,-0.030382940,0.136982250,10.377146720,0.004965070,0.043725970,0.015768410
1640833069.001940,0.426390080,-0.070463340,9.622603420,-0.043617190,-0.003753600,0.026555360
1640833069.005750,0.026497090,-0.180437390,10.067640300,-0.017602740,-0.003014510,0.003378090
1640833069.007589,0.013127800,-0.330840770,9.435179710,0.001749400,0.061275060,-0.035807490
1640833069.009100,0.059089250,-0.149929940,9.277806280,0.072185680,0.003993510,-0.001139940
1640833069.011910,-0.375455050,-0.050468510,9.892433170,0.074008110,0.036238140,-0.020886960
1640833069.012770,-0.151602040,0.221389490,9.518323900,-0.015002490,0.010128320,-0.001795590
1640833069.016940,-0.305885430,0.458866180,9.991280560,-0.026687980,-0.004588070,0.029686090
1640833069.017809,-0.219949330,0.074454300,9.964693070,0.004467370,0.086118280,-0.014311080
1640833069.023820,-0.028642480,0.263742120,9.886260990,0.103370850,0.028915700,-0.004623830
1640833069.024520,-0.368517220,0.257595120,10.134640690,0.142401460,-0.011947750,-0.006686150
1640833069.026880,-0.090887170,0.096582160,9.226088520,0.040259960,-0.038430100,-0.026035310
1640833069.027789,-0.151068480,0.525578080,9.287600520,-0.037488330,-0.023373960,0.022031370
1640833069.032040,-0.136319210,0.151895330,9.876665120,-0.043191020,0.091823940,0.012838840
1640833069.033229,0.126991140,0.226888730,10.344637870,0.049118710,0.036078700,-0.009302800
1640833069.037040,-0.145984010,0.668385860,10.588344570,0.108212250,-0.027282540,-0.000771880
1640833069.037830,-0.017782420,0.282228350,9.692359920,0.027593970,-0.050060450,-0.016105180
1640833069.041960,-0.091079320,0.518478690,9.160370830,-0.028763710,-0.051410500,-0.005050000
1640833069.044700,-0.295460790,0.385580390,9.250065800,-0.042612850,0.035925210,0.007945300
1640833069.046900,-0.018602660,0.054503190,9.528468130,0.006504360,0.029370190,0.016210980
1640833069.047799,-0.167306970,0.366401850,10.184353830,0.070749220,0.003330410,0.011575220
1640833069.051900,-0.048760330,0.181699170,10.240593910,0.011888150,-0.020110610,-0.000065570
1640833069.052810,0.069921080,0.041613080,9.856001850,-0.027178230,-0.029204790,0.004489720
1640833069.057459,-0.057930340,0.043281760,9.517438890,-0.010512770,0.002174080,-0.023016340
1640833069.058580,0.080291780,-0.161139980,9.411643030,0.033202770,0.018373130,-0.003750620
1640833069.061900,-0.135201390,-0.119830210,9.573115350,0.104376680,-0.000652670,0.012853740
1640833069.062749,-0.125108230,0.033321740,9.632108690,0.051675740,-0.044654310,-0.005875530
1640833069.066939,-0.019614170,0.023715700,9.753055570,-0.010818240,-0.005911290,0.010752680
1640833069.067799,-0.178722320,0.013750700,10.075977330,0.015304980,0.045804680,-0.009334090
1640833069.072000,-0.053277220,0.155675710,10.184708600,0.064074990,0.013694170,-0.029814240
1640833069.072790,-0.156065780,0.259766580,9.959355350,0.121343140,-0.014749170,-0.019432610
1640833069.077950,-0.144021900,0.559321110,9.340611460,0.079102810,-0.047872960,-0.023132560
1640833069.078539,-0.150721860,0.803644420,9.296769140,-0.031410160,-0.037385530,0.009748340
1640833069.081910,-0.175177870,0.663841960,9.504365920,-0.053571170,0.027704240,0.037574770
1640833069.083000,0.037198200,0.574978230,9.992957120,0.014197830,0.028376280,0.011438130
1640833069.087030,0.039604600,0.529408750,10.595594410,0.078094020,0.005093220,0.000827010
1640833069.087810,0.059538290,0.368479220,10.103911400,0.049181290,-0.015735630,-0.005295870
1640833069.091859,0.143143610,0.341850730,9.435161590,-0.029118360,-0.047899790,-0.021235650
1640833069.092769,-0.125604820,0.182600200,9.324176790,-0.077632070,-0.006455180,-0.003093480
1640833069.096880,-0.077829880,0.007568140,9.056952480,-0.037847460,0.021517280,0.015285610
1640833069.097790,-0.080723980,0.042581110,9.880323410,0.041714310,-0.000177320,0.001631680
1640833069.102100,-0.170221780,0.019932410,10.338294980,0.040619080,0.022043290,0.013616680
1640833069.103380,0.119102280,0.140966500,9.844902040,-0.004205110,-0.013220310,0.007694960
1640833069.107940,-0.020491420,0.010268470,10.133940700,-0.041197240,0.013838710,-0.014992060
1640833069.108340,0.065559980,0.002986110,9.347990040,-0.013239680,0.052760550,0.003723800
1640833069.111940,-0.157394710,0.055594390,9.483010290,0.081621120,-0.043924150,-0.006861980
1640833069.112800,-0.439619090,0.019792580,9.576162340,0.068531940,-0.043886910,-0.014171010
1640833069.117270,-0.152371450,0.281771930,8.843140600,0.015555320,-0.024496020,0.012296440
1640833069.117950,-0.303401950,-0.027246800,10.164269450,-0.016745930,0.033439700,-0.014655290
1640833069.121970,0.011017100,0.018206440,10.133838650,0.027400260,0.100821280,-0.013759730
1640833069.123760,0.060807590,0.225820790,10.323965070,0.109101840,-0.028601290,-0.000306960
1640833069.126890,-0.228716570,0.051481640,10.167026520,0.081977250,-0.070123370,-0.014488400
1640833069.127820,0.016220940,0.432856020,8.527535440,0.024658440,-0.075192760,0.002640490
1640833069.131880,-0.293370490,0.338227000,9.406227110,-0.009013710,-0.030381980,0.005167720
1640833069.132820,-0.038245940,0.191898180,9.622435570,0.019146500,0.109286610,-0.006574390
1640833069.137080,0.077128500,0.608938160,10.396115300,0.100979220,0.014600160,-0.016959010
1640833069.137930,-0.163962080,0.553958240,11.101641650,0.054314740,-0.028252600,-0.016489630
1640833069.141899,0.182685850,0.666664960,9.237806320,-0.031179190,-0.064502660,-0.008301440
1640833069.142850,-0.178883850,0.748831570,9.476755140,-0.059735790,-0.077550110,-0.006292760
1640833069.146960,-0.182990330,0.335579130,9.269018170,-0.022056700,0.076034690,0.020721560
1640833069.147830,-0.055104050,0.283280160,9.441342350,0.077059880,-0.019238890,0.015948710
1640833069.152160,-0.342419180,0.242928090,10.639667510,0.043626130,-0.024418540,0.006143750
1640833069.152860,0.225009740,0.087419480,9.388078690,-0.048759580,0.025700030,0.015321370
1640833069.156980,0.041965850,0.098307430,10.106050490,-0.066064310,-0.037363180,-0.016188620
1640833069.157800,-0.039193950,0.148299340,9.948843960,-0.059004130,0.041112300,-0.017580390
1640833069.161870,0.270980920,0.140198350,8.933107380,0.026471910,-0.042347610,-0.010517240
1640833069.162809,-0.253087850,0.191725370,10.011238100,0.049702820,-0.037401910,-0.014320020
1640833069.167160,-0.004344940,0.211906940,9.142358780,-0.015102330,0.031568110,0.001023710
1640833069.169309,-0.143952710,-0.031757550,9.839934350,-0.014579300,-0.053007900,0.002270940
1640833069.171949,-0.273608240,-0.011963430,10.130730630,-0.014966730,0.046575060,-0.013396140
1640833069.173709,0.094770280,0.031459710,9.487493520,0.016711650,0.013652450,0.011004510
1640833069.176940,-0.386389490,-0.085974890,10.451952930,0.063990040,-0.039260080,0.014063720
1640833069.177830,-0.140983450,0.065099060,9.297378540,0.044034430,-0.024186070,-0.015290080
1640833069.182160,-0.094362850,0.135434180,9.315555570,0.031241770,-0.090990950,0.000354650
1640833069.183090,-0.234945770,0.200266420,9.758605000,0.012524430,0.038209560,-0.011567770
1640833069.187049,0.223105220,0.469786020,9.531479840,0.002142790,0.035993760,-0.036832700
1640833069.187860,-0.148942220,0.553415300,10.829484940,0.041632350,-0.026690960,-0.006873900
1640833069.191840,0.052103310,0.694517910,9.756025310,0.023472310,-0.035734470,-0.033453110
1640833069.192790,0.038226010,0.675495620,9.509139060,-0.015264750,-0.105939810,-0.015076990
1640833069.197019,-0.349132630,0.514821290,9.674871440,-0.027784710,0.027304890,0.023460390
1640833069.198050,0.026165420,0.290107370,9.389419560,-0.000512600,0.015163420,0.004485250
1640833069.202289,-0.221838800,0.180462630,10.548303600,0.016161800,-0.032755740,0.022546950
1640833069.203060,0.090774880,0.245132340,9.626253130,-0.024817890,0.021454690,0.010904670
1640833069.207180,0.210787970,0.044204580,9.801001550,-0.055810820,-0.054475670,-0.030945250
1640833069.207890,-0.148500920,0.272805720,9.886857990,-0.055733330,0.014966730,-0.010937450
1640833069.211939,0.195094170,0.199629020,8.989410400,-0.022029880,-0.013169650,-0.015337770
1640833069.212790,-0.202097180,-0.013884690,10.229528430,0.029617550,-0.044441220,-0.006356840
1640833069.216960,-0.114520950,0.267252270,9.405273440,0.020980840,0.034756960,0.015051660
1640833069.218099,0.061082380,0.098351030,9.822713850,-0.027498610,-0.047013170,0.005583470
1640833069.222649,-0.188767270,0.172750730,10.202093120,-0.064231460,0.045210120,0.007767980
1640833069.223100,0.260612640,0.338924500,9.064917560,-0.034537920,0.025229160,-0.003723800
1640833069.226920,-0.152584400,-0.106797040,10.343493460,0.025941430,-0.047831240,-0.001740460
1640833069.227840,-0.158815710,0.022039990,9.268002510,0.065028660,0.008706750,-0.001335140
1640833069.231900,-0.072921290,-0.082799120,9.372065540,0.053671010,-0.086602570,-0.011719760
1640833069.232770,-0.366826530,-0.230297570,10.158387180,0.006978220,0.039471690,0.011372570
1640833069.237000,0.177997750,0.133969430,9.187458040,-0.017969310,0.050148370,0.005531310
1640833069.237880,-0.046889390,0.133136840,10.746967320,0.006271900,-0.012905900,0.019533940
1640833069.241900,-0.057112130,0.236075450,9.844477650,0.059886290,0.032056870,0.025728350
1640833069.242849,-0.008927600,0.432680190,9.385766980,0.099268560,-0.132311900,-0.020302830
1640833069.246980,-0.560586930,0.384748550,9.870730400,0.054791580,-0.044915080,0.001049040
1640833069.247860,-0.068020410,0.418286110,8.619926450,0.013713540,0.030736630,0.006818770
1640833069.252270,-0.214893500,0.458251300,10.685782430,0.010886790,0.002244120,-0.010909140
1640833069.252790,-0.027215560,0.607755180,10.445449830,-0.003142650,0.093984610,0.014694040
1640833069.256919,0.309029220,0.682819010,9.849878310,-0.002264980,-0.095446420,-0.002872940
1640833069.257830,-0.107833330,0.739399250,10.250843050,-0.037263340,-0.053891540,-0.003662710
1640833069.262060,0.225404280,0.514712270,8.314884190,-0.045141580,0.012157860,0.022956730
1640833069.263049,-0.147836330,0.020153330,9.897318840,0.029674170,-0.059993570,0.015777350
1640833069.266950,-0.120236370,-0.061720700,9.843917850,0.043605270,0.075523560,0.018900630
1640833069.268040,0.317079750,-0.132874800,9.551715850,0.009712580,-0.011900070,0.027108190
1640833069.272899,-0.154859330,-0.053254030,10.949224470,-0.065436950,0.008513030,-0.000414250
1640833069.273370,0.245609920,0.214879830,9.149774550,-0.106129040,0.046250220,-0.011041760
1640833069.277109,-0.099754640,0.164746870,9.861269000,-0.003239510,-0.097531070,0.007948280
1640833069.277959,-0.346985760,0.176724930,9.393401150,0.071495780,0.023719660,-0.014866890
1640833069.281890,0.027862310,0.215818450,8.662227630,0.068070000,-0.027973950,-0.001277030
1640833069.282770,-0.413696650,0.092621270,10.419046400,0.018641350,0.030173360,0.027726590
1640833069.286990,0.181229830,0.085409580,9.538958550,-0.052893160,0.088903320,0.000390410
1640833069.287890,0.154637350,0.200113700,10.411469460,-0.034576660,-0.035011770,0.023193660
1640833069.291880,-0.036729210,0.223059790,10.055076600,0.003540520,0.043849650,0.019162890
1640833069.292780,0.239042910,-0.020667280,9.029069900,0.052858890,-0.060081480,-0.024260580
1640833069.296919,-0.448136510,0.105438230,9.928083420,0.094646220,-0.042815510,-0.002761190
1640833069.297819,-0.130022990,0.046047970,8.907958980,0.038187210,0.051614650,-0.020453340
1640833069.302230,-0.198485240,0.054747110,10.127828600,0.006675720,-0.022314490,-0.003790860
1640833069.302870,-0.275750820,0.603702130,10.468767170,-0.023615360,0.080145920,0.018166010
1640833069.307350,0.238653690,0.488852710,9.870543480,-0.029902160,-0.008161370,0.003203750
1640833069.307799,-0.320796100,0.748854760,10.641034130,0.012411180,-0.060637300,-0.010472540
1640833069.311940,-0.068632910,0.965602870,8.903331760,0.002296270,-0.007520620,-0.009322170
1640833069.312800,-0.074778620,0.406454180,9.415314670,0.009429450,-0.070588300,0.014512240
1640833069.316900,-0.293396650,0.557070970,9.804497720,0.000807640,0.081896790,0.029945380
1640833069.318100,0.375333990,0.284217600,9.537346840,-0.058554120,0.033731760,0.037896630
1640833069.322029,0.060439710,-0.014564770,10.895424840,-0.064219530,0.010208780,0.042814010
1640833069.323490,0.276840870,0.292775990,9.534980770,-0.068937250,0.049589570,-0.020219390
1640833069.327000,0.170686020,0.030336530,9.865320210,-0.049531470,-0.080107170,-0.008122620
1640833069.327870,-0.387142690,-0.066674680,9.618939400,0.018604100,0.013831260,-0.001317260
1640833069.331889,-0.005175670,-0.050617250,8.660219190,0.031632190,-0.015430150,-0.028981270
1640833069.332790,-0.303696100,-0.096150760,10.180839540,0.010843580,0.030843920,0.025746220
1640833069.337000,-0.036053830,0.160321940,9.535846710,-0.041669600,0.135230990,0.015468890
1640833069.337890,0.225809170,0.365464810,10.237235070,-0.072971000,-0.024157770,-0.001500550
1640833069.342229,-0.067268810,0.483337310,10.192729950,-0.056527560,0.044104460,0.042939190
1640833069.343050,0.231471750,0.192733850,8.891563420,0.022993990,-0.004613400,0.003886220
1640833069.347020,-0.290628020,-0.142952560,10.043960570,0.095941130,-0.034987930,-0.005200510
1640833069.347800,-0.235776310,-0.150673030,9.006893160,0.077928600,0.070448230,0.008775290
1640833069.352370,0.001124020,-0.318533090,9.705943110,0.014497340,-0.001674890,-0.005695220
1640833069.353060,-0.290177230,-0.112519180,10.544906620,-0.047740340,0.089687120,0.021101530
1640833069.356989,0.144647760,0.066546710,9.501353260,-0.033918020,0.043074790,0.018830600
1640833069.359069,-0.198168430,0.043956260,10.529687880,0.064115240,-0.057052090,-0.006297230
1640833069.361899,-0.263631880,0.361756350,9.269342420,0.109472890,0.025820730,-0.017856060
1640833069.362779,-0.090572380,0.343092260,9.217012410,0.097163010,-0.054474170,-0.007769460
1640833069.366920,-0.363403470,0.362669470,10.162816050,0.036498910,0.064806650,0.008308890
1640833069.368059,0.159813030,0.545949700,9.451052670,-0.027705730,0.077617170,0.029912590
1640833069.373139,0.029521690,0.490864630,10.877447130,-0.008992850,-0.007615980,0.044527650
1640833069.373570,-0.027706270,0.653670610,10.035326000,0.004652140,0.044210250,0.013667350
1640833069.376940,0.062929130,0.603495960,9.447370530,0.012141470,-0.086535530,0.011295080
1640833069.377859,-0.356636050,0.297733190,9.850072860,0.041162970,0.006413460,0.015226010
1640833069.381889,-0.072800670,0.073435030,8.941295620,0.031909350,0.046291950,-0.010375680
1640833069.382840,-0.102800440,0.131144990,10.295083050,0.028534240,0.006636980,0.029306120
1640833069.386960,0.008936730,0.232125540,10.107955930,-0.035080310,0.098603950,0.014077130
1640833069.387879,0.240896940,0.415151570,9.843841550,-0.085239130,-0.014407940,0.001810490
1640833069.392010,-0.148957600,0.717035770,10.308166500,-0.058476640,-0.013418500,0.023406740
1640833069.392900,0.040324570,0.325234860,8.945737840,-0.019872190,-0.002045930,0.004851820
1640833069.396880,-0.058523090,0.123694180,9.467424390,0.063988570,-0.024864080,0.013992190
1640833069.397820,-0.044385520,0.057601360,9.546731000,0.065085290,0.140114140,0.016300380
1640833069.401970,0.181523640,-0.278619320,9.904852870,-0.013786560,0.054501000,0.016884510
1640833069.402840,-0.094534040,0.162896440,10.584018710,-0.068642200,-0.000840430,0.030417740
1640833069.407100,0.221138120,0.107839230,9.215121270,-0.110510000,0.030627850,0.026352700
1640833069.408310,-0.104694160,-0.208906650,9.779234890,0.006714460,0.003969670,0.016923250
1640833069.411919,-0.446621090,-0.024163150,9.736495020,0.135360670,0.066339970,-0.030431160
1640833069.412830,-0.229217830,-0.238854100,9.408535000,0.133726000,-0.030080980,-0.028949980
1640833069.416940,-0.415547190,0.050939460,9.952878950,0.059045850,0.016132000,0.004203620
1640833069.417990,0.095859870,0.300739350,9.361317630,-0.079949210,0.111448760,0.009572510
1640833069.424100,0.057163570,0.206611140,10.554196360,-0.059655310,0.046378370,0.054706630
1640833069.424710,-0.128092900,0.473239420,10.360291480,0.067651280,0.039355460,0.008040670
1640833069.426920,0.101991580,0.489357020,9.374273300,0.112743680,-0.083971030,-0.028406080
1640833069.427860,-0.362068360,0.487496880,9.646876340,0.093092030,-0.021670760,0.011391940
1640833069.431939,-0.113501400,0.353009130,9.106911660,0.001460310,0.097618980,-0.010094040
1640833069.432829,-0.026844850,0.137850360,10.331071850,-0.031808030,0.046455860,0.025577850
1640833069.437019,-0.119438250,0.336787460,10.576201440,0.012873120,0.083760920,0.029370190
1640833069.437960,0.278681520,0.431792290,9.790673260,0.000666080,-0.013171140,-0.017057360
1640833069.441969,-0.139618960,0.622215870,10.049697880,-0.021003190,-0.035402180,0.017607210
1640833069.442870,-0.249348950,0.408028160,9.198313710,-0.019174810,0.022044770,0.007213650
1640833069.446920,-0.106144070,0.063630720,9.435369490,0.032779570,-0.024545190,-0.005869570
1640833069.447830,-0.281018760,0.054247220,9.924396510,0.075967610,0.065989800,0.025096540
1640833069.452180,0.227820690,0.006580210,9.666908260,0.018425290,0.084353980,-0.002799930
1640833069.452970,0.123950790,0.356843800,10.488797190,-0.068822490,0.034941730,0.014735760
1640833069.459339,-0.043232340,0.472605970,10.050303460,-0.103561570,0.017501410,0.038188690
1640833069.459800,0.207684310,0.072203460,9.238759990,-0.024379790,-0.045938790,0.020664930
1640833069.461920,-0.178367200,0.007195050,9.460595130,0.112359230,0.028996170,0.003759560
1640833069.462870,-0.128103670,-0.178595510,9.480835910,0.131860380,0.083799670,-0.013251600
1640833069.466980,-0.052983250,-0.107765840,9.998384480,0.044426310,0.025269390,-0.018817190
1640833069.467880,-0.171991050,0.155563890,10.016385080,-0.084711610,0.041767960,0.002472100
1640833069.471949,0.159033250,0.195167510,9.564469340,-0.111669320,0.042702260,0.020128490
1640833069.472839,-0.250231420,0.168639750,10.115786550,0.038012860,-0.001087780,0.007319450
1640833069.477039,-0.389662530,0.203376230,9.654552460,0.143942250,-0.015316900,-0.018365680
1640833069.478400,-0.184622480,0.287090900,9.229753490,0.134341430,-0.025521220,-0.002647940
1640833069.481890,-0.389550660,0.103627640,9.931959150,0.016725070,0.055995580,-0.011268260
1640833069.482810,0.015055130,0.209294020,9.934854510,-0.060540440,0.096084180,0.002411010
1640833069.487089,0.043558060,0.343873170,10.443009380,-0.009457770,-0.005491080,0.012327730
1640833069.487980,-0.041311570,0.483565780,10.085124970,0.025630000,-0.020678340,-0.031584500
1640833069.492030,0.249891220,0.888802650,8.985558510,0.019188230,-0.012736020,-0.019346180
1640833069.492910,-0.270091740,0.528849960,9.897815700,0.005285440,0.007125740,0.003203750
1640833069.496879,-0.233112980,0.176998600,9.871559140,0.014545020,0.043964390,0.002190470
1640833069.497850,-0.030729720,0.233398820,9.870887760,0.052297120,-0.016927720,0.023810570
1640833069.502290,-0.311864410,0.003004090,10.390464780,-0.003232060,0.017477570,0.008323790
1640833069.503600,0.097692350,0.331761690,9.298606870,-0.077906260,0.035178660,-0.005331640
1640833069.507000,-0.206466880,0.361038920,9.877610210,-0.084985800,-0.034926840,-0.007216630
1640833069.508960,-0.221139240,-0.001838280,9.600307460,-0.017969310,0.008945170,-0.011396410
1640833069.511920,0.070447720,0.057466370,9.211366650,0.110763330,-0.018227100,-0.010843580
1640833069.512810,-0.305735320,-0.079119560,10.305105210,0.089779510,0.002814830,-0.008662050
1640833069.516970,0.170988620,-0.020581370,9.360075000,-0.005365910,0.054480150,-0.001187620
1640833069.518230,0.211327520,0.217926410,9.879655840,-0.075638300,0.015363100,-0.015948710
1640833069.522050,0.024964800,0.218380730,10.119031910,-0.077709560,0.059004140,-0.001896920
1640833069.522820,0.184890020,0.263249040,9.207281110,0.056302550,-0.029520690,-0.005520880
1640833069.526890,-0.365944560,0.073378160,9.860692020,0.130568440,-0.069610760,-0.040294230
1640833069.527860,-0.306170200,-0.005616350,9.064799310,0.101529070,0.025224690,-0.025618080
1640833069.531930,-0.252391220,-0.182646240,9.651538850,0.054655970,0.016012790,-0.020872060
1640833069.532830,-0.377668170,-0.161116970,10.462802890,-0.006097560,0.079526010,-0.026479370
1640833069.537350,0.046884240,0.082625160,9.858992580,0.021530680,0.018097460,-0.008505580
1640833069.538750,-0.170812140,0.166719620,10.249437330,0.077781080,-0.063246500,-0.020365420
1640833069.542480,-0.084711570,0.403881070,9.201782230,0.086356700,-0.012938680,-0.036564470
1640833069.542990,-0.067859320,0.401364770,9.247751240,0.098857290,-0.036251540,-0.020962960
1640833069.546890,-0.194890130,0.248130750,9.977607730,0.082220140,0.043024130,-0.020144880
1640833069.547809,0.117655240,0.372495230,9.893001560,0.059187410,0.049500170,-0.014932450
1640833069.551970,-0.031112450,0.428095280,10.687717440,0.048540530,-0.014254450,-0.009499490
1640833069.552860,0.029162900,0.660092410,9.786754610,-0.004716220,-0.019977990,-0.040753190
1640833069.557050,0.025380360,0.688421190,9.260809900,-0.012710690,-0.057427590,-0.027512020
1640833069.559000,-0.273376110,0.380567730,9.530390740,0.042252240,0.034071510,-0.010697540
1640833069.561890,-0.167547750,0.128669170,9.441353800,0.105316940,0.017768140,-0.027763840
1640833069.562860,-0.273868980,-0.072070170,10.327322010,0.107638560,-0.031916800,-0.005319720
1640833069.567030,-0.005787740,-0.007693860,9.563123700,0.013266510,0.041401390,-0.012922290
1640833069.567849,0.130976650,0.070126740,9.887912750,-0.057803100,-0.004181270,-0.037169460
1640833069.571960,-0.091005100,0.221854310,10.134845730,-0.026476390,0.036923590,-0.012515490
1640833069.572840,0.123927010,0.172524450,9.159836770,0.064946710,-0.031930210,-0.044004620
1640833069.577020,-0.265474680,0.076672100,10.003976820,0.144854190,-0.057666000,-0.039042540
1640833069.577849,-0.155267040,0.208072130,9.077326770,0.117711720,0.046631700,-0.022453070
1640833069.582379,-0.133775830,-0.019955870,9.758988380,0.046807530,-0.035397710,-0.028997670
1640833069.583259,-0.229880450,0.186371560,10.287386890,-0.002385680,0.073681780,-0.007790330
1640833069.587260,0.234082430,0.396192160,9.373549460,-0.000743570,0.025662780,-0.009578470
1640833069.588500,-0.306451620,0.163952130,10.730006220,0.076292440,-0.058084720,-0.021329520
1640833069.591940,-0.266862600,0.461530770,9.278003690,0.111095610,-0.011202690,-0.029593710
1640833069.592840,-0.178069140,0.292276350,9.252147670,0.098930310,-0.119036440,-0.040806830
1640833069.596910,-0.492378980,0.121478590,10.115242000,0.054784120,0.054702170,-0.027649100
1640833069.597970,0.202966200,0.485584380,9.202310560,0.018489360,0.073249650,-0.025537610
1640833069.601920,-0.083040770,0.344569560,11.259830470,0.020001830,-0.030329830,-0.008077920
1640833069.602820,0.106095240,0.636469600,9.893819810,0.010338420,0.030219550,-0.021621580
1640833069.606959,0.341348080,0.816481590,9.070110320,0.002899770,-0.139273720,-0.041262810
1640833069.607849,-0.411890630,0.350471440,10.061170580,0.031203030,-0.004148480,-0.001889470
1640833069.611860,0.053602820,0.243609730,8.550566670,0.069530320,0.047229230,-0.025095050
1640833069.612860,-0.242395620,-0.010607740,10.599529270,0.084659440,-0.074388090,-0.010371210
1640833069.616910,-0.180011850,-0.023019000,10.070331570,0.011236970,0.102017830,0.007869300
1640833069.617869,0.367555920,0.197085250,9.277573590,-0.055658820,-0.039683290,-0.045490260
1640833069.622700,-0.351937500,0.216740740,10.833625790,-0.056408350,-0.011070070,-0.017777090
1640833069.623260,0.059479440,0.180851100,8.708045010,0.028172140,0.025281310,-0.035239760
1640833069.626880,-0.189576240,-0.052535440,9.689457890,0.141590830,-0.140286980,-0.055031490
1640833069.627830,-0.471658440,0.006388020,9.650169370,0.129756350,0.059318550,-0.037807240
1640833069.631880,0.251346320,0.065898900,8.857663150,0.038188700,0.011308490,-0.039093200
1640833069.632850,-0.236903590,0.101356490,10.989071850,-0.041118270,0.006221230,-0.027008360
1640833069.637300,0.240153860,0.334901810,9.471096040,-0.036886330,0.088572500,-0.007225570
1640833069.638739,0.198925660,0.190007520,10.003793720,0.080408160,-0.113850830,-0.019167370
1640833069.642510,-0.462186430,0.182499220,10.077612880,0.141409050,-0.013928120,-0.038304920
1640833069.642979,-0.013633230,0.188224380,8.471122740,0.121603910,-0.048707420,-0.042566660
1640833069.647009,-0.589095590,-0.017454180,10.261839870,0.068950650,-0.034596030,-0.032748290
1640833069.647910,-0.195216750,0.238728700,9.554835320,-0.008930270,0.116036830,-0.039018690
1640833069.651880,0.056409610,0.400986190,10.364983560,0.008241830,-0.031852730,-0.020898880
1640833069.652880,-0.405933020,0.580519020,10.887849810,0.040517750,-0.022532050,-0.041712820
1640833069.657029,0.148586480,0.876468960,8.826807020,0.040608640,-0.084830820,-0.060926390
1640833069.658789,-0.212758410,0.727417170,9.725138660,0.052401420,-0.083309400,-0.015603000
1640833069.662000,-0.203896850,0.385575060,9.351552960,0.030672550,0.080634650,-0.018189850
1640833069.662950,0.152404470,0.288886930,9.884254460,0.039738420,-0.039088730,-0.006820260
1640833069.666920,-0.140447050,0.212369280,10.566174510,0.015823540,0.011034310,0.008957090
1640833069.667840,0.389245360,0.207992110,9.305411340,-0.063787400,-0.009450320,-0.038273630
1640833069.672000,0.109754200,0.342063220,10.139961240,-0.053642690,-0.031575560,-0.018006560
1640833069.672870,-0.196123170,0.062318250,9.555723190,0.001531840,0.009833280,-0.022771950
1640833069.677029,-0.121330620,-0.235401090,9.437419890,0.103035580,-0.104102500,-0.050629680
1640833069.678769,-0.364639610,0.008620810,9.639983180,0.107812890,0.005263090,-0.030004980
1640833069.681959,-0.037904710,-0.096526510,9.281129840,-0.003823640,0.036692620,-0.036635990
1640833069.682819,-0.119202380,0.226439040,10.482432370,-0.061382350,0.009784100,-0.019153950
1640833069.687170,0.018647580,0.514130230,9.687328340,-0.059176980,0.021304190,-0.022660200
1640833069.688079,0.101537280,0.189187240,9.746032710,0.040797890,-0.089803320,-0.037500260
1640833069.691959,-0.230701800,0.347797070,9.687774660,0.140091790,-0.004556780,-0.047262010
1640833069.692799,-0.089209890,0.085761670,9.069767950,0.101298090,-0.027309360,-0.051423910
1640833069.696879,-0.252888740,-0.205951680,10.167780880,0.047127910,-0.014752150,-0.027716160
1640833069.697850,-0.006994210,0.166481940,9.481309890,-0.015805660,0.075298560,-0.042781230
1640833069.701870,0.016846690,0.110297650,10.301533700,-0.015798210,-0.041273240,-0.019994380
1640833069.702849,-0.269239990,0.398624360,10.276988030,0.044643880,-0.008815530,-0.029799350
1640833069.707000,-0.009264320,0.622394030,9.005347250,0.063732270,-0.096981230,-0.075189770
1640833069.708459,-0.439777550,0.466435730,10.106266980,0.074806810,-0.058503450,-0.022581220
1640833069.712319,-0.201926250,0.539879500,9.248688700,0.048977150,0.077049430,-0.038518010
1640833069.712920,-0.144146990,0.342544700,10.294496540,0.015899540,-0.052644310,-0.035934150
1640833069.716879,-0.297843100,0.490046290,10.511819840,-0.002846120,0.006259980,-0.010588770
1640833069.717900,0.382387280,0.657979250,8.743011470,-0.055523220,-0.039020180,-0.051230200
1640833069.721969,-0.031873870,0.554193620,10.047700880,-0.050665440,-0.054179140,-0.016652050
1640833069.722869,0.086167370,0.326750810,9.193940160,0.015962120,0.069241230,-0.003674630
1640833069.727049,0.175100580,-0.199777540,9.762823100,0.082449620,-0.093628470,-0.031051040
1640833069.727850,-0.329595090,-0.269197020,10.560049060,0.090414270,-0.007395450,0.005596880
