timestamp,accel_x,accel_y,accel_z,gyro_x,gyro_y,gyro_z
1640841451337479936,-0.297565910,-0.266090630,9.701815610,0.011941790,0.053901970,-0.009562080
1640841451339309824,0.020236030,-0.240084950,8.852217670,0.004848840,0.037969650,-0.049833960
1640841451342360064,-0.323119820,-0.320046720,10.826532360,0.066259500,-0.042001910,-0.035423040
1640841451344270080,-0.063318550,0.258742390,9.476283070,0.078570860,0.033955280,-0.019694870
1640841451347329792,0.027918300,0.156367330,9.492404940,0.024035570,-0.088714090,-0.035017730
1640841451349829888,-0.381989810,0.167464750,10.470882420,0.047637530,-0.004425640,0.004421170
1640841451352429824,0.174502690,0.261301930,8.551575660,0.091196600,-0.010260940,-0.028520820
1640841451355419904,-0.084986420,0.043768180,10.198621750,0.117638720,-0.057555740,-0.031429530
1640841451357339904,-0.104251490,0.398876610,9.892662050,0.083930800,0.102692840,0.003609060
1640841451359439872,0.082160410,0.275266860,9.641826630,0.023308400,-0.091777740,-0.025366250
1640841451362829824,-0.460721910,0.146620690,10.877269740,0.048388540,-0.094242390,-0.004571680
1640841451364499712,0.006317680,0.378287430,8.551174160,0.081974250,0.001721080,-0.030928850
1640841451368229888,-0.329156400,0.292513670,9.995228770,0.085169100,-0.077582910,-0.053456440
1640841451369429760,-0.489159940,0.612131600,10.334395410,0.047129390,0.053951150,0.001725550
1640841451373289728,0.259837150,0.632338940,8.980703350,-0.001119080,-0.084975380,-0.009976330
1640841451375030016,-0.184310840,0.455459120,10.805809020,0.013057890,-0.056785350,0.002133850
1640841451377440000,0.142308410,0.761569500,9.259235380,0.012476740,0.065872060,-0.011865790
1640841451379429888,0.014331490,0.482663570,9.984609600,0.012749430,-0.139336290,-0.025172530
1640841451382669824,-0.253308890,0.295289430,10.435837750,0.016388300,-0.028583410,0.005753340
1640841451384399872,0.473169980,0.254212800,8.403898240,0.003948810,0.002747770,-0.014635920
1640841451387470080,-0.088218260,-0.004707290,10.534791950,0.004224480,-0.048071140,-0.011229520
1640841451390139904,0.052303630,0.378411200,9.618556980,-0.033989550,0.069154800,0.000523030
1640841451393019904,0.271098140,0.290060280,9.412275310,-0.071872770,-0.097177930,-0.015741590
1640841451394459904,-0.380719300,-0.035267710,10.810816760,-0.014433260,-0.033530590,0.009411570
1640841451397399808,0.187988130,0.008603600,8.622010230,0.068603460,0.020110610,-0.029796360
1640841451399340032,-0.201792090,-0.092399670,10.036906240,0.090335310,-0.085358330,-0.039777160
1640841451403129856,-0.249870400,0.317991050,9.813559530,-0.027310850,0.082398960,0.013983250
1640841451405329920,0.312948640,0.201767770,9.067213060,-0.129072370,-0.012531880,-0.006805360
1640841451407510016,-0.322201250,-0.177084240,11.034828190,-0.025911630,-0.029529630,0.000932810
1640841451409309952,0.164484230,0.022662460,9.071425440,0.128465910,-0.000835960,-0.033900140
1640841451412519936,0.074233370,-0.085951170,9.424595830,0.142920020,-0.106780240,-0.059722360
1640841451417219840,-0.273078590,-0.030409930,9.929845810,0.013791020,0.073717530,-0.003306570
1640841451421900032,0.198306650,-0.107802820,9.153270720,-0.063030420,0.033086540,-0.008063020
1640841451422560000,-0.391980260,-0.446503130,10.947904590,0.046925240,-0.077816830,-0.001616780
1640841451423009792,-0.113919190,-0.017240150,9.359899520,0.152707110,-0.012576580,-0.019195680
1640841451424269824,-0.131564350,0.205593020,9.151333810,0.134848060,-0.084535780,-0.050437450
1640841451427439872,-0.582082030,0.157773450,10.241410260,0.036016100,0.029474500,-0.023435060
1640841451429260032,0.072776330,0.325269100,9.208014490,0.037764020,0.021502380,-0.008167320
1640841451432379904,-0.227348060,0.148311590,10.626509670,0.129863590,-0.079901520,-0.013105570
1640841451434870016,-0.149216990,0.525796350,9.902920720,0.130572920,-0.017040970,-0.005629660
1640841451437369856,0.098237920,0.852087440,9.054538730,0.033323470,-0.088509920,-0.023940210
1640841451439360000,-0.325360720,0.354853330,10.439101220,-0.027793650,-0.024051970,0.001469250
1640841451442439936,0.148525630,0.194769960,9.606400490,0.091308360,0.032372780,-0.001208480
1640841451444310016,-0.030069340,0.069841790,10.233382230,0.200364010,-0.101406880,-0.037430230
1640841451447510016,-0.134195390,0.340085740,10.016807560,0.097072120,-0.038334730,-0.016249720
1640841451449580032,0.201260860,0.721087690,9.006388660,-0.069139900,-0.032712520,0.004617870
1640841451452440064,-0.250181850,0.243932590,10.453854560,-0.107350970,-0.044171520,0.007523600
1640841451454550016,-0.023457570,0.215198190,9.858305930,0.075270240,-0.012138480,0.003132220
1640841451457419776,0.052692610,0.310270070,9.517807960,0.213882360,-0.093787930,-0.039178140
1640841451462679808,-0.094990950,0.425612990,9.912231450,0.083468850,-0.009064380,-0.025385620
1640841451463279872,0.224851580,0.684600710,9.406714440,-0.103196520,0.032688680,0.020168720
1640841451464300032,-0.034130340,-0.064415640,10.407388690,-0.126506370,-0.038945670,0.004786250
1640841451467680000,0.127635020,-0.179085310,9.965461730,0.077302750,-0.033755600,-0.006750230
1640841451469619968,0.234655290,0.079554560,9.102017400,0.217336460,-0.068293510,-0.033843520
1640841451472359936,0.060175250,0.027215190,9.568634030,0.077798970,0.008958580,-0.028264520
1640841451474239744,0.142450590,0.264897050,9.658339500,-0.079792750,0.058844690,0.023493170
1640841451477540096,-0.015684990,-0.316906540,10.382864950,-0.056514150,-0.019064550,0.003990530
1640841451479269888,-0.027112510,-0.343810830,10.135910030,0.132492200,-0.044311580,-0.013066830
1640841451482779904,-0.126163050,0.225452450,9.218285560,0.225116330,-0.053906430,-0.032927100
1640841451484310016,-0.264450490,0.113472670,9.411110880,0.060652200,0.016918780,-0.034825500
1640841451487360000,-0.211365150,0.120267170,9.722100260,-0.025343900,0.050680340,0.009390710
1640841451489260032,-0.169487610,-0.146978070,10.026789670,0.070510800,-0.024107100,-0.005093220
1640841451492389888,-0.004797450,-0.227662680,9.931019780,0.194357340,-0.033801800,-0.013735890
1640841451495309824,-0.043136060,0.396225840,9.567228320,0.196608900,-0.012603400,-0.015769900
1640841451497489920,-0.132029850,0.243038980,9.810024260,0.032937530,-0.022976100,-0.024306770
1640841451499359744,-0.050589640,0.073461930,9.865034100,0.018545980,-0.021819770,0.005984310
1640841451502369792,0.011095210,0.080872660,9.690376280,0.162407760,-0.016258660,-0.018596650
1640841451504230144,-0.078710010,0.081774790,10.064692500,0.212557610,-0.006021560,-0.023217500
1640841451507319808,-0.312348400,0.758640170,9.976823810,0.129073860,-0.042201580,-0.003062190
1640841451509349888,-0.289185610,0.551424620,9.782293320,-0.030033290,-0.077933070,-0.008875130
1640841451512749824,-0.162460030,0.171262490,9.825306890,0.022058190,-0.037744630,0.002574920
1640841451514540032,-0.043298780,0.438307230,9.695695880,0.196304930,0.006325540,-0.030656160
1640841451517459968,0.021447480,0.380172460,10.200436590,0.174357000,0.004173820,-0.043229760
1640841451519660032,0.090805980,0.828774450,10.073111530,0.049112750,-0.032356380,0.005783140
1640841451522379776,0.073378550,0.555678130,9.828275680,-0.077258060,-0.066301230,0.006705520
1640841451524250112,0.120228200,0.048362150,9.786129000,-0.005237760,-0.021359320,0.013490020
1640841451529870080,-0.081369030,0.293505970,9.604791640,0.183627010,-0.035436460,-0.018142160
1640841451531440128,-0.097124960,0.316189050,9.740304950,0.126823750,-0.046174220,-0.034146010
1640841451532379904,0.112715100,0.501502930,9.596323010,-0.021727380,0.027914350,0.027610360
1640841451534259968,-0.053744070,0.211826950,10.215695380,-0.084353980,0.015443560,0.004625320
1640841451537369856,-0.111676100,-0.140460300,10.534485820,0.032070270,-0.051787490,-0.000672040
1640841451539289856,0.105145110,0.238061950,9.224335670,0.177985440,-0.079520050,-0.012493130
1640841451542379776,0.094113410,0.284127680,9.153388020,0.083453950,-0.011350220,-0.033392010
1640841451546759936,0.234845650,0.270363510,9.637048720,-0.042513010,0.110960020,0.027124590
1640841451547499776,0.215660600,-0.016501920,10.109293940,-0.022184850,0.047667330,0.005468730
1640841451549629952,0.053291670,-0.239751650,10.684231760,0.092421470,-0.078998510,-0.008367000
1640841451552829952,0.082870800,0.104016070,9.204522130,0.174123050,-0.053392350,0.006617610
1640841451554259968,-0.106301620,0.005623060,9.020871160,0.061842800,-0.023157890,-0.035728520
1640841451557349888,-0.216019020,-0.015249860,9.944995880,-0.011901560,0.094687950,0.001578030
1640841451559379712,-0.138401820,0.013432880,9.664278030,0.071020430,0.049822040,-0.003767010
1640841451563869952,-0.275722150,-0.097471000,10.571614270,0.157342850,-0.079739090,-0.022287660
1640841451564549888,-0.270756480,0.463581000,9.548809050,0.148883480,-0.020325190,0.006142260
1640841451567409920,-0.175645830,0.369253220,8.969163890,0.028452280,-0.047297780,-0.022028390
1640841451569659904,-0.267987820,0.086602960,10.262248990,0.031231340,0.028330090,0.001205500
1640841451572320000,0.065658790,0.328518180,9.509404180,0.147722680,0.058728460,-0.000303980
1640841451574240000,0.064067410,0.242484640,10.308755870,0.153958810,-0.073681780,-0.018429760
1640841451577529856,-0.051889850,0.727896450,10.074767110,0.077252100,0.001665950,0.014325980
1640841451580899840,0.082358010,0.740693750,9.037562370,-0.039976840,-0.061802570,-0.009295350
1640841451583619840,-0.247944280,0.310080470,10.445631030,0.002057850,-0.040179490,-0.001384320
1640841451584319744,-0.160348590,0.680988130,9.540550230,0.134092580,0.043468180,-0.010845070
1640841451587440128,-0.240310250,0.546271560,9.938315390,0.107729460,-0.093355770,-0.028543180
1640841451589280000,-0.362979470,0.817344550,10.387581830,-0.011754040,-0.006760660,0.025370720
1640841451592710144,-0.039236510,0.746519740,9.183248520,-0.105459990,-0.020569560,0.025439260
1640841451594309888,-0.257378190,0.160407320,10.616926190,-0.046475240,-0.086449090,0.016966460
1640841451597509888,-0.112324330,0.550659180,9.745180130,0.085756180,0.005309280,-0.005164740
1640841451599340032,0.168711950,0.509287540,9.342109680,0.038549310,-0.095157330,-0.017310680
1640841451602860032,0.010259480,0.470274420,10.513454440,-0.071187320,0.004118680,0.032469630
1640841451604239872,0.289437170,0.624638740,9.409042360,-0.132715690,0.044873350,0.002238150
1640841451607389952,0.044459410,0.266939010,10.413650510,-0.105801250,-0.113883630,-0.003266340
1640841451609489920,-0.073295150,0.619705800,9.880639080,-0.008042160,-0.035262110,0.022993990
1640841451614189824,0.149924920,0.319306080,8.903514860,-0.035874550,-0.043541200,-0.010241570
1640841451615980032,-0.179171670,0.051921730,10.360903740,-0.066243120,-0.010155140,0.038452450
1640841451617379840,-0.034744610,0.154607360,9.588931080,-0.069747870,0.062824790,0.022946300
1640841451619579904,-0.003460680,-0.164038430,9.966032980,-0.091886520,-0.081272430,0.004814570
1640841451622329856,-0.226782630,0.231688560,10.169068340,-0.071676080,-0.026839970,0.048290200
1640841451624280064,0.110830180,0.075580750,8.873669620,-0.091452890,-0.006724890,0.005957480
1640841451627509760,0.011494320,-0.288877070,10.077257160,-0.030168890,-0.018653280,0.003434720
1640841451629349888,-0.023046120,0.171688260,9.729848860,0.037877270,0.062721970,-0.007361170
1640841451632489984,0.168194500,0.059406530,9.550142290,-0.048056240,-0.047135350,-0.017885860
1640841451634320128,-0.207428050,0.190073340,10.421450610,-0.101868810,-0.023426120,0.049228970
1640841451637469952,-0.110520820,0.131728100,9.303098680,-0.085663800,-0.006920100,0.012196600
1640841451641039872,-0.290778640,-0.263574780,9.932117460,0.030866270,-0.101360660,0.007362660
1640841451642700032,-0.383112970,0.150285150,9.510761260,0.087562210,0.016000870,0.002284350
1640841451644300032,-0.002327510,0.113457430,9.093302730,-0.018872320,0.017639990,-0.025422870
1640841451649359872,-0.313941570,-0.010668230,10.962686540,-0.078341390,0.000765920,0.033323470
1640841451650400000,-0.118568730,0.163019600,9.897672650,-0.025922060,-0.023226440,0.015287100
1640841451652760064,-0.042422400,0.011071980,9.661148070,0.043603780,-0.167991240,-0.006477540
1640841451654299904,-0.327899220,0.429696500,9.557378770,0.060153020,-0.005833810,0.007011000
1640841451657699840,-0.092307040,0.511979700,9.097607610,-0.040890280,0.011479850,-0.026740140
1640841451659489792,-0.334197610,0.262610320,10.814304350,-0.055523220,-0.071024890,0.025218730
1640841451662649856,-0.077887960,0.555505630,9.768815040,0.006049870,-0.023260710,0.018294160
1640841451664239872,0.117785920,0.449391780,9.661702160,0.001367930,-0.105024880,-0.018064680
1640841451667359744,-0.306079690,0.734168230,10.345257760,-0.038193170,-0.035457320,0.021106000
1640841451669600000,0.028784120,0.737518070,9.258295060,-0.105313960,-0.051482030,0.004071000
1640841451672339968,-0.031816380,0.144294890,10.260109900,-0.070074210,-0.106456890,0.015954680
1640841451674379776,-0.050081300,0.346643660,9.752776150,0.018291180,0.001609330,0.016072390
1640841451677440000,0.136599080,0.365809560,9.505106930,-0.035420060,-0.075216590,-0.015267730
1640841451679299840,-0.151539740,0.527604580,10.398543360,-0.136831420,-0.061526890,0.033780930
1640841451682390016,0.032750820,0.506997350,9.344166760,-0.185905410,-0.041601050,0.026386980
1640841451684320000,-0.025214740,-0.041640000,10.146508220,-0.092135350,-0.102397800,0.006507340
1640841451687379712,-0.139353450,0.164996120,9.834949490,0.052088510,-0.003959240,0.015075510
1640841451689479936,0.105227860,0.346278040,9.209360120,-0.017535690,-0.075630840,-0.012606380
1640841451692440064,-0.109148050,0.288967850,10.253942490,-0.176090050,-0.038465860,0.045499220
1640841451695629824,0.171698590,0.189536750,9.305009840,-0.224305700,0.023227930,0.035934150
1640841451697329920,0.058708150,-0.275667400,10.300366400,-0.066554550,-0.106360020,-0.009416040
1640841451699329792,-0.125131490,-0.153315540,10.009834290,0.107815860,-0.048767030,0.005020200
1640841451702739968,0.201854600,0.090095790,8.626362800,0.014038390,-0.072085860,-0.032882390
1640841451704369920,-0.167406950,-0.059821690,10.308882710,-0.157238560,-0.007927420,0.020812450
1640841451707389952,0.027251520,-0.048093190,9.556027410,-0.164476010,0.060923400,0.039573010
1640841451709359872,0.008339200,-0.243602810,10.034184460,-0.004704300,-0.149776030,-0.007164480
1640841451712389888,-0.254516360,0.057373100,9.980246540,0.110070430,-0.046409670,-0.001384320
1640841451714319872,0.106111320,0.347502590,8.432138440,0.006838140,-0.019808110,-0.024221830
1640841451717409792,-0.375820280,-0.108659680,10.546855930,-0.084850200,-0.047837200,-0.004580620
1640841451719620096,-0.102030020,0.006955200,9.707389830,-0.035272540,0.029923030,0.011830030
1640841451722599936,0.091503870,0.054587190,9.589551930,0.047890850,-0.128079970,-0.015571720
1640841451724289792,-0.368559780,0.219952140,10.468194960,0.040826190,-0.035890930,0.003767010
1640841451728199936,0.079474950,0.571316180,8.748259540,-0.045561790,-0.018425290,-0.003854930
1640841451729299968,-0.279832040,0.124478570,10.329501150,-0.043500960,-0.124119220,0.004318360
1640841451732309760,-0.184662400,0.249780300,9.741882320,0.036805870,0.020135940,0.010228160
1640841451734299904,0.082441370,0.467129110,9.234902380,0.055745260,-0.099487630,-0.010162590
1640841451737479936,-0.494841750,0.385268060,10.886483190,-0.023701790,-0.071872770,0.007122760
1640841451739359744,0.039771340,0.613768100,9.123963360,-0.109118250,-0.012303890,0.013324620
1640841451742400000,-0.210592760,0.193884520,10.326629640,-0.055807840,-0.153112410,-0.009569530
1640841451745240064,-0.376721380,0.359691080,10.283012390,0.037884720,-0.018961730,-0.014230610
1640841451747350016,0.211724820,0.782521900,8.640866280,0.001594420,-0.097541500,-0.018237530
1640841451749359872,-0.227533620,0.607693910,10.540043830,-0.114940110,-0.100848090,0.013151770
1640841451753100032,0.273442830,0.685200810,9.313097950,-0.169143100,0.051487980,0.031979390
1640841451754649856,0.217125240,0.335985720,10.106144910,-0.091509530,-0.121611360,0.000599030
1640841451757339904,-0.415895400,0.250162690,11.007146840,0.008827450,-0.095213950,-0.002372270
1640841451759320064,0.286235660,0.478207980,8.428998950,-0.056950750,-0.107754770,-0.002855060
1640841451762369792,-0.156520380,-0.056041790,10.092617990,-0.142228600,-0.103119020,0.012403730
1640841451764289792,-0.025264570,-0.054348070,9.739045140,-0.144742470,0.102414210,0.015579170
1640841451767350016,0.232698630,0.007086900,9.650212290,-0.065270090,-0.094968100,-0.012066960
1640841451769680128,-0.306208160,0.002780400,10.775775910,-0.036095090,-0.126731400,0.004741550
1640841451772369920,0.375430320,0.272076490,8.482490540,-0.102216010,-0.031593440,0.003026430
1640841451774289920,0.036183930,-0.201080290,9.862524030,-0.094695400,-0.077448790,-0.003308060
1640841451778919936,-0.104157210,-0.226393850,10.151873590,-0.016413630,0.041337310,0.007012490
1640841451779350016,0.415650760,0.140657690,9.120996480,-0.005000830,-0.057636210,-0.014802820
1640841451782369792,-0.237015230,-0.053630870,10.708311080,-0.071841490,-0.080074370,0.009033080
1640841451784320000,0.056477000,0.088672920,9.210241320,-0.106889010,-0.005149840,0.009901820
1640841451787699968,-0.081683990,-0.142164440,9.563208580,-0.018830600,-0.123281790,-0.020231310
1640841451789339904,-0.349554420,-0.204363180,9.963184360,0.074487920,-0.016826390,-0.025404990
1640841451792429824,0.188048590,0.305420730,8.925643920,0.039316710,0.007638340,-0.024145850
1640841451795099904,-0.299608470,0.082370490,10.625221250,-0.067347290,-0.047379730,-0.003090500
1640841451797369856,-0.054040800,0.217799010,10.013405800,-0.078031420,-0.025740270,0.014737250
1640841451799299840,0.013134700,0.254585210,9.654609680,0.024998190,-0.118128940,-0.016114110
1640841451802449920,-0.416464750,0.206079240,10.115322110,0.061655040,-0.078700490,-0.012685360
1640841451804440064,0.061602030,0.572249110,8.982731820,0.009362400,-0.015635790,-0.007522110
1640841451807360000,-0.143970770,0.258525280,10.135284420,-0.053271650,-0.045415760,-0.003214180
1640841451809379840,0.042772840,0.253323940,10.321475980,-0.042214990,-0.008526450,0.029861930
1640841451812489984,0.336209300,0.442427580,9.634256360,0.010971720,-0.071556870,0.002171100
1640841451814359808,-0.114103410,0.428814110,10.262638090,-0.026534500,-0.087885560,-0.014860930
1640841451817549824,0.154400330,0.644408290,9.274259570,-0.068487230,-0.048486890,0.012820960
1640841451819449856,0.024559730,0.194021870,9.784158710,-0.048151610,-0.050438950,-0.006742780
1640841451822639872,-0.103099290,-0.010295560,10.185958860,0.012579560,-0.005571550,-0.001206990
1640841451824290048,0.055698930,0.400710110,9.536233900,0.023682420,-0.067450110,-0.012248750
1640841451827950080,-0.235920320,0.406891910,10.003576280,-0.116600100,-0.069406630,-0.006325540
1640841451829329920,0.149253250,0.471438470,9.372934340,-0.177253780,-0.010003150,0.046415630
1640841451832320000,0.113604730,0.064960900,9.907610890,-0.065897410,-0.010445710,0.011098380
1640841451834380032,0.077031030,-0.261219350,10.156622890,0.077746810,-0.000493230,-0.014194850
1640841451837369856,0.372858880,0.162221240,9.319342610,0.097750130,-0.052323940,0.012065470
1640841451839350016,0.043787610,0.047314890,9.803184510,-0.096683220,-0.021879380,0.018665200
1640841451842379776,0.210152100,-0.121423790,9.521579740,-0.212329640,0.030626360,0.040343410
1640841451845180160,-0.063747230,-0.307879030,10.017509460,-0.037258860,-0.039048490,0.000610950
1640841451847369984,-0.175171230,-0.429465200,9.892127040,0.142146650,-0.040625040,-0.041951240
1640841451849609728,0.055973100,0.152341990,8.987103460,0.144113620,0.000235440,-0.021897260
1640841451852609792,-0.390952140,0.298067030,9.934055330,-0.070950390,0.030504170,-0.006257000
1640841451854589952,-0.102197290,0.027236680,9.961445810,-0.171959420,0.015664100,0.047369300
1640841451857389824,-0.088640170,-0.065213230,9.866215710,0.033164040,-0.061436000,0.021283330
1640841451859449856,-0.134825940,-0.121956130,9.818826680,0.185362990,-0.039295860,-0.021617120
1640841451862429952,0.114939480,0.256048230,9.248069760,0.141680240,0.018538540,-0.004152950
1640841451864320000,-0.121596290,0.285274920,9.881286620,-0.032028560,0.017687680,-0.001373890
1640841451867429888,0.122754460,0.035438840,10.048430440,-0.105182830,0.002498920,0.020280480
1640841451869599744,0.209829960,0.141142350,9.612976070,0.066417460,-0.014118850,0.011770430
1640841451872339968,-0.191818680,0.199128690,9.999917030,0.150792300,-0.041593610,-0.039811430
1640841451874269952,-0.182860000,0.568670750,9.607397080,0.083358590,-0.007598100,-0.010217730
1640841451878589952,-0.410107790,0.521958590,9.750588420,-0.025063750,-0.027027730,0.003604590
1640841451879340032,-0.302557320,0.115376710,10.203887940,-0.039310750,-0.011175870,0.009778140
1640841451882619904,0.012728490,0.383550020,9.624204640,0.090442610,0.023716680,0.013861060
1640841451884349696,-0.174765150,0.550349710,10.051061630,0.076459340,-0.025250020,-0.026804210
1640841451888160000,0.029265390,0.715813520,9.869390490,-0.037257380,-0.014533100,0.015833980
1640841451889299968,0.157061140,0.400100080,9.424203870,-0.050446400,-0.022792820,0.014248490
1640841451892389888,-0.006519350,-0.036029930,10.224565510,0.023370980,-0.027747450,-0.015740100
1640841451894320128,0.318958550,0.312852290,9.391140940,0.102266690,0.017397110,0.006808340
1640841451897469952,0.168494270,0.451357750,9.618244170,0.006960330,-0.015078490,-0.016802550
1640841451899350016,0.161494580,0.431489350,10.191829680,-0.144354980,0.049145520,0.029605620
1640841451902779904,0.199453120,0.162124780,9.654994010,-0.075009470,0.037074090,0.026449560
1640841451904329984,-0.264568030,-0.331123380,10.424407960,0.083635750,-0.080764310,-0.026696930
1640841451907330048,-0.178042170,-0.017945740,9.362944600,0.171834230,-0.015637280,-0.008113680
1640841451909359872,-0.113921650,0.173030820,8.740891460,0.018197300,0.009934610,-0.020138920
1640841451912329984,-0.184466500,0.088963840,10.208920480,-0.164403020,0.097887230,0.021074710
1640841451914660096,0.109136400,0.126590920,9.976195340,-0.082050260,0.100705040,0.026780370
1640841451917469952,0.050815610,-0.046631520,10.340148930,0.107721990,-0.087645650,-0.016380840
1640841451919360000,0.084273340,0.213291530,9.718294140,0.181570660,-0.017763670,-0.007762010
1640841451922329856,0.194973960,0.328196200,8.511260030,0.039166220,0.048883260,-0.016658010
1640841451924300032,-0.087343570,-0.168029560,10.142175670,-0.090250370,0.053915380,0.006642940
1640841451928249856,-0.023088320,-0.138354550,10.024805070,0.015628340,0.091095270,0.026658180
1640841451929359872,0.008562010,-0.155920280,9.727462770,0.135251850,-0.060451030,-0.027666990
1640841451932349952,-0.307207640,0.177745610,10.187292100,0.128503140,-0.005815920,-0.010158120
1640841451934309888,-0.237815200,0.472261160,8.994795800,0.016728040,0.055426360,-0.018492340
1640841451937419776,-0.321619750,0.021271900,10.009741780,-0.030575690,-0.026999420,-0.020724530
1640841451939299840,-0.264059690,0.228403970,10.149546620,0.105306510,0.094074020,-0.004164880
1640841451942419968,-0.021378010,0.434302480,9.451452260,0.144559140,0.004984440,-0.021356340
1640841451945159936,-0.230372940,0.624658520,10.478528980,0.042563680,-0.037583710,0.002516810
1640841451947739904,0.020203150,0.863143320,9.346596720,-0.058773160,0.047594310,0.019611420
1640841451949459968,0.050998080,0.270108370,9.767520900,-0.035469230,-0.047583880,0.001037120
1640841451952479744,-0.132731230,0.276533040,10.359846120,0.121335690,0.039179620,0.005559620
1640841451954399744,0.114039690,0.558723270,9.198701860,0.117804120,0.030858820,-0.035299360
1640841451957349888,-0.174839360,0.495830740,10.434748650,-0.046108670,-0.037138160,-0.008253750
1640841451959429888,-0.194946620,0.677461210,9.988867760,-0.125023690,0.046631690,0.023710730
1640841451963269888,-0.013078640,0.265510110,9.566833500,-0.081409520,-0.045435130,-0.022771960
1640841451964329984,-0.311852100,0.317263420,10.364925380,0.072452430,-0.003895160,-0.015360120
1640841451967350016,-0.038678230,0.699512360,9.293210980,0.072915850,0.040696570,-0.032417480
1640841451969369856,0.045997470,0.432887940,9.950850490,-0.088736440,-0.021860000,0.004717710
1640841451972329728,-0.002714060,0.515353140,10.111808780,-0.143854320,0.063140700,0.043547150
1640841451974319872,0.190672840,0.181719360,9.756922720,-0.104576360,-0.000241400,-0.005145370
1640841451977550080,0.047742260,0.063891430,10.290202140,0.022540990,-0.045113270,0.004194680
1640841451981359872,0.104642150,0.422809750,9.156533240,0.037263340,0.022020940,-0.013475120
1640841451983150080,0.208943990,0.044933940,9.349012370,-0.102321800,0.035402180,-0.010190900
1640841451984299776,-0.031149040,-0.058587950,10.220418930,-0.113067030,0.097845490,0.020955500
1640841451987670016,-0.043048630,-0.025463280,9.903786660,-0.041806690,-0.004436080,-0.020259620
1640841451989359872,-0.195710970,-0.148702610,10.053419110,0.010715430,-0.086297100,-0.004145500
1640841451992409856,-0.232144450,0.098027680,9.035577770,-0.007982550,0.030131640,-0.004437570
1640841451994360064,-0.158024790,-0.167552170,9.472644810,-0.062371800,0.055383150,-0.026924910
1640841451997540096,-0.221006130,-0.196146010,10.517989160,0.003013020,0.081352870,0.009483100
1640841451999359744,0.037869140,0.235922920,9.675356860,0.036996610,0.008532400,-0.009982290
1640841452002349824,0.018999530,0.213461400,9.992151260,-0.024828320,-0.059129310,0.008714200
1640841452004580096,-0.012030640,0.363540350,9.297822000,-0.058239700,0.051505870,0.016067920
1640841452007360000,-0.002748310,0.135545400,9.535712240,-0.015805660,0.001788140,-0.034055120
1640841452010169856,-0.306330410,-0.059378070,10.454567910,0.089292230,0.005248190,-0.011910500
1640841452012389888,-0.022872500,0.271001400,9.124511720,0.086669620,0.017751760,-0.021468110
1640841452014569984,-0.204748240,0.215483280,10.235873220,-0.052036360,-0.022016470,-0.017420950
1640841452017439744,-0.322360690,0.321219830,10.099939350,-0.099101660,0.058238210,0.026366110
1640841452019429888,-0.091396910,0.180688490,9.534808160,-0.008867680,-0.069057950,-0.026823580
1640841452022369792,-0.403835150,0.150482920,10.398365020,0.094234950,-0.040803850,-0.036276880
1640841452024369920,-0.028075530,0.657353760,8.885611530,0.066280370,0.043132900,-0.031003360
1640841452027449856,-0.102741040,0.567197800,10.223955150,-0.076836360,-0.040285290,-0.011894110
1640841452029870080,-0.093819860,0.609977130,10.358029370,-0.118021670,0.049127640,0.023670490
1640841452032290048,0.329573810,0.616786780,9.274814610,-0.061336160,-0.060290090,-0.016322730
1640841452034289920,-0.174427850,0.513761340,10.722199440,0.006173550,-0.050804010,-0.026065110
1640841452037420032,0.038360920,0.729449090,9.146545410,-0.007005040,0.036141280,-0.008024280
1640841452039340032,0.009624590,0.360515560,9.724745750,-0.086934880,-0.101026920,-0.021983690
1640841452042449920,-0.167214260,0.251775090,10.277733800,-0.116187360,0.055202840,0.010094050
1640841452044379904,0.261606100,0.289916130,8.964427950,-0.098730650,0.043711070,-0.028051440
1640841452047689984,-0.368694900,0.196272910,11.115674020,-0.073896340,-0.075522070,-0.034427640
1640841452049360128,-0.142385300,0.312680510,9.587071420,-0.074763600,0.016577540,-0.004769860
1640841452052700160,0.167433040,-0.082369480,9.047415730,-0.075182320,-0.081330550,-0.028516360
1640841452054319872,-0.307547420,-0.192297380,10.582568170,-0.035308300,0.053881110,-0.003297630
1640841452057699840,0.239194350,0.154109910,8.872021680,-0.049760940,0.069566060,-0.015090410
1640841452059419904,0.042144230,0.161440600,10.344980240,-0.109905020,-0.085756210,-0.006832180
1640841452062340096,0.001447810,0.312387940,9.964674950,-0.130631030,0.066508360,0.021809340
1640841452064280064,0.410886530,0.074528490,8.954792980,-0.069786590,-0.025086100,-0.028567010
1640841452067329792,-0.282790360,-0.134722220,10.801754950,0.057713690,-0.021120910,-0.034648180
1640841452069710080,0.052636430,0.201744910,8.818478580,0.028261540,0.069379810,-0.029048330
1640841452072359936,-0.035841480,-0.117708590,9.649560930,-0.087180760,-0.056727240,-0.024609270
1640841452074449920,-0.484987290,-0.280970840,10.548153880,-0.104224680,0.069665910,0.009964410
1640841452077430016,0.096303690,-0.346235930,8.981387140,0.000958140,-0.010928510,-0.040696570
1640841452079340032,-0.405348270,-0.416513920,10.514114380,0.118301820,-0.077874970,-0.053636740
1640841452082449920,-0.061809960,0.243153390,9.046497340,0.036497410,0.105041270,-0.043469670
1640841452084329728,0.173045490,0.121729460,9.382876400,-0.073629600,-0.004838410,-0.035566100
1640841452087379968,-0.384505030,-0.033414720,11.018729210,-0.034564730,0.022344290,-0.001958010
1640841452089740032,0.273672310,0.271869660,8.964241030,0.080129510,-0.025649370,-0.033804770
1640841452092419840,-0.199607690,0.131939740,10.087728500,0.116579230,-0.089721390,-0.040867920
1640841452094379776,-0.321135130,0.388527930,9.695387840,0.027780240,0.090426210,-0.035704670
1640841452097339904,0.049687200,0.296500530,9.396435740,-0.036604710,-0.016222900,-0.038614880
1640841452099340032,-0.434503940,-0.070716430,10.960247040,0.031879540,-0.034272670,-0.026308000
1640841452102729984,0.130673470,0.333674130,9.033378600,0.093765560,0.029060240,-0.053945190
1640841452104339712,-0.070169810,0.510939000,9.765924450,0.035268070,-0.058798490,-0.071862350
1640841452107369984,-0.391704590,0.565881130,10.321404460,-0.060951720,0.044541070,-0.030723220
1640841452109409792,0.184774150,0.535970750,9.248661990,-0.045548380,-0.017677250,-0.047190490
1640841452112359936,-0.244628880,0.222613410,10.658853530,0.059834130,-0.052534040,-0.040543080
1640841452114329856,-0.029302700,0.562669100,9.481170650,0.077106070,0.031207510,-0.034265220
1640841452117440000,0.101656530,0.691898410,9.486701970,-0.045141580,-0.059625510,-0.045159460
1640841452119539968,-0.218729020,0.419211950,10.415206910,-0.139755010,0.029949850,0.006726380
1640841452122390016,0.222337860,0.274930180,9.490571980,-0.072526940,0.024370850,-0.024959450
1640841452124339712,-0.141185080,-0.053722300,10.470702170,0.070522730,-0.080971420,-0.064076490
1640841452128509952,0.030772060,0.266539010,9.344757080,0.072251270,0.001482670,-0.049288570
1640841452129359872,0.303373010,0.493496180,9.077874180,-0.085048380,-0.000768900,-0.045228000
1640841452132310016,-0.103088120,0.057798020,10.529451370,-0.183530170,0.085361300,-0.013159220
1640841452134559744,0.166642410,-0.003025640,9.819300650,-0.054670870,0.017741320,-0.022056700
1640841452137699840,-0.192915690,-0.113856620,10.281019210,0.114530340,-0.128530010,-0.059387100
1640841452139340032,-0.143857180,0.060550810,9.030922890,0.081351400,0.006924570,-0.039917230
1640841452142400000,0.076468280,0.281687200,8.806051250,-0.073806950,0.048877300,-0.027203560
1640841452144480000,-0.333399090,-0.092846960,10.697345730,-0.142262880,0.098258270,-0.020314750
1640841452147369984,0.237811640,0.087459500,9.713214870,-0.013504920,0.015951690,-0.022929910
1640841452149430016,0.078300080,0.164763050,9.981991770,0.101943310,-0.076544290,-0.056836010
1640841452152709888,-0.002681350,0.153080610,9.650182720,0.046622750,0.055414440,-0.055661790
1640841452154680064,0.077975150,0.184265110,9.136457440,-0.020065900,0.023362040,-0.044134270
1640841452157379840,-0.301920320,-0.328584340,10.276573180,-0.017762190,0.005120040,-0.045336790
1640841452159479808,0.155899750,-0.157198950,9.331930160,0.062757730,0.059051820,-0.026696920
1640841452162339840,-0.202278840,0.049952190,9.915833470,0.101529060,-0.010369720,-0.043265520
1640841452164339968,-0.438768980,0.084374100,10.275517460,0.003190340,0.006648900,-0.044161080
1640841452167409920,-0.153584000,0.322340610,9.221508980,-0.010938940,-0.029723350,-0.045008960
1640841452170259968,-0.461887660,0.100700520,9.999373440,0.045444070,-0.033220650,-0.076588970
1640841452172349952,-0.156857340,0.392169740,9.721201900,0.087179250,0.071246920,-0.065799060
1640841452174330112,-0.121142180,0.768498180,9.811450960,0.059399010,-0.008185210,-0.055797400
1640841452178639872,-0.198087100,0.651121910,10.453416820,-0.055326530,-0.037243960,-0.039495520
1640841452179309824,0.259829370,0.609023090,9.381154060,-0.052630900,0.008556250,-0.020357970
1640841452182530048,-0.074205440,0.284005110,9.948044780,0.025674710,-0.035683810,-0.063009570
1640841452184339968,-0.125521730,0.211400670,10.246650700,0.076074910,0.008223950,-0.053346160
1640841452187919872,0.028436590,0.382155450,9.381386760,0.038473310,-0.023838880,-0.055809320
1640841452189349888,-0.097449970,0.219567400,10.054059980,-0.082997980,-0.039945550,-0.041528050
1640841452192369920,0.113289970,0.342710580,9.757778170,-0.097058710,0.079037260,-0.032006200
1640841452195180032,-0.153343680,0.396832590,10.015688900,-0.043454760,-0.021691620,-0.077542660
1640841452197350144,-0.353386010,0.458312180,10.623719220,0.010308620,-0.082945830,-0.046485660
1640841452199339776,0.001715910,0.617185350,9.167281150,0.009228290,-0.008039180,-0.038746000
1640841452204550144,-0.137634650,0.253315720,9.585444450,-0.058689720,-0.009389220,-0.047042980
1640841452205189888,-0.006938500,0.412106870,10.104504590,-0.078777980,0.052376100,-0.023722650
1640841452207330048,0.175392760,0.551533160,9.672964100,-0.096321100,0.023999810,-0.050072370
1640841452209410048,0.195023970,0.209588590,10.266333580,-0.096395610,-0.039479140,-0.027155880
1640841452212349952,0.285986240,0.177530910,9.898859020,-0.032372780,0.021409990,-0.034567720
1640841452214340096,0.252869250,-0.232549460,9.350841520,0.000885130,0.008229910,-0.058494510
1640841452217499904,0.088816260,-0.282221140,10.002996440,0.009833280,0.001654030,-0.023943190
1640841452219489792,-0.087908170,-0.117392670,9.632995610,-0.059174000,0.070801380,-0.031064450
1640841452222359808,-0.003702530,-0.427601490,9.624769210,-0.098733630,0.000433620,-0.025549540
1640841452224300032,-0.361391540,-0.186204060,10.381891250,0.002139810,-0.006525220,-0.027526920
1640841452228349952,-0.211515160,-0.080864330,9.240124700,0.055821230,0.014217200,-0.080355990
1640841452229319936,0.004000940,0.102473010,9.432324410,0.058145830,-0.004383920,-0.049114230
1640841452232339968,-0.212985720,0.381536930,10.063302990,-0.006474560,0.131715830,-0.038278110
1640841452234520064,0.218849970,0.108383200,9.625457760,-0.059212750,0.045132630,-0.040626530
1640841452237599744,-0.044062590,0.097787110,10.562782290,0.052587680,-0.047531720,-0.001421570
1640841452239349760,-0.042650760,0.015665720,9.266233440,0.096982720,0.025314090,-0.036872930
1640841452242419968,0.108628120,-0.247717770,9.115568160,0.068692890,-0.015871230,-0.048880290
1640841452245410048,-0.459542630,-0.237559040,10.292796130,0.061564150,0.079546870,-0.039428480
1640841452247350016,-0.056176010,-0.498714950,9.518815990,0.049810110,0.054052480,-0.057454410
1640841452249719808,-0.284985070,-0.218275100,10.526642800,0.122645500,-0.036773090,-0.033323470
1640841452252349952,-0.506318570,0.310176760,9.821496960,0.080496070,0.008514520,-0.054538250
1640841452254690048,-0.111563420,0.425907370,9.061161990,0.011236970,-0.037769980,-0.049175310
1640841452257339904,-0.537605460,0.512241480,10.291014670,0.054565060,0.028951460,-0.038491180
1640841452259379968,-0.215453650,0.531333800,9.693887710,0.114278500,0.021465120,-0.062340500
1640841452262329856,-0.080151500,0.676531790,9.983983040,0.161275280,-0.065295400,-0.034017860
1640841452264309760,-0.206763120,0.808641430,10.003082280,0.032779580,0.014130770,-0.034815070
1640841452267569920,0.171272410,0.706681070,9.616264340,-0.089201340,-0.014083090,-0.030517580
1640841452269369856,-0.059927920,0.328260300,10.380702970,-0.015498700,-0.033962730,-0.022570790
1640841452272379904,0.024160810,0.139232620,9.711414340,0.087784230,-0.004914400,-0.077751280
1640841452274339840,0.070443610,0.393214170,9.767731670,0.120222580,-0.049528480,-0.063519180
1640841452277390080,-0.247648020,0.405151640,10.006351470,-0.027674440,-0.004667040,-0.035437940
1640841452279539712,0.055862210,0.395036430,9.427454950,-0.145262490,-0.016644600,-0.022168460
1640841452282919936,-0.173910890,0.285176460,10.272216800,-0.052110850,-0.010113420,-0.024856630
1640841452284449792,-0.195814710,0.351578680,9.945936200,0.027963520,0.010092550,-0.055342920
1640841452287749888,-0.057722870,0.647602200,9.743905070,0.048397490,-0.082394480,-0.048008560
1640841452289339904,-0.220440980,0.403939550,9.995082860,-0.056675090,0.011469430,-0.028139360
1640841452292399872,0.334842560,0.184508590,9.129891400,-0.113376980,0.042125580,-0.018250940
1640841452294859776,0.164522630,0.036668930,10.158485410,-0.021448730,-0.003904100,-0.020492080
1640841452297740032,0.270044620,0.057858540,9.813470840,-0.002355870,0.046215950,-0.033037360
1640841452299409920,0.475157050,0.156481390,9.338490490,-0.015757980,-0.032021110,-0.019793210
1640841452302419968,-0.078659470,-0.210707130,10.275988580,-0.047515330,0.002905730,-0.030127170
1640841452304339968,0.178245830,-0.376381190,9.253067970,-0.023901460,0.053240370,-0.046364970
1640841452307319808,-0.018074960,-0.186634960,9.621392250,0.072163350,-0.009356440,-0.047904260
1640841452309429760,-0.319375690,0.065937060,10.122867580,0.012418630,0.047399110,-0.039827830
1640841452312379904,0.014747820,0.298703130,9.339385990,-0.053602470,0.030370060,-0.006063280
1640841452314759936,-0.379707100,0.025990370,10.202554700,-0.016130510,-0.015163420,-0.015769900
1640841452317369856,-0.282946970,-0.101967680,9.883639340,0.086243440,0.011345740,-0.032550100
1640841452319439872,0.005013370,0.022771860,8.978596690,0.155977920,0.008107720,-0.041197240
1640841452322340096,-0.177671060,0.047645830,10.017570500,0.039419530,0.050978370,-0.053669520
1640841452324329728,0.119111860,0.112069330,9.941232680,-0.029915570,0.089108940,-0.016850230
1640841452327489792,0.140008780,-0.041324030,9.789989470,0.030677020,-0.030191240,-0.034335260
1640841452329629952,-0.144450920,-0.066616000,10.384132390,0.117450960,-0.050009790,-0.046980370
1640841452332389888,-0.086680290,0.287592050,8.968499180,0.142383580,0.031912330,-0.045819580
1640841452334339840,-0.344385590,0.109132950,9.728206630,0.050590930,-0.037711860,-0.048089020
1640841452337410048,-0.383187410,0.245892960,10.325946810,0.037591160,0.060959160,-0.011304020
1640841452339360000,0.020750080,0.382770720,9.375813480,0.061547760,0.026850410,-0.025746230
1640841452342399744,-0.239326430,0.416629170,10.737503050,0.072546300,-0.045695900,-0.029297170
1640841452346439936,-0.128718150,0.906578420,9.668125150,0.055927050,0.027659540,-0.021472580
1640841452347679744,0.030941950,0.494552880,9.196123120,0.003255900,-0.066304210,-0.050844260
1640841452349429760,-0.275740240,0.354672700,10.546278950,0.060592600,0.008180740,-0.015801190
1640841452352560128,0.013876010,0.503226940,9.320352550,0.087541340,0.045347220,-0.041386490
1640841452354339840,0.073147170,0.371100780,9.918433190,0.011645260,-0.075443070,-0.030806660
1640841452357299968,-0.003027740,0.829521000,10.059656140,-0.069789600,0.052541510,0.004933770
1640841452359429888,0.323426310,0.363526820,9.431841850,-0.099933150,0.038816040,-0.029522180
1640841452363510016,-0.108213040,0.066598340,10.819708820,0.043472650,-0.045928360,-0.020499530
1640841452365289984,-0.246662140,0.335275320,9.721414570,0.124147560,-0.031346090,-0.041845440
1640841452367339776,0.076270290,0.039425980,8.865337370,0.012247260,-0.064159920,-0.032877910
1640841452369679872,-0.161371170,0.242352560,9.847860340,-0.095050040,0.073607270,0.023938720
1640841452372310016,0.108201850,0.064862270,9.710904120,-0.113989410,0.117483740,-0.007981060
1640841452374339840,0.160962910,-0.062470090,10.557299610,0.028292830,-0.041262810,-0.014495850
1640841452377529856,0.045993010,0.425186400,9.897671700,0.105486830,-0.024111570,-0.026722260
1640841452380019968,0.339877370,0.198413390,8.961014750,0.007155540,0.001576540,-0.037515160
1640841452383319808,-0.022946320,0.090431200,9.858007430,-0.047203910,0.066463660,0.001484160
1640841452384310016,-0.001732620,-0.027972090,9.543612480,-0.033457580,0.062958900,-0.028610230
1640841452387709952,0.122612820,-0.127012610,9.914008140,0.051827730,-0.024205450,-0.025510790
1640841452389319936,-0.139095800,0.177322570,9.815433500,0.067208710,0.060057640,-0.015549360
1640841452392419840,-0.162021440,-0.023375690,9.693576810,-0.007094440,0.011587140,-0.043390700
1640841452394649856,-0.431903450,-0.176919040,10.278944970,0.027504570,-0.004012880,-0.031307340
1640841452397590016,-0.167306330,-0.191935350,9.151728630,0.081521280,0.034958120,-0.047528750
1640841452399389952,-0.030049980,0.019935580,9.630373950,0.106714660,0.029285250,-0.033275780
1640841452402309888,-0.138140430,0.428712840,10.022665980,0.037179890,0.103577970,-0.003860890
1640841452404679936,0.139781800,0.435503100,9.646251680,-0.052823140,-0.002878900,-0.017230210
1640841452407349760,-0.034297010,0.325324570,10.282895090,0.036519770,-0.037762520,-0.006987150
1640841452413319936,0.007491450,0.269476800,9.492754940,0.106377900,0.052431230,-0.047861040
1640841452414330112,-0.163782790,0.379898910,9.820281980,0.114881990,-0.002534690,-0.054381790
1640841452414889728,-0.481524320,0.545745670,10.325815200,0.025095050,0.019562250,-0.033463540
1640841452417420032,-0.064728160,0.485159100,9.357005120,-0.094623870,0.008971990,-0.016531350
1640841452419699968,-0.146670190,0.383704900,9.959805490,-0.020888440,0.002928080,-0.012069940
1640841452422329856,-0.255744810,0.391258240,10.134664540,0.042647130,0.051680210,-0.037719310
1640841452424649984,-0.082869480,0.497693330,9.771466260,0.067450110,-0.028032060,-0.038766860
1640841452427429888,-0.242390530,0.382717460,10.066267970,0.011330840,-0.061441960,-0.004948680
1640841452429989888,0.050459990,0.172683950,9.629112240,-0.070717930,0.037051740,-0.007903580
1640841452432379904,0.200068460,0.319398080,9.531238560,-0.023423130,0.039996210,-0.008885560
1640841452434340096,-0.049404080,0.504736420,10.420246120,-0.028043980,-0.010465090,-0.034777810
1640841452437359872,0.175534310,0.640596090,9.779275890,-0.054840740,0.007340310,-0.015318390
1640841452439399936,0.079127900,0.419636340,9.442715640,-0.040395560,-0.037869810,-0.008663540
1640841452442540032,-0.295900550,0.085792450,10.311222080,-0.007410350,-0.014755130,-0.019052630
1640841452444349952,0.051544490,0.191604080,9.090518950,0.037382550,0.044898690,-0.013452770
1640841452447369728,-0.021599600,0.173147070,9.654513360,-0.061136500,-0.007803740,-0.019365550
1640841452449449984,-0.049072070,0.202423210,10.387340550,-0.123587240,0.096574430,0.021304190
1640841452452649728,0.224016730,-0.069049570,9.450498580,-0.069822380,0.027318300,-0.001776220
1640841452454370048,-0.173502760,-0.420277390,10.580065730,0.067742180,-0.106258700,-0.020016730
1640841452457629952,-0.006228660,0.004129180,9.109758380,0.112749660,0.026950240,-0.017969310
1640841452459460096,0.130077590,-0.050451060,8.701594350,-0.040411950,0.019577140,-0.040419390
1640841452462739968,-0.171604540,0.002198630,10.611881260,-0.111810860,0.080315780,0.007456540
1640841452464329984,0.198005350,0.264026910,9.665060040,-0.032730400,0.087776780,-0.012491650
1640841452467340032,0.084344040,0.139206320,10.297254560,0.073365870,-0.089690090,-0.030854350
1640841452469709824,-0.176537480,0.622358200,9.871220590,0.092443820,0.013704600,-0.005112590
1640841452472420096,0.028673420,0.369892980,8.704623220,-0.039096180,0.033190850,-0.040042410
1640841452474350080,-0.346055540,0.036017660,10.382459640,-0.028437380,0.004948680,0.004117190
1640841452477389824,-0.225020200,0.230808390,9.694538120,0.044772030,0.064747040,-0.008854270
1640841452479589888,0.082791200,0.117519830,9.574390410,0.032703580,-0.038298960,-0.035475190
1640841452482400000,-0.317251830,0.570749880,10.414561270,-0.019180770,0.030334300,-0.002154710
1640841452484409856,-0.034406370,0.527109270,9.527226450,-0.088888410,0.022752580,-0.038424140
1640841452487449856,-0.185497000,0.186445640,10.375267030,-0.011378530,-0.063852970,-0.026808680
1640841452489799936,-0.261941250,0.598991450,9.745924000,0.069718060,0.006313620,-0.026461490
1640841452492419840,0.029696770,0.642092530,9.331926350,-0.017394130,-0.016741450,-0.026856370
1640841452494449920,-0.151322110,0.846882820,10.232016560,-0.127898160,0.028745830,0.035744910
1640841452497329920,0.055906400,0.668068470,9.811989780,-0.164821760,0.023852290,0.016726560
1640841452499369984,0.016165230,0.299701090,10.451502800,-0.058767200,-0.057347120,-0.018374620
1640841452502769920,-0.124305810,0.507274270,9.948889730,0.016182660,-0.024959450,-0.019781290
1640841452504359936,0.056415260,0.486146420,9.355137830,-0.088351970,-0.054378810,-0.021836160
1640841452507409920,-0.018328390,0.436454090,10.041890140,-0.185036660,0.032937530,0.025716430
1640841452511979776,0.185563340,0.265778090,9.614943500,-0.213840620,0.076806550,0.018711390
1640841452512579840,0.119674740,0.212866810,10.226182940,-0.109303010,-0.043128430,0.001153350
1640841452514339840,-0.054427740,0.401681390,10.002760890,-0.054873520,-0.022232530,0.007498260
1640841452517400064,0.169580560,0.184030760,9.073324200,-0.131991510,-0.009830300,0.006306170
1640841452519379968,-0.125603330,0.010433640,10.114957810,-0.148604810,0.003732740,0.017727910
1640841452522929920,0.083434220,-0.126201510,9.720206260,-0.147323360,0.080050540,0.013317170
1640841452524369920,0.341787670,-0.084176820,9.646710400,-0.096336000,0.006021560,0.005166230
1640841452527510016,-0.036705550,0.151701780,10.391301160,-0.095430010,0.012907380,0.016950070
1640841452529379840,0.173991980,-0.037590810,9.579177860,-0.161485370,0.026334830,0.011986490
1640841452532369920,-0.058609570,-0.289077700,9.759372710,-0.072160370,-0.027577580,0.007767980
1640841452534390016,-0.236025960,-0.182159600,9.807853700,-0.019185240,0.007937850,-0.014035400
1640841452537629952,0.126943530,0.138384130,9.102652550,-0.059449670,0.078429290,0.000438090
1640841452539709952,-0.097744110,0.376747190,10.028008460,-0.151747470,0.056685510,0.023166840
1640841452542369792,-0.085888820,0.230614840,10.628963470,-0.177229910,0.028285390,0.024013220
1640841452544979712,0.032779400,0.063863540,9.656759260,-0.022263820,-0.009599330,0.021953880
1640841452547340032,-0.241638380,0.029258790,9.759675980,0.050911310,-0.073775650,-0.015680490
1640841452549679872,-0.242636050,0.211461960,9.709944730,-0.033628940,0.085212300,-0.006015600
1640841452552480000,-0.117207450,0.321725900,9.359528540,-0.165507200,0.059661270,0.007796290
1640841452554489856,-0.241309640,0.153685500,10.919647220,-0.186178060,-0.036847580,0.018206240
1640841452557319936,0.202927040,0.304479780,9.563305850,-0.050964950,0.069306800,0.027389820
1640841452559459840,0.154403090,0.299633650,9.743457790,-0.007745620,-0.046290450,-0.013004240
1640841452562340096,-0.291743520,0.422267850,10.781067850,-0.052788850,0.027756390,0.028559570
1640841452564349952,0.104230250,0.322991460,8.938638690,-0.142806750,0.013627110,0.036934010
1640841452567369984,-0.129576120,-0.169823330,10.406104090,-0.133629140,-0.074255470,0.047746310
1640841452569489920,-0.080450590,0.198371620,9.836236000,-0.035198040,0.094532980,0.043617200
1640841452572659968,0.195740770,0.472208200,9.118698120,-0.088839230,-0.025543570,-0.014317040
1640841452574369792,-0.272452440,0.607142390,10.805366520,-0.164920090,-0.015184280,0.044010580
1640841452577400064,0.110113580,0.574211660,9.339890480,-0.174763810,0.073903800,0.035189100
1640841452579389696,-0.022193340,-0.097303090,10.204935070,-0.093412410,-0.073105100,0.008289520
1640841452582459904,-0.307208120,0.195508750,10.198547360,0.011681020,-0.001843270,0.038467350
1640841452584549888,0.324671060,0.221384570,8.493717190,-0.106890510,0.024595860,0.014925000
1640841452587399936,0.077355340,-0.006882810,10.302485470,-0.219696780,0.050172210,0.073233250
1640841452589560064,0.072649470,-0.070159170,10.231156350,-0.192204120,0.116434720,0.062985730
1640841452592429824,0.195970670,-0.640450120,10.095026970,-0.031530860,-0.072588030,0.014638900
1640841452595010048,-0.161028580,-0.357719660,10.016414640,0.097186860,-0.074258440,0.033800300
1640841452597319936,0.091849890,-0.031579720,8.514835360,-0.058212880,0.054334120,0.007651750
1640841452599379968,-0.089971200,-0.193362410,9.955072400,-0.197696730,0.080738960,0.044205780
1640841452602429952,-0.205256490,-0.005616260,10.496164320,-0.141257060,0.075694920,0.053937740
1640841452604659968,0.089140130,-0.016830610,9.938165660,0.016574570,-0.067505260,0.021521750
1640841452607360000,-0.182251780,0.252703910,9.815816880,0.097116830,-0.043794520,0.037145610
1640841452609419776,-0.160523940,0.486750390,9.114575390,-0.047983220,0.042198600,0.023850800
1640841452612409856,-0.252542700,0.007312950,9.956383710,-0.124371050,0.020782650,0.040496890
1640841452614359808,-0.129612540,-0.115873420,10.019715310,-0.052140650,0.043278930,0.051559510
1640841452617609984,0.169343050,0.053025760,9.869676590,0.035423040,-0.003772970,0.019599500
1640841452619439872,-0.030729100,0.155980240,10.296370510,0.020551690,0.028824810,0.030568250
1640841452622799872,0.024396280,0.383754310,9.709386830,-0.091688330,0.000506640,0.031474240
1640841452624379904,-0.141154180,0.074756550,10.067762370,-0.091247270,-0.038123140,0.040051350
1640841452628249856,-0.127182720,0.041148850,9.661522870,0.010800360,0.025002650,0.035047530
1640841452629429760,-0.138371690,0.383695780,9.700213430,0.034882130,-0.006340450,0.026655200
1640841452632329984,-0.275186030,0.615873930,10.168968200,-0.054003300,0.019370020,0.050520900
1640841452634449920,0.049995840,0.701497320,9.764703750,-0.176292660,0.019212070,0.059619560
1640841452637349888,-0.023752830,0.335174620,10.412705420,-0.115507850,0.006501380,0.044822700
1640841452639459840,-0.080234730,0.338202030,10.285905840,0.016495590,0.002127890,0.021347400
1640841452642370048,-0.005413050,0.419774290,9.678869250,0.007493800,-0.056506700,0.008207560
1640841452645339904,-0.021532820,0.371475580,9.473733900,-0.102226440,-0.009395180,0.051559510
1640841452647389952,0.133599030,0.318978280,9.640419010,-0.213237140,0.059415410,0.055181990
1640841452649649920,0.094208640,0.021919650,10.252229690,-0.149120410,0.063481930,0.056712320
1640841452652509952,-0.058885180,0.042049950,10.381275180,-0.013566020,-0.025969750,0.035455820
1640841452654419968,-0.056901620,0.100328170,10.194453240,-0.015720730,-0.066334010,0.020360950
1640841452657309952,-0.060940080,0.057260340,9.298520090,-0.096540160,0.027231880,0.047376760
1640841452659469824,-0.053221690,-0.028947990,9.557756420,-0.160554070,0.024352970,0.043389200
1640841452662319872,-0.026263130,-0.125741390,10.162978170,-0.117133550,0.074434280,0.037111340
1640841452664439808,0.239862380,0.220519840,9.322883610,-0.031921270,0.023408240,0.040604170
1640841452667330048,-0.059286430,0.185458260,10.426370620,-0.058096640,-0.052803760,0.031606850
1640841452669410048,-0.061011930,-0.041968490,9.680586810,-0.083407770,0.063805280,0.060085960
1640841452672699904,0.108055380,-0.364099650,9.341274260,-0.045081970,-0.032307210,0.025562950
1640841452674330112,-0.334091540,-0.482371030,10.683726310,0.019335740,0.036281350,0.028055900
1640841452678370048,0.130937580,-0.023293650,8.810556410,-0.010083620,0.092820820,0.031839310
1640841452679399936,-0.130040380,-0.084072550,10.273794170,-0.097498310,-0.053879620,0.038307900
1640841452684300032,-0.291202070,-0.131829470,10.239425660,-0.065334140,0.087729100,0.051574410
1640841452684969984,0.129789070,-0.170879220,8.842224120,0.048404940,-0.045941780,0.005419550
1640841452687340032,-0.481085900,-0.163868310,10.681137080,0.128924850,-0.048397490,0.009278950
1640841452689859840,0.026934730,0.389000950,8.810761450,0.022682550,0.126360370,0.023698810
1640841452692399872,0.024300320,0.144941060,10.032413480,-0.098280610,-0.020118060,0.036896770
1640841452695209984,-0.381507930,-0.010917440,11.225288390,-0.032542650,0.068627310,0.066260990
1640841452697440000,0.255502400,0.125058710,8.853677750,0.093391550,-0.042539830,0.004133580
1640841452699470080,-0.394800780,-0.029742350,10.287681580,0.127272310,-0.114133960,0.005351010
1640841452702319872,-0.270539280,0.399758490,9.176159860,0.009931620,0.107856090,0.018821650
1640841452704380160,0.033534380,0.184635640,9.510609630,-0.087517500,-0.018094480,0.012275580
1640841452707299840,-0.421029060,0.099374470,11.312295910,-0.005814430,-0.006103520,0.050134960
1640841452709479936,0.281268270,0.549019580,9.238503460,0.064815580,0.030164430,0.008125600
1640841452712319744,-0.134091940,0.528869150,10.335566520,0.034445520,-0.087046630,0.003404920
1640841452714889984,-0.383601310,0.697436810,10.208721160,-0.048463050,0.018022960,0.049708780
1640841452717479936,0.210753500,0.288346770,8.986913680,-0.066158170,-0.033885240,0.023461880
1640841452719369984,-0.190694120,-0.001974480,10.413791660,0.037699930,-0.015307960,0.025852030
1640841452722579968,0.170139630,0.525209780,9.444029810,0.036098060,0.073856110,0.005659460
1640841452724359936,0.237849190,0.506459890,9.907022480,-0.092811900,-0.023452940,0.004787740
1640841452728279808,-0.062994880,0.389229570,10.540083890,-0.152572960,0.011630360,0.052566820
1640841452729959936,0.132124220,0.133251790,9.663532260,-0.067669150,-0.019235910,0.014224650
1640841452732329728,-0.208548170,-0.255715220,10.079690930,0.083000960,-0.063602630,0.013658400
1640841452734409728,-0.104781530,0.075098470,9.259653090,0.068767370,0.021213290,0.030887130
1640841452737360128,0.137917590,0.133265380,9.334203720,-0.098185250,0.056339800,0.040921570
1640841452739470080,0.048230790,-0.149304390,10.350992200,-0.171543670,0.100006160,0.065422060
1640841452745139712,0.185759450,-0.072583380,10.155291560,-0.051717460,-0.001668930,0.028033560
1640841452747979776,-0.041524560,-0.198407290,10.139174460,0.115665820,-0.094011430,-0.006383660
1640841452749959936,0.089091910,0.117232990,8.945022580,0.087140490,-0.002875920,-0.013254580
1640841452750550016,0.013192370,0.255576430,9.256922720,-0.059592730,0.066705060,0.002819300
1640841452752310016,-0.117806280,-0.125647430,10.339162830,-0.106231850,0.115060800,0.031578530
1640841452754739968,0.090331750,0.021546080,10.155941960,0.003962220,0.005187090,0.027595460
1640841452757380096,-0.213632490,0.003504440,10.137629510,0.111021110,-0.058181580,0.020939110
1640841452763520000,-0.115987590,-0.057137500,9.210496900,0.064207620,0.012438000,0.017981230
1640841452764169984,-0.306273490,-0.143076780,9.580795290,0.002664330,0.018721820,0.015528500
1640841452764559872,-0.258695930,-0.390169050,9.960850720,0.029180950,0.057344140,0.014626980
1640841452767350016,0.092625190,-0.083660750,9.884944920,0.075317920,0.020471220,0.005562600
1640841452769430016,-0.164196010,0.242853540,10.312499050,0.054998710,0.017750260,0.002540650
1640841452772389888,-0.000478450,0.481366540,9.814373970,-0.013139850,-0.012160840,0.003315510
1640841452774339840,-0.121159570,0.498890790,9.986541750,-0.000524520,-0.030559300,0.003798310
1640841452778519808,-0.184408610,0.422099800,9.599998470,0.081492950,0.002329050,-0.007070600
1640841452780359936,0.009314260,0.622223850,9.608147620,0.081852080,0.009083750,0.004915890
1640841452782409984,-0.203198540,0.714683290,10.064249990,-0.013853610,0.049203650,0.028829280
1640841452784440064,0.063448550,0.641342700,9.857924460,-0.107684730,0.008796160,0.049227480
1640841452787590144,-0.014249190,0.277831470,10.441785810,-0.068224970,-0.015734140,0.029709940
1640841452789399808,-0.179073080,0.114756780,9.821011540,0.049200650,0.006477540,0.004322830
1640841452792519680,-0.149518590,0.232652130,9.720780370,0.061847270,-0.068403780,-0.009793040
1640841452794519808,-0.247022050,0.204191400,9.799243930,-0.061316800,0.029632450,0.015920400
1640841452797390080,0.248618050,0.160417120,9.137138370,-0.140078380,0.059016050,0.034788250
1640841452799419904,0.049181200,0.063982200,10.775786400,-0.083673010,0.036568940,0.018845500
1640841452802340096,0.036440420,0.234702360,9.987942700,0.009940570,0.041073560,0.007678570
1640841452804709888,0.208248760,0.375289110,9.485308650,0.012269620,-0.128944220,0.008574130
1640841452807350016,-0.234653500,0.114619190,10.118496890,-0.047445300,0.021781030,0.023069980
1640841452809679872,0.227310840,-0.021126830,8.690181730,-0.069752340,0.098617380,0.013081730
1640841452814040064,-0.116260680,-0.074379880,10.647720340,-0.024099650,-0.017137830,-0.005003810
1640841452814909952,-0.086050970,0.164014980,10.041289330,-0.020517410,0.093799810,0.015826520
1640841452818739968,0.326125950,0.145937610,9.071166990,-0.061251220,-0.039711590,0.012382860
1640841452819419904,-0.458205490,-0.289281550,10.976472850,-0.035183140,-0.013872980,0.008252260
1640841452822360064,0.019483210,-0.264766040,8.662414550,0.041167430,0.062215320,-0.007067620
1640841452824420096,-0.090947550,-0.291657780,9.728899000,0.079093870,-0.068612400,-0.020824370
1640841452827549952,-0.386001440,0.038769550,10.324006080,-0.004349650,0.137530280,0.014188890
1640841452829530112,0.251096550,0.194766550,9.102322580,-0.094792250,0.022667650,0.006693600
1640841452832339968,-0.398429480,-0.035282100,11.239322660,-0.010763110,-0.081808870,0.002293290
1640841452834359808,-0.071046840,0.200509890,9.208245280,0.099851210,0.049914420,-0.022722780
1640841452837359872,-0.000514600,0.280402330,9.305894850,0.109584610,-0.065548730,-0.035744900
1640841452839439872,-0.616818670,0.321417150,10.769494060,0.003956260,0.058780610,0.003802780
1640841452842449920,0.206387790,0.514595270,9.019737240,-0.091464800,0.046236820,0.014103950
1640841452844409856,-0.154819470,0.217772450,10.770154000,-0.033234060,-0.075002010,0.019587580
1640841452847520000,-0.128763600,0.380331460,10.065761570,0.038802620,0.061954560,0.003889200
1640841452849469952,0.166506930,0.466406290,9.205254550,0.034676490,-0.052352250,-0.030201680
1640841452852339968,-0.490859150,0.109368590,10.750274660,-0.007496780,-0.026634340,0.008775290
1640841452854409984,0.039280840,0.151114780,9.295594220,-0.034643710,0.037977100,0.004711750
1640841452857369856,0.012156420,0.002016790,9.935770990,-0.009763240,-0.052915520,-0.010113420
1640841452859429888,-0.225726690,0.345453110,10.219594960,-0.030083950,0.029787420,-0.006707010
1640841452862360064,0.188032780,0.779437480,9.296852110,-0.089645370,-0.005327170,-0.018657740
1640841452864399872,-0.184619930,0.309113140,10.575173380,-0.088027130,-0.041905050,0.000320370
1640841452867360000,0.055201080,0.292324420,9.715929990,0.001931190,0.028131900,-0.001241270
1640841452869419776,0.099888670,0.215293120,9.598300930,0.054961450,-0.034163890,-0.022237000
1640841452872659968,0.008718560,0.225792120,9.823385240,-0.035509470,0.026893610,0.016224380
1640841452875180032,0.336081150,0.457146910,9.386081700,-0.158955170,0.055621570,0.026147070
1640841452877420032,0.043224210,-0.240558590,10.363281250,-0.141422450,0.024712090,0.017625090
1640841452879469824,0.091560360,-0.463328690,9.959243770,0.039309260,0.005608800,-0.003649290
1640841452882400000,-0.035447920,-0.339484070,9.561104770,0.158244370,-0.052972150,-0.037691000
1640841452884359936,-0.272820890,-0.258717600,9.504977230,0.019636750,0.040261450,-0.025381150
1640841452887379968,-0.136567970,0.137634310,9.446976660,-0.158475310,0.060179830,0.002510850
1640841452890329856,-0.360028680,-0.125723480,10.407102580,-0.138750670,0.036627060,-0.001640620
1640841452892410112,-0.056339830,-0.164771800,9.991377830,0.071658190,0.004409250,-0.017607210
1640841452894419968,-0.157777790,0.212661130,9.745844840,0.194412480,-0.041924420,-0.046461820
1640841452897349888,-0.226048250,0.144585820,9.514297490,0.065855680,0.028435890,-0.035184620
1640841452899449856,0.004665670,0.058740770,9.561979290,-0.077773640,0.036257510,0.007343290
1640841452902400000,-0.155134420,-0.178715800,10.213584900,-0.044652820,0.024363400,0.011612480
1640841452904429824,0.193318020,-0.163356840,9.852229120,0.080356000,0.003823640,-0.002640490
1640841452907569920,-0.007480610,0.158448340,9.975333210,0.117424140,-0.001093750,-0.024528800
1640841452909479936,-0.279377610,0.220898540,9.937550540,0.029137730,0.008049610,-0.024120510
1640841452912400128,-0.191269100,0.082359420,9.931221960,-0.009664890,-0.027333200,-0.013996660
1640841452914379776,-0.420189830,0.075930730,9.855381970,0.053839390,-0.019949670,-0.019790240
1640841452917369856,-0.147248240,0.355025290,9.508975980,0.079059600,-0.002896790,-0.031711160
1640841452919430144,-0.210395620,0.759493890,10.037879940,0.005216900,0.028063360,-0.023162370
1640841452922329856,-0.219472210,0.716705260,10.085291860,-0.072787690,0.019221010,-0.010035930
1640841452924389888,-0.050345020,0.445998130,10.259604450,-0.018538530,-0.071993470,-0.006920100
1640841452928079872,-0.116964160,0.270975440,9.839324950,0.084131960,-0.028859080,-0.021459160
1640841452929479936,0.081560690,0.274406730,9.133874890,0.067067150,-0.011630360,-0.025637450
1640841452932420096,0.004542970,0.414972010,10.128156660,-0.055383150,0.011861330,-0.008198620
1640841452934399744,0.113384240,0.156021600,9.751640320,-0.139172390,0.078780940,0.014305110
1640841452937419776,0.160080690,-0.085632980,10.306072240,-0.049102310,-0.064972050,-0.006349390
1640841452939659776,-0.235469980,-0.105798100,10.473702430,0.085736810,-0.039041050,-0.026404860
1640841452942659840,0.159290060,-0.003765040,8.510441780,0.073060420,-0.030078000,-0.038079920
1640841452944419840,-0.212718290,0.092109490,9.998351100,-0.037665670,-0.018005070,-0.018331410
1640841452947379712,-0.095807560,-0.037266860,9.743538860,-0.113880650,0.142367230,0.001502040
1640841452949440000,0.234922590,-0.057593520,9.850963590,-0.022765990,-0.040386620,-0.025178490
1640841452952309760,-0.329446050,0.060640860,11.045306210,0.106903910,-0.054983800,-0.024598840
1640841452954459904,0.333788900,0.292729020,8.249674800,0.051584840,0.021319090,-0.030612950
1640841452957559808,0.005521560,0.161137920,9.746484760,-0.041979560,-0.031174720,-0.030647220
1640841452959439872,-0.202927320,-0.113298890,10.307508470,-0.045192250,0.160427390,-0.000287590
1640841452962299904,0.409471090,-0.229742290,9.186994550,0.063748680,-0.018581750,-0.023293500
1640841452964359936,-0.355794220,-0.219795390,10.923285480,0.138987620,-0.076434020,-0.015555320
1640841452967330048,0.063158500,0.069571800,8.753885270,0.021983680,0.074960290,-0.018395480
1640841452969539840,-0.049920890,-0.185500250,9.540574070,-0.037035350,-0.028122960,-0.027398770
1640841452972319744,-0.612196980,-0.376953450,10.890315060,0.049762430,0.071251390,-0.017957390
1640841452974409728,0.210111020,-0.000594740,8.927490230,0.153259950,0.005140900,-0.037918980
1640841452978030080,-0.354566900,0.225226540,10.508651730,0.136883570,-0.068925320,-0.024063890
1640841452979480064,-0.221755920,0.688589100,9.649870870,-0.031605360,0.092518310,-0.000014900
1640841452982380032,-0.012244610,0.549016420,9.514649390,-0.069727010,-0.030471390,-0.012606390
1640841452984429824,-0.525578020,0.207562630,10.799510960,0.068181750,-0.037322940,-0.016345090
1640841452987559936,0.124413860,0.542361320,9.005997660,0.164748740,0.024600330,-0.034804650
1640841452989449984,-0.137470480,0.445643810,9.940394400,0.091564660,-0.024747850,-0.037020440
1640841452992389888,-0.235405820,0.499616560,10.261985780,-0.083410750,0.041629370,0.007809700
1640841452995119872,0.247009400,0.435139300,9.447698590,-0.124955190,-0.019437070,-0.003956260
1640841452997469952,-0.116665360,-0.117795000,10.512240410,0.005704160,-0.021301210,-0.017789010
1640841452999429888,0.029129060,0.212412240,9.747838970,0.134141760,0.002911690,-0.034487250
1640841453003229952,-0.095552510,0.256451610,9.622965810,0.074604150,-0.068731610,-0.041642790
1640841453004920064,-0.062074080,0.202203510,9.604560850,-0.089648370,0.031068920,0.010050830
1640841453007750144,0.094813150,0.256006690,9.738027570,-0.117994850,0.062599780,0.006403030
1640841453009510144,-0.283686160,-0.023104020,10.718312260,-0.012567640,-0.003367660,-0.022786860
1640841453012450048,-0.016515590,0.330247130,9.706513400,0.085797910,-0.072886060,-0.004281100
1640841453014530048,-0.118939140,0.387472690,9.373642920,0.036998090,-0.043657420,-0.026607520
1640841453017370112,-0.242464290,0.015627430,9.661928180,-0.081472110,0.078885260,-0.009731950
1640841453020160000,-0.415148680,-0.179938510,10.143490790,-0.044785440,0.001685320,-0.023730100
1640841453022369792,-0.946175220,-0.376344770,10.422996520,0.054587420,-0.128751980,-0.052370120
1640841453024669952,-0.785902500,-0.279832240,9.297859190,0.076979410,-0.154456510,-0.043167170
1640841453027699968,-1.073485020,-0.312494220,9.554299350,0.020486110,-0.102050610,-0.061953060
1640841453029440000,-0.789779420,-0.509963870,9.758967400,0.002360340,-0.019660590,-0.058536240
1640841453032329984,-0.114448150,-0.380424830,10.078963280,0.078159570,-0.063516210,-0.064258280
1640841453035099904,0.122029420,-0.084059060,10.370419500,0.130461170,-0.052231550,-0.054331120
1640841453037319936,0.639921310,0.236612280,9.671421050,0.070178510,-0.106938190,-0.038367510
1640841453039769856,0.386780440,0.197855640,9.930524830,0.026617950,-0.161096470,-0.048390040
1640841453044590080,0.271747200,0.141770320,9.129859920,0.074441740,-0.124379990,-0.062152750
1640841453045059840,0.050913900,0.095122990,9.387456890,0.152990190,-0.148825350,-0.077900300
1640841453047369984,-0.604114060,0.194185670,10.127191540,0.146026910,-0.061588000,-0.076144930
1640841453049619968,-0.595172170,0.374178920,10.010496140,0.039108100,-0.118893410,-0.073504460
1640841453052679936,-0.844078540,0.209690470,10.801048280,-0.007139150,-0.181706250,-0.057530410
1640841453054769920,-0.553802610,0.054910010,9.723348620,0.068627310,-0.115673250,-0.062297280
1640841453057440000,-0.198973090,0.060916060,9.731699940,0.166623310,-0.137916210,-0.084324190
1640841453059490048,-0.197321830,0.212897080,10.189751630,0.150643300,-0.074359770,-0.055618580
1640841453062729728,0.446546080,0.370414640,9.281921390,0.039936590,-0.126844630,-0.031033150
1640841453064440064,0.462845980,0.227698640,10.429840090,-0.016391280,-0.153444720,-0.016555190
1640841453067669760,0.428426330,0.297686280,9.756220820,0.042402740,-0.064304480,-0.033192340
1640841453069459968,0.252891150,0.524068300,10.010111810,0.101536500,-0.205142800,-0.073935080
1640841453072349952,-0.284034970,0.639381890,10.540180210,0.071075570,-0.116291660,-0.064505640
1640841453076179968,-0.070119560,0.672259330,8.977955820,0.000511110,-0.104707490,-0.051061810
1640841453078709760,-0.533225300,0.360525430,10.586641310,-0.011329350,-0.169374050,-0.042584540
1640841453079439872,-0.464866580,0.337605390,9.595386510,0.022561850,-0.035203990,-0.030846890
1640841453082530048,-0.164456020,0.287097420,9.341537480,0.018602610,-0.190116470,-0.041909520
1640841453084470016,-0.516410710,-0.042554860,11.043071750,0.014950340,-0.123603650,-0.008137520
1640841453087409920,0.355480190,-0.310871600,8.836703300,0.015604500,-0.048883260,-0.003807250
1640841453090560000,0.374370130,-0.801621380,10.414888380,0.086571300,-0.157168510,-0.006893280
1640841453092619776,0.343472240,-0.527437870,10.368338580,0.133435440,0.021354850,0.004713240
1640841453094519808,0.846666630,-0.061710460,8.824193950,0.040072210,-0.140672940,-0.018016990
1640841453098189824,-0.016547580,-0.069611880,10.654338840,-0.026175380,-0.179892790,0.004121660
1640841453100019968,0.105664950,0.202525320,8.846132280,0.018559400,-0.015911470,-0.028245160
1640841453102350080,-0.350015760,-0.067634850,9.833927150,0.165888680,-0.172191860,-0.064136100
1640841453104409856,-1.047952410,0.238012220,10.726432800,0.238639150,-0.096206380,-0.031365460
1640841453107820032,-0.362804110,0.538456740,8.731768610,0.078701960,-0.096456700,-0.020807980
1640841453109459968,-0.692529440,-0.015159030,10.477356910,-0.035610800,-0.114022190,0.038567180
1640841453112369920,-0.331051500,-0.161563780,10.201822280,0.044019520,-0.026544930,0.041294100
1640841453114650112,0.209478910,-0.573544860,9.689350130,0.246712580,-0.164200380,-0.005900860
1640841453117479936,0.079935220,-0.413538040,10.020935060,0.309503080,-0.154648740,0.000502170
1640841453119539968,0.473335030,0.123587410,9.046706200,0.117689380,-0.067389010,-0.004839900
1640841453122360064,0.305619540,-0.111866680,10.045833590,-0.031287970,-0.080046070,0.017854570
1640841453124460032,0.154263270,0.128739550,10.513156890,0.068497670,-0.110511500,0.033190850
1640841453127499776,-0.038661760,0.403932900,10.130962370,0.238868590,-0.158558770,-0.018602610
1640841453129669888,-0.428974300,0.743624870,9.679960250,0.240753640,-0.142629440,-0.016234820
1640841453132489984,-0.597857240,0.986834230,9.730373380,0.076566640,-0.141294300,0.035153330
1640841453134670080,-0.749087390,0.487075920,10.099384310,0.007522110,-0.079712280,0.050608810
1640841453137399808,-0.260478620,0.193800480,9.546679500,0.101542490,-0.121553260,0.052188340
1640841453139590144,-0.248410630,0.174949910,10.399210930,0.194759680,-0.137346950,0.021274390
1640841453142350080,0.043547360,0.313781050,9.682477000,0.142604110,-0.059361770,0.022605070
1640841453144899840,0.381013630,0.067845090,9.926031110,0.009557610,-0.175866500,0.045767430
1640841453147800064,0.129488650,-0.367665770,10.570515630,0.045977540,-0.103729990,0.073178110
1640841453149469952,0.618175570,-0.351770190,9.124388690,0.170156370,-0.115139780,0.040371720
1640841453152329984,0.209201160,-0.119866220,10.223466870,0.202226650,-0.138224630,0.050249690
1640841453154459904,0.041970320,0.499882820,9.469517710,0.084577500,-0.042654570,0.086189810
1640841453157339904,0.078190970,0.294477550,9.760500910,-0.028717520,-0.160579380,0.071811680
1640841453159629824,-0.415011260,0.105701260,10.483404160,0.078876330,-0.069287440,0.091199600
1640841453162639872,-0.113752280,0.215566610,9.105169300,0.236681120,-0.124503670,0.045393400
1640841453164710144,-0.375701250,0.113617590,10.219608310,0.230713230,-0.142417860,0.050158810
1640841453167480064,-0.035581760,0.451466920,9.074829100,0.067801770,0.021257990,0.102020810
1640841453170400000,0.071061660,-0.269224640,10.079879760,-0.020933150,-0.114810480,0.099532310
1640841453172320000,-0.223301190,-0.823748470,10.856904030,0.156456260,-0.066071760,0.111418980
1640841453174409984,0.379760920,-0.619930920,8.706201550,0.323475960,-0.160588350,0.065335650
1640841453177369856,-0.126326410,-0.596640170,9.976762770,0.293785360,-0.151738490,0.075444570
1640841453180159744,0.113473870,-0.110990020,9.096416470,0.107549120,0.056603550,0.112196800
1640841453182739968,0.161713450,-0.276456830,9.948338510,0.050136450,-0.094915930,0.103528810
1640841453184429824,-0.269824000,-0.147284950,11.017975810,0.234052580,-0.095494110,0.114952040
1640841453187340032,0.099165920,0.327685420,9.246861460,0.349532130,-0.115205370,0.077056900
1640841453189400064,-0.523005600,0.414878280,9.855378150,0.292199880,-0.148773190,0.082547960
1640841453192440064,-0.550183420,0.606547710,9.655000690,0.144280490,-0.056347250,0.123558920
1640841453194870016,-0.332362350,0.199598820,9.725615500,0.130240620,-0.082673130,0.127656770
1640841453197559808,-0.218479990,0.136982830,9.942605020,0.258702040,-0.087809570,0.141769650
1640841453199479808,-0.017874190,0.440979150,10.065366740,0.280240180,-0.102417180,0.113496190
1640841453202569984,-0.079965080,0.372879830,9.980342860,0.180804740,-0.055125360,0.117887560
1640841453204449792,0.075528230,0.136077640,9.757234570,0.136201100,-0.162141040,0.141412020
1640841453207350016,-0.259215530,-0.338378880,10.702116970,0.217990550,-0.146229580,0.136436520
1640841453209469952,0.301147730,-0.066181340,8.544613840,0.298461320,-0.050543250,0.135074570
1640841453212440064,0.034103320,0.248964550,10.116388320,0.228858010,-0.142866370,0.129686310
1640841453215719936,-0.195630390,0.604579030,10.365240100,0.099270050,0.024500490,0.182522800
1640841453217440000,0.390043260,0.473571810,9.131752010,0.072099270,-0.146611050,0.165677070
1640841453219460096,-0.456563800,0.040961630,11.262112620,0.256492230,-0.155916810,0.180046260
1640841453222800128,0.003699090,0.349487630,8.652859690,0.345104960,-0.042514500,0.153811290
1640841453224439808,0.018245170,0.173877480,9.309730530,0.226859780,-0.149869920,0.150640320
1640841453227650048,-0.304298130,0.285292120,10.183392520,0.075630850,0.032302730,0.219948600
1640841453230139904,0.294326870,-0.195295590,9.456840520,0.052954260,-0.028064850,0.188167410
1640841453232369920,-0.153041140,-0.700851560,10.784508710,0.282935830,-0.137259070,0.182364900
1640841453234639872,-0.012473140,-0.325143930,9.362956050,0.401817350,-0.122931620,0.161933930
1640841453237370112,-0.004085750,-0.317664590,8.948517800,0.281994040,-0.098295520,0.151607390
1640841453239470080,-0.043517270,-0.113043290,9.383064270,0.114773240,0.020320720,0.208695260
1640841453242959872,0.054305840,-0.120594460,10.245026590,0.127765540,-0.014419860,0.194178550
1640841453244509952,0.012100130,-0.064725320,10.298381810,0.318743380,-0.057996820,0.188729200
1640841453247539968,0.019629280,0.352292420,9.643513680,0.396594490,-0.156649950,0.175775600
1640841453249479936,-0.476371020,0.335633070,9.836768150,0.292761650,-0.083756450,0.169737640
1640841453252399872,-0.160304370,0.196214510,8.770370480,0.185425580,-0.002276900,0.196658050
1640841453254439936,-0.366534770,-0.354624060,10.530890460,0.246346040,-0.075103350,0.200231400
1640841453257390080,-0.116481300,-0.125024450,9.789438250,0.382711020,0.009788570,0.204481200
1640841453259660032,0.204969660,0.121619180,9.448324200,0.342436130,-0.120390960,0.184451060
1640841453262759936,-0.333230110,0.261597480,10.480627060,0.222837940,-0.042788680,0.222796190
1640841453264379904,0.083817590,0.222286510,9.075058940,0.186781600,-0.073935100,0.214736190
1640841453267379968,-0.360740540,-0.281734020,10.522755620,0.337348880,-0.145471110,0.210350750
1640841453269559808,-0.176699410,0.310795430,9.215779300,0.426942200,-0.012668970,0.208802520
1640841453272349952,-0.096156280,0.665576460,9.607266430,0.299091670,-0.121790170,0.194060820
1640841453275139840,-0.316610690,0.821275230,10.335585590,0.131754590,0.000989440,0.255525110
1640841453277339904,0.264706850,0.664313970,9.233203890,0.116847470,-0.052620480,0.236088070
1640841453279729920,-0.229154020,-0.000286300,10.836807250,0.341761050,-0.134600680,0.222650190
1640841453283479808,0.109752420,0.122457830,9.151358600,0.461967380,-0.044149170,0.222514610
1640841453284969728,0.184400140,0.068912870,9.095228200,0.310058980,-0.099107650,0.223308830
1640841453287369984,-0.030090740,-0.047058380,9.959482190,0.122874980,0.027161840,0.290757420
1640841453289749760,0.303304230,-0.431491490,9.747817040,0.115928050,0.002592800,0.261077310
1640841453292339968,-0.124719910,-0.660743470,10.416164400,0.363159210,-0.094930830,0.248117790
1640841453294459904,-0.133917180,-0.372638880,9.600644110,0.508917930,-0.124636310,0.216826840
1640841453297519872,-0.264465330,-0.188844440,9.188524250,0.383144650,-0.049108270,0.211931780
1640841453299459840,-0.127064030,0.150507210,8.824543950,0.200547290,0.031003360,0.256450470
1640841453302409984,-0.232090830,-0.088523020,10.683067320,0.193780650,-0.020541250,0.246374320
1640841453304839936,0.049565070,0.118279750,9.856313710,0.387747650,0.021667780,0.235572500
1640841453307610112,0.269037250,0.352596430,9.427621840,0.485393490,-0.168259470,0.210315030
1640841453309540096,-0.277746980,0.206546280,10.298799510,0.396227930,-0.002507870,0.224368300
1640841453312310016,0.280487390,0.083503810,8.422285080,0.274224610,0.026921930,0.238651050
1640841453314419968,-0.303699880,-0.626385450,10.937497140,0.335887160,-0.108125830,0.243310660
1640841453317449728,-0.103963670,-0.265677010,9.609088900,0.448209110,0.049860780,0.239719480
1640841453320099840,0.211914090,-0.031513640,9.007032390,0.413732290,-0.091426080,0.204846280
1640841453322350080,-0.583302020,0.135647760,10.865052220,0.336430970,-0.014968220,0.235946510
1640841453324579840,-0.119517530,0.303535940,9.177925110,0.297740190,-0.015309460,0.193472240
1640841453327680000,-0.335184010,-0.101016600,10.076560020,0.424411890,-0.128987450,0.194691120
1640841453329440000,-0.313945290,0.372727570,9.742493630,0.509731590,-0.010558960,0.192396370
1640841453332339968,0.032132010,0.645573560,9.238193510,0.379541550,-0.014284250,0.180366650
1640841453334390016,-0.105517440,0.643269600,10.126201630,0.248181830,-0.011481350,0.239665810
1640841453337619968,0.130183650,0.486594530,10.144354820,0.241930810,-0.026102370,0.227431950
1640841453339769856,0.145289300,-0.002182930,9.999372480,0.410100880,-0.048667200,0.201311750
1640841453342370048,0.165668790,0.020764950,9.467656140,0.515520630,-0.053492200,0.193122070
1640841453344579840,-0.039227910,0.155040290,9.747964860,0.389958920,-0.038424130,0.183203830
1640841453347909888,0.093243550,0.149376030,9.118088720,0.230808540,0.044122330,0.217905630
1640841453349419776,0.073062540,-0.094340720,9.958956720,0.202150640,-0.017721950,0.201070320
1640841453352329984,-0.287366930,-0.117522280,10.619011880,0.391037760,0.018769500,0.185875590
1640841453354619904,0.017039840,0.011955060,9.239483830,0.519891140,-0.082169490,0.151214020
1640841453358059776,-0.355723920,0.020166840,9.828490260,0.439496400,-0.077745330,0.151553780
1640841453359510016,-0.097525700,0.267663510,8.777269360,0.276461270,0.101371110,0.190101560
1640841453364249856,-0.000554660,-0.268928230,10.053725240,0.240540470,0.026904050,0.180663140
1640841453364919808,-0.205461100,-0.118779790,10.546092030,0.429739120,0.007562340,0.176289690
1640841453367300096,0.296672220,0.094947250,8.900847430,0.514458120,-0.099687280,0.138229120
1640841453369669888,-0.028764720,-0.209073980,9.843268390,0.426419140,-0.007489330,0.142836590
1640841453372369920,-0.015291540,-0.094869210,9.254640580,0.349009100,0.103433450,0.144648550
1640841453374439936,-0.105948050,-0.662999870,10.425896640,0.392708210,-0.051784520,0.130520760
1640841453377369856,-0.194930180,-0.334277510,10.064170840,0.505240380,0.006428360,0.145036000
1640841453380239872,0.142325620,0.180906610,8.746840480,0.471036200,-0.033959750,0.117842880
1640841453382429952,-0.393649460,-0.045943930,10.519140240,0.384378490,0.013953450,0.133274500
1640841453384499968,-0.146678160,0.123298370,9.293347360,0.410360100,0.058689710,0.105737160
1640841453387329792,-0.202384310,-0.091860260,10.106801990,0.508201300,-0.129625230,0.071409370
1640841453389580032,-0.318968150,0.281720970,10.082733150,0.564594690,0.059407960,0.106477750
1640841453392299776,0.096705370,0.630338610,8.852728840,0.423865050,0.018599630,0.089685630
1640841453394429952,-0.377226260,0.423548220,11.008655550,0.329321650,-0.037224590,0.119791940
1640841453397420032,0.084852360,0.412616550,9.378206250,0.386403500,0.063310570,0.122110550
1640841453399559936,0.107987990,-0.027074220,9.787465100,0.525410590,-0.094607470,0.071254390
1640841453402390016,-0.359562990,0.141260800,10.590534210,0.571265880,0.026623910,0.099852700
1640841453404460032,0.208810050,0.359287350,8.532090190,0.412483540,0.008641180,0.076854210
1640841453407359744,-0.098328710,0.121076740,10.396989820,0.302653010,-0.057987870,0.107990210
1640841453409600000,0.062391430,0.380823370,9.876456260,0.336794640,0.136856760,0.097981110
1640841453412420096,0.176003220,0.290983440,9.726498600,0.437082350,-0.027011340,0.043781100
1640841453416940032,-0.466090680,0.514566360,10.863965030,0.513413730,-0.061950100,0.073598340
1640841453418629888,-0.019268610,0.644198780,8.586678500,0.396811960,0.014713410,0.056837490
1640841453419549952,-0.002346480,0.194872230,9.421351430,0.314059880,-0.005930660,0.085932020
1640841453422289920,-0.211794020,0.206102340,10.217546460,0.351047610,0.138978690,0.088360930
1640841453424429824,0.282809410,0.133601710,9.521989820,0.385555680,0.024881960,0.035348540
1640841453427459840,0.024033640,0.044269000,10.426892280,0.428891240,-0.044633450,0.060287130
1640841453429509888,0.099288210,-0.065276410,9.384048460,0.377914370,0.053226960,0.024132430
1640841453432519936,0.144541220,-0.592229190,9.396567340,0.393174590,0.017872450,0.018271800
1640841453435569920,-0.278967470,-0.614467320,10.027582170,0.479006800,0.047425930,0.025030970
1640841453437359872,-0.011349460,-0.303943490,9.218004230,0.460855690,0.047089160,-0.007197260
1640841453439429888,-0.178156180,-0.047539130,9.916841510,0.398624030,0.010818240,0.029669710
1640841453442359808,-0.277196620,0.137806310,9.787886620,0.355620770,0.077801960,0.009532280
1640841453444489984,-0.173765600,-0.122995790,9.814832690,0.453248680,-0.001798570,-0.029028960
1640841453447490048,-0.388363330,-0.012189800,10.078228000,0.596661930,0.017215310,-0.026203700
1640841453450009856,-0.135477160,0.354449030,9.186443330,0.537401620,0.033502290,-0.035645080
1640841453452489728,-0.193744870,0.350429480,9.822953220,0.384399290,0.035670400,0.006695090
1640841453454639872,-0.144604010,0.288567780,9.797483440,0.326889780,0.078634930,0.005172190
1640841453457349888,0.021595760,0.002711860,10.008278850,0.446824820,-0.009320680,-0.033842030
1640841453459479808,-0.188017670,-0.003576050,10.193234440,0.608533680,0.009906290,-0.046399240
1640841453462339840,-0.046252230,0.190793500,9.213601110,0.553499280,0.026947260,-0.060746080
1640841453464470016,-0.250788720,0.209094290,10.101961140,0.411504570,0.008921330,-0.041714310
1640841453468089856,-0.171099740,0.463605910,9.761767390,0.313353570,0.076876580,-0.025957830
1640841453469459968,0.032414340,0.431703630,9.735752110,0.371035930,-0.017046930,-0.052393980
1640841453472399872,-0.250216420,0.686480220,10.372269630,0.499905710,0.030864780,-0.063352300
1640841453474419712,-0.096863760,0.901895050,9.292165760,0.470112320,0.037154560,-0.085711500
1640841453477299968,-0.150948170,0.671668230,10.104038240,0.389294300,-0.034458930,-0.057001420
1640841453479599872,-0.103890730,0.457647530,9.786565780,0.334288180,0.091728580,-0.039105120
1640841453482810112,0.263352420,0.137796800,9.241569520,0.347431060,0.032599280,-0.079101340
1640841453484459776,-0.112554820,0.180032150,10.570129390,0.415673880,0.019654630,-0.074139240
1640841453488750080,0.111370470,0.279274400,9.249501230,0.368046760,0.067241500,-0.097684560
1640841453489459968,0.070504240,-0.065309490,9.712055210,0.339603360,-0.039564070,-0.085252530
1640841453492359936,-0.298837840,-0.256968200,10.106591220,0.390999020,0.089839110,-0.092421470
1640841453494419712,0.098371010,-0.344129170,8.976037030,0.436365660,0.056545440,-0.142061760
1640841453497759744,-0.319614290,0.063633610,10.461906430,0.439411460,-0.010257960,-0.098507120
1640841453499480064,-0.209935920,0.335554510,9.472807880,0.318151710,0.114886470,-0.107270490
1640841453502720000,0.070844890,0.137036610,9.499078750,0.279979410,-0.001825390,-0.115437810
1640841453504529920,-0.365997230,0.125538840,10.477504730,0.425237420,0.056725740,-0.116407880
1640841453507439872,0.181630550,-0.000624190,8.806274410,0.513833880,0.071722290,-0.174810020
1640841453509469952,-0.044535570,0.200376530,9.999174120,0.489555360,0.000837450,-0.138880360
1640841453512329728,-0.211889580,0.251132640,9.748868940,0.323010980,0.131660710,-0.133107600
1640841453514540032,0.164660040,-0.285539360,9.390193940,0.278863340,0.008231400,-0.146853920
1640841453517659904,-0.402625590,-0.311894920,10.659498210,0.473675190,0.013048950,-0.142191350
1640841453519510016,-0.154044670,-0.232182580,9.016443250,0.560161530,0.059452660,-0.204184650
1640841453522419968,-0.281641840,-0.003764830,9.723429680,0.499199330,-0.031530850,-0.181898470
1640841453524449792,-0.539711120,0.237973750,10.073861120,0.353559850,0.114591420,-0.166323800
1640841453527389952,-0.068776880,0.034764840,9.618015290,0.326170030,0.016234820,-0.181762870
1640841453529799936,-0.388911840,0.295801520,10.716638570,0.503115480,-0.027671460,-0.172875820
1640841453532640000,-0.149526480,0.675141270,9.258419040,0.512747530,0.048635900,-0.229793820
1640841453534469888,0.157768350,0.857458650,9.405499460,0.406202730,-0.011748080,-0.199127210
1640841453537380096,-0.164558930,0.752941790,10.295427320,0.346274670,0.090985010,-0.170420110
1640841453539609856,0.233787600,0.312268260,9.681645390,0.370955440,0.026094910,-0.209039420
1640841453542340096,-0.001516900,0.471421000,10.287064550,0.465715020,-0.044801840,-0.198780040
1640841453544440064,-0.222522510,0.614222110,9.554442410,0.396174220,0.035317250,-0.229012970
1640841453547419904,-0.066034210,0.425610930,9.521269800,0.285851960,0.007456540,-0.214146110
1640841453550339840,-0.458047720,0.308407190,10.263463020,0.312805210,0.039039550,-0.200349090
1640841453552369920,-0.237562760,0.032327200,9.696848870,0.390215280,0.003610550,-0.235520330
1640841453554469888,-0.082974290,0.221521870,9.783096310,0.439585800,0.003410880,-0.218163480
1640841453557339904,-0.268936930,0.462521940,9.858467100,0.344251100,0.048223140,-0.232650340
1640841453559539968,0.072005680,0.231129750,9.895588870,0.234051090,-0.000184770,-0.221669700
1640841453562639872,0.098055530,0.068068250,9.886666300,0.317747890,0.022409860,-0.226114720
1640841453564460032,0.206706760,-0.153900340,9.588583950,0.440083500,0.033757090,-0.275445070
1640841453567419904,0.262387040,0.122682920,9.754957200,0.466592670,0.037391490,-0.260214570
1640841453569530112,0.029035210,0.468863400,9.541945460,0.332848730,0.049328810,-0.247570890
1640841453572339968,-0.110707210,0.170945020,9.866879460,0.201909270,-0.006479030,-0.232082640
1640841453574449920,-0.249211250,0.020034140,9.833530430,0.305268200,0.030566760,-0.238631700
1640841453577879808,-0.458535880,-0.189939950,9.644224170,0.478668600,-0.000682470,-0.300838080
1640841453579520000,-0.412237380,-0.040520120,9.899637220,0.516654670,0.020690270,-0.303243160
1640841453582639872,-0.396929170,0.225981190,9.545812610,0.375475020,0.063502790,-0.294899970
1640841453584430080,-0.297196030,-0.127784210,10.038513180,0.245177790,0.002990660,-0.280258120
1640841453587409920,-0.118731210,-0.139614050,10.153564450,0.346155410,0.030580160,-0.272238190
1640841453589629952,-0.068678140,-0.012963880,9.677987100,0.508736130,-0.023701790,-0.313118130
1640841453592399872,0.005064540,0.349878730,9.805346490,0.504593610,-0.013768670,-0.304800270
1640841453595269888,0.026434740,0.819965900,9.495355610,0.349018070,0.062721980,-0.295688270
1640841453597339904,-0.087683690,0.542333420,10.124494550,0.238966970,0.015994910,-0.282728670
1640841453599529984,-0.049509650,0.456064460,10.351431850,0.359015230,-0.005288420,-0.281508360
1640841453602289920,-0.183672620,0.506604250,9.644702910,0.488895180,-0.018012530,-0.333373250
1640841453604509952,-0.468928690,0.647322950,9.968503000,0.421136710,-0.038793690,-0.320647660
1640841453607349760,-0.464939390,0.727302010,9.705042840,0.281193850,0.018060210,-0.300893190
1640841453609920000,-0.413149600,0.164363500,9.862531660,0.227201000,-0.016489620,-0.312849880
1640841453612399872,-0.178859620,0.042031970,10.228189470,0.366580490,0.013026600,-0.304834540
1640841453614539776,0.024021020,0.266283690,9.700540540,0.449854220,0.011008980,-0.357855920
1640841453617449984,0.028837890,0.524493630,9.964859960,0.336712660,-0.040821730,-0.341051820
1640841453619479808,0.147368390,0.706902030,9.756982800,0.201731950,-0.002090630,-0.305442600
1640841453622479872,0.236841250,0.162107150,9.619884490,0.209105060,-0.009290870,-0.315693050
1640841453624509696,0.174007070,-0.015762130,10.091262820,0.386546640,0.009271510,-0.321291450
1640841453628460032,0.040648310,0.297256110,9.807973860,0.461196930,0.023970010,-0.349439710
1640841453629499904,-0.043110060,0.318819020,9.721858980,0.310176610,-0.018140680,-0.322662320
1640841453632629760,-0.179432180,0.322126660,9.863386150,0.161603120,0.006823240,-0.301568210
1640841453634439936,-0.295211230,-0.185096340,9.820692060,0.224226680,0.023388860,-0.344421000
1640841453637339904,-0.321536780,-0.395111890,10.015701290,0.444319900,-0.016550720,-0.372342770
1640841453639520000,-0.406822920,0.051831050,9.717145920,0.516900540,-0.015202170,-0.391976620
1640841453642540032,-0.312749740,0.161697280,9.418369290,0.326740740,0.002335010,-0.354212520
1640841453644439808,-0.230612520,0.120647040,9.907701490,0.180260840,0.014552480,-0.319531590
1640841453647519744,-0.176740330,-0.070731890,10.158211710,0.275509090,0.006683170,-0.333188500
1640841453649570048,0.029779480,0.000592260,9.891000750,0.474859920,-0.046853730,-0.356704060
1640841453652410112,-0.107990760,0.487617460,9.855040550,0.496725830,-0.043438370,-0.388175340
1640841453654479872,-0.089298020,0.606184600,9.608333590,0.316683950,0.003750620,-0.358593490
1640841453657469952,-0.097086160,0.492203590,9.958358760,0.210842510,-0.018739700,-0.334188310
1640841453660019968,-0.332924600,0.362167870,10.325965880,0.305746560,-0.039181120,-0.347128600
1640841453662309888,-0.237861680,0.417165130,9.736777310,0.420606230,-0.058880460,-0.370441410
1640841453664460032,-0.493061180,0.684837820,9.833425520,0.390112430,-0.063955790,-0.388117130
1640841453667359744,-0.655252990,0.593345640,10.087891580,0.270932940,-0.045180320,-0.369177790
1640841453669449984,-0.306342540,0.347547590,9.865362170,0.226622820,-0.061346590,-0.356642930
1640841453672349952,-0.206358060,0.322096820,10.095124240,0.312899110,-0.052219640,-0.368978140
1640841453674579968,0.001291370,0.642006340,9.931756970,0.338371130,-0.026148560,-0.386048910
1640841453677389824,0.127214190,1.018648030,9.836028100,0.232546060,-0.059422860,-0.382970330
1640841453679549952,-0.004984060,0.825295570,10.249143600,0.171558530,-0.094796710,-0.349636350
1640841453683529728,0.133978560,0.498040910,9.827625270,0.212687270,-0.067138670,-0.370006290
1640841453684540160,0.100260700,0.361426380,9.648806570,0.313356610,-0.067411370,-0.385780690
1640841453687399936,-0.181656200,0.419342790,9.993394850,0.298371910,-0.055925560,-0.374345540
1640841453689609984,0.003449730,0.386575640,9.617249490,0.149017540,-0.014889240,-0.361183260
1640841453692359936,-0.173358260,0.043011300,10.126386640,0.120747090,-0.054965920,-0.352789400
1640841453694479872,-0.366267800,-0.189604670,10.337311740,0.239805920,-0.075998920,-0.370775220
1640841453697379840,-0.221232240,-0.117387000,9.340621950,0.342258870,-0.116297630,-0.408378300
1640841453699899904,-0.259842250,0.239279910,9.273284910,0.292359320,-0.082580750,-0.399096370
1640841453702279936,-0.129267230,0.400944980,9.711339950,0.123348830,0.032205880,-0.389477610
1640841453704499968,0.047712040,0.199454890,10.160768510,0.138381140,-0.019195680,-0.362514020
1640841453707350016,-0.016345390,0.093948190,10.478892330,0.307090610,-0.123743730,-0.375868470
1640841453709609984,0.013023080,0.120946080,9.629027370,0.382402540,-0.104539120,-0.395409850
1640841453712409856,-0.163194360,0.198904890,9.113665580,0.299033610,-0.087627770,-0.383178920
1640841453714540032,-0.383401780,-0.071386500,9.953932760,0.171305250,-0.052225590,-0.383991000
1640841453717789952,-0.277383450,-0.208377700,9.918241500,0.233876720,-0.025580820,-0.376796750
1640841453719609856,-0.238161830,-0.010943760,10.026102070,0.340876070,-0.115947440,-0.393241700
1640841453722400000,-0.386590180,0.245035140,10.420835490,0.331257280,-0.083525500,-0.417123790
1640841453724459776,-0.313986240,0.647006450,9.467077260,0.264999330,-0.078967230,-0.398735790
1640841453727360000,-0.429119530,0.433553490,10.054567340,0.223164310,-0.164467100,-0.392314820
1640841453729569792,-0.287894930,0.509295170,9.727523800,0.287954570,-0.055037450,-0.383167060
1640841453732440064,-0.000849380,0.836534320,9.240193370,0.311538580,-0.102090860,-0.392665030
1640841453734479872,-0.282066700,0.898526610,10.723519330,0.226461930,-0.093671700,-0.394664760
1640841453737609984,-0.017213550,1.167836190,9.707311630,0.146889730,-0.078962740,-0.368978110
1640841453739569920,-0.104291990,0.607177850,10.186258320,0.153592230,-0.210426790,-0.395216140
1640841453742319872,-0.306092260,0.457682550,10.252146720,0.271837410,-0.089773540,-0.392453430
1640841453744419840,-0.034330060,0.520773830,8.959095950,0.289633930,-0.124634820,-0.405298260
1640841453751289856,-0.250516150,0.321384790,10.289365770,0.166177720,-0.135716780,-0.375899610
1640841453752209920,-0.026482580,0.503224490,9.616315840,0.088979320,-0.009597840,-0.345410500
1640841453753199872,-0.002338360,0.033062780,10.093604090,0.119216760,-0.163856150,-0.378231730
1640841453755640064,-0.348271700,0.180943240,10.571228980,0.263771410,-0.173714760,-0.382931560
1640841453757380096,0.012275130,0.590274450,8.753965380,0.262205330,-0.155086850,-0.410012990
1640841453759529728,-0.119513790,0.423744140,9.726751330,0.127606110,-0.114169730,-0.377568600
1640841453762269952,-0.152783170,0.584628880,9.997991560,0.091733050,0.011111800,-0.347973470
1640841453764580096,0.018598030,0.238847060,10.081498150,0.142881270,-0.150299070,-0.385315750
1640841453767399936,-0.214407680,0.238158630,10.346136090,0.259062650,-0.198368740,-0.349755530
1640841453769999872,-0.156056960,0.378692950,8.858780860,0.232873870,-0.144806500,-0.380678530
1640841453772649984,-0.272101310,-0.110360460,9.538958550,0.126528740,-0.129656510,-0.388902430
1640841453774599936,-0.413327720,-0.043811760,10.083873750,0.158461930,-0.047338010,-0.360573860
1640841453777319936,-0.107389670,-0.083786080,9.937471390,0.217309640,-0.155036180,-0.408382800
1640841453779459840,-0.192375180,0.174698250,10.338927270,0.255812730,-0.163981320,-0.365690890
1640841453782469888,-0.122437340,0.714638890,9.230727200,0.160954890,-0.118006770,-0.379505750
1640841453784839936,-0.209609540,0.357299600,10.025585170,0.106765330,-0.169228020,-0.383408400
1640841453787629824,-0.351795550,0.396741120,9.991262440,0.226366550,-0.116258880,-0.361232460
1640841453790319872,-0.094173740,0.480351180,9.283005710,0.289633870,-0.193016250,-0.401169150
1640841453793009920,-0.295639160,0.684972820,10.206741330,0.227229330,-0.144478720,-0.372348790
1640841453794479872,-0.182183850,1.103908540,9.391198160,0.064603980,-0.089043380,-0.369802150
1640841453797319936,-0.188416170,0.686051190,10.436727520,0.023698810,-0.215362040,-0.367558090
1640841453799529984,-0.259043220,0.570706670,10.269010540,0.182861070,-0.124844910,-0.356383560
1640841453802459904,-0.011129830,0.597275020,9.175494190,0.266687570,-0.204481230,-0.406178890
1640841453804509952,-0.411656170,0.580086410,10.431710240,0.189562170,-0.187864900,-0.369022820
1640841453807510016,-0.062878510,0.885441720,8.981342320,-0.007762010,-0.087110710,-0.348420440
1640841453809609984,-0.031739120,0.411003320,10.037655830,-0.053708270,-0.214910540,-0.345923010
1640841453812310016,-0.187740250,0.304021390,10.593187330,0.129416580,-0.094108310,-0.336849750
1640841453814460160,0.301943990,0.505973400,9.030240060,0.229781900,-0.178344580,-0.396567670
1640841453817669888,-0.091503840,0.564401210,10.308935170,0.163015720,-0.219979900,-0.356027480
1640841453819579904,0.217238160,0.853253130,8.917340280,-0.033012040,-0.037650770,-0.324884120
1640841453824399872,0.298642990,0.287224080,9.620046620,-0.070855020,-0.138495880,-0.329838690
1640841453825019904,-0.374426720,0.265577080,11.061377530,0.117641710,-0.129255700,-0.325550140
1640841453827299840,-0.035944450,0.496747490,8.940936090,0.183892290,-0.201483100,-0.390704070
1640841453829530112,-0.374662640,0.421178760,9.546556470,0.105042760,-0.233030330,-0.363469090
1640841453832329984,-0.434007670,0.546861410,9.410292630,-0.036425890,-0.011323390,-0.335760440
1640841453835140096,-0.032697040,-0.107043410,9.724935530,-0.014707450,-0.084778670,-0.346756010
1640841453837319936,-0.265639600,-0.137062700,10.884061810,0.180575270,-0.161339340,-0.317199560
1640841453839910144,0.229895650,0.247796450,9.169406890,0.200453430,-0.136502100,-0.348712530
1640841453842360064,0.194101210,0.096568700,9.325482370,0.066290800,-0.149008650,-0.350043180
1640841453844579840,-0.035782130,0.296186270,9.875378610,-0.006027520,-0.070986160,-0.340172650
1640841453847319808,0.116051850,0.122492690,9.729125980,0.076460840,-0.113257770,-0.370891390
1640841453849759744,-0.136415690,0.411966920,10.035115240,0.204557200,-0.158394870,-0.351984800
1640841453852310016,-0.210258040,1.094239950,9.624263760,0.136612360,-0.126664360,-0.355125960
1640841453854560000,-0.406239090,1.042555930,9.770274160,-0.025364760,-0.112132730,-0.340870050
1640841453857719808,-0.348807510,0.866128330,9.927203180,-0.036959350,-0.123074640,-0.312618880
1640841453859549952,-0.225470780,0.528751850,10.097241400,0.108131770,-0.115229200,-0.337776540
1640841453862449920,-0.102823190,0.371113060,9.778092380,0.206364690,-0.083185740,-0.343039630
1640841453864600064,0.047373030,0.719237980,9.714344980,0.087809580,-0.140599940,-0.328677980
1640841453867300096,0.022426860,0.628681000,9.863618850,-0.104579330,-0.087808090,-0.312860310
1640841453869540096,0.343658920,0.314830750,9.532042500,-0.108413410,-0.074881320,-0.293991000
1640841453875089920,0.011423180,0.130606490,10.399385450,0.091868640,-0.108607140,-0.335940720
1640841453875830016,-0.057747170,0.413466420,9.734756470,0.195920480,-0.116078560,-0.355666880
1640841453877309952,0.066336590,0.850208760,9.120234490,0.052136190,-0.147187720,-0.327238500
1640841453879619840,-0.203987660,0.769780100,9.622206690,-0.139763950,-0.028805440,-0.283382860
1640841453882880000,-0.053264290,0.625006740,9.978343960,-0.138038410,-0.016200540,-0.293165480
1640841453884549888,-0.283455880,0.553321960,10.520413400,0.056597600,-0.123779490,-0.315722850
1640841453887620096,-0.087585700,0.614497480,9.362890240,0.136476760,-0.139756520,-0.331729650
1640841453889529856,0.079336370,0.609457370,9.211606030,0.010703510,-0.066435350,-0.321827890
1640841453892359936,-0.072599330,0.158806980,9.665855410,-0.102539360,0.043503940,-0.294537840
1640841453894549760,0.075087280,-0.104894370,10.147283550,-0.052434210,-0.089080640,-0.284084680
1640841453897319936,-0.010960540,-0.069105370,10.140773770,0.073024620,-0.107513350,-0.300794810
1640841453899919872,0.250270780,0.188273980,8.690600400,0.061284010,-0.061468790,-0.312735170
1640841453902319872,-0.107299600,0.383349450,10.065721510,-0.024528810,-0.025191900,-0.312186810
1640841453904700160,-0.274307880,0.284835580,10.043771740,-0.048114360,0.036294760,-0.303356350
1640841453907339776,-0.019602350,0.361806870,9.826682090,0.043420490,-0.151228920,-0.317001340
1640841453910419968,-0.407642220,0.715070010,10.212940220,0.099235800,-0.051860520,-0.311158600
1640841453912339968,-0.068032990,1.011441230,8.711050030,-0.030200190,0.003270810,-0.315971760
1640841453914660096,-0.384640990,0.894049640,10.499656680,-0.085340450,-0.080783670,-0.281764570
1640841453917409792,-0.253530060,0.654009400,10.008459090,-0.039419530,0.037443640,-0.291767720
1640841453919520000,0.328721910,0.493785050,9.339994430,0.061108170,-0.097651790,-0.305508110
1640841453922269696,-0.124745380,0.624671100,10.600840570,0.076690320,-0.016875570,-0.278428230
1640841453924460032,0.338717490,0.691300390,9.035100940,-0.099365420,0.045628840,-0.298616290
1640841453927379968,0.183786170,0.551253440,10.243754390,-0.165821580,-0.085194420,-0.266435740
1640841453930060032,-0.049889730,0.338111760,10.133738520,-0.077509880,0.039079790,-0.281256470
1640841453932430080,0.281207410,0.276671620,9.106564520,0.053676960,-0.032426420,-0.328986350
1640841453934749952,-0.362096790,0.664945720,10.237762450,0.071159010,-0.042621780,-0.297193260
1640841453939110144,-0.079855640,0.866018120,9.101500510,-0.129519370,0.052556390,-0.296613510
1640841453939589888,0.058536640,0.718727950,9.668490410,-0.208054500,0.026828050,-0.252521040
1640841453942249984,-0.194872200,0.580626430,10.513175010,-0.112026930,0.089748210,-0.259584190
1640841453944499968,0.228532200,0.552510980,9.590350150,0.024750830,0.004506110,-0.295928120
1640841453951180032,0.150624800,0.567675590,9.548863410,0.027821960,-0.016081340,-0.280572470
1640841453951969792,0.289473680,0.390660410,9.097231860,-0.123959790,0.121520480,-0.277972250
1640841453952760064,0.226961450,-0.118754390,9.832675930,-0.157129730,0.126366300,-0.264421050
1640841453954560000,0.025538510,-0.206757630,10.253242490,-0.047717990,0.063046820,-0.275073950
1640841453957429760,0.049821130,0.023904550,9.685884480,0.031091280,0.004793700,-0.296643410
1640841453959549952,-0.093773790,0.285928460,9.292321210,-0.024060910,0.078380110,-0.292758640
1640841453962479872,-0.160280480,0.483643860,9.432720180,-0.124785330,0.139370560,-0.290960160
1640841453964519936,-0.266640690,0.340438100,10.262950900,-0.077457710,0.121784210,-0.283795570
1640841453967480064,0.019381420,0.555158850,9.847941400,0.028036530,0.096522280,-0.273524220
1640841453969529856,0.014713640,0.688907380,9.736709590,0.043733420,0.096926090,-0.279249250
1640841453972950016,-0.092633300,0.745674130,9.809972760,-0.064058620,0.145207390,-0.264526960
1640841453974479872,0.083378710,0.629741910,9.719656940,-0.120687490,0.116559870,-0.257597860
1640841453977479936,0.006837370,0.196108460,9.983757020,-0.040699540,0.131239010,-0.270625950
1640841453979490048,0.199145050,0.364449320,9.718355180,0.047482550,0.165545960,-0.283183190
1640841453982849792,0.009460650,0.663602590,9.830180170,-0.001038610,0.144676860,-0.277547630
1640841453984499968,-0.055208630,0.818120720,9.751517300,-0.142844040,0.124493260,-0.262562930
1640841453987389952,-0.008239980,0.785870970,9.848912240,-0.171901320,0.156641050,-0.246219370
1640841453989739776,-0.252367530,0.594316180,9.973326680,-0.055499380,0.171242620,-0.268103180
1640841453993089792,-0.257976080,0.791589440,10.155294420,0.031636660,0.109741110,-0.270472470
1640841453995020032,-0.166014050,0.953775760,9.566608430,-0.033760070,0.170823950,-0.255110860
1640841453997309952,0.130376160,0.816686090,9.312679290,-0.192412750,0.198116900,-0.246557640
1640841453999579904,0.176532030,0.652224120,10.319465640,-0.200088320,0.240343820,-0.213317620
1640841454002379776,0.335617040,0.419817210,9.702719690,-0.096543140,0.241652160,-0.257112120
1640841454004539904,0.346266360,0.458767830,9.944093700,-0.016920260,0.108833600,-0.260911850
1640841454007360000,0.150891050,0.562680180,9.554542540,-0.063526640,0.225412850,-0.242720560
1640841454009750016,0.319928850,0.171047110,8.811860080,-0.195136670,0.254623620,-0.244866330
1640841454012280064,-0.172177460,-0.000923010,10.674605370,-0.139802720,0.243115470,-0.224682720
1640841454014489856,-0.229543000,0.166392800,9.692974090,-0.041367120,0.258925620,-0.260566200
1640841454017459968,-0.167964890,0.185788930,9.501587870,-0.034610930,0.125674900,-0.255823170
1640841454019630080,-0.521306460,0.605697150,9.914463040,-0.099474200,0.273294750,-0.240409370
1640841454022650112,-0.010830590,0.378632400,8.868115430,-0.168082130,0.310844180,-0.274942850
1640841454024539904,-0.157184230,0.271770090,10.666903500,-0.044679640,0.224067300,-0.242063450
1640841454029899776,0.077968280,0.800769390,9.595925330,0.021164120,0.302305850,-0.251276790
1640841454030329856,0.478128190,0.672083140,9.114066120,-0.082193320,0.210054230,-0.253145430
1640841454032280064,-0.050168290,0.817854050,10.278972630,-0.155556230,0.303106040,-0.218318430
1640841454034560000,0.330262960,0.472099660,9.150437360,-0.153712910,0.314973260,-0.257833300
1640841454037349888,-0.005748980,-0.070618120,10.429513930,0.020015240,0.207500200,-0.241570200
1640841454039909888,-0.362778280,0.391015470,9.874092100,0.075888630,0.323788790,-0.251174000
1640841454042429952,-0.225229890,0.460522860,9.229124070,-0.097887220,0.226339710,-0.258953870
1640841454045399808,-0.771322730,0.663500430,10.409670830,-0.215038670,0.254628090,-0.199350710
1640841454047309824,-0.278079660,0.818009790,9.125783920,-0.186410550,0.326469570,-0.254146750
1640841454049600000,-0.270436500,0.772985990,10.241724970,-0.024937090,0.255093010,-0.271004470
1640841454052399872,-0.233571900,1.369594810,10.121911050,0.028571490,0.329737370,-0.254158710
1640841454054519808,0.369970770,1.263629790,9.359131810,-0.135719790,0.272482600,-0.259339810
1640841454057629696,0.129842830,0.891053320,10.391636850,-0.236311550,0.297868220,-0.193983320
1640841454061090048,0.349681940,0.700323220,9.446949010,-0.200653120,0.343501570,-0.220839710
1640841454062319872,0.142194540,0.343798940,9.987833020,-0.089666250,0.236769070,-0.254757700
1640841454064579840,-0.166805490,0.555036310,9.677135470,-0.069493060,0.296674700,-0.223661930
1640841454067270144,0.071625280,0.544477050,8.991112710,-0.190898810,0.305561810,-0.252877180
1640841454069559808,-0.371156690,0.312298570,10.429296490,-0.241889090,0.360019590,-0.233466970
1640841454072609792,-0.345769260,0.527247070,9.912189480,-0.178702220,0.357955750,-0.235293850
1640841454074880000,-0.371693880,0.640196500,10.098113060,-0.112776480,0.212781180,-0.266246500
1640841454078249984,-0.321545600,0.866347010,9.472182270,-0.142402950,0.310483600,-0.227631660
1640841454079559936,0.217929070,0.878934560,8.655358310,-0.216245650,0.366422620,-0.222903530
1640841454084019968,-0.022314270,0.451292780,10.533029560,-0.194668800,0.405205880,-0.228947430
1640841454084499712,0.233934030,0.575309810,9.939528470,-0.133918260,0.366425570,-0.222352190
1640841454087319808,0.257410050,0.586731080,9.661624910,-0.133298350,0.211232900,-0.250394670
1640841454092089856,-0.068889040,0.368282530,9.585637090,-0.225286230,0.362941620,-0.247186450
1640841454092989952,0.040329120,0.303837420,8.977994920,-0.222587620,0.382712510,-0.247135760
1640841454094889984,-0.524968450,-0.049659520,10.587780000,-0.120167440,0.323469970,-0.269372760
1640841454097410048,-0.357202110,0.204997550,9.657279010,-0.070139770,0.360432270,-0.250072810
1640841454099529984,-0.437241790,0.585303540,9.612581250,-0.118969390,0.272646550,-0.234565140
1640841454102319872,-0.738403440,0.445773960,10.239933010,-0.234997320,0.352907240,-0.237910520
1640841454104509952,-0.254611970,0.591579620,9.321779250,-0.201633600,0.335049690,-0.248125240
1640841454109380096,-0.314356150,0.699759300,10.085412980,-0.068141530,0.287368890,-0.281038910
1640841454110139904,0.029014800,0.890968920,9.535089490,-0.066055380,0.393632110,-0.277748760
1640841454112310016,0.215843110,1.306657080,9.657086370,-0.154958680,0.315994020,-0.263570280
1640841454114579968,-0.122762470,1.145625470,10.537124630,-0.282950760,0.325836300,-0.251218770
1640841454117899776,0.142833640,0.890208660,9.449751850,-0.258800480,0.296281340,-0.243483530
1640841454119489792,-0.231875970,0.739517510,9.940178870,-0.112296660,0.266955820,-0.264914360
1640841454122599936,-0.373174340,0.630408820,9.847001080,-0.113363580,0.385502070,-0.283242760
1640841454124979968,-0.276693760,0.782667220,9.658741000,-0.203011940,0.305013390,-0.251621010
1640841454127450112,-0.531396990,0.666440960,10.390608790,-0.300818710,0.293247460,-0.247497900
1640841454129529856,-0.044181770,0.461839230,9.329102520,-0.301758940,0.365673040,-0.269731910
1640841454132419840,-0.230429320,0.753030420,10.081172940,-0.167953980,0.295761290,-0.287464350
1640841454134549760,-0.375881220,0.903960350,10.265086170,-0.161692520,0.320413740,-0.291717050
1640841454137349888,0.238403380,0.961168890,8.991877560,-0.242692260,0.292325110,-0.272361990
1640841454139840000,0.004168680,0.925308940,10.089385990,-0.291812420,0.346919920,-0.250400630
1640841454142309888,0.197426930,0.816294370,9.848531720,-0.315748240,0.445862170,-0.266231690
1640841454144549888,0.084029980,0.837243440,10.169688220,-0.238089260,0.263324320,-0.263698430
1640841454147359744,-0.277809530,0.701708790,10.220921520,-0.228595750,0.282453000,-0.276902350
1640841454149740032,0.040479900,0.367552640,8.725659370,-0.267875190,0.336614280,-0.293956730
1640841454152299776,-0.398002480,0.155899570,9.872092250,-0.226530480,0.337337020,-0.299069320
1640841454154649856,-0.373955340,0.291444090,9.850212100,-0.246305790,0.408276920,-0.311479000
1640841454157449984,-0.127502050,0.491843850,9.662875180,-0.277563960,0.308856370,-0.296294720
1640841454159529984,-0.443770140,0.569720570,10.558837890,-0.295284420,0.320483740,-0.282339750
1640841454162419968,-0.058309780,0.445704430,9.463002200,-0.251036880,0.349207310,-0.301528040
1640841454164450048,-0.290737240,0.187781540,9.958295820,-0.120173400,0.280322160,-0.311635430
1640841454167439872,-0.322327610,0.476939890,9.764025690,-0.131107870,0.364944430,-0.313916860
1640841454169639936,-0.004615580,0.577111600,9.216166500,-0.260165420,0.327448610,-0.298483730
1640841454172379904,-0.339539170,0.461550650,10.407414440,-0.317415650,0.324453440,-0.270877840
1640841454174479872,-0.085276990,0.586321590,9.819338800,-0.236831640,0.343811510,-0.299918680
1640841454177299968,-0.310918000,0.515287160,10.115640640,-0.112092490,0.251448180,-0.329987700
1640841454179539968,-0.604491110,0.771015050,10.204143520,-0.124941790,0.299300250,-0.323227050
1640841454183939840,-0.400961760,0.897068800,9.330268860,-0.239776120,0.294625820,-0.321203500
1640841454184759808,-0.655364040,0.580543760,10.286148070,-0.283430580,0.264699820,-0.293067130
1640841454187500032,-0.389743980,0.827440440,9.833790780,-0.226496190,0.330473510,-0.299020170
1640841454189580032,-0.345419700,0.966850280,9.847868920,-0.187253980,0.243271930,-0.334516260
1640841454192440064,-0.437720210,1.198341610,10.451977730,-0.240881770,0.261074330,-0.316998420
1640841454194479872,0.053098100,1.227731940,9.433008190,-0.286917420,0.296196370,-0.307495950
1640841454197520128,-0.094096820,0.826746340,10.298698430,-0.263705850,0.240032390,-0.313071970
1640841454200470016,0.004242210,0.966945590,10.043548580,-0.233003540,0.305856760,-0.302042070
1640841454202679808,0.092840180,1.074488040,9.327634810,-0.272953600,0.254069330,-0.323125810
1640841454205269760,-0.367709460,0.808586540,10.489669800,-0.358012410,0.246192560,-0.311498400
1640841454207599872,-0.209463250,0.702614130,9.749197960,-0.344961940,0.305418760,-0.294238390
1640841454209519872,-0.558497970,0.180591290,10.086335180,-0.236684130,0.184088980,-0.332292970
1640841454212319744,-0.697126450,0.221698430,10.074537280,-0.184418280,0.235104590,-0.339679450
1640841454214589952,-0.273831990,0.733255800,8.893965720,-0.274965260,0.281642470,-0.329479630
1640841454217779968,-0.523661850,0.554324270,10.319108960,-0.409856500,0.265939560,-0.297556820
1640841454221120000,-0.158019170,0.593369660,10.235651020,-0.369678500,0.304241570,-0.279378980
1640841454222359808,-0.050191720,0.545157310,9.839890480,-0.183208290,0.170032690,-0.331133600
1640841454225019904,-0.199347970,0.551485780,10.026140210,-0.131176430,0.172941400,-0.343842800
1640841454228119808,0.115961750,1.045045850,8.932662960,-0.259447190,0.283235370,-0.331528570
1640841454229539840,-0.313567010,0.667959330,10.116371150,-0.408932630,0.245079440,-0.322058830
1640841454232329728,-0.330105900,0.362936380,10.463010790,-0.350418720,0.227063920,-0.324970510
1640841454234589696,-0.333968340,0.524302420,9.619074820,-0.156982240,0.155013800,-0.354185730
1640841454237439744,-0.717420100,0.451728050,9.917612080,-0.150719260,0.164800870,-0.365534370
1640841454239539968,-0.595026490,0.653644920,9.535520550,-0.274233520,0.244022950,-0.333498450
1640841454242279936,-0.734977130,0.427455600,10.020874020,-0.334592160,0.185541820,-0.330515210
1640841454244819968,-0.517790320,0.156909050,10.440647130,-0.262466100,0.177845370,-0.326818230
1640841454247320064,-0.259386690,0.615321460,9.711162570,-0.131364180,0.177539890,-0.335088400
1640841454251040000,-0.448587210,0.804247140,10.138149260,-0.190405550,0.119872400,-0.368581680
1640841454254679808,-0.214983030,0.940952900,9.892286300,-0.306107130,0.158660110,-0.350472360
1640841454255399936,-0.184021550,0.924607930,9.753828050,-0.285999510,0.137957980,-0.347581510
1640841454257339904,-0.289857980,0.782250820,10.391434670,-0.218336280,0.128833960,-0.360082090
1640841454259899904,-0.183663930,1.190050720,9.817376140,-0.178481650,0.142368670,-0.350895520
1640841454262369792,-0.515034970,1.437881950,10.141973500,-0.295253130,0.092519820,-0.355486600
1640841454264539904,-0.496857460,1.157390000,10.220788000,-0.405389100,0.110943620,-0.324545800
1640841454267319808,-0.481139210,0.663187330,9.916093830,-0.296728340,0.097055730,-0.325657460
1640841454269629952,-0.683009740,0.481998590,10.346021650,-0.164200370,0.073134910,-0.372451570
1640841454272249856,-0.351580380,0.744181450,9.667405130,-0.208117110,0.100348900,-0.362373920
1640841454275030016,-0.254481580,1.022318960,9.676465990,-0.382779600,0.086587670,-0.337815370
1640841454277979904,-0.058056300,0.873862980,10.167889600,-0.479646120,0.137774650,-0.326995580
1640841454279609856,0.093029320,0.650440810,10.132904050,-0.340214400,0.123384590,-0.345560910
1640841454282559744,-0.250767770,0.765388250,10.466568950,-0.165773930,0.001361970,-0.375407930
1640841454284539904,-0.139475900,0.964704990,9.342159270,-0.217293220,0.015163420,-0.376512110
1640841454287379968,-0.126925560,0.864324510,8.878723140,-0.389549200,0.099496570,-0.337769150
1640841454289809920,-0.419814710,0.449904230,10.354844090,-0.464326230,0.172172490,-0.336970390
1640841454292749824,-0.407190770,0.082954000,10.594912530,-0.296598670,0.084224350,-0.355789070
1640841454294599936,-0.500091850,0.068966800,10.196225170,-0.113111740,-0.064176330,-0.369183720
1640841454298400000,-0.481383770,0.289199230,9.370699880,-0.188626360,0.031723070,-0.377055970
1640841454299869952,-0.462752820,0.378653110,9.136481290,-0.352308210,0.109742600,-0.364233640
1640841454302279936,-0.418883290,0.414690730,10.248625760,-0.375542100,0.079682490,-0.337678250
1640841454304559872,-0.043267220,0.653182450,10.084482190,-0.243017090,0.086912520,-0.357574220
1640841454307680000,-0.005678170,0.982634540,9.941576000,-0.156961380,0.011186300,-0.375323060
1640841454310020096,-0.212034370,1.238005280,10.184753420,-0.222995890,0.021259490,-0.368230040
1640841454312359936,-0.419873420,0.945155200,9.657266620,-0.307105570,0.022067130,-0.366024760
1640841454317149952,-0.491318790,0.498569010,9.911514280,-0.274330380,-0.030690440,-0.361743660
1640841454317720064,-0.498384650,0.613765000,9.720583920,-0.180606560,0.058551140,-0.368969170
1640841454319549952,-0.534278090,0.730327070,9.648545270,-0.212529320,0.040532650,-0.377118590
1640841454322330112,-0.518110330,0.928918480,10.433570860,-0.327116340,0.010749700,-0.358745550
1640841454324610048,-0.441236110,0.847460990,10.085453030,-0.343056020,0.006301700,-0.365139630
1640841454327339776,-0.323261200,0.510931550,10.090835570,-0.249072950,-0.069588420,-0.388307960
1640841454329649920,-0.293190420,0.815087680,10.038517950,-0.136244310,0.014206770,-0.377574560
1640841454332290048,-0.281852220,1.098642950,9.612412450,-0.220875470,-0.009988250,-0.396612350
1640841454334560000,-0.206406090,1.302786830,10.231352810,-0.408735930,-0.031808020,-0.343902500
1640841454337280000,-0.000284420,1.424332260,9.771766660,-0.437453390,0.039999190,-0.331512090
1640841454339820032,-0.097651760,1.045439240,10.155796050,-0.323672590,-0.037866830,-0.382842150
1640841454342309888,-0.132504050,1.291927930,10.183164600,-0.199522120,-0.040195880,-0.383392010
1640841454344559872,-0.175940960,1.377350330,9.137156490,-0.279726180,-0.032576920,-0.407259230
1640841454347499776,-0.271154550,0.873689710,9.850686070,-0.454126390,-0.022017960,-0.369124200
1640841454349789952,-0.337123750,0.612836060,10.020237920,-0.441971510,0.067687030,-0.352776110
1640841454352279808,-0.539888800,0.130729880,10.276111600,-0.312954280,-0.082473460,-0.402477470
1640841454354509824,-0.599510370,0.161887720,10.290529250,-0.223459350,-0.114189110,-0.389914270
1640841454357270016,-0.289499040,0.420208600,8.808029170,-0.285010070,-0.027881570,-0.393401180
1640841454359609856,-0.219285440,0.151505140,9.822748180,-0.406454560,0.019705300,-0.392970530
1640841454362579712,-0.042644970,0.507486160,10.412099840,-0.357587720,0.076127050,-0.363980320
1640841454364489984,0.115733800,0.875995040,9.949185370,-0.268729060,-0.081644960,-0.392587540
1640841454367319808,0.022213200,1.269654990,9.998423580,-0.301808120,-0.105167930,-0.376811620
1640841454369529856,-0.073342790,1.584208730,9.083247180,-0.379924570,0.001378360,-0.379154150
1640841454372249856,-0.425534430,1.033713700,9.932584760,-0.387322900,-0.037252910,-0.404048030
1640841454374480128,-0.654271540,0.656183480,10.431811330,-0.262463150,-0.032834720,-0.387349810
1640841454377399808,-0.466502190,0.660290360,9.440183640,-0.206963730,-0.058877460,-0.389113990
1640841454379659776,-0.679040490,0.484704290,10.301618580,-0.333224330,-0.043961410,-0.380182330
1640841454382449920,-0.605695010,0.585772630,9.924978260,-0.435847100,-0.027480730,-0.363445340
1640841454384559872,-0.389987590,0.374568220,9.732170100,-0.389018650,-0.123231130,-0.377495620
1640841454387349760,-0.291333080,0.476258490,10.075236320,-0.252152980,-0.051470110,-0.413031940
1640841454389570048,0.010564200,1.095245000,9.537285800,-0.228054840,-0.014878810,-0.410707350
1640841454392410112,-0.083236250,1.516668680,10.548187260,-0.369733570,-0.087971990,-0.385317270
1640841454394889728,0.041611270,1.658583280,10.202335360,-0.493644240,-0.047425930,-0.357602630
1640841454397369856,0.205837650,1.448504920,9.503129960,-0.453984740,-0.081898260,-0.350265200
1640841454399559936,-0.207588490,1.267785550,10.366332050,-0.312294160,-0.058649490,-0.368452130
1640841454402419968,-0.224453750,1.212590220,9.457811360,-0.291140440,-0.041092940,-0.374625680
1640841454404569856,-0.197696030,1.063734890,9.386349680,-0.422337710,-0.116808710,-0.351850720
1640841454407929856,-0.363423710,0.654822050,9.918691640,-0.534948890,0.032560530,-0.352914720
1640841454410149888,-0.263221770,0.301691950,9.840242390,-0.484597770,-0.002029540,-0.384652670
1640841454412709888,-0.642502010,0.338420150,11.004378320,-0.349105890,-0.133749860,-0.404267010
1640841454414569728,-0.484842000,0.455835790,9.628090860,-0.325243260,-0.082847500,-0.417511220
1640841454417359872,-0.219337850,0.483921650,9.134648320,-0.425678550,-0.102145990,-0.395663140
1640841454419620096,-0.303711000,0.653022770,10.046729090,-0.467249840,0.028444830,-0.370441440
1640841454422299904,0.241676720,0.739700320,9.384692190,-0.436015430,0.011827050,-0.377205070
1640841454425089792,0.242493470,1.060373660,10.407173160,-0.366266070,-0.093458590,-0.354343680
1640841454427739904,0.237713720,1.316775800,9.688042640,-0.405593310,-0.000776350,-0.363352980
1640841454429509888,0.216873870,0.889379920,9.462169650,-0.468348030,-0.078481460,-0.383821220
1640841454432430080,-0.475045800,0.603589360,10.502193450,-0.382873510,-0.055205830,-0.386191990
1640841454434670080,-0.387800400,0.279075210,9.123320580,-0.329978820,-0.030164420,-0.425659210
1640841454437459968,-0.705712910,0.232458200,10.059602740,-0.335411820,-0.097845510,-0.390628070
1640841454439539968,-0.960901500,0.500294980,9.906505580,-0.425207610,0.017841160,-0.374072820
1640841454442409984,-0.569095490,0.223651620,9.539814000,-0.472137390,-0.099022710,-0.390413460
1640841454444529920,-0.678143200,0.554555420,10.493097310,-0.345496890,-0.079268220,-0.381015330
1640841454447310080,-0.149368120,1.064525600,9.208534240,-0.304350290,-0.009611250,-0.428424870
1640841454449699840,0.002723330,1.209492560,10.175696370,-0.370258180,-0.086300090,-0.391557870
1640841454452669952,-0.058643220,1.619970800,10.367172240,-0.441123630,-0.012445450,-0.369295510
1640841454454489856,0.371874270,1.293178080,9.533966060,-0.480558040,-0.094470400,-0.390270440
1640841454457479936,-0.070920240,1.117540840,10.500863080,-0.383199780,-0.097920020,-0.368899200
1640841454462499840,-0.164423170,1.211202740,9.500868800,-0.367669850,-0.011475390,-0.404706660
