# timestamp,accel_x,accel_y,accel_z,gyro_x,gyro_y,gyro_z
1640833519.588140,-0.322870550,-0.228745610,9.992536540,0.253814490,-0.043408570,-0.014145670
1640833519.590290,-0.102145890,0.212201650,8.968458180,0.201800470,0.009338560,0.010105970
1640833519.592610,-0.167121570,0.406610130,9.872161870,0.006307660,0.073450810,0.010502340
1640833519.595320,-0.150558260,0.282162790,10.272258760,-0.085885820,0.084616250,0.017510360
1640833519.597550,0.065044160,0.115946370,10.099220280,0.105786330,-0.028958920,0.019395350
1640833519.600450,-0.149035620,0.081189330,10.023297310,0.289388030,-0.062948470,-0.020670890
1640833519.602660,-0.028635430,0.354428890,9.095505710,0.212913770,-0.016306340,0.003811720
1640833519.605730,-0.002245110,0.435045120,9.492033960,0.016939640,0.059413920,0.032214820
1640833519.607710,-0.243381080,0.035359430,10.421196940,-0.076864670,0.100612640,0.012822450
1640833519.610540,-0.061324350,-0.110041640,10.392165180,0.119502860,-0.022211670,0.007200240
1640833519.612640,-0.193964840,0.215833460,10.001517300,0.297869770,-0.096057360,-0.020913780
1640833519.615980,-0.258315740,0.571110310,9.291028020,0.165458040,-0.013244150,-0.003357230
1640833519.618790,-0.177603720,0.735119940,9.513174060,-0.028450790,0.066173080,0.029426820
1640833519.620380,-0.437303630,0.338297430,10.671234130,-0.045853860,0.046801560,0.000695880
1640833519.623780,-0.144923300,0.326675240,10.347615240,0.128366070,-0.041219590,0.014698510
1640833519.625660,0.165514070,0.671824040,9.564408300,0.244487810,-0.069269540,0.006298720
1640833519.627600,0.060230980,0.716642500,9.687891960,0.072701280,0.051210820,-0.009416040
1640833519.630790,0.196266990,0.731922810,9.859191890,-0.073741380,0.065332650,0.033544010
1640833519.632740,-0.019073210,0.215090740,10.437569620,-0.026258830,-0.023046130,0.023837390
1640833519.635380,0.018989590,-0.116168160,9.962021830,0.127655280,-0.036151710,0.022897120
1640833519.637660,0.180649910,0.264415920,9.220034600,0.194951880,-0.003406410,0.016884510
1640833519.641660,-0.165277840,0.255817260,9.916367530,0.035566090,0.055816770,0.001263620
1640833519.642680,0.086508310,0.190707220,9.871999740,-0.098615890,0.081673250,0.035578020
1640833519.645780,0.047679950,-0.021439540,10.061250690,0.024949010,0.025716430,0.012016300
1640833519.647880,-0.252065120,-0.207053620,10.327132230,0.163626670,-0.010389090,-0.005552170
1640833519.650630,-0.009927600,0.308300050,9.184638020,0.190050890,-0.020664930,0.006364290
1640833519.652640,-0.267107930,0.350327520,9.614248280,0.044251980,0.019332770,-0.002157690
1640833519.655570,-0.046721840,0.155162740,9.738443370,-0.070315600,0.109265750,0.010429320
1640833519.657610,0.071027420,0.003882540,9.969133380,0.072090330,0.066863010,0.001741950
1640833519.660510,-0.231892900,-0.271821380,10.672986030,0.216195000,-0.010593240,-0.029507280
1640833519.663130,0.032756630,0.263722420,9.375509260,0.200745480,-0.038051600,0.009286400
1640833519.665450,-0.226066440,0.332108320,9.487065320,0.045070040,-0.017876920,0.023065510
1640833519.667790,-0.148569850,-0.060376860,9.775881770,-0.069196520,0.117896520,0.018966200
1640833519.670340,-0.139707360,-0.031903630,10.180569650,0.121691820,0.075654690,-0.002938510
1640833519.672630,-0.393608360,0.038922330,10.794519420,0.282382910,-0.066691630,-0.032731880
1640833519.675470,0.063125810,0.761120200,9.064178470,0.169736160,-0.036957860,-0.018067660
1640833519.677710,-0.031730400,1.067335490,9.464727400,-0.040766610,0.041678560,0.002178550
1640833519.680480,-0.171150830,0.653471710,10.553927420,-0.119395540,0.134615570,-0.001661480
1640833519.682850,-0.056480900,0.509669420,10.437039380,0.129395740,-0.015974040,-0.003997980
1640833519.685320,-0.135646890,0.443606260,10.307413100,0.284349950,-0.101068620,-0.009332600
1640833519.687550,0.168142050,0.757705450,8.929863930,0.100150710,0.060744580,0.003379580
1640833519.690310,0.035032930,0.754331830,9.663193700,-0.132645710,0.064365570,0.032874950
1640833519.693120,-0.003420990,0.055827490,10.484519000,-0.147292030,0.081510840,0.020581490
1640833519.696340,0.133727860,-0.216074330,9.904106140,0.117313880,0.010560450,-0.007432700
1640833519.698380,-0.147911860,-0.043876510,10.268581390,0.287681790,-0.067356230,-0.020615750
1640833519.700900,-0.180722060,0.303348000,9.336078640,0.073915710,0.034551320,-0.014443700
1640833519.702740,-0.108171610,0.465929870,9.369875910,-0.160261990,0.022411350,0.019805130
1640833519.705370,-0.140579310,0.164870410,10.107209210,-0.149466100,0.101585690,0.005011260
1640833519.707630,0.075309460,-0.049307710,9.897809980,0.104939930,0.064738080,-0.027745960
1640833519.710480,-0.024156630,0.167818130,10.373218540,0.300772550,-0.028252610,-0.039760780
1640833519.712730,-0.199002030,0.446101930,9.660252570,0.126150250,-0.014972690,-0.019681450
1640833519.717320,-0.085470640,0.342730080,9.217300420,-0.132945190,-0.011186300,0.014948850
1640833519.717800,-0.215030640,-0.017462220,9.901829720,-0.137792530,0.095877060,-0.004485250
1640833519.720310,-0.189393120,-0.252497940,10.148100850,0.090281670,0.058846170,-0.043024130
1640833519.722600,-0.068300210,0.154081940,10.236616130,0.296954840,-0.045190750,-0.046074390
1640833519.725440,-0.148587440,0.549534680,9.580797200,0.135917960,-0.008176270,-0.024768720
1640833519.728220,-0.086483490,0.433506670,9.584578510,-0.130878390,0.033593180,0.013819340
1640833519.730460,-0.255923330,0.237693470,10.350680350,-0.100140300,0.053635250,0.010295210
1640833519.734940,-0.418807660,0.086447310,10.330005650,0.108961770,-0.053654610,-0.049145520
1640833519.735560,0.009602280,0.745569770,9.456405640,0.214976070,-0.069828340,-0.048035390
1640833519.737560,-0.072441740,1.170020100,9.565555570,0.031913810,0.078842030,-0.041550390
1640833519.740360,-0.090585730,0.908364240,10.357765200,-0.197960450,0.074389580,-0.019881130
1640833519.742870,-0.013441470,0.691537680,10.567358970,-0.101128240,-0.033371150,-0.003485380
1640833519.745760,-0.188152630,0.342785690,10.096718790,0.087128560,-0.088025640,-0.038734080
1640833519.747620,0.037675520,0.645120140,9.223079680,0.102059550,-0.026807190,-0.025177000
1640833519.750320,-0.135784510,0.829329070,9.557974820,-0.075058640,0.054918240,-0.013495980
1640833519.752590,-0.070672710,0.280766990,10.278996470,-0.242632600,0.046326220,-0.001570580
1640833519.755360,0.271196010,0.053380620,10.008955960,-0.105716290,0.014279780,0.003655260
1640833519.757610,-0.044116300,-0.076222530,10.255469320,0.076042120,-0.045704840,-0.059217220
1640833519.760360,-0.079135150,0.392113780,9.690361980,0.037212670,-0.031399730,-0.044426320
1640833519.766690,-0.179736660,0.672394870,9.317742350,-0.128072520,-0.022816660,-0.017625090
1640833519.768190,-0.252168740,0.084409360,9.949768070,-0.247958330,0.038249790,-0.034779320
1640833519.768830,0.057304970,0.040281040,9.760000230,-0.075882670,0.080941600,-0.027509040
1640833519.770290,-0.211425540,0.158270630,10.341938020,0.101639350,-0.047367810,-0.072813030
1640833519.772580,-0.141260160,0.517533420,9.784505840,-0.008569660,-0.046841800,-0.035722550
1640833519.775460,-0.087133300,0.528497460,9.229082110,-0.185546260,-0.023257730,0.010904670
1640833519.777600,-0.293854860,-0.431416240,10.167449950,-0.196240840,0.037556880,-0.030517580
1640833519.781840,-0.197674660,-0.498856100,10.045580860,0.042597950,0.014129280,-0.044052310
1640833519.783050,-0.171914350,-0.008309920,9.871099470,0.164328520,-0.100290780,-0.076161310
1640833519.785320,0.017601750,0.552521530,9.541222570,-0.092637530,0.030891590,-0.061552230
1640833519.787580,-0.024401860,0.774616240,9.829703330,-0.275729600,0.035628680,-0.018581750
1640833519.790400,-0.287641560,0.118036420,10.905889510,-0.145505380,-0.044450170,-0.051245090
1640833519.792590,-0.197256310,0.298966380,9.834279060,0.113800190,-0.092762710,-0.062093150
1640833519.795450,-0.197684850,0.938273190,9.328170780,0.118096180,-0.106862190,-0.058846180
1640833519.797740,-0.252652880,1.070414070,9.719846730,-0.213934470,0.090183300,-0.029937920
1640833519.800410,-0.187411770,0.769563440,10.263020520,-0.343573060,0.003814700,0.002898280
1640833519.802620,-0.123879230,0.054217920,10.776667590,-0.120653230,-0.116176920,-0.026255850
1640833519.805360,0.116205230,0.030153770,9.447117810,0.093594190,-0.047391660,-0.064028810
1640833519.807590,0.075538720,0.542614280,9.436225890,0.032839180,-0.049494200,-0.050985810
1640833519.810750,-0.125034020,0.506733720,10.159940720,-0.275260180,0.032919640,-0.023119150
1640833519.812670,0.060294590,0.162367020,9.738126750,-0.347784190,-0.059059270,-0.006735330
1640833519.815340,0.060084440,-0.287052010,10.045087810,-0.087866190,-0.090271230,-0.034725670
1640833519.817570,0.114701010,-0.050859030,9.445548060,0.091288990,0.041897590,-0.074668240
1640833519.820320,0.001046970,0.613281790,9.775847430,-0.003515180,-0.028233230,-0.047080220
1640833519.822970,-0.241060480,0.599748850,10.275155070,-0.269736350,-0.018373130,-0.013525780
1640833519.825340,-0.063231480,0.117528030,9.572403910,-0.324957070,-0.059342390,-0.014474990
1640833519.827930,-0.126225430,-0.135343490,9.816065790,-0.052316490,-0.062970820,-0.046464800
1640833519.830460,-0.096582410,0.021368310,9.446587560,0.099831830,0.039649020,-0.087943680
1640833519.832650,-0.060948990,0.488381890,9.699007030,-0.027407710,-0.033277270,-0.063009570
1640833519.835300,-0.153269750,0.447427960,10.042688370,-0.278630850,-0.013956430,-0.006264450
1640833519.837660,0.033456420,-0.326931000,9.796656610,-0.275750490,-0.021298230,-0.011353200
1640833519.840360,-0.148076160,-0.451744620,10.263221740,0.028441850,-0.069929660,-0.041760510
1640833519.842630,-0.190646470,-0.011912370,9.555738450,0.141790510,-0.039792060,-0.060579180
1640833519.845440,-0.132771240,0.431059990,9.460531230,-0.077056880,-0.032919650,-0.060382490
1640833519.848750,-0.280680890,0.709246040,10.069149020,-0.290729140,0.026571750,-0.020796060
1640833519.850290,-0.175977100,0.291637810,10.064538960,-0.240834070,-0.062544650,-0.049220030
1640833519.852640,-0.205694630,0.382283690,10.106703760,0.038725140,-0.124667570,-0.064362590
1640833519.855700,-0.246789750,0.892826260,9.416113850,0.080694260,-0.050733990,-0.079733140
1640833519.857650,-0.187154780,0.924160900,9.727460860,-0.163815930,-0.021360810,-0.052805260
1640833519.860650,-0.283015880,0.776572880,10.500606540,-0.302566530,-0.006450710,0.007350740
1640833519.863870,-0.001336860,0.134459300,10.121944430,-0.199380500,-0.095272050,-0.013218820
1640833519.866710,0.181420820,0.041017500,9.749691960,0.006693600,-0.106342150,-0.029423840
1640833519.867590,0.062012400,0.452233610,9.341129300,-0.005313750,-0.018236040,-0.039500000
1640833519.870430,-0.043131270,0.302365900,9.882632260,-0.219447910,-0.032421940,-0.043892860
1640833519.872970,-0.214049560,0.176147620,10.314204220,-0.275762380,-0.081732880,-0.015163420
1640833519.875360,-0.120670270,0.038177450,9.543024060,-0.165617450,-0.118556600,-0.038722150
1640833519.877910,0.024210170,0.148663680,9.574834820,-0.037331880,-0.055845080,-0.055634980
1640833519.882370,-0.087699210,0.783460200,9.722323420,-0.083233420,0.028865040,-0.047968330
1640833519.883030,-0.007895190,0.608293890,10.116495130,-0.242541730,-0.048553950,-0.025783480
1640833519.885300,-0.014549410,0.134640370,10.208562850,-0.229614990,-0.070872890,0.009594860
1640833519.887960,-0.014197880,-0.055098630,9.335795400,-0.086800750,-0.101777920,-0.020147860
1640833519.890360,-0.063709800,-0.220268920,9.472285270,-0.015631320,-0.091421600,-0.033080580
1640833519.892650,-0.119612060,0.084785710,9.318492890,-0.108349350,0.021812320,-0.036709010
1640833519.897600,-0.122971500,-0.050738420,9.962775230,-0.226654160,-0.020791590,-0.045964120
1640833519.898300,-0.233631420,-0.456076800,10.626298900,-0.142546000,-0.064606970,-0.027272110
1640833519.900320,-0.211224170,-0.052747390,9.579438210,0.009658930,-0.122483070,-0.060006980
1640833519.902920,-0.298523840,0.231931920,9.577841760,-0.008049610,-0.122624650,-0.047270960
1640833519.905360,-0.314400940,0.448186220,9.367856030,-0.146551430,0.015637280,-0.022773450
1640833519.907590,-0.281950500,0.392769960,9.907570840,-0.174695250,-0.040377680,-0.043717030
1640833519.910300,-0.274952170,0.152348680,10.561290740,-0.049093370,-0.108742720,-0.031569590
1640833519.912680,0.053768300,0.645755530,9.290055270,0.017702580,-0.108069180,-0.037932400
1640833519.916060,-0.060165650,0.817017910,9.806045530,-0.091655550,-0.087110690,-0.044886770
1640833519.917610,-0.227380800,0.626976250,10.077001570,-0.222598030,-0.017605720,-0.021143260
1640833519.920350,-0.227510050,0.270847380,9.937712670,-0.146825630,-0.133425010,-0.034904480
1640833519.922600,-0.290760760,-0.019025260,10.241347310,0.003327430,-0.155983870,-0.050516430
1640833519.925320,-0.009149620,0.457709520,9.023283960,-0.013728440,-0.055283310,-0.032699110
1640833519.927860,-0.063227350,0.660624440,9.747067450,-0.189512980,-0.069949030,-0.031477220
1640833519.930800,-0.043597750,0.469345600,10.378594400,-0.286383930,-0.027576090,-0.012737510
1640833519.933750,0.095684440,0.319046530,9.887625690,-0.126770150,-0.116014500,-0.021891300
1640833519.935790,-0.132462830,0.329555840,10.222108840,0.013762720,-0.182403620,-0.047944490
1640833519.937610,0.086672220,0.735873220,9.016784670,-0.084206450,-0.062426920,-0.041759010
1640833519.940320,0.117100480,0.788134690,9.452368740,-0.255709920,-0.053974990,-0.017423930
1640833519.942690,0.050542920,0.288506720,10.270161630,-0.289441670,-0.005985800,-0.008875130
1640833519.945400,0.221988230,-0.009646440,9.717299460,-0.105102360,-0.065121060,-0.010403990
1640833519.947640,-0.101689610,-0.059934970,10.176228520,0.031706690,-0.167351960,-0.040222710
1640833519.950470,-0.150111990,0.055396450,9.181790350,-0.085280840,-0.095810000,-0.025074190
1640833519.952610,-0.055648930,0.092355780,9.110382080,-0.253893460,-0.059886280,-0.004418190
1640833519.955350,-0.276448490,-0.154535650,10.318907740,-0.265468660,0.031168760,-0.024259090
1640833519.957600,-0.024952230,-0.193529460,10.040133480,-0.072051580,-0.058759760,-0.040417910
1640833519.960880,-0.058819210,0.244958130,10.079232220,0.072902440,-0.167688730,-0.040438770
1640833519.962700,-0.078509980,0.555475000,9.242974280,-0.080309810,-0.060129180,-0.012405220
1640833519.965590,-0.028191710,0.471540120,9.311025620,-0.237318870,-0.060006980,0.009408590
1640833519.967760,-0.243571700,0.158754170,10.224879260,-0.199115290,-0.036948920,-0.015045700
1640833519.970400,0.016098920,0.105340650,9.736604690,-0.019353630,-0.084185600,-0.041751570
1640833519.973460,0.120047840,0.602038980,9.765490530,0.045283140,-0.118741410,-0.038331760
1640833519.975340,0.006177800,0.709453460,9.670154570,-0.153981160,-0.006705520,-0.029276310
1640833519.977910,0.005461850,0.477446680,10.033752440,-0.264650610,-0.061064970,-0.008124110
1640833519.980350,-0.268566940,0.209866750,10.361911770,-0.160454230,-0.107593840,-0.007583200
1640833519.982730,-0.168957990,0.070491230,9.479125980,-0.015746060,-0.127105430,-0.026960670
1640833519.985290,-0.082053790,0.580253600,9.337931630,-0.007918480,-0.085985670,-0.016894940
1640833519.987620,-0.114471850,0.812823590,9.645895960,-0.226187720,0.032165650,-0.014792380
1640833519.990350,0.024125660,0.532901820,10.336676600,-0.311818720,-0.050282480,0.002747770
1640833519.992620,0.080022420,0.328357580,10.327294350,-0.144217910,-0.097736720,0.001333650
1640833520.001160,0.083222750,0.245140580,9.690664290,-0.013154750,-0.107552110,-0.035880510
1640833520.002430,0.021003670,0.647345900,9.558205600,-0.064463910,-0.080016260,-0.007185340
1640833520.002960,-0.068769070,0.654476170,9.290835380,-0.278268750,-0.024747850,0.007346270
1640833520.003400,0.185249370,0.084283580,9.699657440,-0.330460070,-0.033219160,0.014747680
1640833520.005300,0.235229910,-0.161438260,9.995892520,-0.117704290,0.005972390,0.013791030
1640833520.007620,0.026227390,-0.190514950,10.076220510,0.037992000,-0.080382820,-0.031292440
1640833520.010700,-0.053103390,0.196205410,9.851618770,-0.056388980,-0.127638890,-0.008296970
1640833520.012630,-0.113944170,0.337884840,8.930020330,-0.287878540,-0.035677850,0.018921500
1640833520.015650,-0.166050300,-0.227782410,9.739121440,-0.291767720,-0.013081730,-0.010058280
1640833520.017630,-0.164774390,-0.205142830,10.062995910,-0.039754820,0.014065210,-0.021119420
1640833520.020420,-0.091352560,0.294533430,9.644094470,0.083632770,-0.103637560,-0.045764440
1640833520.022660,-0.074067550,0.572431210,9.798412320,-0.084690760,-0.081221760,0.003023450
1640833520.025360,0.035242470,0.427656200,9.221361160,-0.285895200,0.009235740,0.030018390
1640833520.027860,-0.157999750,-0.186005060,10.222077370,-0.193278510,-0.060239430,0.003063680
1640833520.031170,-0.089854230,-0.119549190,9.977828030,0.048659750,-0.058083250,-0.017501410
1640833520.033020,0.164907830,0.603186910,9.035520550,0.051859020,-0.086542960,-0.035737460
1640833520.035360,-0.077801530,0.684152420,9.999761580,-0.179114950,-0.006045400,-0.000999870
1640833520.037850,0.037235520,0.486550960,9.802053450,-0.304558900,0.031223900,0.011931360
1640833520.040290,-0.227663170,0.120378400,10.389377590,-0.108674180,-0.133821400,-0.013451280
1640833520.042660,-0.274652270,0.165305180,9.859379770,0.075569750,-0.102318830,-0.016355510
1640833520.045360,0.063422360,0.807460190,8.673779490,-0.017009680,-0.041902070,-0.008668010
1640833520.047720,-0.290455250,0.696409880,10.277030940,-0.265061890,0.025951870,0.022327900
1640833520.050300,0.036742770,0.295414330,10.088889120,-0.308403370,0.019140540,0.043091180
1640833520.052680,0.258653670,0.032766990,9.866574290,-0.058838730,-0.120548910,0.001068410
1640833520.055350,0.004160900,0.031166760,9.979255680,0.061611830,-0.036157670,-0.020238760
1640833520.057590,0.134713130,0.574066520,9.083104130,-0.072367490,-0.024792550,-0.001402200
1640833520.060660,-0.221143660,0.430744530,9.978715900,-0.273199410,-0.063224140,0.025457140
1640833520.062840,0.082882520,0.026837960,9.478022580,-0.288581880,0.020885470,0.032097100
1640833520.065630,0.264939250,-0.076757540,9.584389690,-0.033524630,0.007532540,0.009079280
1640833520.067670,-0.061773580,0.057978040,10.343797680,0.069488590,0.002659860,-0.014525650
1640833520.070670,0.207153220,0.474155630,9.360182760,-0.066110490,-0.047495960,0.015427170
1640833520.072620,-0.098292260,0.139283360,9.674456600,-0.228025060,-0.049835450,0.051575910
1640833520.075320,-0.076353940,-0.330309810,9.499874110,-0.214947780,0.029644370,0.021420420
1640833520.078000,0.122356970,-0.348535240,9.473965640,0.027202070,-0.002756710,-0.007800760
1640833520.080440,-0.010808470,0.007437400,9.828548430,0.095066440,0.020690260,-0.025346880
1640833520.082660,0.279657160,0.443388760,9.492385860,-0.075671080,0.034163900,0.003746150
1640833520.085400,0.011246260,0.091267110,10.036654470,-0.185459870,0.014676150,0.040546060
1640833520.087810,-0.080144930,-0.336848830,9.965975760,-0.088314710,-0.028984250,0.008851290
1640833520.090310,-0.055908830,-0.234487520,9.507139210,0.136040170,-0.045205660,0.002083180
1640833520.092650,-0.097398020,0.287481990,9.268694880,0.107727940,0.042115150,-0.007925930
1640833520.095340,0.009962490,0.627314630,9.669857980,-0.124274200,0.087971990,0.004641710
1640833520.097660,-0.167426110,0.366464730,10.491717340,-0.176861880,0.044442710,0.026704370
1640833520.100400,-0.008308330,0.207381740,9.990960120,-0.007423760,-0.070446740,-0.001306830
1640833520.102720,0.064409220,0.257158880,9.406098370,0.155565160,-0.030547380,-0.013454260
1640833520.105390,-0.048791160,0.634054960,9.388078690,0.075355170,0.091280050,0.002384190
1640833520.107630,-0.106997290,0.649328830,10.024833680,-0.136482730,0.046932700,0.026254360
1640833520.110470,0.006153290,0.049434570,10.272365570,-0.146719810,0.000356140,0.041104850
1640833520.112980,0.402032410,-0.052416030,9.419246670,0.038623820,0.015109780,0.020997230
1640833520.115330,0.235442040,0.028665130,9.713198660,0.166064490,0.054782620,-0.016796590
1640833520.117680,0.087155980,0.386636560,9.804114340,0.036104030,0.084623690,-0.010295210
1640833520.120700,0.056727160,0.565759600,9.644372940,-0.136367980,-0.002890830,0.027500090
1640833520.122630,-0.069286060,-0.006472920,9.873390200,-0.130605700,0.013332070,0.030678510
1640833520.125550,0.290127250,0.105404960,9.136885640,0.067062680,0.099958490,0.008054080
1640833520.127670,0.005325230,0.276939300,9.942216870,0.171613680,0.080813450,-0.022333860
1640833520.130420,0.131070390,0.404246480,9.922606470,0.028580430,0.105004030,0.011654200
1640833520.132640,0.193840610,0.285697130,9.613668440,-0.091646600,0.063732260,0.041951230
1640833520.135420,-0.130995750,-0.489646050,10.049485210,-0.039446360,0.038339200,0.023584070
1640833520.137660,0.106966950,-0.379119220,9.197700500,0.139580670,0.066226730,0.002709030
1640833520.140330,-0.130478530,0.008768750,9.273660660,0.182197960,0.062111020,-0.028225780
1640833520.142710,0.017110090,0.132235380,9.697628020,0.001524390,0.155104700,-0.027357040
1640833520.145310,0.080376880,0.220955830,9.941812520,-0.040367250,0.139367580,0.012405220
1640833520.147730,-0.222741860,-0.126841800,10.423501010,0.080664460,0.011336800,-0.012679400
1640833520.150300,0.030058770,0.244868260,9.485702510,0.201083720,0.032828750,-0.003547970
1640833520.152730,-0.129008250,0.701124370,9.081526760,0.139507670,0.085625050,0.014178460
1640833520.155330,-0.112325610,0.398917410,9.856582640,-0.030872220,0.171901300,-0.002650920
1640833520.157600,-0.037470840,0.236474680,10.199032780,0.039680310,0.143171850,0.009033080
1640833520.160320,-0.103153140,0.124601160,10.150182720,0.181400790,-0.014930960,-0.015483800
1640833520.163220,0.270635220,0.409136950,9.289845470,0.168129770,0.064393870,-0.006029010
1640833520.165370,0.055744120,0.609145760,9.369473460,0.038874150,0.158092380,0.002321600
1640833520.167640,-0.103409770,0.216670800,10.400235180,-0.042995810,0.138473480,-0.002618130
1640833520.170910,-0.052622630,0.004712980,10.350569730,0.112079080,0.065560640,0.006088610
1640833520.172620,-0.059709210,0.229492320,9.525119780,0.221912580,-0.000506640,-0.005970900
1640833520.175660,0.139524760,0.559829240,9.211299900,0.108471520,0.119537120,0.005155800
1640833520.177630,0.017428440,0.673284590,9.598719600,-0.046794120,0.208801050,0.023476780
1640833520.180440,0.010932230,0.401938770,10.313771250,-0.031152370,0.110894450,0.016847250
1640833520.182640,0.121256910,0.161410840,10.153521540,0.153478980,0.072075430,0.007246430
1640833520.185430,0.087121220,0.305383770,9.393537520,0.226601970,0.077708070,-0.002487000
1640833520.187950,0.138298820,0.482135180,9.359002110,0.077678270,0.119091570,0.000916420
1640833520.190380,0.189688890,0.340531950,9.425461770,-0.071090460,0.198461120,0.014609100
1640833520.192630,0.316328410,0.020409400,9.827313420,-0.020363930,0.191909090,0.014467540
1640833520.195660,0.022377180,-0.352917340,10.565658570,0.195226070,0.128811610,-0.014074150
1640833520.197670,-0.151034470,-0.193809380,9.686263080,0.284455720,0.053243340,-0.023359060
1640833520.200320,-0.174709980,0.218716500,9.006464000,0.133839250,0.049875680,-0.000680980
1640833520.202660,-0.283468430,0.183982690,9.182607650,-0.079372530,0.221651840,0.007432700
1640833520.205320,-0.067932900,0.072059180,9.807991030,-0.018143650,0.244405870,0.005979840
1640833520.207650,-0.106278960,-0.001443600,10.748453140,0.248058180,0.140126050,-0.034265220
1640833520.210400,0.043005610,0.413075240,9.774915700,0.328274100,0.066134340,-0.033260880
1640833520.212900,0.260192750,0.882876630,9.048409460,0.136639190,0.100576880,0.013035540
1640833520.215300,-0.066942430,0.495225040,9.650181770,-0.087304420,0.229476390,0.013178590
1640833520.217680,0.025584720,0.088878890,10.072830200,0.014784930,0.186701120,0.005081300
1640833520.220900,-0.019812410,0.075530720,10.237593650,0.296725360,0.075756020,-0.022496280
1640833520.222940,0.044637460,0.405344130,9.417698860,0.294327770,0.131100420,-0.042787200
1640833520.225340,0.146363230,0.828568520,9.397661210,0.063082580,0.193263590,-0.001549720
1640833520.227670,-0.302988680,0.517704780,10.366992950,-0.102329270,0.207971050,-0.012704730
1640833520.230380,-0.203627380,0.202485340,10.219172480,0.029136250,0.105109830,-0.005659460
1640833520.232730,-0.134892990,0.462970410,9.574789050,0.272573530,0.059135260,-0.019706790
1640833520.235430,-0.122921610,0.740670740,9.237850190,0.210253890,0.189214960,-0.034457450
1640833520.237670,0.201449800,0.976268410,9.582158090,-0.012257700,0.238481160,0.012530390
1640833520.240490,0.100844910,0.594796060,10.325173380,-0.102521480,0.209566950,0.018127260
1640833520.242650,0.390367060,0.077912000,10.132773400,0.051051380,0.153356790,0.015199190
1640833520.245700,0.317485300,0.200859410,9.635143280,0.250910160,0.117146980,-0.004632770
1640833520.247630,0.008113170,0.258343100,9.244462010,0.169357660,0.152130440,-0.027538840
1640833520.250300,0.144624140,0.231778800,9.206234930,-0.013087690,0.206342340,0.006866460
1640833520.252670,0.006275300,0.048471570,9.580174450,-0.068640720,0.266838070,0.001612310
1640833520.255470,-0.022544550,-0.228788780,10.310768130,0.070273880,0.218702900,-0.035949060
1640833520.257700,-0.130784080,0.112515570,10.158569340,0.238540740,0.143103290,-0.025902680
1640833520.260320,-0.345955400,0.435706230,9.278397560,0.172232110,0.101959710,-0.026892130
1640833520.263700,-0.247766700,0.285806120,9.332070350,0.000226500,0.185742970,0.013932580
1640833520.265430,-0.205313370,0.057029810,9.445620540,-0.003525610,0.293338300,0.011619920
1640833520.267670,-0.081785660,-0.222444500,10.185427670,0.158703360,0.199711370,-0.029978160
1640833520.271460,0.155336560,0.171272890,10.059915540,0.278352230,0.159126540,-0.020198520
1640833520.273040,0.219866770,0.640784200,9.165145870,0.134488960,0.156928600,-0.008249280
1640833520.275340,-0.008983480,0.225600690,9.939403530,-0.019787250,0.186063360,0.005276500
1640833520.277640,-0.162800220,0.039744180,9.797094350,0.060889130,0.211545870,-0.003555420
1640833520.280320,-0.194337960,0.097274320,9.703915600,0.245586080,0.114177190,-0.045079000
1640833520.282650,-0.210785790,0.618607340,9.737394330,0.240837080,0.191338360,-0.029118360
1640833520.285380,-0.210360040,1.134177090,9.345484730,0.025944420,0.222651660,-0.003801290
1640833520.289320,-0.384122520,0.702962220,10.493468280,-0.080263620,0.147341190,0.004816060
1640833520.290290,-0.314026360,0.444276690,10.023442270,0.081287320,0.145240130,0.003959240
1640833520.292610,-0.071273480,0.488115010,9.361124990,0.254097610,0.102056560,-0.019606950
1640833520.296840,-0.177810920,0.807783310,9.881580350,0.157527640,0.198709960,-0.018125770
1640833520.297630,0.094535770,1.071959020,9.451786040,-0.096416460,0.224077720,0.021733340
1640833520.300330,0.208024810,0.460732340,10.235082630,-0.129613300,0.135242950,0.017303230
1640833520.302970,0.282315670,0.103498150,9.947666170,0.080791120,0.192524480,-0.000202660
1640833520.306230,0.278904140,0.280789460,9.304843900,0.238275530,0.141170640,-0.031708180
1640833520.307790,-0.229168340,0.512922350,10.118254660,0.096240660,0.144220890,-0.014014540
1640833520.310680,-0.080881010,0.614331010,9.184610370,-0.144395250,0.188884150,0.027292970
1640833520.312620,-0.127355080,0.167413200,9.657800670,-0.146132720,0.152142350,0.023302440
1640833520.315310,-0.203235940,-0.075445260,9.967203140,0.080403690,0.230500120,-0.008915370
1640833520.317700,0.012096220,0.295348320,9.377065660,0.231896340,0.169134150,-0.027504560
1640833520.320450,-0.290830700,0.542004820,10.122768400,0.089488920,0.121800620,-0.005102160
1640833520.323600,-0.141246500,0.432525400,9.333609580,-0.138480930,0.191335370,0.031864640
1640833520.325320,-0.064942020,-0.080598830,9.534033780,-0.089755650,0.121687360,0.025513770
1640833520.327690,-0.129912560,-0.284655660,9.934288980,0.127270820,0.206172480,-0.011299550
1640833520.330320,0.264862030,0.219685580,9.201489450,0.220133390,0.195485380,-0.022766000
1640833520.332740,-0.053037760,0.382160010,10.125552180,0.067068640,0.155183690,-0.001250210
1640833520.335590,-0.044493080,0.079429800,9.664278980,-0.103688250,0.190325100,0.023064020
1640833520.337660,-0.124582650,-0.217512970,9.563216210,0.025074180,0.090710830,-0.003854930
1640833520.340320,-0.508894980,-0.142788480,9.712919240,0.194494440,0.118510430,-0.038927790
1640833520.342700,-0.139226500,0.535901130,8.831325530,0.175178050,0.175268930,-0.045107310
1640833520.345670,-0.483071740,0.800961970,10.163309100,0.005574530,0.196503150,-0.012934210
1640833520.347670,-0.475945590,0.539095700,10.436148640,-0.077791510,0.157964240,0.008916850
1640833520.350450,-0.166060810,0.405827340,9.747909550,0.084134930,0.026579200,0.007601080
1640833520.352700,-0.370282290,0.467585680,9.567425730,0.188250840,0.081257530,-0.010147690
1640833520.355380,0.015834540,0.791242180,8.885934830,0.074419380,0.181666030,-0.007013980
1640833520.357650,-0.162996680,0.591672300,10.214533810,-0.034712260,0.166304410,0.012841820
1640833520.360650,-0.024192400,0.223218830,10.286922450,-0.048246980,0.108850010,0.008919840
1640833520.362680,0.472219710,0.244342910,9.368166920,0.089283290,0.053596500,-0.010667740
1640833520.365340,0.061684330,0.407913180,9.846086500,0.110542780,0.152032080,-0.036521260
1640833520.368020,-0.067903540,0.703488170,9.706600190,-0.011760000,0.146438230,-0.014027960
1640833520.370360,-0.338563110,0.401516020,9.990077020,-0.050212450,0.046864160,0.011295080
1640833520.372690,-0.434467110,0.146392760,9.470608710,-0.011463460,0.061477720,-0.004591050
1640833520.375340,0.002578120,0.270475420,8.945897100,0.092276940,0.131587680,-0.006377700
1640833520.377650,-0.287949560,0.417962010,10.088876720,0.063036390,0.193658470,-0.019617380
1640833520.380530,-0.059644580,0.596796040,10.030016900,-0.063541540,0.128498690,0.003501770
1640833520.383010,0.035224230,0.098944660,10.029549600,-0.036956370,0.049063570,0.024956470
1640833520.385330,-0.079957280,-0.348872570,9.626907350,0.075109300,0.060497230,-0.011377040
1640833520.387840,0.046373650,-0.060603370,8.964363100,0.156092660,0.078861420,-0.027513510
1640833520.390300,-0.107267360,0.256745760,9.348179820,0.048165030,0.142291200,-0.023889540
1640833520.392630,0.055363540,0.311179490,9.579433440,-0.123523190,0.174839810,-0.023284550
1640833520.395840,-0.101343750,-0.097150780,10.374207500,-0.006465610,0.106105220,-0.025361780
1640833520.397910,-0.364549100,-0.158392400,10.140744210,0.203976040,0.006251040,-0.035394720
1640833520.400310,-0.372032760,0.257984610,9.184591290,0.227251680,-0.007411840,-0.030793260
1640833520.402720,-0.559525730,0.550587710,9.159666060,0.013980270,0.110469750,-0.001794100
1640833520.405370,-0.415012750,0.487097110,9.645966530,-0.148040070,0.153972210,0.001642110
1640833520.407650,-0.393060420,0.048807990,10.499977110,0.040213770,0.069120530,-0.009007750
1640833520.410290,-0.085851350,0.210159850,9.901921270,0.267888640,-0.025863950,-0.044761600
1640833520.412720,0.157780750,0.706990240,9.143180850,0.201387700,0.025190410,-0.044575330
1640833520.415470,-0.052736890,0.734084960,9.719223980,-0.048549470,0.132375930,-0.003729760
1640833520.417710,-0.047931330,0.505609040,10.116252900,-0.150851920,0.067818160,0.010384620
1640833520.421030,-0.122514700,0.062123450,10.187777520,0.065012280,-0.040380660,-0.004191700
1640833520.422720,0.003760820,0.337616980,9.259987830,0.241167840,0.004096330,-0.029401480
1640833520.425340,-0.044531350,0.768756690,9.134449960,0.109232960,0.074113900,-0.028479100
1640833520.427630,-0.325485170,0.608221410,10.113483430,-0.101412860,0.100637990,0.006018580
1640833520.430450,-0.166163410,0.300024300,10.050523760,-0.112822650,0.028234720,0.019174820
1640833520.432920,-0.241934790,-0.144571140,9.968630790,0.102368020,-0.043877960,-0.010107460
1640833520.435360,-0.115410630,0.103721770,9.329650880,0.222054140,0.013428930,-0.026927890
1640833520.438190,0.017921730,0.532933590,9.058224680,0.069825350,0.054085260,-0.016781690
1640833520.440370,-0.076135490,0.352012430,9.919156070,-0.115613640,0.086745620,-0.003531580
1640833520.442700,0.217505920,0.095685640,9.858590130,-0.071610520,0.065970420,0.005531310
1640833520.445650,-0.105737320,-0.234807330,10.195309640,0.163574490,-0.042705230,-0.036244090
1640833520.447760,-0.121340480,0.115763790,9.428773880,0.248707830,-0.031848250,-0.031891470
1640833520.450280,-0.176836450,0.436738700,8.951297760,0.066709510,0.015740090,-0.011691450
1640833520.452720,-0.533386110,0.111462240,9.911872860,-0.113166860,0.075927360,-0.014588240
1640833520.455340,-0.190918940,-0.042677020,9.925404550,-0.005863610,0.043776640,-0.020115080
1640833520.457670,-0.370530900,0.041062140,10.269728660,0.213977740,-0.064799190,-0.055269900
1640833520.460360,-0.187522550,0.484246340,9.536048890,0.226320330,-0.030013920,-0.040167570
1640833520.462850,-0.022593040,0.744720640,9.252987860,0.022804740,0.025746230,-0.011405350
1640833520.466570,-0.512014630,0.318810790,10.365955350,-0.076611330,0.021384660,-0.006224220
1640833520.467740,-0.100624310,0.163091030,9.813976290,0.062318150,-0.051178040,-0.009094180
1640833520.471490,-0.132891770,0.436567130,9.555307390,0.216044490,-0.089848040,-0.036458670
1640833520.472700,-0.038298580,0.781591710,9.437249180,0.115884860,0.020889940,-0.023674970
1640833520.475320,0.094942470,0.876965940,9.830677030,-0.057095300,0.046397760,-0.021697580
1640833520.477690,-0.342814770,0.390989010,10.799466130,-0.075896090,-0.050768260,-0.028811400
1640833520.480680,-0.025904800,0.131838830,9.807976720,0.099682810,-0.096453730,-0.016297400
1640833520.482670,-0.142003890,0.381431010,9.249617580,0.190813850,-0.097960230,-0.046199560
1640833520.485380,-0.274758010,0.627078890,9.411358830,0.024300810,0.004728140,-0.030751520
1640833520.487730,0.123345870,0.614551130,9.453083990,-0.118784610,0.034870210,0.008749960
1640833520.490320,-0.108264180,0.037371110,10.363471980,-0.050020220,-0.003576280,-0.016357000
1640833520.492680,0.029439780,-0.094869500,10.144834520,0.138261930,-0.049217050,-0.018630920
1640833520.497600,-0.029492060,0.276206460,9.596327780,0.189587490,-0.116784870,-0.026194750
1640833520.498470,-0.276718230,0.327157140,9.374259950,-0.006830690,-0.059326000,-0.028207900
1640833520.500310,0.137068360,0.414618700,9.039394380,-0.138694050,0.028948490,-0.005654990
1640833520.502720,-0.094523920,-0.060975700,10.033806800,-0.023481250,0.049723690,-0.030592080
1640833520.505270,-0.059580760,-0.117265080,10.341915130,0.187522170,-0.044621530,-0.048846010
1640833520.507650,0.078604780,0.540945650,9.546320920,0.225381580,-0.129339110,-0.036287310
1640833520.510810,-0.315314650,0.476399720,9.356714250,-0.027006860,-0.057485700,-0.003105400
1640833520.513120,-0.154963780,0.274262190,9.407159810,-0.146560370,0.004646180,-0.002402070
1640833520.515280,-0.313634600,-0.108410190,10.080618860,0.030331320,0.010336940,-0.033919510
1640833520.517690,-0.345156220,-0.024862400,10.262429240,0.234185190,-0.071242460,-0.063622000
1640833520.520420,-0.005510210,0.918002960,9.343966480,0.192254800,-0.123047840,-0.040908160
1640833520.522720,-0.188014480,0.827691910,9.364267350,-0.110243250,-0.012055040,-0.017093120
1640833520.525330,-0.163382440,0.469204430,10.028764720,-0.171256080,0.002966820,-0.002771620
1640833520.527760,-0.235798370,0.139803480,10.284749980,0.097833580,-0.087228420,-0.029098990
1640833520.531520,-0.269097180,0.150213610,9.788140300,0.268258180,-0.142394020,-0.058589870
1640833520.532740,0.009605020,1.113585000,9.004069330,0.107903780,-0.092546650,-0.023707750
1640833520.535430,-0.110481980,0.880791370,9.505159380,-0.227145850,0.043015190,-0.003553930
1640833520.537670,-0.048533220,0.421643940,10.410504340,-0.210891710,-0.022391970,-0.001670420
1640833520.540290,-0.023362950,0.161151720,10.293684010,0.129008310,-0.125241290,-0.020648540
1640833520.543100,-0.202003000,0.147149380,9.546450610,0.251874330,-0.139364620,-0.057959560
1640833520.545860,-0.069213430,0.928212170,8.995615010,0.023429100,-0.095762310,-0.008738040
1640833520.547640,-0.169237630,0.569683790,9.370505330,-0.278471440,0.014388560,0.021588800
1640833520.550270,0.051060240,-0.110957410,10.167058940,-0.204347090,-0.011681020,0.007151070
1640833520.553100,0.164840340,-0.079435840,10.142945290,0.149643420,-0.058059410,-0.018225610
1640833520.555330,-0.092616370,-0.013141320,9.761879920,0.236739250,-0.131936390,-0.052079570
1640833520.557670,-0.047873380,0.571233750,9.198230740,0.001873080,-0.128096360,-0.004255770
1640833520.560340,-0.265696560,0.402451720,9.074530600,-0.262907120,-0.027787680,-0.001457330
1640833520.563160,-0.201576580,-0.255282160,9.898330690,-0.175458240,-0.037045780,-0.021213290
1640833520.565350,-0.179304610,-0.070232840,10.063456540,0.180815150,-0.031588970,-0.044067200
1640833520.567680,-0.259560290,0.413154870,9.770680430,0.244382020,-0.138835590,-0.069519880
1640833520.570840,-0.203160170,0.852928100,9.607211110,-0.029766570,-0.129552200,0.006537140
1640833520.572650,-0.275624220,0.543627860,9.281555180,-0.259390440,-0.036269430,0.029365720
1640833520.575680,-0.323846490,-0.271105560,10.158383370,-0.101314500,-0.092352950,-0.009511410
1640833520.577670,-0.243583660,0.001255060,10.017890930,0.232240560,-0.106957560,-0.031764810
1640833520.580310,-0.096513410,0.678476750,9.285117150,0.195731220,-0.139153000,-0.043012210
1640833520.582650,0.006981080,0.883416530,9.681863780,-0.125403690,-0.077247620,0.012238320
1640833520.585390,-0.039185630,0.687323210,9.798752780,-0.277541610,-0.033284720,0.020530820
1640833520.588090,-0.131590190,0.126284720,10.358270650,-0.060398880,-0.164879860,-0.009465220
1640833520.590420,-0.167571070,0.169669290,9.821239470,0.224535170,-0.159825380,-0.016206500
1640833520.592690,-0.078357950,0.842172210,8.922698970,0.133998710,-0.119371730,-0.042632230
1640833520.595440,-0.170713560,0.811575230,9.868035320,-0.188133110,-0.062157210,0.019782780
1640833520.598080,0.028056000,0.392541770,9.768270490,-0.279460850,-0.046031180,0.038680430
1640833520.600260,0.121713890,-0.088776390,10.088663100,-0.032733380,-0.136354570,-0.006015600
1640833520.602780,0.000391050,-0.018512500,10.020970340,0.207494240,-0.118386760,-0.001768770
1640833520.605360,-0.004621830,0.518322940,9.002464290,0.102804610,-0.142209230,-0.006397070
1640833520.607710,-0.173307120,0.315948870,9.562299730,-0.179766120,-0.133723040,0.019262730
1640833520.610270,0.004763880,-0.016014390,9.287045480,-0.236363720,-0.012950600,0.035753840
1640833520.612660,0.002301000,-0.209114240,9.921389580,0.012120600,-0.080604860,-0.029857460
1640833520.615320,-0.235192760,0.007527050,10.524416920,0.207245360,-0.118090210,-0.040309130
1640833520.617740,-0.042094430,0.759116110,9.074468610,0.083762430,-0.162144040,-0.013887890
1640833520.620680,-0.260024130,0.518902900,9.603748320,-0.180482860,-0.131146610,0.013355910
1640833520.622730,-0.116371210,0.064777080,9.582201000,-0.199162970,-0.003591180,0.025373700
1640833520.625310,-0.099368510,0.004196770,9.873585700,0.086615980,-0.119708500,-0.014171010
1640833520.627660,-0.210925680,0.212308180,10.198355670,0.207285630,-0.161716340,-0.036452710
1640833520.630340,0.244318370,0.761789200,8.783125880,0.003001090,-0.098168850,0.000531970
1640833520.632730,-0.181197290,0.309286450,10.053474430,-0.183425860,-0.081399080,0.014580790
1640833520.635410,-0.281175550,-0.141061190,10.482302670,-0.118525350,-0.081323090,-0.000301000
1640833520.638210,-0.106746930,0.152257220,9.597738270,0.128865260,-0.206066670,-0.026941300
1640833520.640410,-0.343470130,0.517424880,9.799270630,0.127457080,-0.155901910,-0.043906280
1640833520.642700,0.063771880,1.063465830,8.990008350,-0.097838050,-0.021511320,0.004559760
1640833520.645340,-0.193740460,0.859085860,10.232457160,-0.209999100,-0.093792380,0.011660160
1640833520.647960,-0.075017770,0.363416140,10.463378910,-0.104190420,-0.121304380,0.011397900
1640833520.650300,0.228987510,0.434147240,9.295632360,0.115698580,-0.161387040,0.002746280
1640833520.652730,-0.253882530,0.507747950,9.941215520,0.073951480,-0.142051290,-0.012838840
1640833520.655460,0.156598080,0.694414790,9.210462570,-0.171157730,-0.058732930,0.020232800
1640833520.657700,0.166112910,0.258066360,9.665363310,-0.236535040,-0.085932010,0.025244050
1640833520.660300,0.190857720,-0.277101280,10.322262760,-0.089252000,-0.042460860,-0.006701050
1640833520.662730,0.379219060,-0.010830350,9.645465850,0.122213370,-0.074233110,-0.016009810
1640833520.665530,-0.256501590,0.304909080,10.006282810,0.063627970,-0.183531640,-0.016427040
1640833520.667740,0.042647540,0.400878580,8.985348700,-0.191104410,-0.105905560,0.029262900
1640833520.671880,-0.020651360,0.116484730,9.156343460,-0.212578490,-0.008229910,0.033502270
1640833520.673300,-0.217541810,-0.235922170,10.363157270,-0.029872360,-0.002343950,-0.003589690
1640833520.675300,0.034268090,0.198581110,9.967007640,0.161722320,-0.082777440,-0.022049250
1640833520.677640,-0.164368300,0.706140520,9.617698670,0.045548390,-0.168530670,-0.014443700
1640833520.680520,0.002209440,0.552079680,9.230212210,-0.213976200,-0.056172910,0.018128750
1640833520.682720,-0.095331740,0.089709980,9.488665580,-0.175274910,-0.004422670,0.010043380
1640833520.686760,-0.222952250,-0.207528050,10.227942470,0.059989100,-0.083971020,-0.029601160
1640833520.690080,0.174602580,0.318550230,9.518815990,0.171570490,-0.092887880,-0.025612120
1640833520.690800,0.006424470,0.750588000,9.417607310,-0.029926000,-0.051121420,0.009259580
1640833520.692730,-0.071112560,0.387473760,10.185872080,-0.249439490,-0.031359490,0.032462180
1640833520.695430,-0.307340950,0.046999090,10.290397640,-0.108137730,-0.087414680,0.022204220
1640833520.698040,-0.358289000,0.084525130,9.774451260,0.118775670,-0.191909070,-0.019674000
1640833520.700280,-0.106472290,0.679268060,9.060515400,0.111895800,-0.072591010,-0.020946560
1640833520.702940,-0.215139750,1.219578980,9.415852550,-0.144669410,0.022193800,0.008162860
1640833520.706990,-0.017582520,0.913297650,10.409216880,-0.293487340,-0.043679780,0.032354890
1640833520.707700,0.120062400,0.440047440,10.328825000,-0.098474330,-0.095024700,0.013317170
1640833520.710320,0.225443800,0.368718740,9.596872330,0.118324180,-0.133056940,-0.015506150
1640833520.712760,0.118010260,0.610641480,9.501789090,0.051318100,-0.064112250,-0.002644960
1640833520.715350,-0.058989380,0.608687880,9.490162850,-0.205247120,-0.030274690,0.034007420
1640833520.717710,0.094535270,0.035033900,9.734751700,-0.304484400,-0.060135130,0.052404410
1640833520.720420,0.127498120,-0.393776090,9.796113010,-0.090566270,-0.021508330,0.028790530
1640833520.723770,0.153870520,-0.139489500,9.533042910,0.118933630,-0.040836630,-0.015425680
1640833520.725340,-0.064107520,0.330550400,9.991560940,0.031067440,-0.071285680,-0.001439450
1640833520.727700,-0.250230610,0.393117640,9.667494770,-0.198319550,-0.036494440,0.031860170
1640833520.730900,-0.149933920,0.082497630,9.579592700,-0.244458060,-0.084540260,0.016246740
1640833520.732660,-0.252251090,-0.056642730,9.784698490,-0.034572180,-0.006827710,-0.011219080
1640833520.735590,-0.034831520,0.429942070,9.374876020,0.121738030,-0.014162070,-0.024741890
1640833520.738680,-0.095476630,0.829429150,9.930352210,-0.004270670,-0.052671140,-0.002007190
1640833520.740270,-0.043417710,0.593575240,9.656131740,-0.216662880,0.004334750,0.049076980
1640833520.742700,0.033982260,-0.008584710,9.856239320,-0.164143740,-0.061300410,0.050531330
1640833520.745330,-0.288706630,-0.324510160,10.283714290,0.062151260,-0.069433450,0.017729400
1640833520.747940,-0.005384380,0.177940550,9.203841210,0.117476270,-0.062318140,-0.012427570
1640833520.750680,-0.165502150,0.586683750,9.776479720,-0.075921420,-0.020016730,-0.007024410
1640833520.752890,-0.238783400,0.524461510,9.893927570,-0.257299870,0.021964310,0.017790500
1640833520.756260,0.086672810,0.505192520,9.847763060,-0.139856340,-0.085182500,0.002105530
1640833520.757680,-0.118028780,0.521367430,10.015993120,0.050793590,-0.055950880,-0.009125470
1640833520.760270,0.078055300,0.879546640,9.314323430,0.049722190,-0.019100310,-0.005732480
1640833520.762780,-0.068109800,0.983314750,10.014538760,-0.118835270,-0.028839710,0.036156180
1640833520.765700,0.019945350,0.492308530,9.813256260,-0.255778370,0.000379980,0.066591790
1640833520.768060,0.348665710,0.078086300,9.574724200,-0.121833410,-0.025349860,0.048035390
1640833520.770360,0.142588820,-0.056565330,9.988217350,0.043825810,0.013674800,0.011511150
1640833520.772730,0.140928670,0.200369210,9.354038240,-0.007046760,-0.004827980,-0.000394880
1640833520.775330,-0.055127030,0.222855970,9.723325730,-0.134266910,-0.039178140,0.025898220
1640833520.777670,-0.223947410,-0.121768190,9.651815410,-0.210642830,0.016020240,0.025871400
1640833520.780290,-0.092297830,-0.161795560,9.575804710,-0.062039510,-0.020083790,0.009912250
1640833520.782840,-0.270818140,0.092105310,9.941464420,0.059087570,0.006757680,-0.014747680
1640833520.785370,-0.013456500,0.591160480,9.415822980,-0.036393100,0.019489230,-0.002649430
1640833520.788230,-0.043173150,0.654724120,9.841796880,-0.131359700,0.021652880,0.040417910
1640833520.790340,-0.105749160,0.223585430,9.907732010,-0.156711030,0.022688510,0.037169450
1640833520.792700,-0.079265210,0.042481790,9.749381070,0.006422400,-0.054772200,0.029821700
1640833520.795360,-0.145785000,0.148638800,9.530854230,0.090909010,-0.026087470,0.016982850
1640833520.797740,-0.030815110,0.393004060,9.154368400,-0.064304470,0.039182610,0.003205240
1640833520.801000,-0.176004890,0.334923210,10.134421350,-0.166672470,0.063300130,0.030733650
1640833520.802810,-0.105922950,0.028621960,10.303434370,-0.114917780,0.014600160,0.013381250
1640833520.806410,-0.147068680,0.133511190,9.973196030,0.051236160,-0.087459390,0.002153220
1640833520.807740,-0.210942000,0.597474630,9.419348720,0.073881450,-0.032389160,0.019367040
1640833520.810300,-0.124074730,0.826184450,9.143521310,-0.121028740,0.049687920,0.018055740
1640833520.812820,-0.301784660,0.681541860,10.196025850,-0.195725280,0.029972200,0.045672060
1640833520.815690,0.051590400,0.465793250,10.054290770,-0.096690650,-0.003400450,0.051523750
1640833520.817930,0.249262110,0.347313760,9.701445580,0.044457610,-0.010077650,0.022239980
1640833520.820500,0.181496080,0.481841390,9.910043720,0.026921930,0.050653520,0.017511840
1640833520.822760,0.198549360,0.595252450,9.698328020,-0.145980720,0.035919250,0.028638540
1640833520.825320,-0.133734170,0.088782910,9.939561840,-0.192701850,-0.028380760,0.047408060
1640833520.827680,0.081181970,-0.165728350,9.245791440,-0.068648150,0.003638860,0.040689110
1640833520.830360,0.023275210,-0.186684970,9.248762130,0.054280460,0.049813100,0.010596220
1640833520.832730,-0.167158870,0.007165420,9.918469430,0.022488830,0.085976730,0.022983550
1640833520.835310,0.004871690,0.315348600,9.825208660,-0.110936180,0.039193050,0.051552070
1640833520.837720,-0.307422550,-0.091333200,10.227148060,-0.149691120,-0.004446510,0.053852800
1640833520.840300,-0.102501480,-0.131326840,9.550828930,-0.007395450,0.007936360,0.038175290
1640833520.842660,-0.093496550,0.112305830,9.363097190,0.118863570,0.011740620,-0.000219050
1640833520.845330,-0.146017430,0.376182590,9.390572550,0.034157940,0.081944470,0.006957350
1640833520.847780,0.238131700,0.677828310,9.416539190,-0.117336220,0.097996000,0.038310890
1640833520.850420,-0.049376380,0.073598440,10.340993880,-0.109261270,0.065945080,0.033116340
1640833520.852790,-0.028476470,-0.152504340,10.022128110,0.075833510,-0.014214220,0.020337110
1640833520.855510,-0.128041040,0.107101100,9.419054990,0.187969210,-0.048466030,0.018212200
1640833520.857700,-0.392987160,0.150891290,9.371368410,0.023017830,0.078463550,0.017519300
1640833520.860320,-0.292690280,0.317611660,9.823624610,-0.127094980,0.098475830,0.033317510
1640833520.862920,-0.443631980,0.033949680,10.417823790,-0.052866340,0.038309400,0.020517410
1640833520.865410,-0.233123820,0.156839420,9.860544200,0.121402750,-0.041148070,0.001968440
1640833520.867980,-0.070597620,0.840473060,9.261694910,0.156223770,-0.025755170,0.004643200
1640833520.870360,-0.227258530,0.856145020,9.478836060,-0.046113130,0.093841550,0.006751720
1640833520.872740,-0.071568380,0.739984810,10.189629550,-0.125725540,0.061224400,0.040119880
1640833520.875300,-0.004735190,0.440434310,10.210667610,0.001296400,-0.011536480,0.033350290
1640833520.877650,0.251272560,0.326994900,9.526919360,0.112552940,0.001475210,0.010524690
1640833520.880300,0.244578140,0.666461770,9.455370900,0.076559190,0.051052870,0.028181080
1640833520.882800,0.008135570,0.374347690,9.597916600,-0.102290510,0.078694530,0.023598970
1640833520.885620,-0.018726130,-0.124859010,9.923097610,-0.099278990,0.021737820,0.043375790
1640833520.888320,-0.187511980,-0.369456890,9.840801240,0.069594380,0.003384050,0.014926500
1640833520.890310,-0.263984080,-0.186742810,9.464834210,0.126178580,0.011838980,-0.010417400
1640833520.892750,-0.246062310,0.380100100,9.526343350,0.037881730,0.045731670,0.008289520
1640833520.895720,-0.181807770,0.409219800,9.485725400,-0.117005420,0.097715880,0.002804400
1640833520.897850,-0.175629060,0.080120130,10.207579610,-0.049692390,0.042037670,0.009246170
1640833520.900670,-0.135024790,0.082596700,10.003655430,0.165988500,0.005334620,-0.000622870
1640833520.902840,-0.074995740,0.303791640,9.253279690,0.199007990,-0.034306950,-0.018572810
1640833520.905470,-0.048500040,0.545438770,9.408818240,0.019553310,0.041048230,0.013267990
1640833520.907680,0.086737070,0.454923660,9.468094830,-0.135536480,0.135511130,0.006292760
1640833520.910750,-0.034911700,-0.030858210,10.492749210,-0.020901860,0.037117310,-0.011062620
1640833520.912680,-0.074061370,0.107482220,10.133251190,0.204054980,-0.019438570,-0.023990870
1640833520.915370,-0.018613940,0.575818240,9.072384830,0.176461030,-0.023807580,-0.026991960
1640833520.918130,-0.399880680,0.553808930,9.788443570,-0.031478710,0.053967540,0.011663140
1640833520.920370,-0.454905300,0.418895840,9.899909970,-0.123220690,0.101131220,0.019630790
1640833520.922800,-0.430479910,0.124518080,10.318996430,0.039877000,-0.034922360,0.005961960
1640833520.925360,-0.151059420,0.371800070,9.809110640,0.190278900,-0.002387170,-0.002504890
1640833520.927740,0.239296840,0.894875290,8.984368320,0.104454160,0.080357500,-0.015558300
1640833520.930380,-0.009629350,0.701792600,10.198990820,-0.081291780,0.071311000,0.001737480
1640833520.932730,0.128553670,0.465379060,9.942380910,-0.094257300,0.040994580,0.023905930
1640833520.935410,0.160351110,0.076176130,9.597787860,0.087283550,-0.054250660,0.002035500
1640833520.938280,-0.069527040,0.028589650,9.599973680,0.167343040,0.018528100,-0.009022650
1640833520.940300,0.120178770,0.463913020,8.971129420,0.059369210,0.102905940,-0.005850200
1640833520.943320,-0.165420220,0.246689650,10.192665100,-0.092522790,0.076304380,0.002929570
1640833520.945300,-0.049230010,-0.060432420,10.150870320,-0.071662660,0.092338030,0.011566280
1640833520.947740,-0.088869420,-0.185103790,9.712527280,0.139887650,-0.001180170,-0.030323860
1640833520.950630,-0.545759080,-0.155694340,9.873616220,0.221370160,-0.036375220,-0.047712020
1640833520.952770,-0.065753450,0.423083450,8.498687740,0.085927550,0.053648660,-0.024628640
1640833520.955590,-0.214123440,0.434088890,9.664518360,-0.094123190,0.110028680,-0.027120110
1640833520.957710,-0.096746840,0.173148900,10.531276700,-0.062946980,0.137129430,-0.009699170
1640833520.960440,0.083726060,0.208695310,10.233345990,0.193706150,-0.012345610,-0.024136900
1640833520.962720,-0.219571430,0.394655170,9.908560750,0.259715350,-0.078621510,-0.034871700
1640833520.965320,0.062264730,0.724384070,8.684645650,0.054234270,0.044089560,0.002931060
1640833520.968040,-0.260315510,0.516175450,9.602173810,-0.103259110,0.109548880,0.006900730
1640833520.970770,-0.332389030,-0.022748540,10.459091190,-0.021955370,0.075598060,-0.001843270
1640833520.972710,0.040200730,0.128299880,9.877469060,0.215725620,-0.005517900,-0.024601820
1640833520.975350,-0.196355920,0.413315420,9.851301190,0.221133230,-0.015263260,-0.047220290
1640833520.977750,0.026046510,0.664868830,9.372604370,0.002861020,0.079476840,-0.020387770
1640833520.980320,-0.236636360,0.556017760,9.948265080,-0.092995170,0.066889820,-0.016696750
1640833520.982700,-0.218118550,0.105367740,10.112934110,0.010971720,-0.001563130,-0.019305940
1640833520.985500,0.177970110,0.279629470,9.260522840,0.216294840,0.004927810,-0.012291970
1640833520.988850,-0.013164630,0.552082420,9.451835630,0.189483140,0.063963230,-0.022028390
1640833520.990430,0.186837480,0.577683570,9.636868480,-0.032190980,0.094990430,0.008565190
1640833520.992780,0.028071080,0.230789560,9.985322950,-0.076089790,0.060309470,0.021898740
1640833520.995370,-0.076535010,-0.398525510,10.117962840,0.082449620,0.008346140,-0.011789800
1640833520.997700,-0.155007300,-0.193929230,9.588594440,0.252707300,0.011381510,-0.034648180
1640833521.000290,-0.358417570,0.273697970,9.233423230,0.183635960,0.016580520,-0.055128340
1640833521.002790,-0.112217010,0.348873730,9.275959970,-0.047190490,0.086951260,-0.045010450
1640833521.005840,-0.174310220,0.257513940,9.944313050,-0.061486670,0.131775440,-0.025650860
1640833521.008130,-0.095542470,-0.086474130,10.300289150,0.147485750,0.036188960,-0.053362550
1640833521.010300,-0.098986800,0.223387660,9.996891020,0.307482510,-0.035129490,-0.049191710
1640833521.012710,-0.172256690,0.791347740,9.134969710,0.190405560,-0.011368100,-0.019446020
1640833521.015310,-0.044895910,0.621829270,9.310010910,-0.076110660,0.075565270,-0.008465350
1640833521.017970,-0.230842080,0.273985770,10.170649530,-0.063326950,0.137624160,-0.006860500
1640833521.020420,-0.172410850,0.098115350,10.281547550,0.183977200,0.012956560,-0.046482690
1640833521.022730,-0.130464320,0.374140440,9.965324400,0.296872850,-0.062361360,-0.063990060
1640833521.025340,-0.206481080,0.871005650,9.114462850,0.110648570,0.026986000,-0.040073700
1640833521.027740,-0.217978750,0.683654190,9.570464130,-0.126107020,0.071606030,-0.029015540
1640833521.030340,-0.351502570,0.264012400,10.489271160,-0.052982570,0.076395280,-0.020197030
1640833521.032780,-0.124922720,0.284453570,9.951100350,0.199157000,-0.022667650,-0.035250190
1640833521.035450,-0.003704720,0.491799320,9.620450020,0.255580280,-0.034834440,-0.039574500
1640833521.037750,-0.018866700,0.791193540,9.092625620,0.039437420,0.080676380,-0.019985440
1640833521.040770,0.090578960,0.609809460,9.538314820,-0.135368110,0.060544910,-0.016200540
1640833521.042740,-0.068826160,0.052787140,10.399637220,-0.029231610,0.038032230,-0.009784100
1640833521.045310,-0.044985780,0.076557510,9.654409410,0.196845860,-0.021010640,-0.046345600
1640833521.047660,-0.061744460,0.377615270,9.507401470,0.215417150,-0.047943000,-0.064758940
1640833521.050320,-0.069449450,0.500048280,9.142245290,0.002071260,0.111912200,-0.026477870
1640833521.052820,0.022230310,0.328271660,9.660521510,-0.114595900,0.099432470,-0.017951430
1640833521.058030,-0.272339110,-0.200603190,10.754199030,0.020089750,0.031329690,-0.028480590
1640833521.058940,-0.235063510,-0.216289480,9.567923550,0.232707010,-0.048579280,-0.042738020
1640833521.060270,-0.185049770,0.133318600,9.208672520,0.253428550,-0.074589260,-0.060175360
1640833521.062940,-0.302107270,0.268170030,9.223424910,0.014807280,0.120948240,-0.038182740
1640833521.065380,-0.114835140,0.375609520,9.690504070,-0.096857560,0.089353320,-0.031434000
1640833521.068000,-0.208212150,0.041828330,10.880191800,0.050477690,0.011672080,-0.054150830
1640833521.070480,-0.057801980,0.294157710,9.687104230,0.248090920,-0.029082590,-0.063300140
1640833521.072890,-0.077923880,0.794197080,9.254570010,0.247524720,-0.073476140,-0.050234810
1640833521.075320,-0.277414980,0.715455290,9.499545100,-0.018271800,0.089670730,-0.040729350
1640833521.077710,-0.196726550,0.665116850,9.667979240,-0.097686070,0.052675610,-0.009460750
1640833521.080280,-0.318510000,0.231932610,10.696991920,0.076742470,-0.035913290,-0.033496320
1640833521.082730,-0.060202040,0.318257630,9.589509960,0.220811380,-0.003714860,-0.054150820
1640833521.085440,0.001617580,0.796147050,9.428739550,0.167721510,-0.029024480,-0.052237510
1640833521.087880,-0.159672960,0.585046290,10.045742030,-0.067159530,0.069844730,-0.038203600
1640833521.090370,-0.091293690,0.370278780,9.820177080,-0.087253730,0.010907650,-0.003924970
1640833521.092770,-0.239503760,0.054902530,10.149195670,0.105746100,-0.089879330,-0.030018390
1640833521.095330,-0.056688320,0.212110040,9.247364040,0.186266020,0.008229910,-0.054521860
1640833521.097690,-0.000918470,0.740684450,9.148173330,0.103013220,0.003112850,-0.029499830
1640833521.100290,-0.046635490,0.468789640,9.987728120,-0.085860490,0.067159530,-0.024338070
1640833521.102910,0.131831120,0.209393350,9.913684840,-0.054299830,0.061605870,-0.002767150
1640833521.105410,-0.187871350,0.025832260,10.321939470,0.158350150,-0.085404500,-0.032997120
1640833521.108700,-0.158718210,0.183537780,9.402610780,0.177332770,-0.060564280,-0.057184690
1640833521.110300,-0.094383210,0.578291890,8.736478810,0.049005450,0.004345180,-0.032818320
1640833521.112700,-0.253534590,0.211067200,9.777073860,-0.084088750,0.099180640,-0.037483870
1640833521.115280,-0.183264210,-0.046608820,10.385845180,0.006859000,0.058431930,-0.046256190
1640833521.117870,-0.280551460,0.097242830,10.261116030,0.214535000,-0.095616290,-0.056521590
1640833521.120660,-0.209854680,0.293460880,9.479873660,0.181761380,-0.081065300,-0.058177120
1640833521.122750,-0.185411480,0.547658980,9.119121550,0.019627810,0.021317600,-0.027649100
1640833521.125350,-0.359589820,0.247674150,9.914359090,-0.064900520,0.054948030,-0.035151840
1640833521.127720,-0.197923510,0.006779210,10.394452100,0.069430480,0.001817940,-0.052247940
1640833521.130280,-0.145195660,0.458602340,9.879110340,0.235091150,-0.094576180,-0.055871910
1640833521.132820,-0.015666180,0.803686200,9.435815810,0.127741710,-0.066292290,-0.052653260
1640833521.135460,-0.058432850,0.809833770,9.639935490,-0.058078770,0.042966010,-0.025545060
1640833521.138110,-0.303161000,0.549907860,10.226197240,-0.058360390,0.009486080,-0.027239320
1640833521.140330,-0.298240360,0.139514890,10.593395230,0.115700090,-0.092180080,-0.034724180
1640833521.142860,-0.183387470,0.380703510,9.475798610,0.228275370,-0.097249450,-0.049373510
1640833521.145310,-0.126968490,0.778273170,9.081849100,0.051184000,-0.038822000,-0.044946370
1640833521.147720,-0.008481460,0.651256080,9.741194730,-0.140807080,0.057014830,-0.014634430
1640833521.150550,-0.053332190,0.258417610,10.095974920,-0.072093310,0.014762580,-0.019706780
1640833521.153070,0.018303510,-0.114159950,10.453252790,0.160081650,-0.105817620,-0.038388360
1640833521.155430,-0.032488880,0.124055160,9.625194550,0.240914540,-0.072185680,-0.042347610
1640833521.157800,-0.080229360,0.466895520,9.023575780,0.042009360,-0.060278180,-0.027552250
1640833521.160250,-0.103033330,0.279005560,9.709750180,-0.161544950,0.026550890,-0.016960500
1640833521.162860,-0.047819430,0.034091490,9.740859990,-0.074861930,0.053203110,-0.027346610
1640833521.165290,-0.133392180,-0.173010680,10.423068050,0.200438500,-0.086636860,-0.064480310
1640833521.168200,-0.276993570,0.272493540,9.904294010,0.275033680,-0.094278140,-0.066103030
1640833521.170650,-0.133711310,0.709579710,8.904500010,0.045157970,-0.082777450,-0.034274160
1640833521.172840,-0.377897140,0.278263240,9.963447570,-0.160610650,0.003688040,-0.018814200
1640833521.175810,-0.157330160,-0.008832620,9.897461890,-0.040663790,0.048112880,-0.031331180
1640833521.177740,-0.035837490,-0.017224450,10.265389440,0.247186420,-0.098447510,-0.068908930
1640833521.180290,-0.064274050,0.460515830,9.944348340,0.259727270,-0.061565640,-0.058327620
1640833521.183090,0.152310800,0.885527190,9.092254640,0.005200510,-0.043250620,-0.030770900
1640833521.185690,-0.258316930,0.445764900,10.326288220,-0.166216480,-0.031936170,-0.019782780
1640833521.187760,-0.226218040,0.206303890,10.032321930,-0.023069980,-0.022722780,-0.019672510
1640833521.190460,-0.092991710,0.304551780,9.808755870,0.246125470,-0.132191200,-0.057496130
1640833521.192700,-0.197145220,0.682605450,9.898060800,0.200136050,-0.026905540,-0.056752570
1640833521.195340,0.082712720,1.042837980,9.294025420,-0.060203680,0.012621280,-0.024925170
1640833521.197770,-0.198491010,0.468640450,10.560541150,-0.169380020,-0.041517620,-0.010991100
1640833521.200450,-0.136509420,0.109772350,10.206105230,-0.001569090,-0.040635470,-0.009331110
1640833521.203080,0.033923480,0.139256330,9.398958210,0.237372550,-0.140219940,-0.041276220
1640833521.205420,-0.165182680,0.333724530,9.542600630,0.155088320,-0.036491450,-0.043919680
1640833521.207760,0.249800550,0.601979970,9.061849590,-0.106769820,0.047813360,-0.002755220
1640833521.210290,0.059070940,0.010245610,10.461778640,-0.148615240,0.021998580,-0.001998250
1640833521.212720,-0.034526010,-0.314957710,10.634305000,0.052271780,-0.026661160,-0.019484760
1640833521.215380,0.021028300,0.034810180,9.578746800,0.257563530,-0.155216440,-0.047966830
1640833521.217750,-0.366837260,0.219952360,9.400813100,0.140713140,-0.076599400,-0.044994050
1640833521.220380,-0.156849740,0.478052770,8.998910900,-0.108276310,0.042609860,-0.020869080
1640833521.222920,-0.393575760,0.159496490,10.286819460,-0.104129310,0.035542250,-0.040325520
1640833521.225310,-0.341334730,-0.086750460,10.694811820,0.098524980,-0.044286240,-0.050677350
1640833521.227750,-0.061303190,0.496851000,9.652816770,0.273668740,-0.145906180,-0.046895440
1640833521.230300,-0.269805220,0.649465320,9.476948740,0.101436680,-0.061066460,-0.035098200
1640833521.232790,-0.007151730,0.558694120,9.574877740,-0.123925510,0.047284370,0.004383920
1640833521.235740,-0.231670680,0.112798880,10.488377570,-0.046396250,0.003913040,-0.014244020
1640833521.237760,-0.242964460,-0.068379280,10.487960820,0.155240310,-0.121429580,-0.039337580
1640833521.240500,0.169389080,0.640200500,9.064768790,0.224494900,-0.128185720,-0.032170110
1640833521.242750,-0.107812570,0.765971300,9.450171470,-0.010207300,0.009964410,-0.041863320
1640833521.245310,-0.055633680,0.694967030,10.259247780,-0.158645210,0.044383110,-0.009591880
1640833521.247780,-0.259129430,0.396399050,10.589772220,0.004819040,-0.061431530,-0.015404820
1640833521.250300,-0.245278540,0.172812310,10.160685540,0.168669220,-0.157998470,-0.045493250
1640833521.252840,0.113828890,0.825648190,8.819952960,0.152502950,-0.074557970,-0.013025100
1640833521.256170,-0.129963800,0.826098380,9.278870580,-0.091914840,0.033535060,0.000594560
1640833521.257710,0.117790240,0.333501250,10.228152280,-0.184291570,0.025968260,0.023628770
1640833521.260290,0.112306390,-0.065398790,10.187850950,0.034151970,-0.025954840,0.000673530
1640833521.263470,-0.102624180,-0.305888120,10.200711250,0.217038410,-0.122073290,-0.048150130
1640833521.265280,-0.009284710,0.269318160,9.347822190,0.141604240,-0.074464090,-0.023815040
1640833521.267720,-0.280286730,0.477892430,9.073337550,-0.124447060,-0.022250420,-0.019869210
1640833521.270420,-0.103447360,0.123224660,9.880928990,-0.187905150,0.020721560,-0.013525780
1640833521.272970,-0.133008050,0.011109010,10.138810160,0.070337950,0.047253080,-0.023984910
1640833521.275280,-0.340119060,0.140021250,10.380106930,0.259028380,-0.124886650,-0.056302560
1640833521.277780,-0.165896910,0.724452200,9.716710090,0.154660640,-0.118720540,-0.005719070
1640833521.280270,-0.270981670,0.881407680,9.036888120,-0.148338080,-0.012603400,0.008217990
1640833521.282780,-0.283207800,0.342942090,10.187931060,-0.211773860,0.004272160,-0.007820130
1640833521.285710,-0.135613780,0.171098800,10.393223760,0.072503080,0.021196900,-0.025418400
1640833521.287770,-0.089850380,0.499636170,10.019950870,0.255243480,-0.126621140,-0.069858130
1640833521.290440,0.012666380,0.998219490,9.628877640,0.085264440,-0.093421330,-0.022077560
1640833521.292780,0.056044900,1.019783740,9.139380460,-0.233398380,0.030529500,-0.000463430
1640833521.295600,-0.219368850,0.444953950,10.479642870,-0.240394470,-0.033894180,-0.005136430
1640833521.297870,-0.154357220,0.119434740,10.415498730,0.065861640,-0.062280900,0.001545250
1640833521.300310,0.045095340,0.326538710,9.397986410,0.217531620,-0.100311640,-0.034366550
1640833521.303320,-0.053444840,0.711649300,9.735857010,0.021804870,-0.010010600,-0.004808600
1640833521.305360,0.046387560,0.691170100,9.611474040,-0.269728870,0.060665600,0.027807060
1640833521.307740,-0.171168740,0.150013610,10.425521850,-0.238420070,-0.070449720,0.009165700
1640833521.310680,-0.083115930,-0.146363020,10.128426550,0.069928150,-0.084027630,0.008174780
1640833521.312770,0.054618760,0.243612510,9.007019040,0.191020950,-0.062969310,-0.033380090
1640833521.313150,-0.148859500,0.609356050,9.625741000,-0.016888970,-0.001712140,-0.013272460
1640833521.317750,0.135927860,0.655412020,9.691938400,-0.272615250,0.073648980,0.033637870
1640833521.320480,-0.073524880,0.066348400,10.479252820,-0.205035540,-0.030259790,0.019684440
1640833521.322830,-0.223401700,-0.241261650,10.347851750,0.096194450,-0.082919000,-0.005210940
1640833521.324210,-0.161510740,0.241222980,9.143258090,0.204624280,-0.111931560,-0.032535200
1640833521.327790,-0.451094750,0.335944440,9.349886890,-0.015161930,-0.024135410,-0.012749430
1640833521.330330,-0.113887860,0.448774960,9.438282010,-0.251151620,0.095210970,0.024756790
1640833521.332780,-0.197843950,0.094643030,10.658440590,-0.178977880,0.005815920,0.007024410
1640833521.333170,-0.243863060,-0.093821310,10.638588910,0.096592310,-0.090661640,-0.025418400
1640833521.337840,0.095794150,0.564741730,9.221165660,0.201979290,-0.132644180,-0.018809740
1640833521.340350,-0.313657700,0.642966270,9.556743620,-0.034217540,-0.017216810,-0.007560850
1640833521.343170,-0.118399400,0.665248810,9.709704400,-0.245873640,0.054258110,0.031536820
1640833521.343680,-0.253083080,0.324401440,10.585415840,-0.137950480,-0.041693450,0.018928950
1640833521.347720,-0.242961700,0.287651720,10.202841760,0.075857340,-0.099253680,-0.016286970
1640833521.350290,0.146098790,0.903145970,9.092174530,0.106330220,-0.095728040,-0.004635750
1640833521.353320,-0.236902430,0.709748570,9.838539120,-0.108988610,0.033454600,-0.012037160
1640833521.354010,-0.147221680,0.531513390,10.160108570,-0.228233680,0.011597570,0.012135510
1640833521.357820,-0.110783510,0.263656440,10.255349160,-0.104635950,-0.120553380,0.027538840
1640833521.360540,0.013879030,0.055079330,9.552269940,0.030148030,-0.044794380,0.001989310
1640833521.362990,0.351416140,0.667657790,9.160567280,0.020124020,0.012451410,0.013169650
1640833521.363610,-0.064455430,0.581895290,10.131907460,-0.155906380,0.037463010,0.013785070
1640833521.367730,0.031498980,0.193634840,10.099695210,-0.210587680,-0.032620140,0.030002000
1640833521.370540,-0.078038250,-0.075647630,9.937447550,-0.029048320,-0.089691560,0.015361610
1640833521.373610,-0.275792510,-0.127098370,9.550176620,0.056406850,-0.031971930,-0.030319390
1640833521.374150,-0.064513230,0.491174880,9.313866620,-0.016687810,-0.003090500,-0.012598930
1640833521.377870,-0.253005800,0.533213020,9.874386790,-0.194574890,0.052553430,0.001436470
1640833521.380260,-0.102029600,0.126367000,10.161418910,-0.189885500,0.000688430,0.003731250
1640833521.382770,-0.166921230,-0.002168340,10.147324560,0.027519460,-0.064206130,0.001256170
1640833521.383100,-0.380282880,0.040922300,9.672487260,0.108949850,-0.075243410,-0.008623300
1640833521.387870,-0.149608170,0.436432240,9.304291730,-0.002932550,-0.056938830,0.025740270
1640833521.391410,-0.229986430,0.594474260,9.661005020,-0.221127260,0.047187500,0.023476780
1640833521.392850,-0.059458140,0.278558310,10.311019900,-0.219696800,0.028809910,0.018410390
1640833521.393260,0.035263350,0.221667900,10.576887130,0.044107440,-0.046300890,-0.002090630
1640833521.397740,-0.129408520,0.633019030,9.808405880,0.124344240,-0.097821680,-0.028650470
1640833521.400270,-0.056121360,0.956327080,9.297122960,-0.056453050,-0.070069740,0.007884200
1640833521.403120,-0.286727190,0.817439910,9.662019730,-0.278219550,0.040648870,0.034518540
1640833521.404250,-0.247554970,0.325924490,10.136116030,-0.220127420,-0.018817190,0.037437680
1640833521.409480,-0.010034320,0.029330340,10.139785770,0.045308470,-0.056713830,0.026564310
1640833521.410260,0.090767000,0.145399570,9.612218860,0.099025670,-0.007887180,0.006224220
1640833521.412740,0.075085500,0.324248340,9.808218960,-0.068868700,-0.011084970,0.026795270
1640833521.413100,-0.002029200,0.271633360,9.890755650,-0.256606940,-0.000017880,0.047561520
1640833521.417750,-0.068579850,-0.127819900,9.935840610,-0.209216820,-0.048592690,0.043696180
1640833521.420450,-0.085626580,-0.276696030,9.770860670,0.057081890,-0.045342750,0.004969540
1640833521.423550,-0.089045580,0.241611810,9.405291560,0.117760910,0.003334880,-0.021964320
1640833521.425270,-0.199517640,0.636372920,9.713974950,-0.070907180,0.005511940,0.018550460
1640833521.427790,-0.063038500,0.456227840,9.915317540,-0.234216420,0.033232570,0.052446120
1640833521.428280,-0.167476300,-0.010566200,10.398472790,-0.150206690,-0.028261540,0.034131110
1640833521.432800,-0.330826610,-0.076876540,10.044529910,0.105291610,-0.074087080,0.019167370
1640833521.433150,-0.143585280,0.230755450,9.238050460,0.127206740,-0.071036820,-0.008976460
1640833521.437850,-0.265850540,0.441820090,9.530859950,-0.083620850,0.031429530,0.012512510
1640833521.441040,-0.166831610,0.412045480,9.911397930,-0.229209690,0.045523050,0.037588190
1640833521.442760,-0.185898690,0.095586580,10.650045390,-0.120300050,-0.055916610,0.014579300
1640833521.443080,-0.185037450,0.235130380,9.965227130,0.105419760,-0.091864150,0.009135900
1640833521.447810,0.020858840,0.663626610,9.340420720,0.099587450,-0.073295830,0.008574130
1640833521.448220,-0.332164670,0.729676370,9.971576690,-0.126774620,0.033700470,0.025942920
1640833521.453070,-0.210670920,0.611576200,9.889871600,-0.220096080,-0.005893410,0.061462810
1640833521.453860,-0.024380400,0.212100980,10.260394100,-0.087530920,-0.090587140,0.031350550
1640833521.457910,0.051428080,0.272799340,9.646206860,0.058442350,-0.011496250,0.014778970
1640833521.458610,0.147605900,0.589372870,9.486275670,0.034265220,-0.025191900,0.015884640
1640833521.463240,-0.176855430,0.436028570,10.263107300,-0.143641250,0.007399920,0.024135410
1640833521.463660,-0.071684030,0.172433420,9.692592620,-0.195112840,-0.032769140,0.057263680
1640833521.467830,-0.125860840,-0.201856050,9.940083500,-0.045055150,-0.092884880,0.037905570
1640833521.468280,-0.223033290,-0.134424920,9.510853770,0.067286190,0.013604760,0.008843840
1640833521.472950,-0.031714040,0.483849730,9.276023860,0.008796160,-0.021541120,0.021973250
1640833521.476100,-0.210499790,0.357437760,10.249045370,-0.157091040,0.021362300,0.038586560
1640833521.477750,-0.131081750,0.034014120,9.972860340,-0.150860850,0.013053420,0.048479440
1640833521.478150,-0.250632460,-0.131050090,10.215735440,0.055532160,-0.124661620,0.023590030
1640833521.482800,-0.282616850,0.010004820,9.475232120,0.114826870,-0.054800510,-0.006851550
1640833521.483140,-0.051560210,0.551662390,9.006998060,-0.004726650,-0.020056960,0.021004680
1640833521.488240,-0.261172890,0.476868960,10.290080070,-0.173105300,0.051645940,0.031635170
1640833521.489340,-0.148882880,0.128934100,10.338819500,-0.129547720,-0.016473230,0.021211800
1640833521.492810,-0.227285620,0.154760850,10.208041190,0.115203860,-0.151327250,0.013676290
1640833521.493220,-0.316161390,0.422503380,9.553244590,0.121605400,-0.075088440,0.000284610
1640833521.497820,-0.193945810,0.849564490,9.307132720,-0.070475040,-0.018577280,0.041420760
1640833521.498300,-0.448983670,0.608223140,10.340127940,-0.204987810,-0.006954370,0.058044490
1640833521.503020,-0.057839140,0.245782850,10.087598800,-0.100821250,-0.042194120,0.045116240
1640833521.504450,0.100718770,0.341065850,9.883406640,0.124773380,-0.085592250,0.021012120
1640833521.508480,-0.053248670,0.487079950,9.830042840,0.070156160,-0.031897430,0.009036070
1640833521.509010,0.006038360,0.620654940,9.630807880,-0.113457450,-0.051686170,0.027927760
1640833521.512740,-0.189329980,0.256923260,10.031002040,-0.185956030,-0.059108440,0.036935500
1640833521.513090,-0.027503170,-0.057854750,9.790746690,-0.078345850,-0.045384480,0.026768450
1640833521.518000,0.157057840,0.066867110,9.526610370,0.104711960,-0.028663880,0.014664230
1640833521.519180,0.027048760,0.340332690,9.858634000,0.041452050,0.017324090,0.004665550
1640833521.522960,0.016478010,0.551051440,9.943122860,-0.115489980,-0.038324300,0.037644810
1640833521.523520,-0.149085910,0.124622840,9.864362720,-0.152894850,-0.072099280,0.060895100
1640833521.527780,-0.229989320,-0.199290450,9.699093820,-0.025598710,-0.072442000,0.018082560
1640833521.528150,-0.216452870,0.007244850,9.371687890,0.140491130,-0.029821690,0.002712010
1640833521.532810,-0.178311960,0.351347540,9.563657760,0.049808630,0.003708900,-0.006151200
1640833521.533260,-0.098433360,0.588399710,10.169752120,-0.117963570,0.018765030,0.030960150
1640833521.538330,-0.067758760,0.292099710,10.193834300,-0.133261080,-0.014911590,0.034156440
1640833521.539270,-0.095163350,0.022519450,10.241988180,0.023998330,-0.094564270,0.001098220
1640833521.542780,-0.261055980,0.262988120,9.600004200,0.171412530,-0.074301670,-0.000990930
1640833521.543180,-0.195683720,0.601931870,9.176530840,0.052939360,-0.057095290,0.007782880
1640833521.547880,-0.205654440,0.726947370,9.799474720,-0.166483210,0.031891460,0.032643970
1640833521.548320,-0.071034740,0.538824620,10.103915210,-0.181563230,0.015072530,0.040633980
1640833521.552860,0.053478880,0.206708770,10.553052900,0.020867590,-0.079460450,0.017927590
1640833521.553600,-0.010647830,0.383073540,9.962083820,0.161068110,-0.039325660,0.014206770
1640833521.559240,-0.023374560,0.626709040,9.473138810,0.025500360,-0.063003610,0.000248850
1640833521.559750,-0.160054760,0.472129320,9.806902890,-0.181727130,-0.018090010,0.039492550
1640833521.562840,0.039582560,0.223368610,9.421553610,-0.182729940,0.010399520,0.052304570
1640833521.563420,0.150356560,0.045588800,10.017765050,0.002147260,-0.030747060,0.023698810
1640833521.567820,0.021276030,0.122408780,9.951509480,0.118085750,0.025884810,0.011180340
1640833521.568200,0.012337070,0.424002860,9.694279670,0.031214950,-0.049722190,0.009238720
1640833521.572930,-0.225514680,0.253536820,10.173461910,-0.148847710,-0.042624770,0.037586690
1640833521.573510,-0.163338470,-0.053409620,9.337813380,-0.148837280,0.007641320,0.033323470
1640833521.577820,-0.138063980,-0.138150130,9.693320270,0.041836500,-0.031450390,-0.014437740
1640833521.578200,-0.125810670,0.179760870,9.650856020,0.110892950,0.045725700,-0.019210580
1640833521.582830,0.146014960,0.640539820,9.376230240,0.007398430,0.005923210,0.005725030
1640833521.583220,-0.093905210,0.335316510,10.520599370,-0.122073290,0.009715560,0.036726900
1640833521.588170,-0.067609530,-0.035717290,9.901225090,-0.078329440,0.002051890,0.032630560
1640833521.589450,-0.107375310,-0.076540400,9.824561120,0.122450300,-0.090144570,0.001506510
1640833521.592920,-0.174073790,0.193014460,9.571558000,0.117737050,0.030487770,-0.016659500
1640833521.593450,0.026824330,0.695613270,9.280623440,-0.043499470,0.050093240,0.011529030
1640833521.597950,-0.265688900,0.537318110,10.538644790,-0.139448060,0.030337280,0.012770300
1640833521.599170,-0.178906020,0.306850190,10.137100220,-0.074753170,-0.018574300,-0.003258880
1640833521.602790,-0.218192120,0.480004220,9.804162030,0.140659510,-0.105437640,-0.000722710
1640833521.603270,-0.390136630,0.694893120,9.674317360,0.079131130,-0.006997590,-0.008428100
1640833521.607880,-0.087696640,0.960727570,9.325237270,-0.124360630,0.046955040,0.021299720
1640833521.609360,-0.191373840,0.579759120,10.450582500,-0.176264350,0.025208300,0.038047140
1640833521.612740,0.145065130,0.176719410,10.143754960,-0.056613990,0.007282200,0.025174030
1640833521.613140,0.282768640,0.273302880,9.575482370,0.126469150,-0.050914290,0.019563730
1640833521.617790,0.001562170,0.378047440,9.731853490,0.025928020,0.011569260,0.001974400
1640833521.618180,0.106104710,0.478453010,9.547670360,-0.156880920,0.019496680,0.037188830
1640833521.622920,-0.042888460,0.109167090,9.926667210,-0.162011380,0.004182760,0.041289640
1640833521.623580,0.108993630,-0.088555330,9.871037480,-0.039848690,0.039078300,0.002974270
1640833521.627830,0.155932590,0.193256230,9.702776910,0.116607550,0.036925080,-0.007127230
1640833521.628240,-0.115746770,0.538359280,9.877922060,0.021988160,0.015984480,-0.008235870
1640833521.632800,-0.111450020,0.574465930,9.700933460,-0.154870760,0.012828410,0.033015020
1640833521.633290,-0.311987670,0.061884530,9.649920460,-0.133404110,0.010564920,0.034047670
1640833521.638150,-0.281763730,-0.170898620,9.745426180,0.024652480,0.013601780,-0.006762150
1640833521.639190,-0.166330370,0.073043260,9.621415140,0.140582030,0.056822600,-0.010004640
1640833521.642880,-0.085513420,0.405044170,9.762986180,0.004962090,0.056390470,-0.005044040
1640833521.643450,0.070891520,0.320989490,10.185015680,-0.162328780,0.040359790,0.015033780
1640833521.647880,0.004903670,-0.035302080,9.994416240,-0.089137260,0.041987010,0.020438430
1640833521.648380,-0.048313660,-0.103454040,9.933058740,0.097590680,-0.039047000,-0.014418360
1640833521.652890,-0.155360850,0.281060810,9.638687130,0.157903150,0.013875960,-0.018189850
1640833521.653350,-0.136010770,0.756227850,9.363761900,-0.026191770,0.047603250,-0.002719460
1640833521.657860,-0.141569900,0.719685200,10.136861800,-0.192600490,0.069791090,0.017289820
1640833521.658480,-0.106355410,0.505595030,10.207146640,-0.099223870,0.066404040,0.013187530
1640833521.663350,-0.009073100,0.463196580,10.205109600,0.106662510,-0.023645160,-0.012515490
1640833521.664260,-0.221575750,0.631432710,9.917614940,0.118514910,0.000940260,-0.012592970
1640833521.667890,-0.051351930,0.847275910,9.208864210,-0.083358590,0.036557020,0.013422970
1640833521.668310,-0.067106410,0.313167510,9.962298390,-0.212125500,0.062000760,0.041362640
1640833521.672890,0.147362560,-0.077893100,9.784415250,-0.100305680,0.096935030,0.026522580
1640833521.673580,0.419849630,-0.108152080,9.897656440,0.106926270,0.031128530,-0.006802380
1640833521.677830,0.079506030,-0.023629560,10.150427820,0.109079470,0.062988690,-0.006607170
1640833521.678830,0.059046690,0.342966680,9.445522310,-0.065988300,0.008183720,0.012570620
1640833521.682760,-0.139916380,0.079680270,9.840456010,-0.182096650,0.007529560,0.029210750
1640833521.683180,-0.149867650,-0.111865730,9.394770620,-0.085704030,0.111864500,-0.003841520
1640833521.688140,-0.066211570,0.239896950,9.755423550,0.126360370,0.062522280,-0.036357340
1640833521.689210,-0.298591940,0.489403070,10.260792730,0.111746800,0.076758860,-0.029656300
1640833521.693030,-0.106253860,0.712384220,9.455672260,-0.072731060,0.026504700,0.015640260
1640833521.693590,-0.268673000,0.173035030,10.032420160,-0.137770180,0.018043820,0.028306240
1640833521.697830,-0.276166650,-0.296703790,9.686409000,-0.013819340,0.083076950,0.004428630
1640833521.698240,0.013358650,-0.034777030,9.440407750,0.175841140,0.023013350,-0.021594760
1640833521.702820,0.022945100,0.246089950,9.893250470,0.077056890,0.117227440,-0.029283760
1640833521.703260,0.219840270,0.425462900,9.756355290,-0.114461780,0.113002960,0.008389350
1640833521.709380,-0.035767240,0.121854870,10.539243700,-0.093224650,0.012122090,-0.003120300
1640833521.709880,-0.112757650,-0.020866550,9.876318930,0.046992300,0.001418590,-0.031480200
1640833521.712830,-0.103595790,0.501624350,9.214845660,0.169655680,-0.008499620,-0.025504830
1640833521.713370,-0.423753620,0.724274930,9.885226250,0.018371640,0.115965310,-0.033824150
1640833521.717900,-0.203979920,0.783424200,9.965646740,-0.150898080,0.112240000,0.006037950
1640833521.718280,-0.170175180,0.497824940,10.423655510,-0.067937380,0.012376910,0.016525390
1640833521.722940,0.026242190,0.312281430,9.967368130,0.049975520,0.034435090,-0.017829240
1640833521.723600,0.069635750,0.601698100,9.412611010,0.095663960,0.039190060,-0.017230210
1640833521.727870,-0.247465360,0.448354810,10.009389880,-0.035464760,0.065647070,-0.006352370
1640833521.729280,-0.040713110,0.193270090,9.788771630,-0.139284150,0.047375270,0.012005870
1640833521.732800,0.138266150,0.026615530,9.705196380,-0.048515200,0.038573140,0.020051000
1640833521.733190,0.227374750,-0.101596260,9.929177280,0.036107000,0.127877310,-0.016680360
1640833521.738120,0.177452000,0.198265280,10.068332670,0.062099100,0.095480700,-0.015477840
1640833521.739550,-0.109568590,0.313214780,10.127039910,-0.021666290,0.008907920,-0.005488100
1640833521.743720,-0.105271440,0.055955560,9.618372920,-0.104670230,0.008340180,0.001116100
1640833521.744400,-0.126521450,-0.042913450,9.185552600,-0.014016030,0.072158880,-0.012932720
1640833521.747790,-0.103785310,0.078479360,9.679784770,0.077711050,0.114996730,-0.043149300
1640833521.748370,-0.013855900,0.560571790,10.054758070,0.041145090,0.122658930,-0.031277540
1640833521.753000,-0.067827310,0.537315310,10.074528690,-0.063996020,0.071308020,-0.000964110
1640833521.754690,-0.130905670,-0.097833820,10.257122040,-0.053416200,0.022852420,0.000242890
1640833521.758670,-0.286655280,-0.332950770,9.583145140,0.113320360,0.031192600,-0.011341270
1640833521.760060,-0.154983180,-0.052180830,9.117305760,0.151893500,0.032605230,-0.036148730
1640833521.762850,-0.050542990,0.325925110,9.670519830,0.005067890,0.151407720,-0.018882750
1640833521.763310,-0.013844240,0.381979380,10.122711180,-0.112468020,0.160680730,0.003305080
1640833521.767800,-0.118345090,0.095442090,10.926027300,-0.012674930,0.004994870,-0.027973950
1640833521.768190,-0.202333960,0.346602650,9.906950950,0.169280190,-0.013482570,-0.048670180
1640833521.772830,-0.176791030,0.781548380,9.100103380,0.139294580,0.001750890,-0.048697000
1640833521.773360,-0.406661150,1.031000490,9.826167110,-0.077934570,0.125119090,-0.027209520
1640833521.777830,-0.214991050,0.866128390,9.875221250,-0.167381780,0.129109620,0.006151200
1640833521.778440,-0.006916530,0.359687390,10.518845560,-0.009618700,0.014434750,-0.011366610
1640833521.782800,0.075991140,0.356887130,9.974229810,0.146853920,0.068154940,-0.011244420
1640833521.783120,0.130001800,0.484439490,9.490212440,0.081478040,0.036203860,-0.020746880
1640833521.787930,-0.173709090,0.278727440,10.148176190,-0.115367790,0.054545710,-0.003236530
1640833521.788510,0.012299010,0.027466250,9.474105830,-0.154472890,0.070406500,0.016951560
1640833521.793240,0.069970820,-0.257294680,9.950271610,0.011625880,0.037857890,-0.019952650
1640833521.793990,-0.001807300,0.094001300,9.888739590,0.115199390,0.127197820,-0.042325260
1640833521.797830,0.138235090,0.630822540,9.595287320,0.038211050,0.070163620,-0.028830770
1640833521.798280,-0.200167210,0.425197270,10.370578770,-0.109545900,0.061121590,-0.014711920
1640833521.802830,-0.130932360,0.282949150,9.510307310,-0.109289590,0.071871280,-0.001004340
1640833521.803790,-0.182809400,0.061223760,9.740084650,0.056225070,0.007747110,-0.026787820
1640833521.809770,-0.118745990,0.130141290,9.561365130,0.112532090,0.139102350,-0.044910610
1640833521.810600,0.164422260,0.539950910,9.315850260,0.029517710,0.130255540,-0.020174680
1640833521.812780,-0.125480990,0.121751010,10.626111980,-0.096796450,0.116463030,-0.002960860
1640833521.813140,-0.060013050,-0.257155120,10.012191770,-0.060120220,0.059652330,0.000135600
1640833521.817820,-0.189762650,-0.442353870,9.676024440,0.148230810,-0.050717590,-0.028319660
1640833521.818270,-0.288628640,-0.208982210,9.226258280,0.162549290,0.082132210,-0.044988090
1640833521.823030,-0.092276950,0.505056500,9.110248570,-0.004312400,0.151652110,-0.028431420
1640833521.824040,-0.345000270,0.324227360,10.743384360,-0.124034290,0.145331040,-0.026102370
1640833521.827820,-0.186587540,0.252316680,10.565326690,-0.012658540,0.047437850,-0.028097630
1640833521.828220,-0.199359820,0.583684330,9.787573810,0.203207140,-0.060744580,-0.038577620
1640833521.832770,-0.303050820,0.769963800,9.323850630,0.114138450,0.050659490,-0.038389870
1640833521.833180,-0.121667090,1.063897130,9.222331050,-0.077548630,0.143294040,0.006532670
1640833521.837920,-0.323438580,0.566753390,10.494259830,-0.135560350,0.100468100,0.000959630
1640833521.838910,0.027003630,0.151263310,10.340914730,-0.002817810,0.033101440,0.000433620
1640833521.842820,0.198660880,0.375747980,9.516094210,0.165037830,-0.004075470,-0.015915930
1640833521.843420,-0.075742990,0.399938400,9.831311230,0.036299230,0.081576400,-0.036875910
1640833521.847810,-0.075539450,0.528306250,9.922515870,-0.145862980,0.103656950,0.004400310
1640833521.848230,-0.327030000,0.034643830,10.195490840,-0.125989330,0.016029180,0.000287590
1640833521.853140,-0.088076000,-0.151872040,9.927489280,0.045095390,0.018221140,-0.018286710
1640833521.853880,0.069155150,0.506960630,9.205813410,0.126226260,0.077967350,-0.017169120
1640833521.858560,-0.082525870,0.632568900,9.832039830,-0.034931310,0.110234340,-0.014892220
1640833521.859770,0.085549410,0.580473240,10.176006320,-0.156687200,0.095546250,0.027048590
1640833521.862920,-0.009803490,0.166247130,9.915511130,-0.069354480,0.034168360,0.019234420
1640833521.863430,-0.015847920,-0.182853920,9.819670680,0.083099310,0.014685090,-0.008337200
1640833521.867840,-0.006794850,0.207375170,9.307167050,0.117276630,0.100907680,-0.012397770
1640833521.869180,-0.155143410,0.368884030,9.520386700,-0.082711880,0.087843840,-0.019194190
1640833521.872940,0.026486200,0.121108460,10.092516900,-0.175575880,0.115749250,0.012075900
1640833521.875440,-0.092019430,-0.267548290,10.033205030,-0.030803680,0.107845660,-0.013761220
1640833521.877770,-0.276100990,-0.406954530,10.309980390,0.175970790,-0.023847820,-0.039677320
1640833521.878110,-0.151906590,0.147102240,9.278283120,0.166527940,0.033497810,-0.022010510
1640833521.882740,-0.241166590,0.369307100,9.032323840,-0.093667220,0.096461180,-0.016802550
1640833521.883050,-0.322191360,0.190205840,10.296415330,-0.167104600,0.130802410,0.014221670
1640833521.888060,-0.176950260,0.142362610,10.165851590,0.030687450,0.072053080,-0.018489360
1640833521.888860,-0.200453330,0.428862540,10.103939060,0.208839820,-0.046877570,-0.045642260
1640833521.892800,-0.156142860,0.924652100,9.484162330,0.117784760,0.059443720,-0.010220710
1640833521.893310,-0.285048160,0.914871810,9.560257910,-0.141423940,0.093090540,-0.007471440
1640833521.897810,-0.470856310,0.424087790,10.657772060,-0.153204770,0.045010440,0.020232800
1640833521.898280,-0.064628970,0.253011970,9.671731000,0.053502620,0.004242360,0.011973080
1640833521.903010,0.037631630,0.354968700,9.551594730,0.156143320,0.002850590,-0.020518900
1640833521.903930,-0.044573410,0.699276270,9.864169120,0.006783010,0.114971400,0.001698730
1640833521.907930,0.003547570,0.605533720,9.971275330,-0.189681350,0.068111730,0.008000430
1640833521.908960,-0.323922870,0.044051720,10.653265950,-0.122587410,-0.028547650,0.010353330
1640833521.912810,-0.069149780,0.292920860,9.316037180,0.056339810,-0.024659940,-0.006239120
1640833521.913190,-0.015575070,0.648719790,9.127053260,0.067737680,0.034126640,-0.030981010
1640833521.917870,-0.050632670,0.707556370,9.864309310,-0.096912680,0.153271870,0.011399390
1640833521.919080,0.217133670,0.584880710,10.019195560,-0.181929780,0.091719630,0.030145050
1640833521.922840,-0.073087710,-0.148441480,10.721426010,-0.053599480,-0.000956650,0.022357700
1640833521.923330,0.066274040,-0.059759100,9.472196580,0.082445140,-0.009655950,0.016684830
1640833521.927850,-0.091590980,0.216815440,9.134543420,0.028349460,0.007925930,-0.000528990
1640833521.928330,-0.219594850,0.081453100,9.547733310,-0.141768170,0.141686220,0.014133750
1640833521.932890,0.055554920,0.108187460,9.679265980,-0.159808980,0.134524670,0.015343720
1640833521.933420,-0.272468300,-0.346719560,10.788658140,0.009137390,0.041866300,-0.019586080
1640833521.938350,-0.174447600,-0.001775640,9.847315790,0.144001840,-0.020703680,-0.022777920
1640833521.939090,-0.254694220,0.467597130,9.195930480,0.047990680,-0.033181910,-0.003008540
1640833521.942800,-0.387442890,0.298408870,9.493247030,-0.165678560,0.124429170,0.002452730
1640833521.943170,-0.169788930,0.204335900,9.914862630,-0.124102830,0.121928760,0.013811890
1640833521.947770,-0.292806660,-0.015843350,10.601298330,0.090277210,0.023603440,-0.020313270
1640833521.948190,0.120576080,0.437599270,9.614266400,0.148150310,0.010570880,-0.011256340
1640833521.952850,-0.059090350,0.855196240,9.536756520,-0.010348860,0.022085010,0.021255010
1640833521.953360,-0.326661470,0.388881060,9.983105660,-0.209464130,0.080411140,0.018244980
1640833521.959000,-0.213056920,0.171875890,9.993113520,-0.080369420,0.029471520,0.020730500
1640833521.959410,-0.488328280,0.094360990,10.160077100,0.119583330,-0.033967200,-0.016824900
1640833521.962840,-0.075070630,0.536799790,9.364192010,0.092081730,0.047957900,-0.019575660
1640833521.963430,-0.201444450,0.970334290,9.882431030,-0.109103320,0.077496480,0.015808640
1640833521.967840,-0.335625950,0.558659670,10.370243070,-0.251553980,0.045107310,0.019109250
1640833521.968230,0.043636590,0.219544950,9.883351330,-0.058619680,-0.015351180,0.025632980
1640833521.973040,-0.234223780,0.251593050,9.832917210,0.124572220,-0.030609970,-0.004534420
1640833521.973830,0.094173330,0.616535430,9.157283780,0.029085570,0.045010450,0.005964940
1640833521.977810,0.013895180,0.630208310,9.849904060,-0.181873160,0.078132750,0.033979120
1640833521.978260,0.019121730,0.073032520,10.130083080,-0.257696210,0.077645480,0.031177700
1640833521.983010,0.221510100,-0.347890410,9.995449070,-0.000829990,0.033466520,0.030614440
1640833521.983730,-0.251161010,-0.218816440,10.154099460,0.163820370,-0.030149520,-0.019045170
1640833521.987970,-0.233207900,0.283885480,9.041837690,0.005321200,-0.034102790,-0.001044570
1640833521.988490,-0.238692830,0.267869710,9.178603170,-0.202406940,0.058087710,0.023037200
1640833521.992750,-0.283403990,-0.068075330,9.991255760,-0.234290960,0.153048350,-0.002627070
1640833521.993160,-0.306071130,-0.066659190,10.655611990,0.061559690,0.037944320,-0.013138350
1640833521.998140,-0.408449620,0.331874340,10.234391210,0.197665440,-0.106440500,-0.024582450
1640833521.999510,-0.117263350,0.767181750,8.851619720,-0.021252040,-0.031846770,0.013171140
1640833522.003190,-0.285614490,0.545725760,9.499217990,-0.220052900,0.101761530,0.044681130
1640833522.003840,-0.319862220,-0.027687300,10.606918330,-0.181446970,0.107175120,0.015555320
1640833522.007970,-0.168853120,-0.080405500,10.463872910,0.109985460,-0.054432450,-0.007252390
1640833522.008380,-0.043250290,0.397469790,9.596704480,0.179585830,-0.097407410,-0.025795400
1640833522.012820,0.132000650,0.766674340,9.080950740,-0.105510650,0.052227080,0.009188060
1640833522.013140,-0.201610060,0.634745960,10.025293350,-0.276243690,0.079415730,0.038740040
1640833522.017820,-0.242297960,0.049093040,10.612468720,-0.151698290,-0.016304850,0.026392940
1640833522.018800,-0.267921330,-0.079815600,10.033108710,0.146335360,-0.074610110,0.020912290
1640833522.023340,-0.344099520,0.375784460,9.403919220,0.163936630,-0.059576330,0.010775030
1640833522.023850,-0.215986300,0.555536330,9.328713420,-0.146684070,0.040762130,0.038503110
1640833522.027770,-0.216561060,0.365503940,9.727290150,-0.288072200,0.053906430,0.051735340
1640833522.028150,0.005089240,-0.147938360,10.222928050,-0.115424390,-0.008516010,0.011114780
1640833522.032740,-0.104773710,-0.290460800,10.291420940,0.173717750,-0.036747750,-0.002160670
1640833522.033180,-0.225676340,0.248596850,9.504958150,0.183653850,-0.098443050,-0.016143920
1640833522.037950,-0.147727520,0.390463080,9.304210660,-0.126150250,-0.048276790,0.018467010
1640833522.038540,-0.182323400,0.163317870,9.384630200,-0.280630590,0.078573820,0.049997870
1640833522.042780,-0.192482740,-0.227941660,10.294667240,-0.078286220,0.012123580,0.009453300
1640833522.043150,-0.330505370,-0.289012250,10.701278690,0.223505500,-0.074005130,-0.010044870
1640833522.047840,-0.226316570,0.448018730,9.192923550,0.208041090,-0.122036040,-0.000931320
1640833522.048230,-0.256606490,0.528180840,9.430658340,-0.112588720,-0.047943000,0.022213160
1640833522.052960,-0.393598020,0.255286900,10.013704300,-0.273475020,0.082980080,0.034260750
1640833522.053610,-0.351580320,0.114731920,10.382852550,-0.049148500,-0.081974280,-0.007724760
1640833522.057800,-0.219702270,0.186574940,10.388083460,0.213770600,-0.137709130,-0.025150180
1640833522.058280,0.054769900,0.832924960,8.892779350,0.151623800,-0.046502060,-0.004546340
1640833522.063070,-0.138951330,0.822229680,9.798076630,-0.136035700,-0.028720500,0.022582710
1640833522.064580,-0.252054450,0.408080910,10.481112480,-0.252768430,0.006873910,0.055044900
1640833522.067790,-0.113129060,0.145574790,9.840538980,-0.042338670,-0.146183370,0.044572360
1640833522.068850,-0.216962020,-0.031587590,9.949348450,0.165371600,-0.146862860,0.004138050
1640833522.072850,0.015378210,0.468773660,8.866871830,0.085824730,0.011421740,0.002615150
1640833522.073400,-0.075122660,0.559556720,9.742596630,-0.160153230,-0.030086930,0.015130640
1640833522.077930,-0.035980690,0.033748850,10.525093080,-0.232741250,-0.004047160,0.037235030
1640833522.079190,0.093115990,-0.186592950,9.805245400,-0.003723800,-0.091150420,0.020408640
1640833522.082730,-0.298255380,-0.144760590,10.125250820,0.181569170,-0.159914790,-0.014987590
1640833522.083100,-0.110153120,0.404971030,8.923045160,0.056453060,-0.046285990,0.012631710
1640833522.087870,-0.196184920,0.383219930,9.283444400,-0.151300480,-0.028304760,0.033544010
1640833522.088480,-0.312366310,-0.032727390,10.436681750,-0.179696050,0.015304980,0.029540060
1640833522.092880,-0.052181330,0.087272150,9.996381760,0.040644400,-0.083652120,0.018934900
1640833522.093260,-0.424257580,0.185869460,10.167140960,0.180552900,-0.184763980,-0.006836650
1640833522.097790,-0.190685610,0.664874610,9.172519680,0.021947920,-0.068295010,0.012610850
1640833522.098280,-0.294601980,0.652532400,9.558189390,-0.176616030,-0.029309100,0.030913950
1640833522.102920,-0.459403870,0.065463270,10.670639040,-0.147749470,-0.037100900,0.026850400
1640833522.103560,0.034526330,0.223446760,10.010342600,0.079850850,-0.110934670,0.008369980
1640833522.107790,-0.105162510,0.498331100,9.856818200,0.141252590,-0.158463420,0.002506380
1640833522.108200,0.139050750,0.725888910,9.368201260,-0.073443340,-0.036601710,0.042733550
1640833522.112810,0.008942930,0.545290830,9.860837940,-0.188878220,-0.019976500,0.055530680
1640833522.113290,-0.284765930,-0.087115350,10.626227380,-0.089009090,-0.113026810,0.043128430
1640833522.118100,0.060441420,0.076238190,9.648408890,0.098970550,-0.136223450,0.035385790
1640833522.119310,-0.144270350,0.448208780,9.473121640,0.081047420,-0.099822890,0.015060600
1640833522.123190,0.038615090,0.433298020,9.598032000,-0.135353210,0.002196430,0.045932830
1640833522.123660,0.068586150,0.370331910,10.002363200,-0.173044200,0.003828110,0.057022280
1640833522.127840,-0.122569170,-0.242330600,10.526021000,-0.030249350,-0.101165470,0.042684370
1640833522.128300,0.015150900,-0.153312270,9.705173490,0.152000780,-0.130693610,0.047723950
1640833522.132770,-0.209611980,0.262110800,9.149151800,0.079727180,-0.111667830,0.022131210
1640833522.133140,-0.114582020,0.221696820,9.408232690,-0.148673360,-0.017982720,0.046537820
1640833522.137930,-0.045751120,0.249483570,9.934082980,-0.163377840,0.028817350,0.059774520
1640833522.139410,-0.081582430,-0.199258040,10.478527070,0.016082820,-0.052471450,0.010436770
1640833522.142980,-0.067324480,0.143200670,10.214252470,0.187580260,-0.116682060,0.015890600
1640833522.143570,-0.274639730,0.698426250,9.217617990,0.071914490,-0.145582870,0.038452440
1640833522.147820,-0.317629520,0.379254280,9.223971370,-0.174345050,-0.067061180,0.051032000
1640833522.148220,-0.361029800,0.302133770,9.874131200,-0.154921430,0.020934640,0.054493550
1640833522.152960,-0.336023180,0.041979940,10.383981700,0.055670750,-0.063708420,0.011318920
1640833522.153580,-0.062142820,0.307804670,10.218868260,0.182603310,-0.120446090,0.014959270
1640833522.157780,-0.049979140,0.974574860,9.467283250,0.017079710,-0.070053340,0.033567850
1640833522.158620,-0.055457940,0.564443470,9.820718770,-0.222897540,-0.048618010,0.043894350
1640833522.162820,-0.240473450,0.209117380,10.321319580,-0.135348750,-0.062367330,0.059396030
1640833522.163560,-0.194615750,0.168491720,9.655342100,0.083512080,-0.164495410,0.024525820
1640833522.167860,-0.022769050,0.348490300,9.496020320,0.130252540,-0.096979740,0.018705430
1640833522.168290,-0.038688700,1.000310780,9.517664910,-0.087282050,0.024770200,0.045225020
1640833522.173330,-0.033332000,0.631478970,10.285552020,-0.276355480,-0.051052860,0.054727490
1640833522.173930,-0.004990410,0.085193970,10.633918760,-0.123757120,-0.077235700,0.062106550
1640833522.177820,-0.008259040,0.201568570,9.616950040,0.104987610,-0.124937300,0.028668350
1640833522.178230,-0.021422480,0.249495970,9.501351360,0.093409420,-0.118030620,0.024302310
1640833522.182770,0.018376220,0.583019970,9.135294910,-0.138832600,0.026468930,0.067029880
1640833522.183060,0.097359600,0.317562010,9.629564290,-0.291970400,-0.011216100,0.066310170
1640833522.187900,0.036731590,-0.370102580,10.582180020,-0.100949410,-0.010594730,0.054875020
1640833522.188430,0.018221550,-0.058900300,9.805915830,0.137925150,-0.092013180,0.014621020
1640833522.192820,-0.198038250,0.233916400,9.638830180,0.098496690,-0.155085340,0.017417970
1640833522.193380,-0.173976820,0.287828330,9.218899730,-0.152744320,0.022879240,0.057606400
1640833522.197780,-0.206113530,0.143681870,9.681838040,-0.246362390,0.014811760,0.049290070
1640833522.198190,-0.302822800,-0.256767630,10.688595770,-0.035710630,-0.035843250,0.036446750
1640833522.203020,0.100572820,0.201826360,9.573222160,0.160370770,-0.078731780,0.026126210
1640833522.203750,-0.074432080,0.618456840,9.520758630,0.073052940,-0.108693550,0.035983320
1640833522.209060,0.004647720,0.497553260,9.549565320,-0.177827460,0.036443770,0.065504010
1640833522.209460,-0.054026250,0.333622750,10.029274940,-0.205326100,-0.010149180,0.058192010
1640833522.212780,-0.307456790,-0.022642910,10.643243790,0.005576010,-0.091983390,0.032886860
1640833522.213140,0.194280120,0.398690020,9.333363530,0.139720720,-0.060021870,0.022985040
1640833522.217830,-0.140001220,0.813766360,9.609532360,0.000990930,-0.020806490,0.022949280
1640833522.218230,-0.307114270,0.570273220,10.230645180,-0.218614940,0.015705820,0.054758790
1640833522.225680,-0.188440890,0.327393770,10.040981290,-0.168408450,-0.075626380,0.060534480
1640833522.226180,-0.444757880,0.035819960,10.062102320,0.025415420,-0.123785440,0.039161740
1640833522.227810,0.034663090,0.385809420,9.214017870,0.081408020,-0.016960500,0.036890800
1640833522.228230,-0.112237190,0.699302850,9.814251900,-0.067973140,0.014068190,0.049842890
1640833522.232750,-0.059171450,0.328043790,10.311199190,-0.230094760,-0.013424460,0.069282950
1640833522.233140,0.402760330,0.100993750,9.736441610,-0.137227790,-0.028833750,0.074954330
1640833522.237890,-0.021361290,-0.139267470,10.023544310,0.039596860,-0.056184840,0.034803160
1640833522.238870,0.079240820,0.257979090,9.560938840,0.054574020,-0.052535540,0.034540890
1640833522.242820,-0.023415430,0.519060970,9.309637070,-0.104872880,-0.031179200,0.049476330
1640833522.243610,-0.108439330,0.110647370,9.759508130,-0.238814950,0.034525990,0.046774750
1640833522.247780,0.019509830,-0.044930880,10.131084440,-0.082783410,0.047057870,0.045150520
1640833522.248220,-0.286492200,-0.010746500,10.272017480,0.109638300,-0.076736530,0.005571550
1640833522.252900,-0.193064850,0.348016350,9.651635170,0.053979460,-0.091111670,0.036086140
1640833522.253700,-0.289683400,0.432626340,9.272815700,-0.129137930,-0.015766920,0.065132980
1640833522.259260,-0.350337300,-0.181362900,9.783288000,-0.204332170,0.028969350,0.039632620
1640833522.259890,-0.192845150,-0.319927840,10.245606420,0.032658870,0.011542440,0.033076110
1640833522.262890,-0.186972620,0.113133120,9.888207440,0.159984840,-0.082258880,0.000852350
1640833522.263420,0.076562890,0.596141580,9.441971780,-0.007547440,-0.060871250,0.036215780
1640833522.268090,-0.049713960,0.689415160,9.748504640,-0.188700820,0.045935810,0.059288740
1640833522.269370,-0.162965570,0.128795040,10.303967480,-0.157795850,-0.006516280,0.031967460
1640833522.274890,-0.220280600,0.047452080,10.439315800,0.115640460,-0.084608800,0.030151010
1640833522.275390,-0.237229140,0.677881120,9.401515960,0.158019350,-0.095917270,0.004655120
1640833522.277770,-0.090795590,0.996057990,9.163504600,-0.128492730,-0.011110300,0.043796000
1640833522.278140,-0.195951640,0.846290710,10.122287750,-0.299026100,0.063988570,0.079737600
1640833522.282740,-0.004874460,0.258700640,10.367890360,-0.151157360,-0.035114590,0.041176380
1640833522.283090,0.077499630,0.021299790,10.326355930,0.144395200,-0.083592530,0.027795130
1640833522.288020,-0.027707920,0.516974210,9.517433170,0.120185340,-0.044633450,0.010210280
1640833522.288770,0.002694470,0.702248220,9.463696480,-0.206644860,-0.024300820,0.049398840
1640833522.292900,-0.022041940,0.249941720,9.992742540,-0.341580870,0.028295820,0.099128500
1640833522.293400,0.202478710,-0.183733120,9.711288450,-0.123330940,-0.005610290,0.046525890
1640833522.297780,0.135532270,-0.219138530,10.132945060,0.153505800,-0.015242400,0.013330580
1640833522.298270,0.035141040,0.549096410,9.695893290,0.097025920,0.014473500,0.032846630
1640833522.302890,-0.060857020,0.626465200,9.703719140,-0.223104660,-0.041009490,0.056760010
1640833522.303500,-0.214774030,0.086595360,9.914838790,-0.326026980,0.004109740,0.078801820
1640833522.308160,0.008529260,-0.073064660,9.207257270,-0.086008010,0.017467140,0.018969180
1640833522.308790,-0.121344090,-0.088794600,9.957131390,0.161574780,0.010523200,-0.020647050
1640833522.312820,-0.100095610,0.620333610,9.686887740,0.071839990,0.055468090,0.019668040
1640833522.313200,-0.170450840,0.526794370,9.768058780,-0.215891030,-0.034880640,0.054892910
1640833522.318120,-0.303003370,-0.374491660,10.219330790,-0.254477590,-0.013609230,0.082626950
1640833522.319510,-0.132748920,-0.476097140,9.410471920,0.027081370,0.003653760,0.040782980
1640833522.322940,-0.297840090,-0.187146840,9.893475530,0.203676520,-0.045205660,-0.001654030
1640833522.323610,-0.129676430,0.484740820,9.540143970,0.015130640,0.061629720,0.027129060
1640833522.327780,-0.088365460,0.618169670,9.801464080,-0.216975820,0.014083090,0.044666230
1640833522.328240,-0.262251970,0.096481610,10.789910320,-0.172013040,-0.023230910,0.030830510
1640833522.332790,-0.066168950,0.454367370,9.666697500,0.085197390,-0.042779750,0.027553740
1640833522.333270,-0.395726080,0.819892170,9.695627210,0.148595880,-0.099225340,0.004807110
1640833522.337960,-0.334503380,1.024224760,9.541275980,-0.093604610,0.045928360,0.042869140
1640833522.338540,-0.246904550,0.887931230,9.809966090,-0.230750440,0.018636880,0.082883250
1640833522.342790,-0.312493500,-0.081026730,10.673788070,-0.115953400,-0.064460940,0.069092210
1640833522.343210,0.201114610,-0.028398170,9.417316440,0.091987850,-0.020502510,0.044693060
1640833522.347740,-0.054451720,0.368871420,9.641368870,0.082810220,-0.040879840,0.020758810
1640833522.348070,-0.127510030,0.209792200,10.152000430,-0.159673410,0.017680230,0.041045250
1640833522.353270,-0.033001940,0.021521690,9.687779430,-0.204305400,-0.046893950,0.064189740
1640833522.354260,-0.151881610,-0.395937950,9.851728440,-0.036032500,-0.090375550,0.023786730
1640833522.358010,0.189683180,0.003063740,9.208156590,0.105015940,0.044910600,0.019800660
1640833522.358510,-0.044786480,0.733968500,9.687007900,0.034411250,0.011317430,0.035940110
1640833522.362830,-0.112154520,0.473633050,10.412302020,-0.177390890,-0.003948810,0.066854070
1640833522.364020,-0.048033730,0.116299860,9.854171750,-0.138826680,-0.048200790,0.081966820
1640833522.367820,-0.235053080,-0.255924940,9.664125440,0.070118900,-0.088688740,0.017233190
1640833522.368260,-0.133317100,-0.020474070,9.332180020,0.135441140,0.016032160,0.015713270
1640833522.373860,-0.178421170,0.538502990,9.399568560,-0.006152690,0.018607080,0.040964780
1640833522.374300,-0.184060130,0.125096290,10.204991340,-0.203676520,0.019992890,0.044955320
1640833522.377790,-0.097131570,-0.296030970,10.236894610,-0.079144560,-0.015440590,0.050665450
1640833522.378230,-0.266657170,-0.358260420,9.964065550,0.186230210,-0.104597200,0.005170700
1640833522.383130,-0.276102990,0.124838140,9.626223560,0.180968630,-0.058028090,0.006011130
1640833522.383650,-0.273768540,0.867854060,9.275404930,-0.067770480,0.008721650,0.047183040
1640833522.387890,-0.278092830,0.688735600,9.992229460,-0.244221060,0.008265680,0.053092830
1640833522.388570,-0.054956340,0.398003700,10.418720250,-0.063897670,-0.026184320,0.050406160
1640833522.392760,-0.014106010,0.575974700,9.859321590,0.202241550,-0.074787440,0.029647350
1640833522.393090,-0.017261390,0.752547030,9.854310040,0.137484090,-0.049079950,0.025910140
1640833522.397920,-0.172725390,0.865418260,9.732772830,-0.127266350,-0.004461410,0.064001980
1640833522.399270,-0.165913330,0.347854940,9.699110980,-0.247839060,-0.063809740,0.080044560
1640833522.403100,0.036313610,-0.251367450,9.847159390,-0.059980160,-0.036443780,0.048588220
1640833522.403760,0.092146960,-0.000194670,9.364821430,0.156155230,0.007200240,0.026392940
1640833522.407780,-0.065368350,0.267852490,10.015079500,0.091834350,-0.024348500,0.015468890
1640833522.408150,-0.240080670,0.311523230,10.149981500,-0.131236020,-0.032371280,0.055801870
1640833522.412780,-0.188565980,0.104198770,9.588191990,-0.196336220,-0.086019920,0.065800540
1640833522.413140,-0.164599880,-0.146181140,9.792463300,-0.027629730,-0.049376490,0.033986560
1640833522.417820,-0.094909510,0.185413090,9.310256000,0.133825840,0.041300060,0.014276800
1640833522.418250,-0.021153990,0.652212920,9.760620120,0.076688830,-0.025510790,0.023832910
1640833522.423800,-0.032815340,0.606864210,10.102569580,-0.126215830,-0.002731380,0.054562100
1640833522.424490,0.002991050,0.087493230,9.659913060,-0.153517720,-0.043019660,0.067101410
1640833522.427750,-0.254702930,-0.233463150,10.096841810,0.043645490,-0.091426070,0.033035870
1640833522.428160,-0.296749680,-0.034080550,9.376088140,0.144159780,-0.029227140,0.018529590
1640833522.432770,-0.158347610,0.423510730,9.258211140,0.033104420,-0.028835240,0.026515130
1640833522.433210,-0.295613380,0.348608400,10.252152440,-0.150908510,0.049647680,0.046111640
1640833522.437830,-0.170138750,0.077044550,10.083371160,-0.113807610,-0.021742280,0.045518570
1640833522.438380,-0.174315080,0.175396170,10.202288630,0.102119160,-0.132313370,0.021851060
1640833522.442750,-0.211550590,0.519657430,9.417707440,0.116810210,-0.041039290,0.007292630
1640833522.443140,-0.025387850,0.975809160,9.285871510,-0.047177080,-0.035718090,0.032995640
1640833522.447810,-0.101411550,0.768814500,10.195459370,-0.187481950,0.029084090,0.056678060
1640833522.448250,0.203442540,0.389074680,9.905548100,-0.112710890,-0.012215970,0.056491800
1640833522.452880,0.335679920,0.292821320,9.979981420,0.096036510,-0.077852610,0.047956410
1640833522.453440,0.064925600,0.329355420,9.709115030,0.070039950,0.000023840,0.020365420
1640833522.458670,0.040143270,0.419118850,9.500265120,-0.096035020,-0.042688850,0.050051520
1640833522.459140,-0.227752860,0.043626890,9.907711980,-0.186295810,-0.029379130,0.068424650
1640833522.463070,-0.132510950,-0.397095080,9.576692580,-0.084997710,-0.007238990,0.034463410
1640833522.464660,-0.055588180,-0.186883400,9.755640030,0.109185280,-0.006896260,0.017312170
1640833522.468220,-0.206937460,0.303285150,9.798070910,0.056688490,0.025443730,0.009618700
1640833522.469250,-0.033344600,0.495704110,9.750591280,-0.122332570,-0.032986700,0.046986350
1640833522.472880,-0.148688820,0.166607690,9.867279050,-0.142863410,-0.012850760,0.070346900
1640833522.473250,-0.153817610,-0.121002110,9.632007600,-0.000162420,-0.028504430,0.028939550
1640833522.477780,-0.024254540,0.077431240,9.629225730,0.160342450,-0.029735270,0.021088120
1640833522.478630,-0.022014770,0.580071030,9.339027400,0.036671760,0.042063000,0.013567510
1640833522.482780,-0.017990060,0.386978330,9.980441090,-0.149314110,0.008220970,0.031769280
1640833522.483320,-0.104448480,0.007326240,10.211298940,-0.102488700,-0.005902350,0.047709050
1640833522.487820,-0.142013560,-0.070459730,9.778651240,0.079222020,-0.081928070,-0.001776220
1640833522.488390,-0.170920570,0.151203330,9.683063510,0.151923310,-0.044487430,0.009660420
1640833522.492760,-0.190782090,0.600856130,9.323035240,-0.007802250,0.053831940,0.018171960
1640833522.493290,-0.270245190,0.543219030,10.163335800,-0.158201160,0.001062450,0.030203170
1640833522.497780,-0.151593060,0.286257120,10.291849140,-0.091283020,-0.027382380,0.047311190
1640833522.498250,0.086876020,0.380948840,9.445416450,0.093220180,-0.063930440,0.019477310
1640833522.502880,-0.060843310,0.544085800,9.845564840,0.107415010,-0.010252000,-0.005048510
1640833522.503360,-0.018005730,0.859911920,9.656700130,-0.077508390,0.065380340,0.030323860
1640833522.507790,-0.080451530,0.471053750,10.085627560,-0.170609370,-0.053705280,0.041766470
1640833522.508190,0.110928250,-0.041636270,9.882328990,-0.060398880,-0.028814380,0.044351820
1640833522.512750,0.479987830,0.211922790,8.888027190,0.086456540,0.039927660,0.027577580
1640833522.513180,0.061012560,0.175611540,10.086874960,0.061947110,0.045335300,0.013783580
1640833522.518080,0.102489230,0.185266670,9.941679000,-0.088576970,0.048415370,0.047643490
1640833522.518910,-0.113233320,-0.062120370,9.841339110,-0.099000360,-0.072914370,0.053866220
1640833522.522800,-0.321972520,-0.514882270,9.892564770,0.003930930,-0.038422640,0.020593400
1640833522.523390,-0.012664520,0.034617630,8.790429120,0.106555220,0.049301990,0.001566110
1640833522.527810,-0.339412420,0.407033000,9.836559300,0.044782460,0.053519020,-0.006766620
1640833522.528230,-0.000132850,0.451314120,9.990324020,-0.107398630,0.082701440,0.032910700
1640833522.532790,0.035391940,0.203408460,9.887516020,-0.034990900,-0.005844240,0.041477390
1640833522.533180,-0.154181960,-0.189598930,10.106306080,0.125594450,-0.059221690,0.018398460
1640833522.538560,0.166656550,0.151206400,8.929550170,0.167430940,0.006496910,0.026564300
1640833522.539050,-0.093102310,0.329383400,9.398600580,0.028675800,0.037714840,0.034046180
1640833522.543040,0.044096750,-0.018193410,10.068292620,-0.115719460,0.119240580,0.035068400
1640833522.543430,0.006006340,-0.158738580,10.192200660,0.022721290,0.022469460,0.018720330
1640833522.547780,-0.222437290,-0.159807100,10.149965290,0.199171920,-0.088654460,-0.011686980
1640833522.548150,-0.053872860,0.287389990,9.144307140,0.164017100,0.003968180,-0.001238290
1640833522.552870,-0.447700560,0.694764910,9.558765410,-0.012005870,0.052490840,0.023186210
1640833522.553430,-0.371023890,0.470196130,10.216505050,-0.111623110,0.050352520,0.026698410
1640833522.557790,-0.022698220,0.402218280,9.917576790,0.044853990,0.018325450,0.048074130
1640833522.558440,0.084420410,0.528050480,9.893692020,0.197671370,-0.007109340,0.031276050
1640833522.562830,0.314220960,0.698174120,9.579365730,0.104920550,0.073203440,0.033047790
1640833522.563540,0.011334740,0.646659140,9.862421040,-0.049415220,0.046424560,0.039385260
1640833522.567790,0.034181040,0.125774980,9.964073180,-0.081788000,-0.017994640,0.045537950
1640833522.569380,0.149304210,-0.209879790,9.415639880,0.073976820,0.011727210,0.018072130
1640833522.572990,0.058621900,0.014390680,9.359410290,0.174652040,0.062902280,0.010517240
1640833522.573460,0.176541750,0.270664510,9.744808200,0.058922180,0.112667680,0.011453030
1640833522.577770,0.031770270,0.277681800,10.049642560,-0.069075830,0.085543100,0.040577360
1640833522.578300,0.007528530,-0.099411400,10.068173410,-0.019483270,0.026658180,0.056423250
1640833522.582780,-0.077560260,-0.322689770,9.748409270,0.152589380,0.002294780,0.022549930
1640833522.583160,-0.147692170,0.006805280,9.061596870,0.219456900,0.042796130,0.010421870
1640833522.587890,0.023034810,0.428836460,9.165347100,0.071257350,0.114263620,0.010344390
1640833522.589100,-0.100167980,0.275015950,10.085027690,-0.073273500,0.154404360,0.023533410
1640833522.592810,-0.007003600,0.027548880,10.241612430,0.035119060,0.062467170,0.028800960
1640833522.593620,-0.029866780,-0.016722900,9.991848950,0.231565540,-0.019595030,-0.007946790
1640833522.597770,-0.110570130,0.198578970,9.237763400,0.245155420,0.050285470,0.003016000
1640833522.598300,-0.086069880,0.465072040,9.315189360,0.073501470,0.111717000,0.027516490
1640833522.602930,-0.324639200,0.220351640,10.152713780,-0.056886680,0.127719340,0.015644730
1640833522.603470,-0.098037570,0.010048920,10.029826160,0.067991030,0.051835190,0.022126730
1640833522.608260,-0.040190030,0.267125070,9.918642040,0.261603330,0.001116100,-0.010155140
1640833522.608870,-0.150433510,0.491140190,9.570814130,0.209094610,0.077772160,-0.011479860
1640833522.612780,0.009957220,0.818633020,9.501439090,0.033357740,0.098031770,0.023953620
1640833522.613190,-0.154499080,0.513571860,10.250566480,-0.049686440,0.107073780,0.026451050
1640833522.618120,-0.031419900,0.110507200,10.134479520,0.084140900,0.050979850,0.028677290
1640833522.619300,0.145085080,0.416848120,9.514977460,0.252878700,0.004950170,0.011499230
1640833522.623450,-0.000254400,0.399412870,9.367674830,0.154835000,0.104276840,-0.011782350
1640833522.625040,0.225099790,0.462602320,9.499613760,-0.009982290,0.136406730,0.035986300
1640833522.627820,-0.005392130,0.081089470,10.251521110,-0.000582640,0.116726760,0.036828220
1640833522.628240,-0.126228990,-0.346095260,10.188086510,0.138321530,0.033365190,0.014640390
1640833522.632820,-0.007026620,0.195771250,9.275012020,0.259861350,-0.000530480,0.013181570
1640833522.633320,-0.168849480,0.308955850,9.142024990,0.124001520,0.107115510,-0.003990530
1640833522.637940,0.001739330,0.256018610,9.677119260,-0.028869510,0.182954970,0.013042990
1640833522.638790,-0.107000350,0.118646880,10.307814600,0.068062530,0.139498680,0.008670980
1640833522.642780,-0.164592650,-0.137558760,10.236264230,0.228348390,0.004389880,-0.013278430
1640833522.643480,0.000537290,0.387326030,9.285219190,0.264865100,0.015085930,0.011758510
1640833522.647750,-0.218313140,0.420347660,9.058809280,0.090733190,0.118067880,0.009842220
1640833522.648120,-0.153851720,0.067979060,9.854380610,-0.020664930,0.150407850,0.022110340
1640833522.652930,-0.215701100,-0.130729140,10.187573430,0.153145190,0.124990960,0.010047850
1640833522.653960,-0.172501240,-0.130739080,10.018691060,0.308719280,-0.004763900,-0.036671760
1640833522.658340,0.006229090,0.564527270,9.465700150,0.233227010,0.037910050,-0.001774730
1640833522.658800,-0.236096680,0.716731310,9.411396030,0.022314490,0.123113390,0.015091900
1640833522.662810,-0.210470660,0.250066250,10.293293950,-0.014056270,0.095875580,-0.001786650
1640833522.663420,-0.226476510,0.259764460,10.293286320,0.213347380,0.063844030,0.001657010
1640833522.668190,-0.135536330,0.534486170,9.700603490,0.319574770,-0.007921460,-0.024504960
1640833522.669040,0.082413060,0.922192930,9.335265160,0.139410790,0.074668230,0.015503170
1640833522.674200,-0.034174980,0.930837330,9.490856170,-0.060524050,0.147119160,0.041027370
1640833522.675830,0.061207650,0.324352230,10.275678630,-0.027662520,0.077882420,0.019143520
1640833522.677780,-0.010573710,-0.028028700,10.192605020,0.221163050,0.057716680,0.017766660
1640833522.678180,0.000483850,0.187872230,9.460586550,0.308392940,0.012248750,-0.015772880
1640833522.682740,0.013637740,0.446871850,9.436151500,0.089621550,0.082886220,0.005793570
1640833522.683160,-0.063102360,0.372526260,9.434947970,-0.116845970,0.143148020,0.036081680
1640833522.688370,0.014067720,-0.062418580,9.955222130,-0.022283200,0.091630220,0.008626280
1640833522.689560,-0.106832410,-0.298123870,10.108621600,0.263525610,0.070294750,-0.004202130
1640833522.693400,-0.168000440,0.171718360,9.420734410,0.341102540,0.025697060,-0.017936530
1640833522.693780,-0.174171510,0.418169710,9.482864380,0.109039260,0.042952600,0.021195410
1640833522.697780,-0.155808050,0.170896920,9.388640400,-0.100261000,0.148078800,0.039680310
1640833522.698250,-0.011414630,-0.048598590,9.924668310,0.019821520,0.126855080,-0.000151990
1640833522.702910,-0.116905920,-0.037168240,10.523787500,0.280924170,0.068235400,-0.036856540
1640833522.704150,0.018960610,0.475846830,9.366292950,0.328525900,0.019280610,-0.026223070
1640833522.708490,-0.048170420,0.737032410,9.322777750,0.102657100,0.044029950,0.004906950
1640833522.709050,-0.295964060,0.439904030,9.766754150,-0.091725590,0.140765310,0.027598440
1640833522.712770,-0.172293860,0.102490150,9.946642880,0.040744250,0.077016660,0.027975440
1640833522.713180,-0.207349320,0.050327070,10.315069200,0.288954380,0.033530600,-0.019238890
1640833522.718180,-0.059560380,0.502580640,9.419733050,0.278787310,0.062976790,-0.017921630
1640833522.719840,-0.005481910,0.798091410,9.597715380,0.049059100,0.074504340,0.006613140
1640833522.722780,-0.235238840,0.460854350,10.115439410,-0.116665680,0.105249900,0.015525520
1640833522.723350,-0.052846070,0.142101270,9.724406240,0.043632090,0.037737190,0.030650200
1640833522.727740,-0.098188840,0.162974490,9.882329940,0.277641450,0.013022130,-0.005684790
1640833522.728150,-0.189526010,0.503215490,9.448196410,0.218877210,0.083015870,-0.010496380
1640833522.732750,0.035107320,0.752501310,9.427232740,0.000065570,0.077730420,0.032895810
1640833522.733260,-0.091358550,0.296415090,10.122735020,-0.114953520,0.109194230,0.033544010
1640833522.738010,0.141864400,-0.076099490,9.802588460,0.057919330,0.095169230,0.025208300
1640833522.738800,0.098561560,0.075484480,9.990136150,0.280675320,0.031270090,-0.002813340
1640833522.742760,-0.239766960,0.217105000,9.676515580,0.198972240,0.049494210,-0.003781910
1640833522.743310,0.009254040,0.326523040,9.093998910,-0.011900070,0.049793720,0.032830240
1640833522.747740,-0.203564720,-0.064825070,9.716025350,-0.083895040,0.129114110,0.012338160
1640833522.748080,-0.239509000,-0.300070580,10.011404040,0.086446110,0.119207810,-0.004883110
1640833522.753090,-0.176603850,0.140175730,10.024908070,0.292830230,0.009197000,-0.009416040
1640833522.753760,-0.372101190,0.415863600,9.532477380,0.181227940,0.019940730,-0.014413900
1640833522.757910,-0.155590310,0.421717410,9.221920010,-0.019350650,0.077801930,0.035096700
1640833522.758310,-0.369076880,-0.001811580,10.117360120,-0.007301570,0.119195900,0.019797680
1640833522.762820,-0.404498550,-0.231082440,10.280252460,0.176908080,0.024063890,-0.011807680
1640833522.763400,0.039146640,0.474069600,9.427634240,0.282639290,-0.031176210,-0.002858040
1640833522.767890,-0.070742720,0.777087930,9.415075300,0.088588890,0.094789270,-0.004097820
1640833522.769800,-0.073655530,0.523704770,10.020111080,-0.073274980,0.106817490,0.034426150
1640833522.773700,-0.226833250,0.267093510,10.391062740,0.065433980,0.017499930,0.017610190
1640833522.774200,-0.376374130,0.176830440,9.929583550,0.218106820,-0.061199070,-0.013522800
1640833522.777740,-0.178730730,0.753472210,9.133474350,0.190064330,-0.010818240,0.020658970
1640833522.778130,-0.429370910,0.909342170,9.619304660,-0.026786330,0.088147830,0.018738210
1640833522.783100,-0.183263730,0.486879290,10.097217560,-0.129356980,0.068460410,0.021368270
