# timestamp,accel_x,accel_y,accel_z,gyro_x,gyro_y,gyro_z
1640783890.293370,-0.009300200,0.745101150,9.970455170,0.061945620,-0.037409360,0.045619910
1640783890.294979,0.039043720,0.617147030,9.798340800,0.017559530,-0.042352080,0.067219140
1640783890.298329,0.077739660,0.475304010,9.787984850,0.053378940,-0.066055350,0.042024250
1640783890.299919,0.067552830,0.317405970,9.755492210,0.069400660,-0.030149520,0.038556750
1640783890.303419,0.011886030,0.323229760,9.885482790,0.082302090,-0.010414420,0.058925150
1640783890.312039,-0.172702460,0.143263740,10.269445420,0.041893120,-0.047287340,0.044344370
1640783890.313700,-0.180350110,0.072458480,9.898170470,0.037561350,-0.086583180,0.060151510
1640783890.314520,0.066966500,0.156269580,9.309995650,0.034423170,-0.029721860,0.061994800
1640783890.316100,0.094105390,0.071413510,9.852372170,0.036233660,0.046676400,0.038595500
1640783890.317659,0.073216650,0.212396070,10.211402890,0.083203610,0.013022120,0.039370360
1640783890.319919,0.221515950,0.480708390,9.826447490,0.074964760,-0.072415180,0.048451130
1640783890.323429,0.105236450,0.372631460,9.701106070,0.028106570,-0.047183040,0.049705810
1640783890.324080,0.022202180,0.113013340,9.679779050,0.034701830,0.016526880,0.042502580
1640783890.325290,-0.124177560,0.219575450,9.859250070,0.079071510,0.001804530,0.031898910
1640783890.328379,-0.303041430,0.301044170,10.031816480,0.094001000,-0.025385620,0.018103420
1640783890.330330,-0.137436390,0.322628380,9.858211520,0.028865040,-0.005075340,0.029699510
1640783890.333439,-0.260484990,0.381609950,10.010960580,0.018830600,-0.005196030,0.031581520
1640783890.334990,-0.344277230,0.125882580,10.173826220,0.054529310,-0.032593310,0.033915040
1640783890.338420,-0.062807020,0.192022820,9.752876280,0.076553230,-0.006332990,0.035227840
1640783890.341380,-0.086662160,0.469459770,9.922568320,0.089333940,-0.006124380,0.040800870
1640783890.349820,0.044309260,0.426770750,10.302841190,0.005111100,0.000077490,0.045789780
1640783890.350590,0.309934530,0.515673880,9.743970870,-0.019615890,0.006067750,0.047041480
1640783890.351970,0.200423320,0.370895770,9.923921590,0.050066420,-0.018255410,0.028762220
1640783890.352939,0.170851450,0.327244040,10.036927220,0.082270820,0.031715640,0.026537480
1640783890.353520,-0.048242000,0.555725690,9.862686160,0.051362820,-0.004801160,0.040693590
1640783890.358929,-0.338362100,0.340204510,10.337678910,-0.029069190,-0.053358080,0.027301910
1640783890.359490,-0.141871930,0.168901280,9.545293810,-0.034570700,0.015974040,0.039346520
1640783890.360020,-0.145078500,0.167319450,9.514564510,0.043208900,0.033971660,0.034818060
1640783890.363560,-0.213474320,-0.097353670,10.415419580,0.073689220,0.073064860,0.020779670
1640783890.364980,-0.118254330,0.083899800,9.978832240,0.070470560,0.006274880,0.042387840
1640783890.368379,-0.154701580,0.048590350,9.761276250,0.016339120,-0.086070590,0.049157440
1640783890.370360,-0.007824090,-0.217167380,9.620380400,-0.021496420,0.026451050,0.032235680
1640783890.373479,0.032407200,-0.102072410,9.559152600,0.066417460,0.074161590,0.014598670
1640783890.375049,-0.118707330,0.103876760,10.451866150,0.123834620,0.011764470,-0.004872680
1640783890.379920,0.013500620,0.449515400,9.977921490,0.066471110,0.004383920,0.001990790
1640783890.380509,0.018617830,0.646673200,9.699470520,-0.011560320,-0.011600550,0.027124580
1640783890.385300,-0.268708740,0.374123780,10.262109760,0.002953410,0.010640920,0.025250020
1640783890.386960,-0.321537490,0.367948710,9.783715250,0.102396320,-0.020259620,0.024861100
1640783890.388810,-0.315346420,0.555768490,9.708864210,0.106708710,-0.016322730,0.022244460
1640783890.390179,-0.363405140,0.554253100,10.110905650,0.014741720,0.039604310,0.024473660
1640783890.393659,-0.152696220,0.434441120,10.090219500,-0.033693020,0.003995000,0.042393810
1640783890.395030,0.062259470,0.311559920,10.091767310,-0.006417930,-0.006993120,0.029119850
1640783890.398370,0.073533300,0.206089020,10.050942420,0.074113910,0.019067530,0.014217200
1640783890.399969,0.085256930,0.393862750,9.941191670,0.071081520,-0.002226230,0.033108890
1640783890.404009,0.020449580,0.468864350,9.962653160,-0.020876520,-0.015304980,0.045314430
1640783890.405460,-0.028076380,0.143525140,9.794499400,-0.054520370,0.000974540,0.042475760
1640783890.408450,0.217279290,0.226902620,9.567708020,0.002156200,0.034253290,0.040692090
1640783890.409960,0.105061570,0.358792870,9.974518780,0.052729260,0.082567340,0.025555500
1640783890.413380,-0.118825670,0.221177910,10.471735950,0.026431680,0.035576530,0.028263030
1640783890.414960,-0.215300130,0.288922490,9.940777780,0.007729230,-0.052617490,0.043348970
1640783890.418470,-0.382448640,0.143193890,9.364834790,0.001847740,-0.059163580,0.022955240
1640783890.422670,-0.218946350,0.066407100,9.358332630,-0.013858080,0.074036420,0.018125770
1640783890.423370,-0.273912310,0.200877090,9.996498110,0.031423570,0.114180160,-0.001473720
1640783890.425030,-0.335578830,0.297156810,10.624917030,0.038841370,-0.021879380,-0.010332470
1640783890.428330,0.089626480,0.464797620,9.832601550,-0.002922120,-0.020706660,0.022730230
1640783890.429950,0.033863980,0.397519710,9.623338700,-0.011864300,0.021263960,0.025551020
1640783890.433390,-0.224999950,0.140849900,10.351948740,0.012782220,0.016835330,0.023274130
1640783890.435210,-0.110105410,0.282865580,9.760318760,0.049063560,-0.013323130,0.023953620
1640783890.438419,-0.210473030,0.374837040,9.795886040,0.034014880,-0.037159030,0.005196030
1640783890.440029,-0.131980840,0.496771840,10.052654270,-0.034046180,0.046867130,0.018695000
1640783890.443339,-0.108895430,0.641349320,10.039035800,-0.045685480,0.033736240,0.020168730
1640783890.444929,-0.227471680,0.521964910,10.506537440,-0.020456310,-0.032483040,-0.007115310
1640783890.448320,-0.142177580,0.585491480,9.939892770,0.023598970,-0.018559400,0.012980400
1640783890.450150,-0.144007370,0.705046240,9.569141390,0.009307270,-0.018915540,0.029271840
1640783890.453529,-0.279029040,0.605740490,10.290810590,-0.104792400,0.009775160,0.023147460
1640783890.455210,0.022993780,0.353988530,9.778184890,-0.101728740,0.006809830,0.037884710
1640783890.458410,0.181931870,0.189247220,9.789572720,-0.021764640,0.011730200,0.015938280
1640783890.460219,0.125117630,0.191249360,10.307435990,-0.006054340,0.063265860,0.009596350
1640783890.463400,-0.013016980,0.065591630,10.162539480,-0.039570030,-0.007398430,0.020809470
1640783890.464980,-0.159526360,0.022982170,9.807264330,-0.076091290,-0.096221250,0.011390450
1640783890.468680,-0.156918670,-0.036609810,9.374545100,-0.093263380,0.000426170,-0.006043910
1640783890.469960,-0.098252950,0.093500250,9.557441710,-0.063085560,0.089743730,-0.009042020
1640783890.473460,-0.356263130,0.353023170,10.600023270,-0.013272460,0.047577910,-0.030395390
1640783890.475030,-0.285479160,0.498761240,10.303025250,-0.017648940,-0.058870020,-0.004053120
1640783890.478380,-0.045319830,0.539084430,9.494405750,-0.089676700,-0.039951500,0.024268040
1640783890.480070,-0.272835050,0.301009300,9.954977990,-0.074090060,0.046369430,0.011716780
1640783890.484140,-0.318903540,0.110458930,10.141578670,-0.014559930,0.015619400,0.006492440
1640783890.485380,-0.256168340,0.505454840,9.889970780,-0.025868420,-0.048199300,-0.004015860
1640783890.489440,-0.267108290,0.491084750,9.909523010,-0.091436530,-0.038157400,-0.014232100
1640783890.490090,-0.141597880,0.344794540,9.978358270,-0.124160970,0.022487340,-0.007374580
1640783890.493399,-0.218327520,0.528744340,10.242855070,-0.070354350,-0.013493000,-0.023642180
1640783890.495030,-0.316817050,0.430300410,10.494105340,-0.041601060,-0.047622620,-0.025954840
1640783890.498380,-0.087755700,0.572816190,9.867167470,-0.074428330,-0.028118490,-0.009696190
1640783890.500510,-0.220846210,0.718860450,10.023061750,-0.117851790,-0.043416020,0.002110000
1640783890.503700,-0.203609930,0.436100510,10.217477800,-0.165754560,-0.024274000,0.010295210
1640783890.508530,0.083394610,0.442354440,9.648470880,-0.126327590,-0.020308790,0.000581150
1640783890.508970,0.037147630,0.451033830,9.994634630,-0.073042510,-0.016677380,-0.008304420
1640783890.509980,0.013052730,0.345325410,10.245606420,-0.125895440,0.016336140,0.000591580
1640783890.513399,-0.092943910,0.286309810,10.097984310,-0.145547110,-0.054486100,0.006861990
1640783890.515060,-0.282115940,0.086643600,10.018644330,-0.142180900,-0.105460000,-0.009724500
1640783890.518479,-0.059001850,0.127275900,9.285366060,-0.145959850,-0.013752280,-0.007896120
1640783890.521090,-0.082816470,0.166514280,9.737586980,-0.121903420,0.070995100,-0.018997490
1640783890.525509,-0.329552950,0.035647170,10.815297130,-0.108516220,-0.000415740,-0.044414400
1640783890.526029,-0.145994800,0.291960450,10.049379350,-0.095599890,-0.103802980,-0.019474330
1640783890.528410,-0.092698470,0.268062890,9.537050250,-0.131936370,-0.070977220,-0.018925970
1640783890.529990,-0.293298070,0.076952240,10.014429090,-0.152082760,0.021010640,-0.030532480
1640783890.533380,-0.287565440,0.253122570,10.034466740,-0.083617870,-0.019820040,-0.017808380
1640783890.534969,-0.182242050,0.445689950,10.047167780,-0.093504790,-0.061498580,-0.033637890
1640783890.538430,-0.129651700,0.535362300,10.165853500,-0.154003470,-0.030036270,-0.026701390
1640783890.540599,-0.048197810,0.555362520,10.090243340,-0.164796380,-0.025746230,-0.009465220
1640783890.543360,-0.187391450,0.414523330,10.321976660,-0.146196800,-0.061355530,-0.032638020
1640783890.545019,-0.131154360,0.412190110,10.085921290,-0.101907550,-0.060231980,-0.033748150
1640783890.548420,-0.109467680,0.549280460,9.815597530,-0.123201310,-0.038245320,-0.017680220
1640783890.551250,-0.274416420,0.565642710,10.194478990,-0.198102040,-0.057618330,-0.015962120
1640783890.553670,-0.132980790,0.319166390,10.134529110,-0.199934860,-0.036628540,-0.016108160
1640783890.554989,0.017586990,0.263030800,9.783535000,-0.146436710,-0.035330660,-0.021344420
1640783890.559960,-0.033121080,0.291611310,10.106084820,-0.100339970,-0.028260050,-0.029186910
1640783890.560410,-0.055650250,0.261947480,10.244245530,-0.154384970,-0.006780030,-0.006286800
1640783890.563660,-0.137387070,0.227301430,10.050584790,-0.202624540,-0.083558280,0.000341240
1640783890.565019,-0.091871120,-0.027365610,9.850066180,-0.163701190,-0.094966600,-0.022315980
1640783890.568380,0.142140120,0.088840740,9.323501590,-0.143918410,0.028051440,-0.030188260
1640783890.570490,-0.081079120,0.278271470,10.213665960,-0.127610560,0.031265620,-0.033058230
1640783890.573449,-0.192025260,0.148652290,10.774628640,-0.137975830,-0.053913890,-0.033932930
1640783890.574970,-0.023341070,0.273353930,9.679114340,-0.156842170,-0.098267210,-0.007934870
1640783890.578500,-0.167114420,0.223552510,9.658591270,-0.153328520,-0.050723560,-0.027853260
1640783890.580089,-0.297181370,-0.021884070,10.191347120,-0.139687960,0.043527790,-0.035624210
1640783890.583390,-0.305887400,0.245434220,10.168473240,-0.097735230,-0.037217140,-0.039877000
1640783890.585060,-0.398178990,0.363901440,10.371536250,-0.120121250,-0.094436120,-0.053265690
1640783890.588500,-0.095175470,0.448634060,9.805527690,-0.199468450,-0.022986530,-0.033465020
1640783890.590000,-0.002502920,0.633150880,9.862883570,-0.177891570,-0.006403030,-0.020290910
1640783890.593340,-0.126915900,0.352198720,10.664727210,-0.143106300,-0.002425910,-0.032372780
1640783890.595140,0.079550050,0.396631180,10.083638190,-0.107178080,-0.058458740,-0.029708440
1640783890.598349,0.023617750,0.569406750,9.826265340,-0.116118790,-0.081062320,-0.019581620
1640783890.599949,-0.093969120,0.425942840,10.023105620,-0.234289470,0.000283120,-0.017865000
1640783890.603479,0.022498520,0.313023000,9.825585370,-0.234325250,-0.016213950,-0.024110080
1640783890.605000,-0.008420750,0.139401260,10.077628140,-0.129689290,-0.023415690,-0.046356020
1640783890.608960,0.022358380,0.141171740,10.064964290,-0.100390610,0.011786820,-0.052338840
1640783890.612569,-0.104664760,0.350746540,10.158215520,-0.141716020,-0.024138390,-0.038409230
1640783890.613620,-0.228277730,0.128170730,10.310140610,-0.227671850,-0.065125520,-0.041425220
1640783890.615110,-0.100688170,-0.070238250,9.543041230,-0.207670080,-0.038754940,-0.042308870
1640783890.618490,-0.060287830,0.047560140,9.513916020,-0.111866000,0.027197600,-0.053197150
1640783890.620230,-0.251408190,0.176439030,10.440057750,-0.100505340,0.041131670,-0.069710600
1640783890.624740,-0.281877550,0.323945760,10.422570230,-0.145259510,-0.053824480,-0.032982230
1640783890.625270,-0.139542480,0.217444420,9.835689540,-0.188097370,-0.097599630,-0.032307210
1640783890.629320,-0.213924830,0.112011610,9.775621410,-0.164093050,-0.005096200,-0.052995980
1640783890.629969,-0.217168170,0.160316630,10.138537410,-0.100669260,0.037361680,-0.057680900
1640783890.633360,-0.253146470,0.489281590,10.496853830,-0.100411480,-0.038793680,-0.066709530
1640783890.634970,-0.185178070,0.646787110,10.118997570,-0.165869280,-0.077931580,-0.053201620
1640783890.638419,0.051934320,0.489363130,9.752040860,-0.211305890,-0.019039220,-0.037515160
1640783890.641120,-0.064688980,0.510767880,10.091551780,-0.158138570,0.015357140,-0.037245460
1640783890.643430,-0.255971670,0.382699940,10.553732870,-0.100448730,-0.040328510,-0.046154860
1640783890.645049,-0.072890320,0.451363950,10.053751950,-0.143241900,-0.057213010,-0.053788720
1640783890.648370,-0.174194280,0.604158340,9.830040930,-0.198717420,-0.052049760,-0.037536030
1640783890.649989,-0.034613870,0.237559560,10.043195720,-0.244161500,-0.000967090,-0.042781230
1640783890.653839,0.126075060,0.233174860,10.016023640,-0.184348230,0.050248220,-0.050833830
1640783890.655150,-0.092783410,0.221725230,10.284707070,-0.103938580,-0.050778690,-0.058998170
1640783890.658439,0.008388480,0.097660560,9.993742940,-0.127016010,-0.051797940,-0.042434040
1640783890.660310,-0.041708780,0.285008520,9.543911930,-0.205598790,-0.006701050,-0.028172140
1640783890.663900,-0.215706940,-0.130487950,10.282748220,-0.224645440,-0.011080500,-0.048284230
1640783890.665020,-0.012802490,-0.140450780,10.131231310,-0.140808540,0.020040570,-0.073195990
1640783890.668460,-0.020490360,0.298328670,9.748869900,-0.087068970,0.002199410,-0.085353850
1640783890.670280,-0.144159050,0.229353900,10.522135730,-0.140818940,-0.000239910,-0.071525560
1640783890.673770,-0.149930610,0.269649330,9.965643880,-0.179469600,-0.019755960,-0.050544740
1640783890.675000,-0.284989980,0.165817410,9.653348920,-0.147612390,-0.099286440,-0.048211210
1640783890.678470,-0.274209590,-0.077396460,9.935771940,-0.117167830,0.017353890,-0.049519540
1640783890.680090,-0.263644730,0.135055630,9.888887410,-0.076237320,0.049307950,-0.065381830
1640783890.683400,-0.381139310,0.310242440,10.752168660,-0.113233920,-0.055980690,-0.076729060
1640783890.685060,-0.175587180,0.396687120,10.277255060,-0.179408490,-0.032021110,-0.075708340
1640783890.688429,-0.061597600,0.428387700,9.635083200,-0.165706840,-0.037390000,-0.069049000
1640783890.691010,-0.260708240,0.401801850,10.491019250,-0.098450500,-0.012546780,-0.069779160
1640783890.693369,-0.278973670,0.493195830,10.086757660,-0.087285050,-0.016482170,-0.061482190
1640783890.695020,-0.214745510,0.532830120,9.920661930,-0.129750370,-0.099176180,-0.044584280
1640783890.698320,-0.153949930,0.344922270,10.103983880,-0.171096620,-0.024889410,-0.054885450
1640783890.700080,0.041074050,0.287194490,9.770966530,-0.173163430,0.014038390,-0.052620480
1640783890.704190,0.064600010,0.253487620,10.444619180,-0.127951820,-0.011825560,-0.062799460
1640783890.712440,-0.057480130,0.155878070,10.414108280,-0.083790720,-0.034081940,-0.082537550
1640783890.712999,0.032169450,0.281191860,9.623073580,-0.118802490,-0.086298580,-0.052119790
1640783890.713389,-0.088695930,0.287928520,9.897069930,-0.181081910,-0.024701660,-0.051343450
1640783890.713760,-0.204809310,-0.066447410,9.928531650,-0.170277060,0.012288990,-0.069160760
1640783890.714990,0.051871400,0.080694180,9.728426930,-0.077772150,-0.020113590,-0.072880090
1640783890.718540,-0.110375740,0.342256580,10.183266640,-0.073538720,0.020881000,-0.081890820
1640783890.720280,-0.163177740,0.177355140,10.219306950,-0.144420580,-0.007113810,-0.068879130
1640783890.724229,-0.162187490,0.161589120,10.135574340,-0.137457270,-0.074085590,-0.051033500
1640783890.727720,-0.359614250,-0.042314680,9.760431290,-0.093588230,-0.047476590,-0.080043080
1640783890.728390,-0.169145350,0.045030650,9.577141760,-0.084839750,0.000289080,-0.089004640
1640783890.729970,-0.266494210,0.363320440,10.269056320,-0.082223110,0.051514800,-0.087882560
1640783890.733369,-0.383865890,0.334727050,10.612730980,-0.133892910,-0.043857110,-0.093776000
1640783890.735350,-0.126934440,0.434951960,10.038581850,-0.126937030,-0.101067140,-0.068843370
1640783890.740330,-0.159894170,0.412135630,9.650729180,-0.094424190,-0.017167630,-0.088165700
1640783890.741320,-0.267427300,0.284270850,10.116772650,-0.069907310,0.005556640,-0.085909670
1640783890.743430,-0.347323890,0.546910580,10.376029010,-0.090306980,-0.034208590,-0.065919740
1640783890.745090,-0.269963590,0.465707210,10.030884740,-0.148978840,-0.082072620,-0.074808300
1640783890.749780,-0.087679010,0.338421370,9.902772900,-0.145533680,-0.054852670,-0.076581540
1640783890.750569,-0.029539510,0.489021270,9.986678120,-0.116713350,0.026692450,-0.078272820
1640783890.753950,-0.056417070,0.342101450,10.300259590,-0.102308390,0.000835960,-0.080546740
1640783890.755339,-0.112688950,0.260519330,10.388163570,-0.084766730,-0.075188280,-0.079035770
1640783890.758530,-0.044276490,0.405995550,9.598665240,-0.130656360,-0.085847090,-0.064225490
1640783890.760059,-0.002981360,0.257566540,9.514333720,-0.179526240,-0.028738390,-0.063095990
1640783890.763310,0.029522530,0.066557140,10.073084830,-0.156596300,0.060726710,-0.082552430
1640783890.764989,0.040140320,0.214064910,10.215767860,-0.083413720,0.008939210,-0.091639170
1640783890.768410,-0.036452460,0.236040800,10.331945420,-0.056926910,-0.061410670,-0.078873340
1640783890.772100,-0.125303300,0.147593410,9.949800490,-0.139898030,-0.038930770,-0.077795970
1640783890.774000,-0.259144660,0.070494430,9.580391880,-0.140081330,-0.037755060,-0.065274540
1640783890.775100,-0.384441170,-0.143970280,9.820220950,-0.094267730,-0.027993320,-0.086295600
1640783890.778350,-0.165406060,0.026995730,9.842146870,-0.067150590,0.046852220,-0.096377720
1640783890.779960,-0.197155480,0.263125510,10.229423520,-0.058943040,0.023505100,-0.084427000
1640783890.783640,-0.239110080,0.163675080,10.684178350,-0.102797150,-0.055260960,-0.081680700
1640783890.785040,-0.051089500,0.240105300,9.662349700,-0.104084620,-0.046180190,-0.054831800
1640783890.791230,-0.193352610,0.125824050,9.749070170,-0.057661540,-0.030575700,-0.079311450
1640783890.792150,-0.314298300,0.170312690,10.302198410,-0.038659580,0.005878510,-0.085161630
1640783890.793380,-0.242065130,0.509434280,9.810401920,-0.060994930,-0.032643970,-0.079953680
1640783890.795030,-0.202165250,0.478324150,10.227335930,-0.116717820,-0.059787930,-0.080372400
1640783890.798499,-0.123782980,0.441724810,10.155757900,-0.113345680,0.014169520,-0.059083100
1640783890.799990,-0.160004760,0.493739190,10.036025050,-0.053431090,-0.038300460,-0.065429520
1640783890.803480,-0.314305480,0.297466190,10.615129470,-0.047336520,-0.078053770,-0.065799060
1640783890.805260,-0.104125220,0.295507670,9.599935530,-0.067473940,-0.033125280,-0.053837890
1640783890.808319,-0.032733000,0.217251030,9.705452920,-0.096930560,-0.053356590,-0.053337220
1640783890.810020,0.074534900,0.052213480,10.222133640,-0.105817620,0.036369270,-0.052768000
1640783890.813350,0.280384600,0.022293180,9.765004160,-0.069454310,0.018468500,-0.064933300
1640783890.815019,0.159881890,0.196675630,10.360304830,-0.020898870,-0.059904160,-0.067535050
1640783890.818780,-0.034228310,0.214258660,10.004001620,-0.052078070,-0.022335350,-0.058539210
1640783890.820269,-0.074193630,0.167433650,9.546441080,-0.089609630,-0.054380300,-0.047630070
1640783890.823570,-0.338776620,0.101738910,10.112364770,-0.052425280,-0.020898880,-0.068092350
1640783890.825060,-0.251617670,0.222731380,9.678411480,-0.040666760,0.036831200,-0.073939570
1640783890.828339,-0.170292410,0.374842350,10.035711290,-0.037387010,0.013864040,-0.063306090
1640783890.829959,-0.348711820,0.249908730,10.687635420,-0.043731930,-0.000940260,-0.069981820
1640783890.833330,-0.179943920,0.137712630,9.888585090,-0.040769580,-0.077188020,-0.046931210
1640783890.835340,-0.059610520,0.150851010,9.635602950,-0.006522240,-0.058548150,-0.041158490
1640783890.838539,-0.134603040,0.011241360,9.982877730,-0.033335390,0.056445610,-0.061137990
1640783890.840109,-0.047781390,0.212434010,10.185420990,-0.027304890,0.028702620,-0.042201580
1640783890.843360,-0.154758690,0.388923440,10.486331940,-0.022460520,-0.057302420,-0.056551400
1640783890.845039,-0.023630300,0.321550100,9.843821530,-0.049681970,-0.047013170,-0.071153040
1640783890.848349,0.073373210,0.631444280,9.506686210,-0.024735930,0.025832650,-0.045338280
1640783890.852409,-0.340070990,0.633654710,10.547769550,-0.047588350,0.032757230,-0.062109540
1640783890.854620,-0.321430680,0.573217750,10.416427610,-0.050911310,-0.045289100,-0.041504200
1640783890.855219,-0.045158510,0.705719770,9.549243930,-0.031258170,-0.054895890,-0.034482780
1640783890.858330,-0.120458050,0.409035530,9.970036510,-0.070661310,0.032417480,-0.034587090
1640783890.859990,0.091310380,0.229124280,9.925426480,-0.060254340,0.064229990,-0.013172630
1640783890.863360,0.125062540,0.048586220,10.136805530,-0.024279950,0.005255640,-0.031366950
1640783890.865110,0.064324450,-0.079267640,10.256677630,-0.011354690,-0.019221010,-0.035098200
1640783890.870720,0.216195970,0.017490410,9.422020910,-0.030085440,-0.005508960,-0.014314060
1640783890.871230,0.016958270,-0.073968220,9.930397990,-0.066533680,0.022856890,-0.043277450
1640783890.873560,-0.138575540,-0.082166270,10.094252590,-0.025480990,0.064502660,-0.057640680
1640783890.875020,0.027854450,0.319442930,9.603610990,0.012160840,0.013774630,-0.054612760
1640783890.878360,-0.177208240,0.481156530,10.270406720,-0.011417270,0.040698050,-0.055937480
1640783890.880050,-0.288301560,0.388510940,10.085058210,-0.041779880,0.048375130,-0.032792990
1640783890.883800,-0.269166620,0.306104480,9.918723110,0.002831220,-0.043644010,-0.017416480
1640783890.886230,-0.334320160,0.100874090,9.827679630,0.031314790,0.041010980,-0.037272280
1640783890.888340,-0.137137200,0.086656150,9.711035730,0.015477840,0.085975240,-0.044704970
1640783890.890349,-0.222175910,0.309978070,10.519832610,-0.003731250,0.048486900,-0.030727680
1640783890.893469,-0.144845430,0.133323040,10.235808370,-0.026664140,-0.002653900,-0.043281920
1640783890.895059,0.246347530,0.183983710,9.522825240,0.000154970,0.009754300,-0.036053360
1640783890.898640,0.024500750,0.368669300,10.026478770,0.045678020,0.091889510,-0.032536690
1640783890.902060,-0.114562940,0.257738590,10.420198440,0.023739040,0.066655880,-0.029146670
1640783890.903400,-0.083938180,0.495845590,10.184977530,-0.000096860,-0.022120770,-0.014370680
1640783890.905030,-0.198179160,0.479605700,9.819840430,-0.019226970,-0.001284480,-0.016063450
1640783890.908460,0.022181910,0.387745800,9.594090460,-0.026613470,0.086428230,-0.004313890
1640783890.910090,0.042400200,0.556104840,9.968347550,0.005424020,0.132830440,-0.013123450
1640783890.913309,-0.083488730,0.220123600,10.523197170,0.023956600,0.063456590,-0.032557550
1640783890.915419,0.133301020,0.176784750,9.881809230,0.037330390,0.021477040,0.002892320
1640783890.918470,-0.028210150,0.125762130,9.585150720,-0.000147520,0.050190100,-0.001873080
1640783890.920009,-0.110678720,-0.251553980,9.935994150,-0.026507680,0.089374210,-0.006219750
1640783890.923519,0.052632250,-0.195463930,9.639735220,0.046546750,0.114314250,-0.017288320
1640783890.925079,-0.032437810,-0.023982560,9.918203350,0.079554320,0.092452760,-0.042137510
1640783890.928460,-0.051213210,0.076984520,10.217123030,0.053039190,0.108623530,-0.020612780
1640783890.930070,-0.098944310,0.126961200,9.991430280,0.024841730,0.070486970,-0.013376770
1640783890.933359,-0.335550070,0.096385120,10.122058870,0.058279940,0.035847720,-0.019115220
1640783890.935070,-0.195008010,0.204880860,9.563684460,0.087346140,0.088949500,-0.013048950
1640783890.938340,-0.161535990,0.446128580,9.772072790,0.078073150,0.141839680,-0.015434630
1640783890.940070,-0.381227310,0.460118800,10.672918320,0.068354610,0.120329860,-0.024273990
1640783890.944180,-0.120593440,0.452132790,10.048225400,0.045952200,0.035540750,-0.007560850
1640783890.945360,-0.044561870,0.451337640,9.693526270,0.058820850,0.055958330,-0.014428790
1640783890.948629,-0.095709880,0.338504970,9.869213100,0.071571770,0.142160070,-0.014021990
1640783890.950160,-0.204175370,0.391089260,10.359497070,0.060500210,0.113900010,0.011970100
1640783890.953539,-0.383435280,0.422768560,10.464982030,0.053042180,0.025251510,0.006067750
1640783890.955070,-0.177741930,0.248665360,9.721421240,0.043863060,0.034955140,0.003632900
1640783890.958449,0.048955150,0.388891880,9.574394230,0.042216480,0.132212040,0.013814870
1640783890.960120,-0.172841920,0.323800980,10.382895470,0.043052430,0.170321750,-0.009787080
1640783890.963670,-0.071759780,0.145273950,10.483862880,0.065715620,0.058719520,-0.001445410
1640783890.965139,-0.018103560,0.361235620,9.760132790,0.089456140,0.007012490,0.009492040
1640783890.968350,-0.122904610,0.265458520,9.588709830,0.025381150,0.073847190,0.009246170
1640783890.969990,-0.067874450,0.174400480,9.893779750,-0.002224740,0.147840410,0.028121480
1640783890.973470,-0.247122530,0.178354200,10.152566910,0.063200290,0.126835720,-0.002458690
1640783890.975060,-0.157643820,0.137371880,10.286072730,0.107131910,0.061972450,-0.015446550
1640783890.978390,-0.085476160,0.392253460,9.960007670,0.083918870,0.092513870,0.018040840
1640783890.980470,-0.371446010,0.155598370,10.000960350,0.047463180,0.065290930,-0.006552040
1640783890.983350,-0.390627320,-0.065835410,9.997648240,0.060972570,0.046752400,0.012063980
1640783890.985100,-0.253549070,0.126262190,9.534378050,0.093109910,0.111390660,-0.000630320
1640783890.988340,-0.354950820,0.109606610,10.314667700,0.100742280,0.108632450,-0.019559260
1640783890.990219,-0.246917370,0.394700530,10.479656220,0.086042280,0.080843260,0.015074020
1640783890.993860,-0.115826260,0.565967620,9.895053860,0.048442180,0.040762130,0.011606520
1640783890.995999,-0.061023070,0.375636730,10.138463970,0.052443150,0.072266160,0.014826650
1640783890.998499,-0.111057150,0.511027570,10.053861620,0.104722380,0.116141160,0.034882130
1640783891.000670,-0.284934520,0.580049100,10.269662860,0.100202870,0.033460560,0.020794570
1640783891.003350,-0.203774630,0.507635950,10.164525990,0.057286030,0.026048720,0.034540900
1640783891.005299,-0.023801650,0.593057160,9.576676370,0.012975930,0.092108560,0.039097670
1640783891.008410,-0.035814890,0.549462020,10.183499340,0.023415680,0.119288270,0.029398500
1640783891.010110,-0.093362610,0.356630030,10.578001980,0.060279670,0.119031970,0.029934940
1640783891.013320,-0.109916180,0.480842440,10.020351410,0.063060230,0.025703020,0.020617250
1640783891.015010,-0.154147160,0.426712160,9.776250840,0.040090080,0.014929470,0.031416120
1640783891.018380,-0.073651910,0.205027280,9.539514540,-0.007954240,0.116860860,0.056235490
1640783891.020010,-0.014007100,0.086276970,9.829120640,0.010597710,0.134691610,0.035502020
1640783891.023419,-0.012011190,-0.069414250,10.388165470,0.088623170,0.110766290,0.017644470
1640783891.025990,0.172899070,0.236865250,9.939027790,0.073888910,0.104084630,0.035932670
1640783891.028410,-0.054989710,0.307593140,10.150822640,0.022290650,0.082086030,0.029045340
1640783891.030130,-0.240340370,0.008791110,10.185605050,0.002217290,0.070106980,0.024209920
1640783891.033350,-0.190537560,0.137646690,9.439311030,0.071731210,0.067071620,0.028729440
1640783891.035019,-0.264929500,0.177381460,9.612688060,0.107149790,0.140440480,0.005957480
1640783891.038349,-0.286275710,0.200042170,10.376017570,0.068873170,0.168964310,0.014886260
1640783891.040330,-0.328914640,0.476021380,10.358860970,0.045762960,0.061108180,0.024011730
1640783891.043460,-0.294437500,0.195285130,10.020326610,0.028039520,0.015015900,0.020781160
1640783891.046100,-0.095133570,0.189317300,9.591146470,0.061641630,0.119365770,0.030612950
1640783891.048349,-0.240923840,0.399488630,9.988499640,0.123105930,0.151774300,0.003249940
1640783891.050060,-0.307884040,0.464614900,10.742401120,0.064405810,0.080630170,0.009839230
1640783891.057740,-0.089786770,0.732637230,9.940121650,-0.005066390,0.047257540,0.033538040
1640783891.058600,-0.076207750,0.601442280,9.741543770,-0.004242360,0.068376970,0.019192700
1640783891.059059,-0.032861980,0.483818440,10.134459500,0.043000290,0.152222840,0.038132080
1640783891.060799,-0.182474170,0.567755040,10.156167030,0.085930530,0.121316340,0.032408540
1640783891.063370,-0.295685230,0.286002730,10.458678250,0.058692700,0.007858870,0.022807720
1640783891.065620,-0.156667440,0.290126060,9.661480900,-0.003910070,0.062119960,0.059939920
1640783891.068320,-0.172684480,0.204028320,9.496627810,-0.023344160,0.125414130,0.045435130
1640783891.070000,-0.247944060,-0.083699400,10.521591190,0.026115780,0.123569380,0.022433700
1640783891.073470,-0.111617080,0.219754010,9.854975700,0.089631970,0.087930270,0.024172660
1640783891.075140,-0.092051540,0.311401130,9.784030910,0.053280600,0.053210560,0.020539760
1640783891.079049,-0.139949500,0.220972340,10.316948890,-0.007116790,0.131616010,0.031290940
1640783891.080000,-0.301306070,0.235635280,9.977182390,0.011982020,0.074565420,0.022986530
1640783891.083330,-0.385088260,0.148768510,10.070786480,0.066880890,0.007370110,0.016784670
1640783891.085130,-0.244960220,0.247167770,9.563994410,0.056095430,0.117512050,0.018189850
1640783891.088830,-0.294456300,0.249645980,9.883691790,0.038994850,0.134426360,0.016239290
1640783891.090299,-0.416211100,0.146092520,10.801978110,0.045146060,0.057668990,0.027054550
1640783891.093400,-0.276450130,0.097390880,9.920891760,0.051051370,0.031013780,0.034946200
1640783891.095559,-0.252791730,0.129186750,9.792539600,0.065369900,0.037166480,0.023096800
1640783891.098349,-0.446868540,0.093265820,10.422435760,0.076672440,0.094147010,0.011958180
1640783891.100109,-0.445241660,0.352967470,10.079932210,0.053505610,0.042729080,0.010201340
1640783891.103330,-0.362237540,0.512589690,10.151262280,0.030347710,-0.004254280,0.007006530
1640783891.105360,-0.233164710,0.568391080,9.990411760,0.023472310,0.066246100,0.008589030
1640783891.108600,-0.098199520,0.817023870,9.860825540,0.029939420,0.065946590,0.025121870
1640783891.110110,-0.216498360,0.746688540,10.546128270,0.044080620,0.028215350,0.017265980
1640783891.113390,-0.143260360,0.583657260,10.097545620,0.017151240,0.013087690,0.029951340
1640783891.115100,-0.050332230,0.567955430,9.724619870,0.019188230,-0.005176660,0.040052830
1640783891.118379,-0.151579830,0.152609150,10.166110990,-0.008736550,0.066070260,0.028820340
1640783891.120050,-0.048129400,-0.099239330,9.883163450,0.005756320,0.078073150,0.027301910
1640783891.123960,-0.067221710,-0.054457000,10.059186940,0.077553090,0.011277200,0.015124680
1640783891.125630,-0.154218480,-0.155796190,10.073183060,0.038443510,0.043603780,0.020417570
1640783891.128700,-0.222898270,0.025698790,9.817264560,-0.008305910,0.035080310,0.029394040
1640783891.129989,-0.496792610,-0.024735950,10.313549040,0.030896070,-0.014829640,0.011251870
1640783891.133340,-0.319560290,0.088115300,9.690848350,0.052425270,0.011588630,-0.005933640
1640783891.135059,-0.200074170,0.576894220,9.528489110,0.053198640,0.070685150,-0.009834770
1640783891.138569,-0.367074070,0.466582660,10.700808530,0.024801490,0.087694830,-0.011290610
1640783891.140640,-0.285916920,0.551647420,10.416144370,0.026020410,-0.016798080,0.011713800
1640783891.143849,-0.182374520,0.559251790,9.662349700,0.043925650,-0.071541970,0.024305290
1640783891.145300,-0.170285660,0.073133480,9.769729610,0.037857890,0.044876330,0.022900110
1640783891.151310,-0.220340740,0.236449900,10.068930630,0.059852020,0.093092020,0.021211800
1640783891.152520,-0.413296100,0.214897270,10.782671930,0.036998100,-0.025254490,-0.008921330
1640783891.153339,-0.196420030,0.104747730,10.138288500,-0.014124810,-0.049215560,-0.002209840
1640783891.155360,-0.020113930,0.509794060,9.397866250,0.008183720,0.006672740,-0.001193580
1640783891.158470,-0.207736520,0.389372940,10.337221150,0.010387600,0.061860680,-0.001201030
1640783891.160090,-0.325369510,0.348982720,10.414312360,0.035046040,0.015710300,0.018337370
1640783891.163339,-0.309738460,0.497934460,9.976635930,0.063827630,-0.101459030,0.018903610
1640783891.165050,-0.182318390,0.431125700,9.822442050,-0.005036590,-0.018157070,0.034539410
1640783891.168320,-0.058472460,0.397245650,9.618171690,-0.056341300,0.077173130,0.043585900
1640783891.170400,-0.102030740,0.087262200,10.578707700,-0.009711090,0.039471690,0.005999210
1640783891.173420,-0.062845320,-0.017467350,10.367591860,0.078986590,-0.022146110,-0.000253320
1640783891.177430,-0.068145080,0.195485280,9.409703250,0.080052020,-0.060819100,0.001429020
1640783891.178290,-0.344497530,0.048143180,9.962942120,-0.031045080,-0.025109950,-0.001280010
1640783891.180040,-0.445839290,-0.056445350,9.865365980,-0.044372680,0.012379890,0.008820000
1640783891.183380,-0.399499000,0.032857790,9.883598330,0.042206050,-0.042529400,-0.007995960
1640783891.185170,-0.394107460,0.214156460,10.347260480,0.079804670,0.016061960,-0.017316640
1640783891.188890,-0.363614410,0.488377630,10.152568820,0.048679110,-0.002454220,0.005738440
1640783891.190189,-0.368518290,0.553303540,10.351000790,-0.007472930,-0.097049780,0.015287100
1640783891.193620,-0.270080210,0.350677370,9.823980330,-0.017994640,-0.050333140,0.018082560
1640783891.195060,-0.159060960,0.395153280,9.515273090,0.037190320,-0.016601390,0.004494190
1640783891.198470,-0.285133840,0.572070600,10.550130840,0.065666440,-0.025674700,-0.008885560
1640783891.200060,-0.266240630,0.658001840,10.364808080,-0.012589990,-0.068758430,0.001151860
1640783891.203450,0.003866100,0.633310740,9.822335240,-0.069440900,-0.091899940,0.015105310
1640783891.205880,-0.020212430,0.376410780,10.152290340,-0.036123390,-0.009313230,0.007966160
1640783891.208410,-0.131532480,0.274624850,10.155229570,0.023090840,-0.009463730,0.019134580
1640783891.210070,-0.216273590,0.379790310,10.334500310,0.025889280,-0.105378050,0.022204220
1640783891.213359,-0.326516570,0.086407960,9.937887190,-0.023086370,-0.096088660,0.029683110
1640783891.215129,-0.121902060,0.053403580,9.314677240,-0.050653510,-0.064900520,0.029747180
1640783891.218420,-0.129236580,0.155263140,10.093506810,-0.042715660,0.005221370,0.012342630
1640783891.220800,-0.172622670,0.000498280,10.457378390,-0.005856160,0.000290570,-0.009886920
1640783891.223500,-0.013727670,0.397320570,10.141141890,0.037686530,-0.106413670,0.007493790
1640783891.226920,-0.244389650,0.456812920,10.094872470,-0.004345180,-0.103113060,0.008533900
1640783891.228299,-0.266822930,0.198002320,9.594747540,-0.075758990,-0.072978440,0.010252000
1640783891.230059,-0.269302870,0.251188310,9.717670440,-0.010909140,-0.064446030,0.007639830
1640783891.233340,-0.441289310,0.098979560,10.162983890,0.028118490,-0.027112660,-0.015364590
1640783891.235390,-0.212004830,0.244320650,10.014566420,0.026667120,-0.058630110,0.002112980
1640783891.238720,-0.374521260,0.307000070,10.587501530,-0.003595650,-0.097896160,0.000219050
1640783891.240110,-0.427595050,0.007170790,10.317584040,-0.043725970,-0.122578460,0.001564620
1640783891.243340,-0.192508670,0.095764110,9.624838830,0.008685890,-0.117333230,0.018292670
1640783891.245100,-0.319555400,0.081795100,10.085715290,0.050956010,-0.044007600,-0.019493700
1640783891.248479,-0.174366650,0.277827230,10.232151030,0.025668750,-0.054501000,-0.006629530
1640783891.250069,-0.137937380,0.653918560,10.334998130,-0.019389390,-0.136138510,0.006602700
1640783891.253600,-0.096351500,0.430762620,10.094192500,-0.058111550,-0.122554610,0.000169870
1640783891.255120,0.025430250,0.470030490,9.746352200,-0.001432000,-0.076429550,0.010403990
1640783891.258520,-0.246352570,0.594600320,10.339373590,0.049681970,-0.070627030,0.018526620
1640783891.260120,-0.398292810,0.354120760,10.555630680,0.004622340,-0.123274350,0.018735240
1640783891.263340,-0.095727620,0.465965960,9.643651010,-0.025562940,-0.154837980,0.037199260
1640783891.265040,-0.065980350,0.246055380,9.630325320,-0.063194330,-0.070182980,0.017870960
1640783891.268520,0.077163790,-0.119238530,10.096064570,-0.027684870,0.002132360,0.020745390
1640783891.270010,0.041993440,-0.049059450,10.388000490,0.058862570,-0.062580400,0.015996390
1640783891.273520,-0.140849200,-0.083431170,10.374752040,0.057274110,-0.178933160,0.005739930
1640783891.275060,-0.009925390,0.053166860,9.374206540,-0.017350910,-0.137886400,0.029008090
1640783891.278360,-0.060136010,0.083085320,9.488907810,-0.077837710,-0.028036540,0.007623430
1640783891.280099,-0.330989300,-0.068655690,10.575034140,0.011032820,-0.014407940,-0.010432300
1640783891.283540,-0.198488550,0.301920680,10.196033480,0.109493730,-0.114037100,-0.004303450
1640783891.285120,-0.094740800,0.695746720,9.828416820,0.048691030,-0.121927250,0.005161760
1640783891.288360,-0.199123470,0.486314980,10.091975210,-0.047713510,-0.043599300,0.024865570
1640783891.290310,-0.182996020,0.323308940,10.208625790,-0.035250190,-0.058741870,0.028289860
1640783891.293700,-0.374079760,0.211217600,10.436532970,0.057977440,-0.120724740,0.004138050
1640783891.295100,-0.207628180,0.193050350,9.841405870,0.083187220,-0.109668080,0.001078840
1640783891.298699,-0.103827480,0.541283970,9.773631100,-0.002422930,-0.059776020,0.007031860
1640783891.301730,-0.251001600,0.453055320,10.539982800,-0.080013280,-0.061412160,0.007486340
1640783891.303320,-0.088377050,0.116105240,10.277398110,-0.045928360,-0.104050350,0.005479160
1640783891.305120,-0.031723460,0.301206950,9.920499800,0.068552790,-0.111408550,-0.007003550
1640783891.308450,-0.335037140,0.438507910,10.333727840,0.071169420,-0.084480650,-0.000379980
1640783891.310070,-0.222345470,0.569395540,10.102128030,-0.068823990,-0.102214500,0.035618240
1640783891.313370,-0.210863440,0.473800150,9.998576160,-0.100149210,-0.112412880,0.027877090
1640783891.315430,0.010000510,0.179151770,9.946496960,-0.019237400,-0.061248240,0.017108030
1640783891.319049,0.345299450,0.446377370,9.828686710,0.042130060,-0.001572070,0.027510530
1640783891.320020,-0.015745470,0.367410240,10.637755390,0.027124590,-0.051569940,0.027628240
1640783891.323490,-0.019904020,0.050327080,10.278308870,-0.045435130,-0.150039790,0.038965050
1640783891.325120,0.047668190,0.110656080,9.220693590,-0.051243610,-0.140000880,0.041788820
1640783891.328270,-0.102776620,-0.263792190,9.612253190,-0.020422040,-0.017324090,0.008144980
1640783891.330020,-0.145854340,-0.187399690,10.271186830,0.030553340,0.035905840,-0.017614660
1640783891.333370,-0.359186110,0.296335160,10.382303240,0.058856610,-0.098615880,-0.023159390
1640783891.335070,-0.269191500,0.148217450,10.205705640,-0.025194880,-0.131376090,-0.003392990
1640783891.338340,-0.218618290,0.162418370,9.633506770,-0.039365890,-0.048245490,0.014583770
1640783891.340279,-0.409278270,-0.010381280,9.964454650,0.055210290,-0.068075940,0.003290180
1640783891.343469,-0.224722270,-0.062838320,10.114212040,0.091497600,-0.049491240,0.003474950
1640783891.345110,-0.000521290,0.381215270,9.736429210,0.058354450,-0.018757580,0.012157860
1640783891.348600,-0.145581930,0.264179650,10.709165570,-0.016783180,-0.065839290,0.006069240
1640783891.350030,-0.030756550,0.281120240,10.376689910,-0.021611160,-0.089867420,0.015057630
1640783891.353439,-0.053423610,0.386815970,9.584594730,0.052759060,-0.122874980,-0.005950030
1640783891.355100,-0.157959310,0.248184670,10.148275380,0.086292620,-0.043959920,-0.012452900
1640783891.358450,-0.199853960,0.607918320,10.007136340,0.057157880,-0.005126000,-0.001753870
1640783891.360090,-0.402717110,0.611654400,10.460142140,-0.032326590,-0.113892580,0.002346930
1640783891.363580,-0.223081350,0.349376950,10.309341430,-0.046634670,-0.101992500,0.014585260
1640783891.365140,0.012273740,0.466106830,9.375262260,0.039367380,-0.056548420,0.009356440
1640783891.368330,-0.047376900,0.354730520,10.404832840,0.054718550,-0.016877060,0.005529820
1640783891.370060,0.012923310,0.231634910,10.514469150,0.018370150,0.005668400,0.022359190
1640783891.373639,0.021411160,0.247883390,9.996899600,0.001698730,-0.134478480,0.022383030
1640783891.375130,0.073962140,0.144257100,9.943357470,-0.029683110,-0.099277500,0.028848640
1640783891.378389,0.224524830,0.043711260,9.336974140,-0.028158730,0.039941070,0.023238360
1640783891.380349,0.087382260,0.005738990,10.205199240,0.047802930,0.012072920,-0.006200370
1640783891.383440,0.000524190,0.223816420,10.613547330,0.067652770,-0.033549960,-0.004369020
1640783891.385160,0.165585760,0.401352580,9.586553570,-0.010408460,-0.043858580,0.019766390
1640783891.388330,-0.141474520,0.278694240,10.287852290,-0.041958690,-0.021129850,0.019970540
1640783891.390400,-0.445021780,-0.021587150,10.272886280,0.018444660,-0.021775070,0.009658930
1640783891.394120,-0.275928050,0.058885910,9.411586760,0.099836300,-0.073996190,-0.005924700
1640783891.395439,-0.286504810,0.322627960,9.927168850,0.062073780,0.025880340,-0.020559130
1640783891.398389,-0.235674530,0.392609360,10.263422970,-0.028489530,0.061692310,0.005750360
1640783891.401470,-0.101609590,0.441681440,10.546277050,-0.037540500,-0.065521900,0.021091100
1640783891.403370,-0.027991620,0.306403550,10.293013570,0.018526610,-0.046968450,0.000101330
1640783891.405120,0.167297390,0.345752980,9.635184290,0.074306150,0.005772710,0.008109210
1640783891.408439,-0.025457670,0.664164130,10.277257920,0.050376350,0.017766650,0.008974970
1640783891.410240,-0.162385750,0.515092250,10.458848950,-0.064246360,-0.012792650,0.014211240
1640783891.413519,0.192095800,0.425148580,9.700955390,-0.064408790,-0.039137890,0.022846460
1640783891.415079,0.020275330,0.462621270,10.037935260,0.006158650,0.028304760,-0.006164610
1640783891.418450,0.001863470,0.401119080,10.216442110,0.014846030,0.078253460,-0.006179510
1640783891.420150,-0.006473550,0.524574880,10.260086060,-0.016719100,0.020894410,0.003796820
1640783891.423699,-0.295420620,0.282226950,10.393132210,-0.047266480,-0.037798290,-0.001078840
1640783891.425099,0.007599080,0.244577690,9.448639870,-0.056922440,-0.006091590,0.026960680
1640783891.430960,0.075817600,0.212689370,9.597537990,-0.043819840,0.090071550,0.007458030
1640783891.431579,-0.093820070,-0.044830820,10.528077130,-0.003950300,0.115232180,-0.023788210
1640783891.433280,0.207628770,0.283139530,10.180381770,0.026184320,0.018617510,-0.001432000
1640783891.435099,0.089474420,0.339760690,9.966190340,-0.046142940,0.017626590,-0.007019940
1640783891.438340,-0.017716480,0.131326760,10.088819500,-0.097370140,0.066959840,0.000223520
1640783891.440220,-0.114854940,0.211534080,9.923373220,-0.025147200,0.053054100,0.004032250
1640783891.448120,-0.286204340,0.089028730,9.881862640,0.024759770,0.037601590,-0.034052130
1640783891.449080,-0.127931240,0.350617740,9.868021010,0.002992150,0.098861760,-0.028006740
1640783891.449540,-0.316478010,0.495402280,10.264026640,-0.058844690,0.099453320,-0.014685100
1640783891.451439,-0.364333180,0.218345390,10.574601170,-0.084464250,0.005973880,-0.026825070
1640783891.453359,-0.061808390,0.308327590,9.747650150,-0.026425720,0.041052700,-0.006836650
1640783891.455099,-0.180293500,0.199455560,9.870553020,0.022734700,0.103616720,-0.027024750
1640783891.459270,-0.213881250,0.308268900,10.648163800,-0.001172720,0.087697810,-0.020496550
1640783891.460310,-0.106535410,0.628113870,10.207826610,-0.086668140,0.040197370,0.001618270
1640783891.463440,0.055338370,0.294281270,9.904838560,-0.125376880,0.019598010,-0.002786520
1640783891.465160,0.231165070,0.393143390,9.851379390,-0.038263200,0.115653870,-0.006383660
1640783891.468310,0.070678530,0.615334810,10.049341200,-0.007176400,0.134140250,-0.010496380
1640783891.470110,-0.059097290,0.334699690,10.667176250,-0.052694970,0.049661100,0.002208350
1640783891.473340,-0.054363990,0.312079850,10.117395400,-0.068530450,0.030745570,0.005374850
1640783891.475139,-0.050460130,0.236794220,9.490696910,-0.087539850,0.047117480,-0.002476570
1640783891.478459,-0.041131260,0.019591770,10.003466610,-0.075811150,0.142692040,0.002357360
1640783891.480379,-0.084264260,-0.010261670,10.176520350,-0.027832390,0.172501820,-0.023958090
1640783891.483379,-0.075721090,0.040845070,10.271532060,-0.006841120,0.031201550,-0.027289990
1640783891.485110,0.068078020,0.170002420,9.784427640,-0.046572090,0.072835390,0.007040800
1640783891.488380,0.006547100,0.118075500,9.640802380,-0.098982460,0.131583210,-0.010085110
1640783891.490260,-0.147261400,-0.043097610,10.485039710,-0.042617320,0.106056040,-0.002579390
1640783891.496179,-0.113689360,0.095594600,10.072318080,0.022047760,0.111497960,-0.021876390
1640783891.497140,-0.033045170,0.350432990,9.762997630,-0.003823640,0.098449000,-0.033472480
1640783891.498340,-0.181674440,0.470508220,10.398788450,-0.066474090,0.131294130,-0.011460480
1640783891.500150,-0.172031310,0.467177750,10.139225010,-0.098142030,0.116109860,-0.016731030
1640783891.504180,-0.149307530,0.279401720,10.088337900,-0.030371540,0.067950790,-0.026634330
1640783891.505200,-0.208020780,0.237577080,10.152601240,0.030694900,0.136893990,-0.021748250
1640783891.508849,-0.214034180,0.489522700,10.022214890,-0.008207560,0.124856840,-0.024949010
1640783891.510860,-0.244357470,0.533763830,10.473204610,-0.111624620,0.078195330,0.000537930
1640783891.514580,-0.074104540,0.338535700,10.008746150,-0.137977300,0.112931450,0.002802910
1640783891.515139,0.096431960,0.246231140,9.778927800,-0.040741270,0.119049870,-0.020362440
1640783891.518370,0.021237580,0.375242470,10.372531890,0.013621150,0.153361260,0.001794100
1640783891.520079,0.000947190,0.429772970,10.238880160,-0.050075350,0.136958080,0.000426170
1640783891.523520,-0.096543500,0.298573730,10.216572760,-0.107233240,0.049680480,-0.003370640
1640783891.526589,-0.037386310,0.211784820,9.674770360,-0.120861820,0.105889130,0.003394480
1640783891.531329,0.136768950,0.226707100,9.487163540,-0.080946100,0.194749210,-0.021314620
1640783891.532179,-0.108297930,0.096255420,10.592684750,-0.023941700,0.206142660,-0.037230550
1640783891.535080,-0.192320180,0.295668600,10.317373280,-0.029799340,0.097583230,-0.013585390
1640783891.535750,-0.116671030,0.297379640,9.742284770,-0.082744670,0.046131020,0.002808870
1640783891.538750,-0.306634720,-0.057387770,9.873116490,-0.127361710,0.154039280,-0.005087260
1640783891.542160,-0.299415740,0.029806930,9.897049900,-0.058412540,0.170157830,-0.022028380
1640783891.543480,-0.340668110,0.070541080,10.380072590,0.000767410,0.125472260,-0.045800210
1640783891.545159,-0.191025790,0.277197510,10.101068500,-0.044964260,0.138248490,-0.043730430
1640783891.548410,-0.105055710,0.530135150,9.973127370,-0.100843620,0.118601310,-0.028337540
1640783891.553419,-0.222242670,0.260828410,10.327168460,-0.111742330,0.115358830,-0.013312700
1640783891.553969,-0.056351170,0.321501170,9.735133170,-0.055757170,0.127576290,-0.016576050
1640783891.555130,-0.081524900,0.437976600,10.170809750,-0.008633730,0.135910510,-0.026242440
1640783891.558689,-0.247363340,0.381668270,10.584332470,-0.064300000,0.154472900,-0.011989480
1640783891.560130,-0.120798660,0.587101580,10.140829090,-0.126132380,0.080321730,-0.004129110
1640783891.563340,-0.142989100,0.316056130,10.094014170,-0.130788980,0.093933960,-0.014287240
1640783891.565100,0.033217810,0.264595960,9.582564350,-0.080466270,0.179412960,-0.016872590
1640783891.568440,-0.079114620,0.429816040,10.120555880,-0.020796060,0.155290960,-0.016866630
1640783891.570030,-0.274632070,0.171941760,10.617313390,-0.081093610,0.113870210,-0.007241960
1640783891.573310,-0.045254490,0.199418100,9.663600920,-0.113639240,0.073103610,0.022076070
1640783891.575389,-0.142383750,0.115904870,9.847861290,-0.109091420,0.105123240,0.003629920
1640783891.578410,-0.043381810,-0.013024380,9.968510630,-0.109523530,0.214134170,-0.011627380
1640783891.580109,-0.041810740,0.266415720,10.188323020,-0.043652960,0.166514520,-0.018872320
1640783891.583380,-0.204470660,0.258535950,10.508456230,-0.045016420,0.089535140,-0.017009680
1640783891.585130,-0.007764100,0.318965640,9.545229910,-0.107024620,0.107255580,0.013424460
1640783891.588450,-0.191753660,0.263598350,9.901503560,-0.115980230,0.126442310,0.001682340
1640783891.590610,-0.377179770,-0.015691930,10.379972460,-0.077681230,0.164991600,-0.009328130
1640783891.593449,-0.211129900,0.291329470,9.893280030,-0.026407840,0.114643600,-0.016392770
1640783891.595120,-0.301496210,0.408653080,10.383689880,-0.073133410,0.114125010,-0.038644680
1640783891.598290,-0.243031980,0.469479020,10.210743900,-0.149728370,0.136731560,-0.012268130
1640783891.600070,-0.240196530,0.573140200,10.024034500,-0.116105380,0.080764300,0.001148880
1640783891.603400,-0.329736020,0.369383070,10.329302790,-0.092320140,0.093328940,-0.020521880
1640783891.605120,-0.131432210,0.583618640,9.744577410,-0.068853800,0.128071030,0.007249420
1640783891.609130,-0.356608120,0.525074660,10.462415700,-0.088898850,0.085441770,0.000116230
1640783891.616119,-0.322211330,0.383811680,10.489850040,-0.175458210,0.084996220,-0.000819560
1640783891.616690,0.048471270,0.472926940,9.552448270,-0.157716890,0.077854100,0.005307790
1640783891.617300,-0.042839300,0.259082080,10.143670080,-0.119368750,0.136061010,-0.021623080
1640783891.618640,0.001850160,0.286319050,10.154803280,-0.108620530,0.157396470,-0.001731510
1640783891.620730,-0.108440220,0.255294230,10.233230590,-0.108020020,0.053355100,-0.002260510
1640783891.623340,-0.265593470,0.023827440,10.230410580,-0.149859500,0.020755830,-0.012381380
1640783891.625360,-0.116277520,0.214316460,9.231443410,-0.169567760,0.102515530,-0.002206860
1640783891.628460,-0.358122830,0.035449880,10.149815560,-0.152441840,0.145535170,-0.030286610
1640783891.630360,-0.465034780,0.060583740,10.598226550,-0.102622810,0.114062440,-0.033694510
1640783891.633400,-0.229566890,0.424608860,9.779397960,-0.068625810,0.015147030,-0.010088090
1640783891.635360,-0.296626090,0.277437780,10.136404040,-0.154553370,0.060464450,-0.004607440
1640783891.639760,-0.267785730,0.173751710,10.130419730,-0.168679670,0.133113560,0.021730370
1640783891.640360,-0.342470740,0.024096650,10.258603100,-0.081317130,0.034618380,-0.009509920
1640783891.643469,-0.306744040,0.087433510,10.345171930,-0.070360300,0.022061170,-0.037288670
1640783891.645150,-0.054538220,0.519285380,9.566944120,-0.127317030,0.080595920,-0.021032990
1640783891.648330,-0.182479580,0.346101310,10.434726720,-0.193408130,0.073221330,-0.030997400
1640783891.650400,-0.169347240,0.319472850,10.493228910,-0.163401660,0.061252720,-0.030919910
1640783891.653460,-0.115320210,0.451055740,9.925493240,-0.079549860,-0.007766490,-0.025600200
1640783891.655120,-0.311163960,0.374817430,10.297210690,-0.089971730,0.015477840,-0.011412800
1640783891.658720,-0.318666730,0.590886650,9.894726750,-0.160935490,0.062036510,0.024320180
1640783891.660149,-0.339738340,0.279064210,10.158943180,-0.209243600,0.012427570,0.019571190
1640783891.663950,-0.175683130,0.034265880,10.232879640,-0.152729450,0.038634240,0.005075340
1640783891.665120,0.017226890,0.237218050,9.659253120,-0.072430070,0.068996850,-0.002764170
1640783891.668340,-0.153927610,0.086233090,10.594288830,-0.116693980,0.036057820,-0.014773010
1640783891.670090,-0.232561330,0.105878170,10.372874260,-0.153489430,-0.008516010,-0.008217990
1640783891.673339,-0.078128420,0.134566290,9.477988240,-0.153188410,-0.061169270,-0.016486640
1640783891.675330,-0.064828770,0.028605300,9.744086270,-0.158590050,0.059981640,-0.025074190
1640783891.678419,-0.099456940,0.262919660,10.012774470,-0.108826150,0.126300720,-0.033280250
1640783891.680909,-0.260438770,0.309654380,10.609337810,-0.091595950,-0.032413010,-0.027678910
1640783891.683670,-0.231860530,0.356764110,10.100156780,-0.118738410,-0.045108800,0.001050530
1640783891.685480,-0.189040360,0.355885800,9.534913060,-0.165960240,0.009140380,0.005619230
1640783891.688480,-0.486113970,0.053407500,10.528576850,-0.139798240,0.020231310,-0.001759830
1640783891.690080,-0.574326810,0.204857070,10.370329860,-0.075030330,-0.004711750,-0.018003580
1640783891.693740,-0.417795600,0.431095810,9.968590740,-0.114232320,-0.065341590,-0.031331190
1640783891.695180,-0.324492310,0.386404510,10.044838910,-0.176173460,-0.011965630,-0.013482570
1640783891.698360,-0.097797040,0.537933650,9.825300220,-0.184430200,0.019389390,-0.016413630
1640783891.700260,-0.042184170,0.418059530,10.491582870,-0.155858700,-0.015361610,-0.022295120
1640783891.703290,-0.012644590,0.412762730,10.312855720,-0.098451990,-0.035007300,-0.004807110
1640783891.705119,0.047011790,0.566671610,9.894522670,-0.125828400,-0.067055230,0.004146990
1640783891.708360,-0.091729140,0.332372160,10.215341570,-0.212620240,-0.030928850,0.020539760
1640783891.711130,-0.199878380,0.117030880,9.821658130,-0.198541630,-0.013040010,0.004965070
1640783891.714160,-0.139567120,0.032148050,9.826724050,-0.124488790,-0.056250400,-0.023041670
1640783891.715289,-0.246193890,0.011886420,9.968013760,-0.099223850,0.003437700,-0.018849970
1640783891.719440,-0.362047670,0.121357350,10.169733050,-0.157913570,-0.040757660,-0.026527050
1640783891.720049,-0.471136960,-0.085769500,10.437500000,-0.174461320,-0.106628240,-0.015047190
1640783891.723340,-0.327144530,-0.112060760,9.510367390,-0.135694460,-0.075317920,-0.017456710
1640783891.725440,-0.152124060,0.107742990,9.803261760,-0.111955400,-0.003048780,-0.037474930
1640783891.730290,-0.326313230,0.113225970,10.575540540,-0.102479760,0.012427570,-0.023868680
1640783891.730980,-0.152166010,0.266270520,10.067474370,-0.097197290,-0.127208200,-0.012230870
1640783891.733610,0.023408160,0.331978770,9.768358230,-0.127956290,-0.112523140,-0.005598370
1640783891.735360,-0.128013950,0.166960730,9.810347560,-0.145415950,-0.016815960,-0.005276500
1640783891.738420,-0.191356290,0.222245370,10.262799260,-0.098089880,-0.049778830,-0.027057530
1640783891.740080,-0.412783380,0.321524110,10.643527030,-0.086857390,-0.097943840,-0.042930250
1640783891.743500,-0.333953590,0.407624070,9.876135830,-0.133503970,-0.126738860,-0.035595890
1640783891.745119,-0.229410780,0.557047010,9.781280520,-0.167982300,-0.085598240,-0.029487910
1640783891.748530,-0.354628290,0.302627890,10.156289100,-0.160413980,-0.022047760,-0.020997230
1640783891.751960,-0.274102840,0.336152140,10.223043440,-0.103430440,-0.100114930,-0.021941960
1640783891.753310,-0.216066870,0.303485040,10.176680560,-0.076781220,-0.132669510,-0.010134280
1640783891.755110,-0.091557630,0.105464320,9.702589040,-0.134818260,-0.091521440,0.016182660
1640783891.758360,0.051337480,0.035540050,9.982212070,-0.167457760,-0.059667240,0.011760000
1640783891.760370,-0.042037370,-0.197725450,10.252564430,-0.136378410,-0.065723070,-0.020363930
1640783891.763599,0.227977750,-0.030583480,9.569695470,-0.082369140,-0.088722990,-0.016388300
1640783891.765200,0.043712150,0.176559210,10.073339460,-0.084689250,-0.062702600,-0.030064580
1640783891.768339,-0.375433860,0.002209750,10.368968960,-0.140839830,-0.109149520,-0.030033290
1640783891.770069,-0.356039400,0.010215240,9.702058790,-0.101059680,-0.173139570,-0.012810530
1640783891.773340,-0.533427950,-0.096424460,9.780576710,-0.066691640,-0.095613300,-0.034588580
1640783891.775420,-0.448331920,-0.043480860,9.868216510,-0.071607540,-0.027750440,-0.029189890
1640783891.778410,-0.417589340,0.273904060,10.420172690,-0.063292680,-0.083066530,-0.016562640
1640783891.780239,-0.423175420,0.077807960,10.433595660,-0.090990970,-0.145894290,-0.015716250
1640783891.784040,-0.125699760,0.177706000,9.612272260,-0.074589270,-0.173451050,-0.002916160
1640783891.785110,-0.163790320,0.165411350,9.763039590,-0.041113790,-0.109347700,-0.017611680
1640783891.788810,-0.200482000,0.085700840,10.019672390,-0.048010050,-0.084847200,-0.023911890
1640783891.790089,-0.137310860,0.522881750,10.210456850,-0.055700540,-0.142322480,-0.024789580
1640783891.793800,-0.275199680,0.398622630,10.510667800,-0.114369410,-0.165580210,-0.034569210
1640783891.795980,0.014066790,0.435010490,9.724053380,-0.094981490,-0.145062800,-0.008900460
1640783891.798770,-0.101865620,0.509570540,9.964686390,-0.042934720,-0.108821690,-0.018842520
1640783891.800609,-0.258630160,0.219162880,10.314699170,-0.059095020,-0.119887280,-0.017464160
1640783891.803390,-0.121153020,0.355561760,9.788558960,-0.055657340,-0.165960190,0.016912820
1640783891.805100,-0.194115740,0.079847660,9.988970760,-0.105574740,-0.155277580,0.006528200
1640783891.808329,-0.109133580,-0.180775520,9.883190160,-0.097504260,-0.119788950,0.001861160
1640783891.810570,0.025218130,-0.013235850,9.664077760,-0.031015280,-0.142556440,-0.011196730
1640783891.813640,-0.039268380,-0.148055570,10.248531340,-0.039578980,-0.114722550,-0.027754910
1640783891.815160,-0.075815990,-0.055414310,10.223828320,-0.041422250,-0.122414530,-0.010885300
1640783891.819270,-0.187756630,-0.012824310,10.103102680,-0.050500040,-0.209924580,-0.019629300
1640783891.820099,-0.209434940,-0.089242570,9.854598050,-0.040380660,-0.167664890,-0.017064810
1640783891.823380,-0.118072550,0.195135010,9.486668590,-0.019736580,-0.085386630,-0.024901330
1640783891.825179,-0.378917430,0.196230750,10.530002590,-0.024926660,-0.121642670,-0.049115720
1640783891.828539,-0.311118360,0.311142360,10.242641450,-0.008276100,-0.175599770,-0.025951860
1640783891.830250,-0.085830720,0.464898290,9.621284480,-0.028042500,-0.198104980,-0.022788350
1640783891.833469,-0.221963260,0.229187800,10.274118420,-0.049939760,-0.120724740,-0.015527010
1640783891.835150,-0.196396050,0.181961940,10.112009050,-0.005067890,-0.122986760,0.007751580
1640783891.839259,-0.277545010,0.206191180,10.360835080,0.007866320,-0.208294410,-0.017356870
1640783891.840080,-0.242479520,0.235073780,10.090069770,-0.026875740,-0.197787630,-0.013786560
1640783891.844190,0.058936670,0.323426900,9.423546790,-0.063282250,-0.150752080,-0.006732340
1640783891.846140,-0.045717700,0.124321710,10.306551930,-0.046205520,-0.115489970,-0.026860830
1640783891.848379,-0.048119070,0.000855290,10.361996650,0.020952520,-0.132523480,-0.027176740
1640783891.850279,0.034667150,0.136509760,10.014649390,0.044091050,-0.215122120,-0.025030970
1640783891.853360,-0.242700730,0.121834750,10.098121640,-0.007000570,-0.199034850,-0.008443000
1640783891.855130,-0.225023140,0.001170400,9.714001660,-0.065591940,-0.148580980,0.006350870
1640783891.860170,-0.264151330,-0.131677170,10.001247410,-0.024957950,-0.174082800,-0.027489660
1640783891.860849,-0.211331530,-0.205066670,9.837553020,0.074921550,-0.147573660,-0.029319530
1640783891.863440,0.068206640,0.106683760,9.781413080,0.073380780,-0.131864850,-0.018380580
1640783891.865209,-0.280230280,0.173936200,10.706723210,0.008058550,-0.159239750,-0.012938680
1640783891.868310,-0.154358950,-0.000143040,10.178302760,-0.012709200,-0.240769980,0.003904100
1640783891.870060,-0.006366210,-0.016262420,9.494006160,0.039353960,-0.204604830,-0.025048850
1640783891.873319,-0.172888100,0.042120260,9.937113760,0.085808330,-0.105841440,-0.055223700
1640783891.875350,-0.179302420,0.346510860,10.477919580,0.070296240,-0.138546540,-0.040265920
1640783891.878660,-0.242857870,0.553535400,10.289135930,0.013533240,-0.230851810,-0.034667550
1640783891.880110,-0.077624750,0.353567120,9.892965320,-0.026813150,-0.218638780,-0.030268730
1640783891.883350,0.027581040,0.345003720,9.796205520,0.040115410,-0.125575040,-0.018239020
1640783891.885130,-0.301144420,0.174676870,10.466802600,0.110837820,-0.135862830,-0.028890370
1640783891.888470,-0.261752960,0.285836790,10.610679630,0.071111320,-0.217351300,-0.018152590
1640783891.890149,-0.121833730,0.449586390,9.689787860,-0.007689000,-0.233525040,-0.012704730
1640783891.893560,0.034013230,0.175788250,9.559938430,-0.054828820,-0.174254160,-0.016717610
1640783891.895150,0.209387840,0.245977890,10.003061290,0.012056530,-0.051297240,-0.007502730
1640783891.898419,0.035118880,0.126470710,10.557338710,0.100433830,-0.145886810,-0.038622320
1640783891.900130,0.144095320,0.230255980,10.312954900,0.094592560,-0.255553360,-0.023303920
1640783891.903299,0.160881800,0.503126980,9.314804080,-0.025525690,-0.170435030,-0.006575880
1640783891.905079,-0.016646150,-0.051067360,9.764581680,-0.083880150,-0.129368920,-0.019104780
1640783891.908340,-0.060124820,-0.110476110,10.227795600,0.041505700,-0.102369510,-0.033891200
1640783891.910110,-0.102811530,0.154413740,9.840879440,0.137254610,-0.151249740,-0.050041070
1640783891.913420,-0.146951530,0.182532310,10.237373350,0.062060360,-0.178536790,-0.026096410
1640783891.915200,-0.210326460,0.261475380,9.915601730,-0.042055550,-0.126732900,-0.009042020
1640783891.918730,-0.311016500,-0.125188190,9.942843440,-0.021462140,-0.194291790,-0.034920870
1640783891.920150,-0.211045220,0.006477140,10.015310290,0.088620190,-0.141772630,-0.028951470
1640783891.923420,-0.141459640,0.354914640,9.743900300,0.105883170,-0.105281180,-0.048981600
1640783891.925160,-0.140829500,0.399828760,10.567241670,0.020419060,-0.161884730,-0.022563340
1640783891.928619,0.096100400,0.605674860,10.042260170,-0.040540100,-0.132684410,-0.003524120
1640783891.930420,0.160206030,0.337134900,9.967246060,-0.008314850,-0.162071030,-0.024287410
1640783891.933400,0.055199990,0.277194440,10.207435610,0.089547050,-0.132597950,-0.005809960
1640783891.935130,-0.004297050,0.553956990,9.835980420,0.079655660,-0.136278570,-0.017882890
1640783891.938380,-0.128994150,0.438108120,10.246437070,-0.023116180,-0.178404180,-0.023640700
1640783891.940580,0.044563440,0.368314470,9.693022730,-0.073315200,-0.120598090,0.001342590
1640783891.943390,0.146774870,0.229476530,9.753549580,-0.019878150,-0.079312920,-0.017926100
1640783891.945150,-0.029813130,0.030535840,10.655002590,0.067873310,-0.069688270,-0.020360950
1640783891.948490,-0.010509070,0.215700600,10.049921990,0.062537200,-0.157928470,-0.009292370
1640783891.952000,-0.021378760,0.106312640,9.731595990,0.000785290,-0.196194680,0.009575490
1640783891.953349,0.126437890,-0.078303690,9.477911950,-0.068312890,-0.056633350,0.011616950
1640783891.955240,0.192673210,-0.045334430,9.765144350,-0.008574130,-0.017310680,-0.015643240
1640783891.958320,0.016978610,-0.020911350,10.536087040,0.091521440,-0.086949770,-0.031608340
1640783891.960110,0.213854940,0.286134030,9.770125390,0.063024460,-0.114531820,-0.011931360
1640783891.963600,0.019543870,0.343820390,9.859052660,-0.009089710,-0.108177970,-0.009837750
1640783891.965210,-0.196830690,0.045502550,10.076731680,-0.035128000,-0.086747110,-0.017714500
1640783891.968320,-0.095283890,0.105530370,9.491901400,0.035588440,-0.083819040,-0.015482310
1640783891.970260,-0.196557540,0.182224200,9.973864560,0.085669770,-0.043764720,-0.039158770
1640783891.973369,-0.136022140,0.175470140,10.329370500,0.032618640,-0.039690740,-0.022940340
1640783891.975080,-0.048731630,0.405032250,10.035301210,0.012394790,-0.099428000,-0.001856680
1640783891.978370,-0.020909220,0.156418530,10.136321070,-0.027556710,-0.112706430,-0.017552070
1640783891.980460,0.117373930,0.108150680,9.751924510,0.022138660,-0.028161700,-0.002384190
1640783891.983369,0.016176980,0.253144950,10.016427990,0.092007210,-0.038410720,-0.021982190
1640783891.985750,-0.122094590,0.346262130,10.573968890,0.029619040,-0.079441060,-0.023442500
1640783891.988360,0.146688770,0.549750570,9.496387480,-0.026552380,-0.093095000,0.006455180
1640783891.990769,0.183809640,0.371156870,9.781723980,-0.047676280,-0.058244180,-0.018095970
1640783891.993420,0.180780110,0.297783730,10.116367340,-0.001350050,0.046718120,-0.007185340
1640783891.995159,0.100736570,0.348891380,10.187953950,0.059586770,-0.030186780,-0.015066570
1640783891.998410,-0.058865080,0.190710380,10.490946770,0.037360200,-0.114232300,-0.019717220
1640783892.000209,0.199752700,0.309757680,9.089481350,-0.032536690,-0.039608780,0.014856460
1640783892.003399,0.253743170,0.066069200,9.428989410,-0.077858570,0.025881830,0.014203790
1640783892.005139,0.104507760,-0.186723590,10.390160560,0.008259710,0.087536870,0.000330810
1640783892.008319,0.279053360,0.137198370,9.883883480,0.088788580,-0.020352010,0.000123680
1640783892.010120,0.131835430,0.185065030,10.212495800,0.029076640,-0.059908630,-0.003893670
1640783892.013620,0.102759440,0.025369100,9.521572110,-0.049309440,0.028742850,-0.003507730
1640783892.015169,0.092045660,-0.009059860,9.458729740,-0.017721950,0.013971330,-0.034035750
1640783892.018839,-0.163853900,0.100874280,10.037657740,0.050027680,0.065661970,-0.039869550
1640783892.021400,0.014515020,0.307161750,9.741736410,0.047728420,0.051946940,-0.027449430
1640783892.023409,-0.120670680,0.355122300,10.287961960,0.014311080,0.004608930,-0.022132690
1640783892.025130,-0.173779490,0.097883050,9.903766630,0.005075340,0.021508340,-0.000414250
1640783892.028350,-0.041345740,0.001624350,9.665783880,0.027279560,0.035189090,-0.004310910
1640783892.030609,-0.208855450,0.065376590,10.048890110,0.054833300,0.074875360,-0.019954150
1640783892.033450,-0.063458820,0.197305020,10.019393920,0.033003090,0.033874810,-0.015336280
1640783892.035760,0.118623370,0.388035980,9.886667250,-0.007988510,0.044809290,-0.015282630
1640783892.038349,0.104017290,0.327038850,9.953524590,-0.018547470,0.062586350,-0.032855570
1640783892.040170,0.183003570,0.459929230,10.140538220,0.023332240,0.082615030,-0.014074150
1640783892.043399,-0.035484790,0.603426040,10.207371710,0.025317080,0.060532990,-0.020557640
1640783892.045159,-0.098890290,0.514792860,10.026053430,-0.024881960,-0.005063420,-0.010782480
1640783892.048879,0.147529040,0.629948380,9.327799800,-0.033879280,0.066846610,0.010569390
1640783892.050170,0.169226740,0.360676800,9.583666800,-0.052861870,0.148127990,-0.000266730
1640783892.053419,0.253226640,0.190600860,10.472986220,-0.014758110,0.172127800,0.006082650
1640783892.056300,0.113841600,0.102256700,10.396506310,0.017899270,0.081607700,-0.016129020
1640783892.058300,0.049163820,-0.006899850,9.878842350,-0.009608270,-0.007793310,-0.010152160
1640783892.060119,0.137461270,0.137155030,9.167400360,-0.072178250,0.108319520,0.011602040
1640783892.063340,0.017099870,-0.241440280,9.493200300,-0.085675720,0.184422730,-0.021885340
1640783892.065199,-0.007541240,-0.119628270,10.180120470,0.026167930,0.160634530,-0.013430420
1640783892.071230,0.132099460,0.278430670,9.869546890,0.053727620,0.135357650,-0.009103120
1640783892.071869,-0.016737540,0.073316870,10.303480150,-0.023698810,0.103396180,-0.008319320
1640783892.073340,-0.063076140,0.148326080,9.920214650,-0.039222840,0.129032150,0.007388000
1640783892.075120,-0.166977270,0.008162280,9.621615410,-0.017367310,0.097633910,-0.036089120
1640783892.078300,-0.118514720,0.032059860,9.621502880,0.036723910,0.164061800,-0.029622020
1640783892.080250,-0.005081510,0.397471400,9.638825420,0.024904310,0.211389360,-0.041577220
1640783892.083580,-0.207364230,0.340748880,10.531006810,-0.028379260,0.140106680,-0.028596820
1640783892.085379,0.024381790,0.319214110,9.920358660,-0.044389070,0.098843870,0.006437300
1640783892.088539,0.074874290,0.163098340,9.678318020,-0.002229210,0.129652020,-0.012749430
1640783892.090459,-0.123628600,0.083431450,10.157423020,0.058126460,0.177527990,-0.003197790
1640783892.093370,-0.051225000,0.448221300,9.979599950,-0.001190600,0.158028350,0.001803040
1640783892.095399,-0.062686110,0.329305470,10.124416350,-0.076395270,0.122082250,-0.011298060
1640783892.098830,0.142318770,0.238479960,9.707619670,-0.064407290,0.166754440,-0.009012220
1640783892.100639,0.159563090,0.460085540,9.835102080,-0.023704770,0.190006200,-0.004947190
1640783892.103479,-0.153766500,0.231596450,10.439775470,0.010518730,0.174203530,-0.009703640
1640783892.105360,-0.042716440,0.266456600,9.807448390,-0.015552340,0.108051310,-0.001390280
1640783892.108320,0.001174410,0.318592820,9.497684480,-0.052709880,0.145509840,0.012604890
1640783892.110090,0.044573440,-0.061215900,9.750388150,-0.090497740,0.250276920,0.011225040
1640783892.113319,0.120711900,0.024397350,10.079562190,-0.026685000,0.243373220,-0.000247360
1640783892.115399,0.011178570,0.049409230,10.176318170,0.035242740,0.149075700,-0.012326240
1640783892.120319,0.141357120,0.083419220,9.709955220,-0.025382640,0.156489010,0.003360210
1640783892.121110,-0.049290140,0.132881160,9.572682380,-0.068318840,0.207145530,0.003395970
1640783892.123360,-0.301400420,-0.244119260,10.053924560,-0.024110080,0.173310910,-0.021903210
1640783892.125130,-0.103310500,0.107587050,9.599321370,0.018155580,0.193624210,-0.023253260
1640783892.128270,-0.156292930,0.319830060,9.715894700,-0.001902880,0.226265190,-0.041280690
1640783892.130169,-0.232740980,0.101280900,10.605771060,-0.046537810,0.215052080,-0.019328300
1640783892.133370,-0.138114090,0.319534810,9.874915120,-0.008764860,0.162053110,-0.011205670
1640783892.135190,-0.141294640,0.080927170,9.748699190,-0.007461010,0.115834180,-0.019855800
1640783892.139330,-0.036443740,0.093151590,9.664619450,0.005467240,0.255936380,0.005841260
1640783892.140130,-0.197366910,0.150240030,9.926243780,0.005730990,0.222970550,-0.021584330
1640783892.143390,-0.210985210,0.117626330,10.681058880,-0.028975310,0.134827200,-0.008718670
1640783892.145269,0.110235050,0.391923040,9.378897670,-0.037401910,0.186575950,0.001972910
1640783892.148620,0.035301250,0.275280240,9.797377590,-0.029890240,0.180813670,-0.012211500
1640783892.150159,-0.032735990,0.400415210,10.234732630,-0.009725990,0.266023010,0.022529070
1640783892.153460,-0.129078890,0.378809360,9.908522610,-0.018908080,0.160634500,0.004667040
1640783892.155200,-0.115185300,0.132903400,10.034771920,-0.007860360,0.086139140,0.011919440
1640783892.158320,0.197424110,0.307555850,8.961195950,-0.037677590,0.254859060,0.024643540
1640783892.160120,0.143429130,0.029959340,9.846501350,-0.075745580,0.274957750,-0.002679230
1640783892.163420,-0.064428020,-0.112696750,10.776110650,-0.003419820,0.245381910,0.003026430
1640783892.165259,0.086731800,0.130239380,9.491220470,0.027449430,0.116911530,-0.007385020
1640783892.168419,-0.097831070,0.024595190,9.601870540,-0.026245420,0.139883180,0.002191960
1640783892.170140,-0.205936030,-0.016800420,9.522657390,-0.068004430,0.278723270,0.011469420
1640783892.173339,-0.341440860,-0.172525700,9.918923380,-0.010240080,0.189170240,-0.023990870
1640783892.175230,-0.313410100,0.051730850,10.148290630,0.047157700,0.186116990,-0.013267990
1640783892.178470,-0.042605250,0.406129930,9.598553660,-0.012069940,0.228248540,-0.006233160
1640783892.180270,-0.258280100,0.351585950,10.313570020,-0.042669480,0.178113620,0.008617340
1640783892.183689,-0.221617590,0.268301430,9.985340120,-0.027661030,0.160488500,0.025649370
1640783892.185269,-0.104503880,0.174289960,9.447430610,0.017336010,0.153529640,0.007192790
1640783892.188429,-0.201984120,0.103554560,9.892682080,0.047983230,0.204989330,0.005704160
1640783892.190280,-0.139026630,0.336201340,10.103778840,-0.008895990,0.215226430,0.016278030
1640783892.195240,-0.120182280,0.308511670,10.162236210,-0.067818160,0.146907540,0.014863910
1640783892.196380,0.047121350,0.142728850,9.863957410,-0.058440870,0.153046850,0.013983250
1640783892.198439,0.053383470,0.239217770,9.525144580,0.029075140,0.215271130,0.002960860
1640783892.200260,-0.246451930,0.176452100,10.152562140,0.037980080,0.183695570,0.019741060
1640783892.204079,-0.292512800,0.198387890,10.080297470,-0.015835460,0.129346550,0.040383630
1640783892.205210,-0.240738930,0.097033790,9.313818930,-0.038242340,0.117729610,0.039505960
1640783892.208350,-0.088202120,-0.123196270,9.457698820,-0.040334460,0.199477370,0.030368570
1640783892.210110,-0.088634240,-0.027044220,10.055094720,0.014530120,0.284346970,0.012682380
1640783892.213340,-0.206027360,-0.136505440,10.412446020,0.067052270,0.140383870,-0.007627910
1640783892.215180,-0.015682750,0.187702510,9.768035890,0.038114200,0.082105410,0.016024710
1640783892.218459,-0.036807510,0.223536390,9.152958870,-0.046887990,0.175707060,0.013494490
1640783892.220460,-0.252287450,-0.163831260,9.914452550,-0.039637090,0.180797310,0.014308100
1640783892.223400,-0.331173060,0.136430560,9.958850860,0.085644420,0.160938470,0.010944900
1640783892.225160,-0.226629570,0.235143330,9.682482720,0.078192380,0.106880090,-0.011052190
1640783892.228370,-0.207111030,0.359720560,10.087388040,-0.010076170,0.168167050,0.020134450
1640783892.230130,-0.272953570,0.420156780,9.965024950,-0.044320520,0.175356880,0.016506020
1640783892.233640,-0.355535570,-0.022600790,10.384084700,0.006805360,0.078950810,0.010599200
1640783892.235149,-0.270824100,0.254085930,9.571077350,0.086714330,0.118350980,0.012816490
1640783892.239310,-0.285534440,0.271200330,9.488879200,0.052639850,0.126907240,0.003065170
1640783892.240270,-0.226441590,0.310550720,10.154306410,-0.029699500,0.146251920,0.055894250
1640783892.244820,0.050265520,0.271488580,9.671765330,-0.061397260,0.149029490,0.032511360
1640783892.245700,0.095863920,-0.173640160,10.157232280,0.031800570,0.110763330,0.011280180
1640783892.248309,0.093503660,0.117067390,9.785523410,0.123746710,0.164994610,0.031109150
1640783892.250280,-0.169759480,0.148383190,9.856436730,0.052367150,0.080032650,0.015272200
1640783892.253420,-0.339987610,-0.092139350,9.977841380,-0.024969880,0.070682170,0.042763360
1640783892.255240,-0.164720010,-0.035418840,8.876448630,-0.009433920,0.109598050,0.026644760
1640783892.258319,-0.211343500,-0.187658150,9.833312990,0.062744320,0.168073190,0.004564230
1640783892.260740,-0.327258590,0.034181660,10.398029330,0.108049820,0.201599300,0.025673210
1640783892.263320,-0.416874800,0.122308310,10.261986730,0.078997020,0.007860360,0.016646090
1640783892.265210,-0.314963940,-0.069991120,9.702962880,0.041238960,0.008717180,0.057610870
1640783892.268339,-0.107164030,0.012877480,8.803833010,0.020425020,0.150135200,0.046595940
1640783892.270229,-0.358209280,-0.103116280,10.129916190,0.094746050,0.154997420,0.022733220
1640783892.273320,-0.330266710,0.162961470,10.296576500,0.134772060,0.085839650,0.017061830
1640783892.275640,-0.098127870,0.499511900,9.625533100,0.069318710,0.002668800,0.007879730
1640783892.278280,-0.236690700,0.326828510,9.896286010,0.014702970,0.069344040,0.027216970
1640783892.280120,-0.258140030,0.336714800,9.823814390,0.039239230,0.109833500,0.034329310
1640783892.283609,-0.503734470,0.436264130,10.228311540,0.091230870,0.024618210,0.021785490
1640783892.285179,-0.476090340,0.307687730,9.959969520,0.092971330,0.007151070,0.040280820
1640783892.288390,-0.159475920,0.487718220,9.180682180,0.038775810,0.048173960,0.048355750
1640783892.290170,-0.180945410,0.312351550,9.856944080,-0.005759300,0.094100830,0.049148500
1640783892.293470,0.025828760,0.090262590,9.995018010,0.007912520,0.090342760,0.055113440
1640783892.295159,-0.010597500,0.092633050,9.912850380,0.100316120,0.007776920,0.035704680
1640783892.298359,-0.090842630,0.031112190,9.793023110,0.091546770,-0.016936660,0.045354660
1640783892.300160,-0.032517520,0.160215810,9.282522200,0.008766350,0.045627350,0.046323240
1640783892.303370,-0.213611570,-0.035524430,9.620322230,-0.015155970,0.040327010,0.023990880
1640783892.306589,-0.103604440,-0.032726830,9.741271970,0.038547820,0.054253640,0.019706780
1640783892.308420,-0.057707030,0.302099440,9.553646090,0.089956830,0.074316560,0.017122930
1640783892.310109,-0.340249750,0.161770120,10.317598340,0.055295230,0.010049340,0.015634300
1640783892.313290,-0.327675370,0.188813280,9.784670830,0.039671370,-0.017476080,0.056721270
1640783892.315179,-0.382687810,0.049610450,9.201319690,0.032883880,-0.031082330,0.033268340
1640783892.318369,-0.308981060,-0.046902760,9.693215370,0.036254520,0.062157210,0.035774700
1640783892.320210,-0.303345470,0.248581140,9.880943300,0.066795950,0.091096760,0.025078650
1640783892.324980,-0.349990010,0.211040600,10.455948830,0.044007600,-0.067900130,0.018604100
1640783892.326000,0.012232370,0.446143390,9.587302210,0.012843310,-0.026763980,0.040775540
1640783892.328270,0.037785500,0.310262650,9.138941760,0.018750130,0.024059410,0.027513510
1640783892.330160,-0.181833330,0.175380510,10.322573660,0.049357120,0.038276620,0.042986870
1640783892.333600,-0.231597390,0.487721320,9.953923230,0.050444900,-0.006237630,0.045861300
1640783892.335209,-0.249082880,0.247254830,9.780390740,0.007650260,-0.126221750,0.038979940
1640783892.340790,-0.049128790,0.343774650,9.227309230,-0.006327030,0.016428530,0.063373130
1640783892.341610,-0.074520300,0.331288730,9.291526790,-0.013673310,0.078345840,0.042402740
1640783892.343860,-0.278961930,-0.094242210,10.785427090,0.033092500,-0.000591580,0.043421980
1640783892.345199,-0.213333090,-0.008959990,9.745976450,0.092776100,-0.059165060,0.050318240
1640783892.348389,-0.295870690,-0.120001720,9.271698000,0.035570570,-0.138613580,0.037845970
1640783892.350570,-0.200019610,-0.162891810,9.283666610,-0.024865570,0.041233010,0.061103710
1640783892.353449,-0.212442410,-0.262890640,9.515012740,0.005169210,0.069881980,0.018434230
1640783892.355330,-0.285916120,-0.229075040,10.603753090,0.112761560,-0.064280630,0.017212330
1640783892.358430,-0.032546180,0.245938270,9.526878360,0.110861670,-0.042331210,0.043916710
1640783892.360159,-0.167605980,0.144774540,9.610913280,0.029206280,-0.076982380,0.033979120
1640783892.363279,-0.362798750,0.132643360,9.971624370,0.032587350,-0.031949580,0.069385770
1640783892.365229,-0.209977270,0.185239180,9.228892330,0.060763960,-0.045043220,0.042641170
1640783892.368480,-0.297529310,0.143833320,9.914177890,0.115142760,-0.048515200,0.035431980
1640783892.370180,-0.200296860,0.443117560,9.790400510,0.093822190,-0.010964270,0.041754540
1640783892.373920,-0.093934990,0.394682530,9.785716060,0.027756390,-0.080589960,0.045634800
1640783892.375350,-0.146177950,0.153225320,10.058693890,0.017333030,-0.064347690,0.045706330
1640783892.378270,-0.041466000,0.148516570,9.475037570,0.068525970,-0.040259960,0.034885110
1640783892.380149,-0.215659470,0.054229200,9.931740760,0.121778250,-0.070431840,0.042542820
1640783892.383659,-0.198669900,0.089132500,9.829907420,0.075179320,-0.065021210,0.071585160
1640783892.385190,0.045227720,0.023786970,9.256711010,0.030910970,-0.074514750,0.065632160
1640783892.388379,0.052540030,-0.156311560,9.632862090,0.052183870,-0.026349730,0.071513670
1640783892.390509,0.086071800,-0.052123190,9.808811190,0.086113820,0.014401970,0.058068340
1640783892.393460,-0.146693070,-0.129264090,10.194664960,0.126703070,-0.084199010,0.037221610
1640783892.395160,-0.164123700,-0.076714480,9.639585490,0.122502450,-0.148177150,0.045327850
1640783892.398350,0.015688300,0.112952170,8.791078570,0.074715900,-0.042608370,0.041505690
1640783892.400519,-0.178213980,-0.004804410,9.652357100,0.045046210,0.044032940,0.034686930
1640783892.403570,-0.227415350,0.009798540,10.332062720,0.108768050,-0.010813770,0.047853590
1640783892.405160,-0.145412000,0.097038220,9.687433240,0.189302850,-0.133365380,0.050878520
1640783892.408340,-0.082446220,0.040879680,9.393978120,0.134624540,-0.098185260,0.058075790
1640783892.410130,-0.093435100,0.040187790,9.410759930,0.090128190,0.026074050,0.067637860
1640783892.413300,-0.331375720,-0.174471230,10.220403670,0.102768840,-0.041423740,0.043383240
1640783892.415160,-0.244381030,0.055033560,10.068592070,0.134101500,-0.112676630,0.036674730
1640783892.418860,-0.044545690,0.344446990,9.158878330,0.143712760,-0.082881760,0.028373300
1640783892.426090,-0.192780120,0.313472330,9.866764070,0.094631320,-0.047633050,0.028505930
1640783892.426600,-0.132034420,0.500243540,9.857250210,0.095477690,-0.020143390,0.057417150
1640783892.427150,-0.176948070,0.221948530,10.008779530,0.116509220,-0.100931550,0.035990770
1640783892.428290,-0.148397910,0.243830550,9.971021650,0.134788470,-0.105366130,0.052198780
1640783892.430189,0.009285160,0.453688380,9.251030920,0.121268630,-0.055582820,0.069156300
1640783892.433660,-0.047543690,0.065637520,9.981303220,0.045591600,-0.047954930,0.063459580
1640783892.435269,0.011519810,0.041835170,9.700536730,0.086036320,-0.040718910,0.060248370
1640783892.438429,0.090746030,-0.083578220,9.352512360,0.154353680,-0.086717320,0.042140480
1640783892.440230,-0.084655990,-0.086043480,9.872193340,0.138770040,-0.059126320,0.047333530
1640783892.443440,-0.184879330,0.087481100,9.617769240,0.099058450,-0.061823440,0.055168580
1640783892.445220,-0.288193550,-0.247838510,9.971721650,0.086846950,-0.135540960,0.035904350
1640783892.448310,-0.120137610,-0.011818720,9.283767700,0.134424880,-0.042487680,0.033819680
1640783892.450670,-0.095169920,0.177138370,9.532535550,0.151894960,-0.012023750,0.014446680
1640783892.453570,-0.362754550,0.159391580,10.485132220,0.138987600,-0.069263600,0.034306940
1640783892.455449,-0.173793570,0.445088510,9.303394320,0.126467660,-0.153309120,0.053974990
1640783892.458320,-0.089168410,0.152693390,9.309242250,0.087025770,-0.119560960,0.050058970
1640783892.460170,-0.132809740,0.000687570,9.661940570,0.139479350,0.022149090,0.055988140
1640783892.463670,-0.227666200,0.175783740,10.233469960,0.192213060,-0.067791350,0.027062000
1640783892.465250,-0.275018270,0.345087080,10.435089110,0.133135910,-0.151823430,0.028371810
1640783892.468490,-0.053526120,0.466130410,9.136943820,0.056540970,-0.127884760,0.044606630
1640783892.470260,-0.084704770,0.337968440,9.567834850,0.051565480,-0.073491040,0.021022560
1640783892.474330,-0.232726900,0.313698230,9.855730060,0.137156260,-0.033803280,0.039476160
1640783892.475160,-0.167804670,0.371351240,9.855641370,0.166203100,-0.127463060,0.033192340
1640783892.478269,-0.171288800,0.371512710,9.954770090,0.111116460,-0.133384730,0.048819180
1640783892.480150,-0.023315540,0.393855930,9.380787850,0.029063230,-0.092454250,0.069861110
1640783892.483690,0.076986700,0.157421650,9.848499300,0.015214090,-0.061574580,0.058750810
1640783892.485460,0.025071430,-0.133190450,9.861872670,0.131914020,-0.055590270,0.029236080
1640783892.488440,0.168852820,0.122336610,9.375005720,0.185005380,-0.136004390,0.039884440
1640783892.490190,0.005559870,0.148174390,9.712040900,0.090985010,-0.080490110,0.047212840
1640783892.493330,-0.194758590,-0.067870050,9.734582900,0.011044740,-0.095367420,0.051085640
1640783892.495180,-0.169272850,-0.104194200,9.673029900,0.076347580,-0.138317030,0.032857050
1640783892.498400,-0.238468450,-0.082038800,9.521289830,0.156782580,-0.059008610,0.000609460
1640783892.500370,-0.220078390,0.238561500,9.710388180,0.147180270,-0.061477720,0.005814430
1640783892.503430,-0.433346570,0.393952670,10.138717650,0.094188760,-0.110779710,0.020664930
1640783892.505299,-0.367035270,0.101648100,9.569790840,0.063101950,-0.190076250,0.041598080
1640783892.508280,-0.104756640,0.116850450,9.105494500,0.102555770,-0.128570210,0.035548210
1640783892.510120,-0.238679960,0.022721410,9.739210130,0.158859800,-0.039669870,0.010882320
1640783892.513300,-0.163112630,0.189083680,10.223448750,0.149995090,-0.102688380,0.011578200
1640783892.515440,-0.022469070,0.541347380,9.907210350,0.071696940,-0.154764970,0.009725990
1640783892.518849,0.082736490,0.329619800,9.548993110,0.012560190,-0.143757460,0.008043650
1640783892.520300,0.166162770,0.535198510,9.475220680,0.073377800,-0.088475640,0.017263000
1640783892.523409,-0.171193880,0.547670600,9.874300000,0.125791150,-0.104722380,-0.001265110
1640783892.525179,-0.240383130,0.470488190,9.951123240,0.094461460,-0.157733280,0.015467410
1640783892.528309,-0.172479030,0.739455700,9.333595280,0.032229710,-0.146543960,0.026226040
1640783892.530370,-0.215035540,0.308339420,9.659022330,-0.023759900,-0.113324820,0.022432210
1640783892.533360,0.010449610,0.177355450,9.733028410,0.021894280,-0.052145120,0.017231700
1640783892.535250,-0.052941590,0.168337000,9.790483470,0.109791760,-0.103417050,-0.025731330
1640783892.538390,0.025126110,0.147884680,9.864021300,0.082910070,-0.160227720,0.008997320
1640783892.540180,0.185045600,0.367882760,9.099462510,-0.007922950,-0.101123760,0.029480460
1640783892.543439,-0.019516670,-0.077340360,9.687789920,-0.047403570,-0.106526920,0.006507340
1640783892.545220,0.074533690,-0.067073680,9.655337330,0.046510990,-0.085213780,0.014697020
1640783892.548319,0.124572530,0.245952740,9.134216310,0.109137580,-0.084985790,-0.017450750
1640783892.550259,-0.114219200,0.203019350,10.202407840,0.035600360,-0.080811980,-0.007207690
1640783892.559630,-0.170884120,0.360361700,9.566905020,-0.015550850,-0.096492480,0.014638900
1640783892.560439,-0.252959280,0.001160900,9.447685240,-0.004750490,-0.193426030,-0.013157730
1640783892.561040,-0.169619750,0.058227700,9.321846010,0.047811870,-0.048981610,0.000678000
1640783892.561479,-0.176371310,0.269009800,9.322457310,0.072926290,-0.026476380,-0.024202470
1640783892.563599,-0.332061440,0.235906210,10.656883240,0.024217370,-0.107447810,-0.019654630
1640783892.565199,-0.004758990,0.540168290,9.484431270,-0.036658350,-0.113846370,0.011853870
1640783892.568380,0.079804940,0.280947510,9.405186650,-0.027580560,-0.138907150,0.000718240
1640783892.570250,0.018949120,0.182701870,9.868327140,0.041401390,-0.018455090,0.009794540
1640783892.573279,0.020156370,0.483309060,9.542706490,0.054392220,-0.074492400,-0.012250240
1640783892.575199,-0.091642190,0.378096040,10.222390170,-0.012104210,-0.146104410,-0.002793970
1640783892.578490,0.132675440,0.405715730,9.194679260,-0.069354470,-0.066380210,0.013193490
1640783892.580330,0.142960320,0.344416680,9.476283070,-0.058500470,-0.068148970,-0.000737610
1640783892.583609,-0.041561950,0.081070080,10.166876790,0.009007750,-0.008037680,-0.006277860
1640783892.585389,-0.000003740,0.128614980,9.386922840,0.053341690,-0.097177940,-0.004339220
1640783892.588460,-0.062010440,0.100724030,9.667569160,0.003531580,-0.126954910,0.013943020
1640783892.592340,-0.096684010,-0.142643420,9.440961840,-0.077107560,-0.002323090,0.018228590
1640783892.593360,-0.075270980,-0.313854520,9.660837170,-0.036987660,-0.070309640,-0.005529820
1640783892.595530,-0.171679210,-0.275043070,9.855315210,0.063204770,-0.059530140,-0.025367740
1640783892.598340,0.075825140,0.003001810,9.125367160,0.047524270,-0.044512740,-0.022879240
1640783892.600260,-0.115771110,0.172288330,9.920501710,-0.010432300,-0.044323510,-0.008288030
1640783892.603439,-0.237072830,0.001304450,9.856356620,-0.022037330,-0.092834240,-0.000470880
1640783892.606180,0.016616670,0.038688270,9.202447890,0.038318340,-0.114929690,0.013187530
1640783892.608310,-0.115852300,0.069199560,9.557451250,0.068493190,-0.004412230,-0.016629700
1640783892.610340,-0.189244400,0.087077530,9.955423360,0.044167040,-0.018350780,-0.015577670
1640783892.613400,-0.164778350,0.412168170,10.007907870,0.019596520,-0.112690030,-0.013038520
1640783892.615170,-0.085551310,0.276220530,9.525835990,-0.031508510,-0.099366910,-0.027070940
1640783892.624080,0.104796220,0.333242120,9.269889830,0.006502870,-0.035849210,-0.010693070
1640783892.624670,-0.106961630,0.438012360,9.886298180,0.051414960,-0.002066790,-0.020469720
1640783892.625049,-0.191824120,0.296593400,10.240661620,0.026272240,-0.077381730,-0.009025630
1640783892.625470,0.044301930,0.434341610,9.522964480,0.000467900,-0.098673980,0.024728480
1640783892.628450,-0.019045240,0.097627850,9.435759540,-0.028762220,-0.058977310,0.007981060
1640783892.630159,0.135471330,-0.017165910,9.611990930,-0.005935130,0.009067350,0.018195800
1640783892.633309,0.031384790,-0.067628700,9.718312260,0.048002600,-0.011341270,-0.009267030
1640783892.635490,-0.014039450,-0.253502430,9.884008410,0.065235800,-0.102241330,-0.016072390
1640783892.638409,0.078334830,0.070022520,9.205074310,0.024062400,-0.028319650,0.002232190
1640783892.640430,-0.129036650,-0.178253140,9.657246590,-0.042229890,-0.042633710,-0.034216050
1640783892.643590,-0.163919550,-0.331045210,10.014155390,0.041626390,-0.024952000,-0.029195850
1640783892.645660,-0.014299660,0.133635800,9.173538210,0.090110320,-0.024192040,-0.056962680
1640783892.648310,-0.024106520,0.093162110,9.836174960,0.053437050,-0.031098730,-0.043889880
1640783892.650190,-0.042342370,0.207732650,9.804479600,0.032106050,0.022979080,-0.015798210
1640783892.653460,-0.183008690,0.017786960,9.750151630,0.045756990,-0.109651680,-0.025424360
1640783892.655249,-0.188724250,-0.116825560,9.744198800,0.090095410,-0.071480880,-0.003720820
1640783892.658350,-0.100377270,0.036957470,9.144310950,0.085656350,0.025060770,-0.026026370
1640783892.660430,-0.364398480,-0.042559390,10.452486040,0.072033690,-0.031530860,-0.046288960
1640783892.663270,-0.191893920,0.289387940,10.031342510,0.044472510,-0.029557950,-0.023287530
1640783892.665200,0.010644310,0.247329030,9.335620880,0.023941700,-0.090256330,-0.044327980
1640783892.668670,-0.049348500,0.154321310,9.823875430,0.084833800,-0.017949940,-0.035233800
1640783892.670310,0.075353260,0.376962420,9.360780720,0.097751620,0.023132560,-0.031699240
1640783892.673499,-0.154994310,0.189422000,10.270903590,0.069811950,-0.077925610,-0.030747050
1640783892.675279,-0.089620030,0.255888340,9.824341770,0.039665400,-0.057677940,-0.013214350
1640783892.678310,0.180972770,0.212187780,8.994393350,0.027896470,-0.036135320,-0.012692810
1640783892.680169,0.037855240,-0.060547120,10.058718680,0.046809020,0.047303740,-0.024457280
1640783892.683290,0.041811920,-0.021415020,9.832796100,0.095890450,0.040854510,-0.038731100
1640783892.685779,-0.050152650,-0.047832720,9.862441060,0.129066440,-0.116501760,-0.041399910
1640783892.688350,-0.110747200,0.066638320,9.349531170,0.049248350,-0.050577530,-0.022982060
1640783892.690260,-0.047834710,-0.032493530,9.103448870,-0.017783050,0.021933020,-0.030556320
1640783892.693359,-0.408509190,-0.372764200,10.338750840,0.086739670,0.000999870,-0.050127520
1640783892.695670,-0.245812940,0.050821810,9.771384240,0.164061770,-0.017324090,-0.076621760
1640783892.700110,-0.117166560,0.414657410,9.608648300,0.102558750,-0.057180230,-0.067681080
1640783892.700660,-0.180140530,0.355447800,9.884999280,-0.004568700,0.013750790,-0.037236510
1640783892.703410,-0.047469380,0.363437920,9.606832500,0.020705160,-0.007450580,-0.033234050
1640783892.705320,-0.163850530,0.235495920,10.022693630,0.114330660,-0.051537160,-0.042904910
1640783892.708580,-0.091698710,0.327619140,9.657077790,0.138016020,-0.024782120,-0.042948120
1640783892.710140,-0.091121410,0.403700410,9.671280860,0.077927110,-0.026535990,-0.037159030
1640783892.713349,-0.204328210,0.161519630,10.084059720,-0.014652310,-0.017121440,-0.029480460
1640783892.715200,0.044734580,0.026932150,9.552487370,0.012642150,-0.020642580,-0.043530760
1640783892.718550,0.072844800,-0.038940890,9.578713420,0.113686920,-0.011497740,-0.067311510
1640783892.721079,0.027013890,0.085237850,9.748027800,0.117118660,0.010444220,-0.060255830
1640783892.723359,-0.026047650,0.141976940,9.786100390,0.054633610,-0.039333110,-0.042462340
1640783892.725220,-0.130768150,-0.242009130,9.625019070,0.031392270,-0.073774140,-0.038538870
1640783892.728799,0.054895400,-0.118243320,9.148836140,0.081868460,-0.000506640,-0.039526820
1640783892.730180,-0.093919000,-0.061659060,9.762084960,0.099341560,0.063654770,-0.062203400
1640783892.733310,-0.303572800,-0.056049400,10.309878350,0.097079560,-0.017197430,-0.065341590
1640783892.735479,-0.176007810,0.183980410,9.530122760,0.123992560,-0.106006860,-0.051543120
1640783892.738410,-0.191903220,0.027364970,9.206061360,0.056782370,-0.055344410,-0.064054130
1640783892.742220,-0.154787440,0.051518090,9.479409220,0.082676100,0.034683950,-0.052756070
1640783892.743360,-0.220260590,0.081163580,10.058777810,0.132778270,0.005213920,-0.077936060
1640783892.745190,-0.113497000,0.257163610,10.016958240,0.111702090,-0.061406200,-0.071154530
1640783892.749040,0.130915720,0.541653870,9.429377560,0.079418720,-0.036615140,-0.060845920
1640783892.753430,0.024877110,0.315377350,9.744517330,0.039088720,-0.010173020,-0.074902170
1640783892.754200,-0.040786470,0.360744510,9.827194210,0.082454090,-0.006261470,-0.057284540
1640783892.755230,-0.072525960,0.397646490,9.715822220,0.101922450,-0.055877870,-0.075456510
1640783892.758460,-0.125478340,0.184691760,9.702891350,0.080454330,-0.042025750,-0.062318150
1640783892.760450,-0.088757400,0.450103460,9.435616490,0.055646900,-0.006088610,-0.037753570
1640783892.763260,-0.152594690,0.116601790,9.988853450,-0.006708500,-0.002966820,-0.052478910
1640783892.765190,0.041888590,-0.039123650,9.715545650,0.063611570,-0.001437960,-0.052604080
1640783892.768679,0.210720670,0.190761490,9.440648080,0.111648440,-0.011821090,-0.072179730
1640783892.770200,0.003679610,0.095670360,10.025814060,0.063669680,0.011317430,-0.052087020
1640783892.774500,0.038015570,0.152570840,9.508222580,0.025157630,-0.031405690,-0.051544610
1640783892.775610,0.001173820,0.005330540,9.420071600,0.015768410,-0.066851080,-0.091731560
1640783892.778309,0.104298190,0.080537360,9.131048200,0.067189340,0.049589570,-0.081938510
1640783892.780170,0.008321360,0.319775370,9.639938350,0.057627250,0.068679440,-0.106218450
1640783892.783310,-0.296870680,0.124769840,10.603359220,0.049239400,-0.023382900,-0.088891390
1640783892.785800,-0.147607800,0.220339660,9.386385920,0.057886550,-0.073279450,-0.064852830
1640783892.788590,-0.246459160,0.081269210,9.378046990,0.024452810,-0.038845840,-0.081810360
1640783892.790290,-0.396297400,-0.061074290,9.722823140,0.060930850,0.063890230,-0.072608900
1640783892.794210,-0.236649570,0.174239230,9.696348190,0.072295970,-0.005353990,-0.096012640
1640783892.795199,-0.169303860,0.267554940,10.120493890,0.039477650,-0.039345030,-0.102561710
1640783892.798410,0.243032810,0.428892080,9.329602240,-0.002259020,0.010731820,-0.088197010
1640783892.800220,0.182998520,0.451552060,9.706610680,0.002264980,0.017958880,-0.099426520
1640783892.803449,-0.056139790,0.391772810,10.120352750,0.044196840,0.010237100,-0.086770950
1640783892.805310,0.026295480,0.491728450,9.412944790,0.038842860,-0.067070130,-0.092925120
1640783892.809680,-0.100132620,0.370065720,9.354558940,0.016866620,-0.050270550,-0.081916150
1640783892.810230,0.040384990,0.337665950,9.211598400,-0.038872660,0.065797570,-0.065627690
1640783892.813320,-0.012597560,0.069279840,9.882097240,-0.041820110,0.063444670,-0.087144970
1640783892.815250,-0.061318680,-0.158811200,10.143958090,0.053165860,-0.006923080,-0.089354810
1640783892.819680,0.150320410,0.038658200,9.307938580,0.065326690,-0.033561890,-0.091144440
1640783892.822670,-0.059214860,-0.066170010,9.457770350,-0.010907650,0.012372440,-0.089393570
1640783892.823400,-0.145989940,-0.197204200,9.641911510,-0.041049720,0.034448500,-0.088027130
1640783892.825270,-0.154538050,-0.163912250,9.582073210,0.023299460,0.006520750,-0.116555410
1640783892.828280,-0.143469840,0.074256410,9.546403880,0.070104000,-0.000026820,-0.108753140
1640783892.830170,-0.078438850,0.466511640,9.725827220,0.022320450,0.042586030,-0.102959580
1640783892.833320,-0.250126690,0.396193830,9.983057020,-0.016047060,0.014722350,-0.100184980
1640783892.835700,-0.157772330,0.296716150,9.784291270,-0.000727180,-0.023432080,-0.080052020
1640783892.838420,-0.193491530,0.316312790,9.603086470,0.042869150,0.007075070,-0.113241400
1640783892.840279,-0.303758620,0.298578860,9.676049230,0.036089120,-0.002159180,-0.104029480
1640783892.843310,-0.215476840,0.541553380,9.708516120,-0.020672380,-0.001278520,-0.080174220
1640783892.845199,-0.137815450,0.107497160,9.674840930,-0.065414610,0.001540780,-0.095570090
1640783892.848359,0.187372160,-0.084818620,9.463692670,0.003114340,0.014242530,-0.094546370
1640783892.850240,0.169830640,0.048907910,9.610648160,0.069622700,0.052158540,-0.094205150
1640783892.853400,-0.042736530,-0.182099730,10.054510120,0.013330580,0.009331110,-0.083073980
1640783892.855860,-0.009129270,-0.105153700,9.608146670,-0.017011170,-0.053614380,-0.074943900
1640783892.859050,-0.056144310,-0.246854340,9.042887690,-0.009968880,-0.035005810,-0.104138270
1640783892.860159,0.111993170,-0.048323940,9.148819920,0.008286540,0.091135500,-0.101044770
1640783892.863330,-0.065379570,0.254505520,9.940015790,0.034315890,0.122433900,-0.116612020
1640783892.865209,-0.245310340,0.096006350,10.421688080,0.036588310,-0.044365230,-0.104156140
1640783892.868409,-0.064773400,0.333459730,9.192440990,0.043927130,-0.066283350,-0.076866150
1640783892.872110,-0.177649200,0.051918490,8.946551320,0.000134110,-0.003321470,-0.094278160
1640783892.873330,-0.171698810,-0.182955290,9.575082780,0.030846900,0.095465780,-0.079526010
1640783892.875320,-0.136507390,0.059190570,9.677469250,0.069722540,0.054782640,-0.113621370
1640783892.878330,-0.128468990,0.067796630,10.238354680,0.035721060,-0.033910580,-0.111164170
1640783892.880200,0.125818600,0.284533530,9.399425510,0.007778410,0.018909580,-0.097170460
1640783892.883469,-0.107719120,0.200560760,9.561967850,-0.007939340,-0.005546210,-0.124868760
1640783892.885300,-0.182835680,0.313032930,9.791395190,0.036768620,0.021454690,-0.088684270
1640783892.890920,-0.110256980,0.405907780,9.238861080,0.037935380,0.017470120,-0.107915710
1640783892.892740,-0.224502710,0.444134240,9.875674250,0.011079010,-0.012697280,-0.079980490
1640783892.893360,0.044418240,0.608442190,9.434185980,-0.029680140,0.059182950,-0.057455900
1640783892.895220,0.041444870,0.113316750,9.755043980,-0.049667060,0.020115070,-0.092153240
1640783892.898510,0.063772520,0.140093890,9.831757550,0.045318910,0.031393770,-0.073239210
1640783892.900420,0.066304740,0.157744290,9.305821420,0.042136020,0.019134580,-0.094380970
1640783892.903600,-0.170225190,-0.091552910,9.832070350,-0.025950380,-0.008907920,-0.084170710
1640783892.905239,-0.008544290,0.033862530,9.079764370,-0.047919160,0.017377740,-0.091010330
1640783892.908419,0.021675720,-0.227938010,9.210031510,-0.033089520,0.035044550,-0.125297900
1640783892.910159,0.040018350,0.087641750,9.594540600,0.031577050,0.122086710,-0.101879250
1640783892.913300,-0.108800850,0.161362840,10.191086770,0.019948180,0.041222580,-0.111763180
1640783892.915700,-0.294643160,0.085324840,10.067492490,0.016960500,-0.061359990,-0.084625180
1640783892.918500,-0.078678570,0.331493350,8.698617940,-0.013631580,-0.029096010,-0.087919840
1640783892.920220,-0.258604110,0.077572410,9.398969650,-0.044251980,0.080215920,-0.102314360
1640783892.923339,-0.264118110,0.190908630,9.710432050,0.020314750,0.119322530,-0.096076710
1640783892.925500,-0.227106320,0.304622860,10.162689210,0.023724140,-0.025755170,-0.124596060
1640783892.928259,-0.110191000,0.292874070,9.739441870,-0.011077520,-0.020150840,-0.100050870
1640783892.930300,0.111438750,0.407669870,8.986899380,-0.060486800,0.021132830,-0.099402680
1640783892.933329,-0.332168760,0.220229010,10.211701390,-0.046513970,0.049971060,-0.104065240
1640783892.935220,-0.339204070,0.287275250,9.656639100,0.001583990,-0.002849100,-0.095754870
1640783892.938470,-0.216590730,0.362693790,9.515486720,-0.019444530,-0.076898940,-0.103831310
1640783892.940260,-0.111164850,0.498899310,9.282445910,-0.054997210,0.052325440,-0.074687610
1640783892.943390,0.166095140,0.429320990,9.430440900,-0.106970970,0.075936320,-0.074748700
1640783892.945259,-0.114359960,0.089023780,10.509027480,-0.071556870,0.030934810,-0.081162150
1640783892.949100,0.030781990,0.174297790,9.446920390,0.017240650,-0.047989190,-0.079272690
1640783892.950660,0.012668910,0.118511740,9.229209900,-0.035244230,-0.055654350,-0.079157960
1640783892.953689,-0.106226500,0.061365530,9.166751860,-0.114017720,0.070732840,-0.072263170
1640783892.955520,-0.000390620,-0.031476860,9.532960890,-0.108027460,0.026187300,-0.092591350
1640783892.958380,-0.092654050,-0.094553250,9.863825800,-0.025083130,0.042898950,-0.093902650
1640783892.960250,0.026466720,0.236007450,9.408062930,-0.009521840,0.004123150,-0.094422710
1640783892.963760,-0.272816690,0.126118390,10.191694260,-0.060600050,-0.027489660,-0.085511810
1640783892.965220,-0.293136720,0.077801160,9.107567790,-0.071780380,-0.024069850,-0.064463920
1640783892.968330,-0.237613040,0.096896100,9.242733960,-0.066976260,-0.037866830,-0.089015090
1640783892.970460,-0.256926270,0.130915630,9.623744010,-0.055280320,0.108638410,-0.082635870
1640783892.973330,-0.166984350,0.341910240,9.813770290,-0.036618110,0.013007220,-0.075119720
1640783892.975260,-0.221415860,0.355550770,10.429343220,-0.050616270,-0.062389680,-0.075848420
1640783892.978309,0.003392470,0.354575810,9.049989700,-0.102518510,-0.030961630,-0.069457300
1640783892.980520,-0.063337550,0.214199860,9.394432070,-0.074426840,-0.014305110,-0.073660910
1640783892.983330,-0.300385420,0.213173870,10.012039180,-0.043915220,0.067134200,-0.071227560
1640783892.985270,-0.156484620,0.378454000,9.646439550,-0.068789720,-0.044840570,-0.070312630
1640783892.988580,-0.150518150,0.170145660,9.754643440,-0.089542570,-0.069096690,-0.062038000
1640783892.990260,0.114584130,0.216865660,8.997516630,-0.105409340,0.044687100,-0.058308250
1640783892.993430,-0.027100380,0.002737720,9.808032040,-0.077083710,0.043660410,-0.052104890
1640783892.995479,-0.257528630,-0.111162890,10.312337880,-0.040182480,-0.028811400,-0.048410890
1640783892.998360,-0.048585430,-0.000828760,9.252841000,-0.032711030,-0.100673740,-0.052419310
1640783893.001030,-0.088205920,-0.148741480,9.166055680,-0.089718390,-0.014714900,-0.047306710
1640783893.003710,-0.115784400,-0.030159180,9.552972790,-0.114271050,0.074411930,-0.062452260
1640783893.005280,-0.232289690,-0.073653370,10.033278470,-0.040788960,-0.011156500,-0.075235960
1640783893.008420,-0.118497270,0.151682110,9.584209440,-0.015969570,-0.069400680,-0.055375690
1640783893.010200,-0.161950040,0.286077860,9.443880080,-0.052949790,-0.038686400,-0.049434610
1640783893.013340,-0.260237870,-0.078546140,9.638540270,-0.071419780,-0.018081070,-0.037787850
1640783893.015210,-0.296977310,0.051085860,9.616745950,-0.032833220,-0.028380760,-0.046360500
1640783893.018420,-0.363574330,0.095925860,9.797124860,-0.021053850,-0.039651980,-0.064168860
1640783893.020180,-0.276271490,0.159428030,9.880675320,-0.059647860,-0.027354060,-0.045011930
1640783893.023399,-0.315545200,0.309481770,9.674790380,-0.066870440,-0.050866600,-0.046926730
1640783893.025290,-0.265263440,0.134393330,9.738257410,-0.061701240,-0.071485350,-0.049474840
1640783893.028649,-0.072399360,0.314457240,9.391956330,-0.038540370,-0.023043160,-0.033085050
1640783893.030170,-0.256235750,0.180387150,9.835990910,-0.037145620,-0.035259130,-0.035439430
1640783893.033300,-0.244677680,0.223759380,10.175130840,-0.050593910,-0.067052250,-0.024104120
1640783893.035210,-0.080640000,0.230364990,9.329003330,-0.079569230,-0.102010380,-0.023716690
1640783893.038489,0.101502840,0.017787470,9.278790470,-0.068233910,-0.067448620,-0.018836560
1640783893.040239,0.152097670,0.132832070,9.511900900,-0.035464760,0.064259770,-0.015741590
1640783893.043370,-0.116671380,-0.070352780,10.150013920,-0.047244130,-0.043016680,-0.022540990
1640783893.045390,-0.134084250,-0.078806780,9.855697630,-0.019115210,-0.150725250,-0.009955470
1640783893.048450,-0.163522850,-0.087156540,8.810787200,-0.052867830,-0.099667910,-0.029975180
1640783893.051760,-0.287850500,-0.145257250,9.196178440,-0.076551740,-0.010570880,-0.031867620
1640783893.053269,-0.378778310,-0.016380130,9.895906450,-0.027422610,0.013424460,-0.039717560
1640783893.055430,-0.394159290,-0.062752370,10.071690560,0.006821750,-0.090181830,-0.041717290
1640783893.058420,-0.142482910,0.240805000,9.525982860,0.007471440,-0.107154250,-0.007902090
1640783893.061960,-0.161313710,0.182957600,9.620760920,-0.068560240,-0.053121150,-0.016932190
1640783893.063259,-0.256866720,0.118182120,9.820489880,-0.047539170,-0.040096040,-0.004796680
1640783893.065209,-0.213432450,0.249649550,9.579326630,0.000372530,-0.103439410,-0.025036940
1640783893.068329,-0.195482910,0.329852610,9.763653760,-0.009693200,-0.107233230,-0.026938320
1640783893.070520,0.064557300,0.616063180,9.118823050,-0.043118000,-0.060762470,-0.005728010
1640783893.073370,0.001838120,0.437143360,9.884542470,-0.099258150,-0.061571610,-0.015671550
1640783893.075389,-0.066025730,0.260045440,9.967992780,-0.051081180,-0.038017330,-0.002045930
1640783893.078620,-0.080630250,0.173852700,9.658071520,0.002729890,-0.137592850,-0.012117630
1640783893.080260,-0.287425040,0.143661220,9.809556010,-0.018921490,-0.126257550,0.009982290
1640783893.083300,-0.106071140,0.193443610,8.892287250,-0.091172750,-0.067108880,0.011247400
1640783893.085310,-0.063700050,-0.101525020,9.620944980,-0.119677180,-0.071787840,-0.005146860
1640783893.088719,0.064597290,0.026998380,9.458936690,-0.025531650,-0.000396370,0.004838410
1640783893.090279,0.113878490,-0.030344610,9.960830690,0.005319710,-0.087945190,-0.016792120
1640783893.094980,-0.089792570,0.031593670,10.058128360,-0.018921500,-0.098888580,0.009484590
1640783893.095749,-0.008785940,0.042074090,8.963993070,-0.057223450,-0.161162030,0.001752380
1640783893.099890,-0.115011420,-0.125437680,9.449466710,-0.085750210,-0.060854850,-0.001788140
1640783893.100400,-0.048397320,0.165604490,9.158438680,-0.041408840,0.048248470,-0.005535780
1640783893.103730,-0.248606920,0.013194200,10.506610870,0.012716650,-0.102309880,-0.032624610
1640783893.105549,-0.131691650,0.336387570,9.685249330,0.010196860,-0.101836030,0.000871720
1640783893.108510,-0.075342950,0.425622940,9.024012570,-0.069327660,-0.153772530,0.002968310
1640783893.111160,-0.296921850,0.104753370,9.985258100,-0.086376070,-0.020428000,0.027702750
1640783893.113279,-0.192769960,0.268944500,9.375562670,-0.036653880,-0.014954810,0.006707010
1640783893.115229,-0.289050970,0.242412660,10.372147560,0.008057060,-0.161193330,0.000365080
1640783893.119200,0.060317190,0.547150490,9.188394550,-0.031614310,-0.065527860,0.021806360
1640783893.120260,0.243416310,0.483388040,9.064747810,-0.121566680,-0.070756690,0.007237490
1640783893.124580,0.029124110,0.283955310,10.220231060,-0.102105740,0.004155930,0.042036180
1640783893.125450,0.120516610,0.111913310,9.694722180,-0.033061200,-0.081092120,0.012485680
1640783893.128280,-0.045971650,-0.023372030,9.787133220,0.021010640,-0.169675070,0.028519330
1640783893.130200,0.093928410,0.235049340,8.795331000,-0.063015530,-0.039859120,0.045821060
1640783893.133270,-0.003570960,-0.123937180,9.497811320,-0.148664440,-0.002908710,0.013577940
1640783893.135239,-0.171521510,-0.123301480,10.011970520,-0.081403550,-0.017949940,0.017818800
1640783893.138389,-0.086983120,0.183467810,9.503272060,-0.006814300,-0.133658960,-0.001341100
1640783893.140499,-0.152788340,0.152593180,9.527169230,-0.023327770,-0.082400440,0.017131870
1640783893.144110,-0.053710710,0.388778120,9.160540580,-0.098037720,-0.028601290,0.036364790
1640783893.145259,-0.307571500,0.107127550,9.995074270,-0.098913900,-0.054329630,0.028565520
1640783893.148340,-0.097715150,0.094962630,9.578389170,-0.048269340,-0.049319860,0.024378300
1640783893.150200,-0.025034530,0.369590100,9.552394870,-0.046187640,-0.073421000,-0.001683830
1640783893.153319,-0.156651810,0.261922600,9.852591510,-0.061456870,-0.057117650,0.019539900
1640783893.155249,0.091337770,0.270754400,9.391191480,-0.098797690,-0.064632300,0.020638110
1640783893.158409,-0.043014970,0.162027640,9.703933720,-0.087323790,-0.053989890,0.007896130
1640783893.161170,-0.007971250,0.109937890,9.795711520,-0.051984200,-0.035864110,0.027896470
1640783893.163240,-0.137213380,0.235103440,9.851033210,-0.064943730,-0.063762080,0.019825990
1640783893.165230,-0.257335450,0.217553480,9.759430890,-0.097416350,-0.112272810,0.029397010
1640783893.168340,0.008896150,0.347307210,9.204818730,-0.113281620,-0.050954520,0.046524400
1640783893.171429,0.055094760,0.192370240,9.326915740,-0.101447110,0.019513070,0.033263870
1640783893.173430,0.087322360,0.226065980,9.993782040,-0.069916260,-0.008526440,0.036999590
1640783893.176380,0.058624550,0.285543470,9.956401820,-0.054809450,-0.067110340,0.035940110
1640783893.178280,0.100539730,0.158924830,9.288967130,-0.099851190,-0.109560800,0.043414530
1640783893.180260,0.117938240,0.242661100,9.240327840,-0.139082980,-0.027410690,0.044132770
1640783893.183319,0.023022130,-0.102836140,9.481041910,-0.127728270,0.040493900,0.011709330
1640783893.185340,0.112865080,-0.030154900,9.656690600,-0.045011930,-0.012305380,0.017772610
1640783893.188530,0.040574930,0.113535080,9.692279820,-0.040759150,-0.019077960,0.016456840
1640783893.190320,-0.117064440,-0.055391750,9.773355480,-0.115874410,-0.057734560,0.036485500
1640783893.193910,-0.144864690,-0.122653470,9.283569340,-0.102263700,-0.047135350,0.055003160
1640783893.195220,-0.312476870,-0.279532700,9.424698830,-0.074026000,-0.029268860,0.013877450
1640783893.198370,-0.253631110,-0.014400380,9.549401280,-0.026838480,0.030221040,0.033080570
1640783893.200310,-0.234246720,0.293701470,9.844602580,-0.055783980,-0.013159220,0.012862680
1640783893.203369,-0.253083770,0.451120970,10.092154500,-0.114986310,-0.055167080,0.021433830
1640783893.205690,0.077013080,0.584354280,9.160584450,-0.118832300,-0.027783220,0.032174580
1640783893.208370,-0.103636250,0.341054950,9.756324770,-0.074838100,-0.023022300,0.017528240
1640783893.210290,-0.148053410,0.483261410,9.670379640,-0.007644300,0.001019240,0.029061730
1640783893.213300,-0.101460670,0.491103110,9.568430900,-0.084774190,-0.070145730,0.015538930
1640783893.215240,-0.174676060,0.355363700,9.746958730,-0.151760890,-0.037659710,0.048454110
1640783893.218609,0.148999090,0.174758820,9.153494830,-0.129373390,0.003702940,0.042162840
1640783893.220780,0.016228750,-0.095934690,10.016841890,-0.076164310,0.029815740,0.025101010
1640783893.223369,-0.015398040,0.202264070,9.670430180,-0.024390220,0.001995270,0.032141800
1640783893.225350,-0.060437010,0.177934570,9.649650570,-0.096941000,-0.102278600,0.031881030
1640783893.228309,-0.049026010,0.107887900,9.024374960,-0.148911770,-0.011372570,0.059868400
1640783893.230229,0.090473760,0.110723320,9.121436120,-0.133541230,0.023266670,0.021128360
1640783893.233350,-0.049357970,0.027875100,10.039796830,-0.055484470,0.065560620,0.015284120
1640783893.235780,0.188687610,0.443130080,9.177817340,-0.032010670,0.016082820,0.023850800
1640783893.238410,-0.015885270,0.323343960,10.262394910,-0.118492570,-0.025531650,0.021991140
1640783893.240310,-0.126609790,0.099532460,9.411127090,-0.137262060,0.008784230,0.048924980
1640783893.243320,-0.061552270,-0.094808380,8.984752660,-0.064978000,-0.073303290,0.025348370
1640783893.245230,-0.224535300,-0.168795270,9.407910350,-0.022059680,0.094868240,0.020225350
1640783893.248330,-0.096895580,0.110307960,9.300769810,-0.060200690,0.082518150,0.011251870
1640783893.250280,-0.339628820,0.046726020,10.608916280,-0.102838880,-0.032243130,0.013504920
1640783893.253780,-0.107107030,0.216202530,9.398813250,-0.103497510,-0.015188760,0.016959010
1640783893.255550,0.008125570,0.248983250,9.260305400,-0.079953670,-0.017297270,0.000585620
1640783893.258489,-0.202709780,0.321496700,9.826392170,-0.031223900,0.085277860,0.010442730
1640783893.260330,-0.131687540,0.535739000,9.554685590,-0.057433560,0.013123450,0.004850330
1640783893.263480,-0.097361430,0.540477630,9.696928020,-0.100497910,-0.040031970,0.020451850
1640783893.265309,0.130334680,0.590506910,8.995793340,-0.138124790,0.027422600,0.040274850
1640783893.268400,0.236117440,0.316381720,9.516316410,-0.102292020,0.075818600,0.026768450
1640783893.270769,0.057760750,0.168723850,10.212780950,-0.057950610,0.081261990,0.024399160
1640783893.273510,0.047103540,0.212904840,9.812539100,-0.049090390,-0.029295680,0.023354590
1640783893.275310,-0.000829880,-0.020273880,9.339076040,-0.096347940,-0.028321150,0.020828840
1640783893.278329,0.071134250,0.110694740,8.913688660,-0.160352890,0.080832850,0.032937520
1640783893.280380,-0.072765270,-0.120041690,9.556700710,-0.112067190,0.100308660,0.018337370
1640783893.283530,-0.010789160,-0.142013010,9.746168140,-0.033478440,0.054252160,0.005821880
1640783893.285339,0.155856120,0.282207100,9.203986170,-0.016321240,0.055742270,0.038038190
1640783893.288890,-0.069557360,0.047563730,9.919940950,-0.095503020,0.062648960,0.042775270
1640783893.290259,-0.108592130,0.067805210,9.773686410,-0.111122440,0.057631730,0.052185360
1640783893.293340,-0.051998150,0.087512720,9.032639500,-0.052870820,0.019451980,0.023081900
1640783893.295300,0.072997210,-0.003936860,9.400214200,-0.029662250,0.113645200,0.017505880
1640783893.298310,0.034493460,0.253405090,9.472263340,-0.014966720,0.165730700,0.013943010
1640783893.300249,-0.130067630,0.229236570,10.047689440,-0.058746350,0.002054870,0.020046530
1640783893.303560,-0.020137750,0.172140630,9.543437000,-0.086934870,0.036714970,0.046938660
1640783893.305300,-0.058886860,0.017069410,9.042231560,-0.069628660,0.074312100,0.034703310
1640783893.308329,-0.345046310,-0.038388070,10.208203320,-0.000895560,0.088882450,0.037331880
1640783893.310230,-0.309020520,0.396808560,9.580056190,-0.012280050,0.100950910,0.021600730
1640783893.313330,-0.237392020,0.398508610,9.708228110,-0.108040880,-0.012500580,0.025831160
1640783893.315559,0.006457670,0.535684820,9.446743970,-0.108227160,0.114828360,0.055021050
1640783893.318390,0.033760930,0.364858660,9.482349400,-0.077050920,0.112460550,0.028802460
1640783893.320639,-0.106274250,0.403300580,10.349426270,-0.014217200,0.064910950,0.052639850
1640783893.324050,0.059213690,0.623376010,9.381153110,-0.042594970,0.040371720,0.050678850
1640783893.325430,0.123742580,0.265840050,9.550120350,-0.140066440,0.033387540,0.065068910
1640783893.328330,0.268812240,0.169694600,9.359561920,-0.141309220,0.165992980,0.081332040
1640783893.330430,0.101229980,-0.168574780,9.848860740,-0.068968520,0.107087200,0.029250980
1640783893.333259,0.020359160,-0.097058830,9.814543720,0.014036900,0.072334730,0.062119970
1640783893.335280,0.042145500,0.099911050,9.107656480,-0.073774170,0.062626610,0.049150000
1640783893.338379,-0.344627140,-0.344308140,9.963126180,-0.121884060,0.077019630,0.062540170
1640783893.340449,-0.198616270,-0.204370100,9.109126090,-0.064770870,0.101889650,0.058519830
1640783893.343289,-0.191028570,-0.097155720,9.507003780,-0.017808370,0.095865120,0.024913250
1640783893.345290,-0.175085530,0.101501080,9.945629120,-0.012677910,0.174948590,0.054408620
1640783893.348349,-0.053887930,0.306720020,9.747616770,-0.049184270,0.066690150,0.052484870
1640783893.350230,-0.219908400,0.069802240,9.871792790,-0.045143070,0.025765600,0.073702640
1640783893.353839,0.125168030,0.133259700,8.861871720,-0.025089090,0.096306220,0.065605360
1640783893.355310,-0.122007190,0.071757120,9.762526510,0.000619890,0.131092980,0.045692910
1640783893.358320,-0.251701560,0.177792640,9.975441930,0.010143220,0.118769730,0.059258950
1640783893.360270,-0.086887860,0.340168630,9.700425150,-0.052613020,0.036817790,0.052019960
1640783893.363940,-0.278142990,0.180076030,9.755144120,-0.064668070,0.054204460,0.054508450
1640783893.365280,-0.158115360,0.245219440,9.353021620,-0.018715860,0.096024580,0.051893290
1640783893.368460,-0.486956180,0.233370940,10.036524770,0.000330810,0.091430530,0.042974950
1640783893.372599,-0.426917050,0.415597620,9.657357220,-0.019682950,0.026403370,0.063981120
1640783893.373350,-0.111803320,0.506561160,9.409425740,-0.073668360,0.041003530,0.076778230
1640783893.375280,-0.118170820,0.273862210,9.542692180,-0.090223560,0.124815110,0.093609090
1640783893.378260,0.079281960,0.255638300,9.742748260,-0.033557420,0.078029940,0.085370240
1640783893.380380,0.072969530,0.167982770,9.884827610,0.011435150,0.052972140,0.083509100
1640783893.383299,0.113324100,0.111067960,9.380867000,-0.028175120,0.042773780,0.105392940
1640783893.385589,0.009734580,-0.008860030,9.752039910,-0.073854630,0.060024860,0.086310510
1640783893.388340,-0.118016250,-0.262859880,9.475564000,-0.071425740,0.067543980,0.067302590
1640783893.390300,0.083023850,-0.024434370,9.102942470,-0.017598270,0.071311000,0.063036380
1640783893.393319,-0.200225830,-0.000921060,9.858912470,-0.012253230,0.142513220,0.049746050
1640783893.395399,-0.414748970,0.005790070,9.989578250,-0.019800660,0.051432850,0.065493580
1640783893.398300,-0.408917520,0.079454370,9.406629560,0.005245210,-0.033459070,0.090491770
1640783893.400260,-0.381050530,-0.132864300,9.066808700,-0.024724000,0.054025650,0.075784320
1640783893.403410,-0.263146220,-0.087878820,9.408267020,0.003063680,0.142203290,0.093828130
1640783893.405290,-0.259143440,-0.060947340,10.160352710,0.046710670,0.091622780,0.061662500
1640783893.408330,-0.034166810,0.111372690,9.907428740,0.021477050,0.024181610,0.069667410
1640783893.410359,0.230871680,0.292888730,9.121385570,-0.008007880,0.036603210,0.080361950
1640783893.413260,0.011163960,0.072993350,9.720176700,-0.017513330,0.079251820,0.068588550
1640783893.415290,-0.058290440,0.258291300,9.588432310,0.045862800,0.083026300,0.068378450
1640783893.418419,-0.167357390,0.355252560,9.696586610,0.024305280,0.003841520,0.051809850
1640783893.420650,-0.283237490,0.437100980,9.740550990,-0.003102420,0.044390570,0.076334180
1640783893.423410,-0.161852810,0.490781750,9.345351220,-0.022241480,0.081849100,0.084614760
1640783893.425269,-0.347411220,0.194855690,10.168419840,-0.030499700,0.060109800,0.078655790
1640783893.428690,-0.248102610,0.256559730,9.571038250,0.048835580,0.046977400,0.091899930
1640783893.430210,-0.102106210,0.190866460,9.334499360,0.023922320,0.021703540,0.079980480
1640783893.433260,-0.175337370,0.228690560,9.654423710,-0.041888660,0.087581580,0.103148830
1640783893.435619,-0.019123290,0.114983840,9.428830150,-0.060072550,0.050187120,0.084923210
1640783893.438340,0.146326140,-0.105090770,9.723312380,-0.009098650,0.024652480,0.068303950
1640783893.440199,0.438982520,0.277972070,9.080108640,0.041125720,0.131760540,0.084684790
1640783893.443699,0.253281620,0.068904790,10.102884290,-0.009141860,0.118596850,0.074449190
1640783893.445230,-0.082508000,-0.033067770,10.119290350,-0.008496640,0.051893290,0.093556950
1640783893.448310,-0.048211010,0.017052280,8.936178210,0.014980140,-0.044536590,0.085681680
1640783893.450280,-0.247392390,-0.320697580,9.201072690,-0.001074370,0.087092820,0.077673790
1640783893.454630,-0.288184260,-0.096382130,9.122319220,0.029525170,0.181815030,0.064933310
1640783893.455560,-0.438341830,-0.027153810,10.420685770,0.044028460,0.067266830,0.048549470
1640783893.459030,-0.273087260,0.099881400,9.809291840,0.019246340,0.062653430,0.079932810
1640783893.460350,-0.068861130,0.134354230,9.342585560,0.008870660,0.027859210,0.074359770
1640783893.463310,-0.274404440,-0.080825200,10.015262600,0.061653560,0.093437750,0.085434330
1640783893.465230,-0.036871490,0.136432720,8.988058090,0.084464260,0.072284050,0.079040230
1640783893.470219,-0.065168250,0.251013400,9.725167270,0.044739250,0.037139650,0.057828430
1640783893.470840,0.064398330,0.359001900,9.521276470,0.000186260,0.121144970,0.079959640
1640783893.473420,0.211018980,0.386171130,9.540287020,0.005738440,0.061525400,0.069789590
1640783893.475550,-0.084634650,0.253275660,10.332155230,0.039491050,0.082327410,0.041863320
1640783893.478260,-0.085477370,0.332851710,9.500826840,0.068593030,0.063288220,0.053699310
1640783893.480229,-0.312773050,0.278371870,9.729040150,0.055579840,0.011473900,0.070488460
