# timestamp,accel_x,accel_y,accel_z,gyro_x,gyro_y,gyro_z
1640791980.145820,0.063054240,-0.279292820,8.877928730,-0.027254220,-0.056827060,-0.035384290
1640791980.146450,0.003591520,-0.294258920,9.292511940,-0.009880960,-0.059270860,-0.044943400
1640791980.150460,-0.067254170,-0.144926260,9.734142300,0.012551250,-0.122185050,-0.029000640
1640791980.151209,-0.062830970,0.080996700,9.175261500,0.027537350,-0.134067240,-0.036358840
1640791980.155370,-0.302225140,0.128397580,9.541966440,-0.007945300,-0.126574950,-0.028739870
1640791980.156260,-0.496745850,0.362955300,9.475077630,-0.001007320,-0.095652040,-0.034509600
1640791980.160460,-0.522550700,0.367190720,9.392908100,0.007765000,-0.154450540,-0.064620380
1640791980.164189,-0.232214450,0.600005810,9.205357550,0.013573470,-0.105947270,-0.052420810
1640791980.165439,-0.063168440,0.709368530,9.225885390,-0.009362400,-0.038152930,-0.055587290
1640791980.166220,-0.079326840,0.469726260,10.252211570,-0.038661070,-0.095891970,-0.051610180
1640791980.170519,0.006031150,0.390565900,9.549792290,-0.011223560,-0.152844210,-0.026568770
1640791980.172700,0.061861300,0.115586380,9.165075300,-0.007468460,-0.183221680,-0.035466250
1640791980.175930,0.054604230,0.158401530,9.181979180,-0.023619830,-0.047269460,-0.014644860
1640791980.176590,-0.070846490,0.107557950,9.433505060,-0.052420790,-0.067850950,-0.011788310
1640791980.180620,-0.096595400,-0.118757930,10.180826190,-0.042067470,-0.129316760,-0.015686450
1640791980.181460,0.056014390,0.133332490,9.085612300,-0.006419420,-0.095769760,-0.041140620
1640791980.185940,-0.195292090,0.349231030,9.508675580,-0.030669570,-0.117669990,-0.053696330
1640791980.187840,-0.325268090,0.546593130,9.705153470,-0.078955300,-0.062222780,-0.040136280
1640791980.190970,-0.217407640,0.607416930,9.130051610,-0.088459240,-0.143256750,-0.060896570
1640791980.193339,-0.037364520,0.562555430,9.503063200,-0.055198380,-0.101454580,-0.051262980
1640791980.195400,0.293924120,0.609646380,8.910264020,-0.041572750,0.036498900,-0.024653970
1640791980.196290,0.180818100,0.155466560,10.068830490,-0.044906150,-0.058874500,-0.021286310
1640791980.200749,0.126137120,-0.101160670,9.962267880,-0.041355190,-0.096066300,0.002737340
1640791980.201759,0.283244640,-0.373527380,8.562788010,-0.043325120,-0.139716240,-0.017753240
1640791980.205580,0.145193560,-0.574013170,9.179481510,-0.056423250,-0.033839050,-0.029736760
1640791980.206539,0.121768090,-0.449464560,9.138128280,-0.036451220,0.082251440,-0.040075190
1640791980.210379,-0.073640730,-0.386467640,10.094857220,-0.004982950,-0.053527950,-0.077089670
1640791980.211180,-0.142446280,0.071683010,9.730879780,0.017322600,-0.075246390,-0.054647030
1640791980.215420,-0.171645580,0.261481520,8.735325810,-0.022743640,-0.070346900,-0.046367940
1640791980.216230,-0.464638230,0.148153840,9.594294550,-0.016255680,-0.023119150,-0.038439030
1640791980.220460,-0.428316650,0.362400470,9.164953230,0.033952300,0.010368230,-0.037880250
1640791980.221900,-0.128716720,0.358050790,9.303285600,0.032618640,-0.061339150,-0.042890020
1640791980.225420,0.035756190,0.215717820,9.565899850,0.022435190,0.042007860,-0.028358400
1640791980.226199,0.015286740,0.046257230,9.739915850,0.009877980,-0.001141430,-0.050310800
1640791980.230409,-0.144424420,-0.204272030,10.062201500,0.044177470,-0.110636650,-0.042720140
1640791980.231200,0.011879130,-0.085119210,8.577318190,0.044791400,-0.078172980,-0.048817700
1640791980.235520,0.011397440,-0.091971290,8.945647240,0.009720030,0.001682340,-0.064344710
1640791980.236330,-0.171857610,0.026481400,9.908037190,0.019355120,0.083383930,-0.036184490
1640791980.240530,-0.308097720,0.111433560,10.113984110,0.054430970,-0.073251140,-0.042082370
1640791980.241439,-0.311820540,0.255524040,9.748866080,0.073540200,-0.139680490,-0.037091960
1640791980.245509,-0.236401920,0.671541150,8.740912440,0.017918650,-0.017473100,-0.038088860
1640791980.246300,-0.453892260,0.574184360,9.730781560,-0.032760210,0.024901330,-0.053380430
1640791980.250660,-0.263071950,0.596775230,9.792843820,0.005665420,-0.018237530,-0.036193430
1640791980.251469,0.144677390,0.659292160,9.286245350,0.043509900,-0.074300180,-0.056311500
1640791980.257500,0.254410770,0.529434500,9.585447310,0.012420120,0.027278070,-0.050836810
1640791980.258340,0.155942320,0.534464180,9.623573300,-0.049476340,0.026923420,-0.029177970
1640791980.260370,-0.111867930,0.005177110,10.217512130,-0.038048620,-0.090010460,-0.028823320
1640791980.261200,0.131279710,-0.069295000,9.049861910,0.014147160,-0.048017510,-0.027899440
1640791980.265450,0.164304960,0.163252310,8.910868640,0.002250080,0.026069590,-0.025837130
1640791980.266470,-0.029947960,-0.038013530,10.010546680,-0.037258870,0.098758940,-0.014390050
1640791980.270589,0.019500630,0.000142200,9.688150410,-0.029140710,0.005741420,-0.032949450
1640791980.271340,-0.187344860,-0.003222460,9.875970840,0.028045480,-0.092382750,-0.048199300
1640791980.275390,-0.106109610,0.297134430,8.910943980,0.019039220,0.007937850,-0.028668340
1640791980.276260,-0.109577980,0.529208240,9.079076770,-0.054714090,0.042323770,-0.026841460
1640791980.280409,-0.141575050,0.201306670,10.022830960,-0.036510820,0.086614490,-0.014577810
1640791980.281210,0.164997550,0.278661970,9.352079390,0.029194360,0.058713560,-0.031708180
1640791980.285740,-0.000721820,0.202919300,9.799022670,0.057230900,-0.012119120,-0.022533540
1640791980.286929,-0.103362740,0.103890350,9.391753200,0.000315900,0.030475860,-0.007836520
1640791980.291040,-0.184903640,-0.171970350,9.151315690,-0.038483740,-0.021976230,-0.027322770
1640791980.291509,-0.199347530,-0.482151090,9.309562680,0.027833880,0.039528310,-0.026582190
1640791980.295390,-0.001703490,-0.344117080,9.124994280,0.078316030,0.129474710,-0.053474310
1640791980.300200,-0.284417030,-0.297685920,10.289896970,0.079891090,0.065305830,-0.060637300
1640791980.301139,-0.356291590,-0.042883620,10.062119480,0.058467690,-0.036379690,-0.036303700
1640791980.301570,-0.308455320,0.065883550,8.881834030,0.026902560,-0.070871420,-0.044681120
1640791980.305960,-0.349594560,0.032984000,9.014410970,0.046911840,0.041449070,-0.038057570
1640791980.307370,-0.268781330,0.297712150,9.522639270,0.108160080,0.138521210,-0.046344100
1640791980.310400,-0.288122560,0.385996370,10.210872650,0.117044170,0.008755920,-0.039969390
1640791980.311250,-0.071450390,0.496578400,9.832188610,0.075955700,-0.040264430,-0.006903710
1640791980.315440,0.032477270,0.229247610,9.186440470,0.042866170,0.006173550,-0.014923510
1640791980.316310,-0.267586050,0.041224130,9.816387180,0.069123510,0.020155310,-0.029791890
1640791980.320560,-0.334914090,0.167055500,9.678861620,0.115151700,0.010266900,-0.037096440
1640791980.321359,-0.329694090,0.122802420,9.438780780,0.092256070,-0.052851440,-0.053466860
1640791980.327780,-0.135430860,0.418570160,9.352289200,0.041402880,0.016668440,-0.035040080
1640791980.329259,-0.172258960,0.444948410,9.842254640,0.004781780,0.064928830,-0.038702790
1640791980.330380,-0.246744230,0.230606720,10.190762520,0.054311760,-0.013963880,-0.036299230
1640791980.331210,-0.190376250,0.455758780,9.754430770,0.115667280,-0.052382060,-0.032262500
1640791980.336030,-0.231138530,0.513318420,9.458990100,0.052972150,-0.027467310,-0.016658010
1640791980.337180,-0.121428090,0.522017480,9.348375320,-0.014810270,0.022087990,0.001600380
1640791980.341380,-0.048061420,0.337003830,9.732622150,-0.011034310,0.025159130,-0.004701320
1640791980.342180,0.061738580,0.210303160,9.814129830,0.043320660,0.023718180,-0.026717780
1640791980.345399,0.101292070,0.325969100,9.702661510,0.077249110,-0.001405180,-0.027363000
1640791980.346269,-0.202902360,0.264833750,9.920036320,0.018221140,-0.034210080,-0.024434930
1640791980.350819,-0.078925700,0.235098090,9.249729160,-0.033688540,-0.022588670,-0.011837480
1640791980.352360,0.012351600,0.072959950,9.261427880,-0.019940730,0.024485580,-0.020554660
1640791980.355460,-0.027587610,0.108308730,9.710962300,0.032733370,0.104808800,-0.011916460
1640791980.356979,-0.023878440,0.078182860,9.981540680,0.062575940,0.038433080,-0.007216630
1640791980.360380,-0.264604210,-0.047531070,10.007314680,0.036285820,-0.072345140,-0.006243590
1640791980.361240,-0.099732980,-0.018823820,8.930947300,0.011605020,-0.029008100,0.009903310
1640791980.365599,0.016037800,-0.121510380,8.879966740,-0.007262830,0.067460540,0.000876190
1640791980.367440,-0.018260170,-0.089136100,9.890356060,0.037008520,0.133061410,-0.011503700
1640791980.371800,0.115019470,-0.017055700,9.991881370,0.103206940,0.060151520,-0.020581480
1640791980.372550,0.054611170,0.133638610,9.742778780,0.076013810,-0.037136670,-0.009354950
1640791980.375419,-0.130848200,0.105359660,9.361169820,0.030776860,0.019139050,0.010535120
1640791980.376260,-0.318586920,-0.184969770,9.316458700,0.024454300,0.026668610,-0.002512340
1640791980.380479,-0.411113830,-0.175920870,9.413145070,0.105680530,0.034734610,-0.022462010
1640791980.381250,-0.249616590,-0.046657010,9.259345050,0.140582030,0.080142920,-0.026093420
1640791980.386090,-0.225332680,-0.132350300,9.842219350,0.095169250,0.061550730,-0.027281050
1640791980.386920,-0.286813770,-0.058132960,10.124550820,0.094135090,0.014117360,-0.023619830
1640791980.390420,-0.227806630,-0.137052550,9.628788950,0.084841260,-0.041604050,-0.023426120
1640791980.391229,-0.148033260,-0.042960930,9.173856740,0.122407080,0.007627900,-0.026497240
1640791980.395360,-0.106969390,0.089695970,9.345664980,0.154161450,0.084950040,-0.040611620
1640791980.396230,-0.164363010,0.297415200,9.992444990,0.119270380,0.056818130,-0.027449430
1640791980.400810,-0.159626280,0.432548400,9.914682390,0.114925220,-0.022619960,-0.005039570
1640791980.402040,-0.177572120,0.184819240,9.644792560,0.104056320,-0.041478870,-0.018946830
1640791980.405690,-0.254523690,0.311467230,9.458461760,0.118528290,0.036729880,-0.025215750
1640791980.408350,-0.377142730,0.333634530,9.853887560,0.125481190,0.027249760,-0.031825900
1640791980.411029,-0.325425210,0.327952180,9.955546380,0.090199720,-0.005538760,-0.032220780
1640791980.411749,-0.062683040,0.494328800,9.251736640,0.079000000,-0.005425510,-0.036340960
1640791980.416740,-0.164022250,0.374095410,9.875479700,0.061233340,0.029253970,-0.026793780
1640791980.418290,-0.243578850,0.427298720,9.941516880,0.082503260,0.033792860,-0.021506850
1640791980.420770,-0.298861680,0.289660100,9.827014920,0.101859870,-0.087611380,-0.031331190
1640791980.421340,-0.189432320,0.378600750,9.565866470,0.065809500,-0.029978160,-0.017328560
1640791980.425360,0.032755700,0.502852560,9.139793400,0.005912780,0.078427800,0.000698860
1640791980.426260,-0.112619830,0.167113830,10.466305730,0.008462370,0.037431720,-0.002163650
1640791980.430750,-0.040298210,0.186058310,10.065602300,0.081619630,-0.007556380,-0.010547040
1640791980.431429,0.053813610,0.298356650,9.328863140,0.088526320,-0.064276160,-0.024661430
1640791980.435850,-0.146034490,0.426436310,9.653774260,-0.005345050,0.007630890,-0.003494320
1640791980.437369,-0.070673680,0.310523390,9.350362780,-0.040254000,0.059486920,0.001689790
1640791980.440770,-0.068400350,-0.073888290,9.992459300,0.014549490,-0.000219050,-0.013156240
1640791980.441300,0.039279850,0.183987220,9.682971000,0.097435720,0.047014650,-0.012923780
1640791980.445840,-0.053145510,0.101790030,9.641287800,0.069205470,0.018972160,-0.014521180
1640791980.447250,-0.258734460,0.039401030,10.081480980,-0.007703900,-0.024455790,0.008945170
1640791980.450410,-0.232269480,0.078809050,9.201058390,-0.018140670,-0.018309060,-0.000281630
1640791980.451249,-0.095265770,-0.149890620,9.124507900,0.025837130,0.006926060,-0.008943680
1640791980.455510,-0.033451130,0.013792870,9.476302150,0.098913930,0.125579540,-0.006575880
1640791980.456310,-0.198419690,-0.046275880,10.157706260,0.106099260,0.042660530,-0.022120780
1640791980.460359,-0.214048360,0.055071650,10.211088180,0.055530680,-0.060352690,0.007340310
1640791980.461269,-0.225773130,0.074091840,9.071263310,0.010453160,-0.050017240,0.008180740
1640791980.465370,-0.273872520,-0.265304150,9.306303020,0.042948140,0.019070510,-0.011231010
1640791980.466290,-0.239734600,-0.006562010,9.435207370,0.135394950,0.101047750,-0.027360020
1640791980.470510,-0.292051080,0.202165010,9.833685870,0.123724350,-0.008523470,-0.037948790
1640791980.471740,-0.122738380,0.227325170,9.782831190,0.060388450,-0.010193890,0.000934300
1640791980.475440,-0.196452200,0.114336120,9.392147060,0.034722690,-0.005838270,-0.004449490
1640791980.476260,-0.505695640,-0.107373650,10.135121350,0.093902650,-0.046955050,-0.016418100
1640791980.480430,-0.393063160,0.080103510,9.316112520,0.152130420,-0.021190940,-0.026084490
1640791980.481200,-0.363870230,0.223885300,9.426630020,0.104396050,-0.032821300,-0.032980740
1640791980.485810,-0.357965500,0.290330530,10.044879910,0.051237640,0.042870640,-0.016659500
1640791980.487160,-0.198056790,0.344400410,9.733242030,0.049211090,-0.035816420,-0.025181470
1640791980.491040,-0.305784550,0.240046290,10.167353630,0.101168460,-0.101642320,-0.025905670
1640791980.491400,-0.066609930,0.480036500,9.207023620,0.115525720,-0.017197430,-0.013469160
1640791980.495570,-0.207751010,0.475160450,9.689001080,0.053459420,-0.037822130,-0.017780070
1640791980.496240,-0.275318590,0.412024560,10.229082110,0.036971270,-0.020807980,0.005385280
1640791980.500360,-0.049471220,0.285852100,9.445055010,0.042997300,-0.065089750,-0.014619530
1640791980.501210,-0.183323980,0.289690970,9.971641540,0.056800250,-0.073802470,-0.019226970
1640791980.505440,-0.197391450,0.507663490,9.702989580,0.050607320,0.009289380,-0.014039870
1640791980.507140,-0.330921710,0.350010190,9.845483780,-0.005140900,-0.088042040,-0.027354070
1640791980.510820,-0.201749710,0.423133700,9.782356260,0.011758510,-0.082017500,-0.014075640
1640791980.511890,0.092930370,0.573929490,9.050452230,-0.005537270,-0.009651480,-0.010417400
1640791980.515400,0.088883970,0.433316470,9.927690510,-0.020341570,0.010824200,-0.003699960
1640791980.516270,0.061361780,0.310221230,10.145084380,0.016541780,0.000645220,-0.003506240
1640791980.520579,0.027652620,0.209715630,9.784979820,0.024688250,-0.115346920,-0.012032690
1640791980.522080,0.074714120,0.259567200,9.282647130,-0.007031860,-0.062233210,0.015144050
1640791980.525349,0.097888130,0.088511100,9.180203440,-0.051771100,0.036895270,-0.000976030
1640791980.526330,-0.030738060,-0.080652840,9.923915860,-0.023576620,0.037342320,-0.013135380
1640791980.530380,0.068538550,0.038153270,9.633634570,0.052894650,-0.018323960,-0.011464950
1640791980.531270,-0.095581800,0.104602600,9.718214040,0.021184980,-0.044420360,-0.023475290
1640791980.535470,-0.273358080,0.152413250,9.643739700,-0.023540850,-0.005233290,-0.000724200
1640791980.536320,-0.357135650,0.052254510,9.533580780,-0.026294590,-0.059738750,-0.013369320
1640791980.540510,-0.304901660,0.082935090,9.467862130,0.007505710,-0.008738040,-0.020389260
1640791980.542179,-0.008227810,0.092690800,9.144364360,0.046664480,0.081314150,-0.013518330
1640791980.545519,-0.146659540,-0.006727660,10.364104270,0.043906280,0.017820300,-0.025644900
1640791980.549110,-0.107753740,0.070296910,9.917690280,0.033231080,-0.050522390,-0.008173290
1640791980.551050,0.067241690,-0.096989880,8.985869410,0.000703330,-0.083330290,-0.005273520
1640791980.553490,-0.061933930,-0.207380670,9.453484540,0.020657480,0.047123440,-0.023636220
1640791980.555369,-0.127930980,0.017346890,9.697153090,0.066928560,0.082121770,-0.035536280
1640791980.558020,-0.323614210,0.175255000,10.401656150,0.068023820,-0.068324830,-0.021040440
1640791980.560500,-0.229070900,0.353859750,9.487852100,0.042624770,-0.050389770,-0.008387860
1640791980.561270,-0.159763040,0.328042000,9.220987320,0.002177060,-0.005036590,-0.016489620
1640791980.568280,-0.469671280,0.335845350,10.219871520,0.028422480,0.040146700,-0.011868770
1640791980.569000,-0.405010310,0.443502010,9.829236980,0.068467880,-0.035387280,-0.023382910
1640791980.570380,-0.150792460,0.570108710,9.630473140,0.033821170,-0.083149980,-0.019444530
1640791980.571250,0.011800890,0.712223230,9.333054540,-0.025245550,0.036863990,-0.012825430
1640791980.575660,-0.035556880,0.449096500,10.042664530,-0.053149470,0.036668780,-0.015896560
1640791980.576690,-0.222430420,0.313163400,10.449057580,0.009512900,-0.046004360,-0.017113980
1640791980.580410,-0.183978810,0.431288780,9.526956560,0.044228140,-0.107415030,-0.031808020
1640791980.581270,-0.139200930,0.452469230,9.391530040,-0.046306850,-0.026585160,-0.014542050
1640791980.585500,-0.186390060,0.495561450,9.549525260,-0.102497640,0.059829650,0.012335180
1640791980.587740,-0.168514420,0.104195800,10.245922090,-0.067590160,-0.022155040,-0.005371870
1640791980.590400,-0.012651540,0.224975450,9.898201940,0.004734100,-0.024105610,-0.006920100
1640791980.591679,-0.017921660,0.505324720,9.409311290,-0.014844540,-0.040571400,0.000604990
1640791980.595379,-0.264507230,0.387455170,10.178822520,-0.106740010,-0.013525790,0.008030240
1640791980.596259,-0.117215600,0.286173140,9.363071440,-0.120589140,-0.031411650,0.009317700
1640791980.600679,0.039106990,0.054601350,9.506836890,-0.048545000,-0.037439170,-0.009615720
1640791980.601830,0.148506920,0.135248360,9.693606380,-0.001546740,0.113752480,-0.003167990
1640791980.605460,0.084155630,0.165702600,9.911600110,-0.048366190,0.032071770,-0.009989740
1640791980.606900,-0.097186570,-0.108023650,10.464091300,-0.075301530,-0.082923480,0.003270800
1640791980.610400,0.109263100,-0.081802470,8.808543210,-0.059497360,-0.018560890,0.007851420
1640791980.611240,-0.037578090,-0.154709370,9.219117160,-0.054252150,0.021760170,-0.009045000
1640791980.615399,-0.135126870,-0.080398810,10.003864290,-0.009649990,0.120984030,-0.003387030
1640791980.616269,-0.129129500,0.067747000,9.694512370,-0.002279880,0.015605990,-0.030872230
1640791980.620499,-0.234949720,0.031524470,10.081363680,-0.008986890,-0.061012820,-0.000725690
1640791980.621250,-0.179895060,0.116941230,9.199556350,-0.033687060,0.028426950,0.006201860
1640791980.625380,-0.364857260,-0.023899950,9.674278260,-0.026838480,0.008627770,-0.012050570
1640791980.626260,-0.322337930,0.065604850,9.873880390,0.023293500,0.037564340,0.008885560
1640791980.630339,-0.055549330,0.165641230,9.310795780,0.014965240,0.035661460,-0.019684440
1640791980.631240,-0.050025190,0.010726400,10.084708210,0.013165170,0.035418570,-0.004588070
1640791980.635460,-0.104929510,0.086568560,9.902359010,0.020003320,0.026007000,-0.006517770
1640791980.636279,-0.235407830,0.047532450,9.809329990,0.008408730,-0.057972970,-0.019934780
1640791980.640650,-0.244902330,0.097003360,9.476022720,0.013677780,-0.004167860,-0.008758900
1640791980.641460,-0.279653670,0.346368820,9.464280130,-0.000274180,0.045418730,-0.033053750
1640791980.645419,-0.393021850,0.392375140,10.357852940,-0.006881360,0.029151150,-0.009025630
1640791980.646330,-0.278994440,0.489378060,10.000489230,0.008644160,-0.013396140,0.006391110
1640791980.650529,-0.266661320,0.448127240,9.823146820,0.009325150,-0.056448590,-0.010228160
1640791980.652000,-0.198509870,0.524949730,9.532866480,0.000320370,0.015811620,0.008137520
1640791980.655959,-0.218187970,0.562801780,9.752145770,-0.048254440,-0.002083180,-0.001640620
1640791980.657480,-0.211095140,0.383399610,10.198077200,-0.048586730,-0.018900630,-0.004532930
1640791980.660349,0.136764850,0.486526730,9.470005040,-0.021450220,-0.003719330,0.002749260
1640791980.661209,0.047918530,0.496885180,10.073166850,-0.051979720,0.008639690,-0.005280970
1640791980.665330,-0.079088350,0.360307250,10.175150870,-0.061310830,0.039052960,0.005584960
1640791980.666319,-0.119225460,0.231323960,9.852640150,-0.062239180,-0.075605530,-0.001542270
1640791980.670450,-0.257658150,0.352728280,9.792189600,-0.065904880,-0.045339770,0.006140770
1640791980.671270,-0.078036770,0.419534500,9.187494280,-0.100052350,0.058782090,0.023342670
1640791980.676649,-0.123218050,0.224408330,10.128888130,-0.112479930,0.039818880,0.006338950
1640791980.677260,-0.075571420,0.289069380,10.153991700,-0.049822030,0.028347970,-0.000409780
1640791980.680379,0.102938570,0.269434210,9.604876520,-0.053936250,-0.027759380,0.003488360
1640791980.681259,-0.135521430,0.224748120,9.986639980,-0.091224930,-0.007075070,0.027886040
1640791980.687820,-0.162283670,0.054517960,9.552317620,-0.105565800,0.007042290,0.022767490
1640791980.688629,-0.060451540,-0.213076260,9.650174140,-0.075900560,-0.011295080,-0.002209840
1640791980.690930,0.038060290,-0.105800790,9.503592490,-0.021679700,0.074641420,0.000365080
1640791980.691360,0.024116390,-0.079282050,10.024156570,-0.036273890,0.055785470,-0.018294150
1640791980.695360,-0.138316780,-0.038916930,10.294218060,-0.063250960,-0.004000960,-0.001345570
1640791980.696260,-0.157065790,-0.026873050,9.450205800,-0.050613290,-0.061494110,0.001002850
1640791980.700749,-0.218339960,-0.153995770,9.417996410,-0.029236080,0.015662610,-0.007808210
1640791980.703869,-0.317432190,0.119150000,9.467962270,-0.003314020,0.086371600,-0.005905330
1640791980.705500,-0.387260500,0.191656500,10.254022600,-0.009395180,0.013731420,-0.005961950
1640791980.706600,-0.233769130,0.197662460,9.992523190,-0.033342840,-0.006012620,0.010164080
1640791980.710399,-0.157668340,0.135356260,9.499499320,-0.015766920,-0.022318960,0.012597440
1640791980.711269,-0.304323610,-0.043224190,10.202795030,0.015597050,0.009138880,-0.004392860
1640791980.715380,-0.220027850,0.237230460,9.625610350,0.015039740,0.021651380,-0.011412800
1640791980.716300,-0.232560470,0.358526350,9.879993440,-0.032415990,-0.060038270,-0.019699340
1640791980.720460,-0.048946130,0.302680250,9.768825530,-0.045758480,0.035044540,-0.009511410
1640791980.721310,-0.058875310,0.432561990,9.725971220,-0.025880340,0.023414190,-0.022707880
1640791980.725370,-0.362470980,0.374162110,10.751189230,0.004084410,-0.039453810,-0.002872940
1640791980.726250,-0.264942880,0.437541570,9.652885440,-0.011321900,-0.040772560,0.010260940
1640791980.730360,-0.317975520,0.418856890,9.615419390,-0.058069830,-0.070157650,-0.002166630
1640791980.731230,-0.358822670,0.383478160,10.047991750,-0.071445110,0.035546720,0.027017300
1640791980.736080,-0.168011610,0.331068040,9.794506070,-0.059241050,-0.001849230,0.005252660
1640791980.737640,-0.150067660,0.179940720,10.385613440,-0.015372040,-0.071354220,0.000037250
1640791980.740419,0.062499270,0.428702210,9.539921760,-0.034376980,0.003364680,0.006119910
1640791980.742480,0.002315470,0.307457510,9.842601780,-0.103479620,-0.017310680,0.000064070
1640791980.745430,-0.163165410,0.187394370,10.327092170,-0.081542130,-0.029173500,0.025624040
1640791980.746369,0.004494980,0.260745140,9.508977890,-0.052961710,-0.063504290,-0.001318750
1640791980.750399,0.076991560,0.246087180,9.593755720,-0.053949670,-0.011920930,0.010350350
1640791980.751469,0.043070920,0.195471570,9.737461090,-0.065316270,0.074762110,0.029675670
1640791980.755450,-0.212990730,-0.008882180,10.413207050,-0.066071740,-0.028872490,0.004403290
1640791980.756359,-0.224083740,0.075141060,9.866578100,-0.041648750,-0.082884730,0.031076370
1640791980.760340,-0.120600570,0.094363590,9.104387280,-0.069881980,-0.039660930,0.028315190
1640791980.761240,-0.153817470,-0.102230150,9.698304180,-0.080694260,0.065322230,0.013601780
1640791980.765970,0.036415470,-0.066158290,9.813453670,-0.027540330,0.071236490,0.010329480
1640791980.766919,0.014980290,-0.039018470,10.239182470,0.001345570,-0.032192470,-0.001268090
1640791980.770720,0.010571850,-0.005449630,9.714679720,-0.011347230,-0.024712090,0.013826790
1640791980.771570,-0.021768030,-0.063264640,9.430015560,-0.048072630,-0.033423300,0.010165570
1640791980.775349,-0.233323370,-0.194536760,9.875585560,-0.022250410,0.010599200,0.003184380
1640791980.776260,-0.049053100,-0.082495500,9.304488180,0.026528540,0.042204560,0.001084800
1640791980.780400,-0.191857870,-0.007822220,10.086627960,0.035046030,0.009794530,-0.007677080
1640791980.781390,-0.324236270,-0.008115190,10.137398720,0.025023530,0.012649600,0.008079410
1640791980.786350,-0.306213380,-0.032168670,9.675452230,0.022073090,-0.080102690,0.010997060
1640791980.787240,-0.539615870,-0.204670010,9.751276970,0.037519630,-0.046721100,0.007142130
1640791980.790449,-0.332528830,-0.075178050,9.221935270,0.063818700,0.029212240,0.002649430
1640791980.791270,-0.291767120,0.001009300,10.105196000,0.068716710,0.012598930,-0.007504230
1640791980.795400,-0.354231540,0.202377470,10.209275250,0.060240920,-0.021496410,0.009092690
1640791980.796300,-0.048937530,0.201539070,9.596913340,0.035391750,-0.087673970,0.008723140
1640791980.800410,-0.134270180,0.081290710,9.920612340,0.061737000,-0.027383860,0.007575750
1640791980.801299,-0.215999530,0.356543750,9.768218040,0.084152820,-0.006441770,-0.007343290
1640791980.805510,-0.179141010,0.456780430,10.041849140,0.046524400,-0.075843920,-0.012120600
1640791980.806350,-0.152926150,0.492860110,9.711169240,0.022660200,-0.040403010,-0.001540780
1640791980.810360,-0.195146100,0.428603740,9.926017760,0.030738110,-0.035198030,-0.014597180
1640791980.811260,-0.427522690,0.402186070,10.372003560,0.046157840,-0.057409700,-0.000946220
1640791980.817080,-0.497456910,0.499973300,9.852184300,0.033259390,-0.120617460,0.000780820
1640791980.817819,-0.384665340,0.396763710,9.830490110,-0.001800060,-0.094231990,0.001984830
1640791980.823109,-0.238457040,0.494285200,9.668287280,-0.028131910,-0.006087120,0.013783580
1640791980.823660,-0.150779410,0.443545460,10.304016110,-0.015036760,-0.050385300,0.008907910
1640791980.825379,0.017321640,0.375138160,10.338005070,0.006395580,-0.067183380,-0.001417100
1640791980.826269,0.093788010,0.568064330,9.591798780,-0.014373660,-0.094029310,-0.005336110
1640791980.830740,-0.158721060,0.429672480,10.168721200,-0.054444380,-0.095960510,0.004151460
1640791980.831390,-0.140755760,0.450675190,9.543619160,-0.066639470,-0.065079320,0.008448960
1640791980.835929,-0.167274610,0.509110870,9.737864490,-0.065131490,-0.109931840,-0.004778800
1640791980.837030,-0.171119230,0.446003410,10.110202790,-0.059971220,-0.017608700,0.017546120
1640791980.840360,-0.027494400,0.382202180,9.775963780,-0.069333610,-0.025071210,0.014977160
1640791980.841280,-0.280913920,0.096076380,10.730564120,-0.056812170,-0.117515020,0.013820830
1640791980.845719,-0.141824830,0.165394810,9.736741070,-0.052937870,-0.110827390,0.030623380
1640791980.847960,0.043204990,0.081675830,9.183220860,-0.108177960,-0.096012660,0.022494790
1640791980.850390,0.033269070,-0.075288880,9.821822170,-0.096845620,0.022201240,0.029471520
1640791980.851620,0.225786780,-0.104714450,9.758170130,-0.045789780,0.024656950,0.008004900
1640791980.856799,0.019018010,-0.131490650,10.425867080,-0.000563260,-0.094613420,0.000832970
1640791980.857349,-0.035072170,0.174472030,9.783756260,-0.034801670,-0.096042480,0.023806100
1640791980.860400,-0.066188840,0.019239020,9.408102040,-0.111709540,-0.066186490,0.020769240
1640791980.861400,-0.143769930,-0.187009870,9.756641390,-0.061096250,0.008146460,0.016088780
1640791980.865370,0.013469770,0.037208070,9.678499220,0.019578640,0.020483140,0.000160930
1640791980.866259,-0.073454010,0.000949070,10.192212100,0.029052800,-0.016716120,0.000943240
1640791980.871630,-0.165823500,0.028461710,9.987583160,-0.011074540,-0.059005620,0.021119420
1640791980.872640,-0.276628790,-0.166584250,9.774022100,-0.042559210,-0.102241340,0.010898710
1640791980.875429,-0.188057150,-0.339138240,9.256900790,0.002399090,-0.037491330,0.009286400
1640791980.876299,-0.010532530,-0.200684880,9.379362110,0.060419750,0.043608260,-0.005786120
1640791980.880990,-0.170612930,-0.189134490,10.466941830,0.072556740,0.030353670,-0.014536080
1640791980.881529,-0.125525970,-0.069185970,10.140611650,0.059996550,-0.083564210,0.006368760
1640791980.885789,-0.132725750,-0.065410580,9.667684560,0.037489840,-0.133237240,-0.001694260
1640791980.886620,-0.273920740,-0.096764040,9.291412350,0.037002560,-0.015369060,0.004218520
1640791980.890380,-0.283892450,0.066214990,9.605836870,0.084464260,0.005888940,-0.019086900
1640791980.891260,-0.346846820,0.233798590,10.326539040,0.105598580,-0.040885810,-0.023888050
1640791980.895490,-0.064779440,0.398650110,9.646326070,0.073242190,-0.048813220,0.001892450
1640791980.896319,-0.100551640,0.256399960,10.102351190,0.048334910,-0.058367860,-0.000797210
1640791980.900679,-0.385313990,0.099551620,10.277499200,0.067044800,-0.055162620,0.006066260
1640791980.902109,-0.264077990,0.135577540,9.554373740,0.106243800,-0.126360360,-0.005549190
1640791980.905460,-0.267220230,0.179454100,9.635432240,0.082495810,-0.084267560,-0.008872150
1640791980.906390,-0.120704710,0.400597780,9.571229930,0.034955140,0.022748110,-0.003392990
1640791980.910719,-0.185293720,0.329663720,10.556376460,0.029104950,-0.052784390,-0.006070730
1640791980.911399,-0.285246940,0.302307220,10.538576130,0.073206420,-0.126777600,-0.007008020
1640791980.915439,-0.132352710,0.466086330,9.494713780,0.083832450,-0.127622490,-0.027383860
1640791980.916280,-0.212013540,0.574335870,9.775835990,0.026471910,-0.060088930,-0.022229550
1640791980.920440,-0.242218840,0.746028240,9.902033810,-0.021107490,-0.020277500,-0.005732480
1640791980.921730,-0.115490640,0.474043340,10.175610540,-0.011946260,-0.100478520,-0.014850500
1640791980.925429,-0.034995350,0.388194770,9.986640930,0.036895280,-0.093489890,-0.017511850
1640791980.927009,-0.094197740,0.591597740,9.820039750,0.022742150,-0.073002260,-0.025971240
1640791980.930349,-0.228385300,0.432851580,10.249938010,-0.049832470,-0.087170330,-0.013521320
1640791980.931259,-0.219714720,0.474287060,9.853802680,-0.085590790,-0.105780360,-0.000987950
1640791980.935520,-0.093468550,0.315198510,9.901618000,-0.053881110,-0.097249450,-0.017367300
1640791980.936370,0.068802680,0.331083210,9.768427850,-0.024870040,-0.011059640,-0.015386940
1640791980.940410,0.003043080,0.431725800,10.138730050,-0.031143430,-0.050272050,-0.006823240
1640791980.941290,-0.147500440,0.228753450,10.608983040,-0.055035950,-0.110685830,-0.010295210
1640791980.945420,0.054695750,0.360636680,9.489555360,-0.087274620,-0.124764460,-0.007654730
1640791980.946359,0.081893190,0.352432580,9.554995540,-0.093828130,-0.071913000,-0.012157860
1640791980.950709,0.174012110,0.193554680,9.897384640,-0.073190040,0.063283750,0.001133980
1640791980.951310,0.217855020,0.217827870,10.135841370,-0.046190620,-0.002546610,-0.019890070
1640791980.955350,-0.088511650,0.082557950,10.598541260,-0.026246910,-0.116880250,-0.010493400
1640791980.956319,-0.015821330,0.166074630,9.286957740,-0.089691590,-0.086767970,0.009137390
1640791980.960410,-0.127605780,-0.046209830,9.359333990,-0.125570610,-0.043910750,0.004005430
1640791980.961259,-0.142984390,-0.209081630,9.950505260,-0.061097730,0.048621000,-0.001411140
1640791980.965410,0.129056320,0.002460400,9.834202770,-0.005030630,0.045071530,-0.028255580
1640791980.967020,0.036244030,-0.039638940,10.423263550,-0.008125600,-0.028479100,-0.014092030
1640791980.971150,0.038089910,0.001717370,10.006192210,-0.045745080,-0.034652650,-0.007285180
1640791980.971650,-0.056874430,-0.139797760,9.572236060,-0.063472990,-0.064073500,-0.013819340
1640791980.975450,-0.028405290,-0.150436740,9.320955280,-0.022022430,-0.014679130,0.000067060
1640791980.976280,0.020962870,-0.039357370,9.533149720,0.016695260,0.090615440,-0.018757580
1640791980.980399,-0.110393640,-0.128115530,10.369184490,0.022546950,0.035978860,-0.027753410
1640791980.981240,-0.194227930,0.037139980,10.356065750,0.033384570,-0.048609070,-0.011700390
1640791980.985580,-0.305032310,-0.002934740,9.703440670,-0.004689400,-0.072495640,-0.017787520
1640791980.986539,-0.330520810,-0.037311780,9.360178950,-0.005558130,-0.004477800,-0.014837080
1640791980.990870,-0.329463120,-0.018691010,9.729942320,0.045695900,0.058057900,-0.024066870
1640791980.991600,-0.298669040,-0.004306620,10.117758750,0.075715770,0.023667510,-0.038720670
1640791980.995370,-0.029650350,0.299454210,9.936137200,0.066520280,-0.030699380,-0.011533500
1640791980.996270,-0.089362990,0.164408950,10.086698530,0.017654900,-0.014701480,-0.011882180
1640791981.000429,-0.196317760,0.005859870,9.961111070,0.019970540,-0.025941430,-0.015935300
1640791981.001279,-0.231267380,-0.008955180,9.665450100,0.092281410,-0.065036120,-0.026066600
1640791981.005400,-0.216047790,0.131766990,9.554120060,0.090141590,-0.017276410,-0.037346780
1640791981.006440,-0.096552260,0.453123870,9.636864660,0.034865740,0.045874720,-0.033475470
1640791981.010350,-0.299771960,0.419662830,10.631042480,-0.001779200,-0.013603270,-0.034336750
1640791981.012430,-0.426499550,0.372117340,10.440306660,0.022554400,-0.092098120,-0.032487520
1640791981.015410,-0.281698440,0.456329850,9.502333640,0.070387130,-0.098106270,-0.042754410
1640791981.016850,-0.463369070,0.555601780,9.887046810,0.043015190,-0.021411480,-0.035332150
1640791981.021170,-0.355238530,0.666498960,9.920443530,-0.018587700,0.006993110,-0.018005070
1640791981.022100,-0.127043070,0.337400050,10.155783650,-0.028806920,-0.068138550,-0.017906730
1640791981.025370,0.068036210,0.231867120,10.143488880,0.008033220,-0.042045120,-0.023651120
1640791981.026360,0.123296860,0.407349590,9.896792410,0.024397670,-0.011853880,-0.031773750
1640791981.030380,-0.111508270,0.320413110,10.395659450,-0.030131640,-0.088869040,-0.025817750
1640791981.031250,-0.057170180,0.439921080,9.740015030,-0.070948890,-0.097720320,-0.025837130
1640791981.036780,0.041050410,0.252963040,9.489299770,-0.057144460,-0.040405980,-0.034818050
1640791981.037590,-0.068425190,0.347633030,10.082997320,-0.029328470,0.032775100,-0.029000640
1640791981.040560,-0.168372650,0.463015500,10.450691220,-0.023289020,-0.021840630,-0.025609130
1640791981.041280,-0.197825490,0.195387630,10.370538710,-0.044927010,-0.108815740,-0.023503610
1640791981.045440,-0.110985070,0.332161400,9.494363780,-0.066822770,-0.077135860,-0.009839240
1640791981.046320,-0.124877250,0.187218860,9.615356450,-0.074839600,-0.003264840,-0.001193580
1640791981.050400,0.120992200,0.035300460,9.876245500,-0.059106950,0.039540230,-0.005467240
1640791981.051319,0.236811820,0.046003300,9.998559950,-0.015003980,-0.002580880,-0.020085280
1640791981.055770,0.204322040,0.024829710,10.188382150,-0.010359290,-0.036926570,-0.023423140
1640791981.056480,0.186659740,0.118714960,9.650175090,-0.060525550,-0.015065080,-0.013372300
1640791981.060390,-0.189163570,-0.112714840,9.980323790,-0.070185950,-0.059024990,-0.032795970
1640791981.061280,-0.134729700,-0.155117320,9.673017500,-0.018972160,-0.002835690,-0.024662910
1640791981.065359,-0.027441820,0.076734820,9.329998020,0.013905760,0.053326790,-0.040183950
1640791981.066310,-0.250835030,0.130370830,10.395643230,-0.011324880,0.038428610,-0.028803940
1640791981.070619,-0.199798780,0.057080450,10.276635170,-0.019043680,0.014281270,-0.004854800
1640791981.071950,-0.284986230,-0.236717400,9.927390100,0.004045670,-0.093039860,-0.028619170
1640791981.076530,-0.196275160,-0.076325530,9.479551320,0.041480350,-0.029835100,-0.026972590
1640791981.077070,0.019027060,0.073752830,9.103769300,0.013196470,0.091071430,-0.033733250
1640791981.080380,-0.079636240,-0.061021240,10.409751890,-0.014941390,0.058597330,-0.043183570
1640791981.081300,-0.087893610,0.006891190,10.606705670,0.051552060,0.001128020,-0.032402580
1640791981.085780,-0.144052820,-0.071019960,9.918895720,0.079196700,-0.121538360,-0.043456260
1640791981.086599,-0.202771510,0.158361520,9.462099080,0.044949360,-0.044022500,-0.032086670
1640791981.091460,-0.226743520,0.250694270,9.576840400,-0.003641840,0.097329920,-0.040791930
1640791981.092330,-0.388918010,0.202036780,10.482922550,0.003901120,0.007499750,-0.042974950
1640791981.095340,-0.171321630,0.358832150,10.094573970,0.087918340,-0.056104370,-0.030322370
1640791981.096360,-0.094671300,0.398117900,9.734390260,0.068843350,-0.029163060,-0.049680460
1640791981.100459,-0.346161280,0.528448460,10.097204210,-0.004476310,0.001405180,-0.028295820
1640791981.101689,-0.539199830,0.318345840,10.309503560,-0.005938110,-0.061440470,-0.025399030
1640791981.105500,-0.318257780,0.189683720,9.870115280,0.006745760,-0.082550950,-0.031958520
1640791981.106360,0.021938430,0.430777940,9.439614300,0.042486190,0.016915800,-0.035282960
1640791981.110469,-0.025480190,0.363259490,10.562820430,0.007723270,0.050136450,-0.037708880
1640791981.111339,0.048460970,0.440382060,10.557179450,-0.032040480,-0.011746590,-0.035764280
1640791981.115880,0.124604020,0.293427020,9.907631870,-0.020514430,-0.128793730,-0.041562320
1640791981.117050,0.039078030,0.363125120,9.771451000,-0.021319090,-0.054039060,-0.041142100
1640791981.120469,0.018245020,0.636282560,9.438877110,-0.042891500,0.045445560,-0.037729740
1640791981.121780,-0.210362720,0.361865790,10.590125080,-0.057187680,-0.027105210,-0.022386010
1640791981.125460,-0.189928740,0.266077070,10.387422560,-0.017873940,-0.017161670,-0.022603570
1640791981.126340,-0.219224350,0.301290090,9.766758920,-0.014299150,-0.059033930,-0.036133830
1640791981.130329,-0.365905050,0.304490920,10.220870020,-0.059194870,-0.038045640,-0.013917680
1640791981.131320,-0.203152330,0.281702730,9.780602460,-0.089468070,0.009842220,-0.024691230
1640791981.136060,0.055030810,-0.014090070,9.895886420,-0.062091660,-0.020344560,-0.034730140
1640791981.137349,0.419583650,0.125146340,9.868304250,-0.011597570,0.052264330,-0.023119150
1640791981.140529,0.482731880,-0.023068450,10.005788800,-0.012174250,0.068925320,-0.023899970
1640791981.141330,0.226975560,-0.137047810,10.588257790,-0.028453760,-0.025723880,-0.016368930
1640791981.145399,0.054294610,-0.036529270,9.791181560,-0.041082510,-0.078661740,-0.005377830
1640791981.146410,-0.107599050,-0.275731560,9.347452160,-0.047236680,-0.037905570,-0.019593540
1640791981.150499,-0.106496970,-0.190460120,9.484434130,0.010803340,0.102269660,-0.020067390
1640791981.151320,-0.319104160,-0.016257160,10.289425850,0.037418310,0.089928510,-0.044886770
1640791981.155390,-0.299814080,0.097360000,10.549245830,0.017178060,-0.003106890,-0.029504300
1640791981.156440,-0.123732490,0.097514300,9.665321350,-0.004029270,-0.012706220,-0.009270010
1640791981.160400,-0.301122930,-0.232485590,9.917655940,0.020560620,-0.004453960,-0.024808950
1640791981.161340,-0.222556780,-0.169659000,9.695664410,0.092236710,0.041131680,-0.033867360
1640791981.165510,-0.031664260,-0.052647550,9.495690350,0.080519910,0.014866890,-0.036922100
1640791981.166740,0.049896130,-0.117943170,10.183029170,0.029976670,0.061747430,-0.018310550
1640791981.170440,0.142685490,-0.175497260,10.079270360,0.056268270,0.063222650,-0.026088950
1640791981.171280,-0.166330720,-0.163125630,10.559159280,0.107125940,-0.067734710,-0.033986570
1640791981.175870,-0.184117750,0.094612520,9.556714060,0.126349940,-0.022260840,-0.027291480
1640791981.176440,-0.159863260,0.196328270,9.265275000,0.068120670,0.017125900,-0.049398840
1640791981.180379,-0.426131580,0.353830190,10.283937450,0.048770010,0.063896180,-0.036494440
1640791981.181300,-0.358277200,0.339679030,10.085484500,0.093409420,0.014355780,-0.029677150
1640791981.185439,-0.337668510,0.170693560,10.373792650,0.130935000,-0.064387900,-0.035779170
1640791981.187450,-0.408123520,0.376025320,9.975559230,0.128383950,-0.001063940,-0.026829550
1640791981.190389,-0.342583090,0.202133430,9.872992520,0.060352690,-0.016124550,-0.031700730
1640791981.192119,-0.242433410,0.149738060,10.059406280,0.044664740,-0.009483100,-0.025284290
1640791981.195360,0.013697880,0.279642310,9.648502350,0.085003670,0.004422670,-0.034053630
1640791981.196349,0.107229960,0.280123980,10.271794320,0.095213970,0.005602840,-0.039826340
1640791981.200379,-0.004447730,0.500258330,10.242157940,0.081817790,-0.007165970,-0.033377110
1640791981.201290,-0.256567960,0.439010800,10.347722050,0.044775010,-0.103159250,-0.041840970
1640791981.205489,-0.199169870,0.541924770,9.867792130,0.028498470,-0.039248170,-0.024664400
1640791981.206339,-0.222353880,0.621874030,9.685306550,0.017794970,0.015218560,-0.022901600
1640791981.210350,-0.338117840,0.418309690,10.666086200,0.035412610,0.011044740,-0.019088390
1640791981.211350,-0.007340840,0.376664700,9.979531290,0.060428680,-0.006620580,-0.027276570
1640791981.219130,-0.044989030,0.298511860,10.086950300,0.030884150,-0.067728770,-0.035613780
1640791981.220470,-0.016305020,0.364447710,10.052133560,-0.014172500,0.007800760,-0.010722880
1640791981.220919,0.105003930,0.230189130,9.737326620,-0.039276490,-0.009879470,-0.016659500
1640791981.221320,0.007736530,0.087594420,10.391690250,0.018781430,-0.036364790,-0.014333430
1640791981.225510,0.274068920,0.225045280,9.701738360,0.067214680,0.042606890,-0.015842910
1640791981.226310,0.175456870,0.157357710,10.087037090,0.007924440,0.020937620,-0.009691720
1640791981.230850,-0.109813940,0.016453850,10.640319820,-0.002226230,0.008915360,0.009419020
1640791981.231840,-0.151752380,-0.067665310,9.909150120,0.021035970,-0.060831020,-0.012286010
1640791981.235400,-0.137251960,0.042795100,9.478260990,0.024265050,-0.047072770,-0.011035800
1640791981.236450,0.016419630,0.185195540,9.353843690,0.029475990,0.093320010,-0.001572070
1640791981.240460,-0.007956160,-0.051366660,10.394139290,0.028707090,0.113134090,-0.018392500
1640791981.242110,-0.062724280,0.057153470,10.598375320,0.066147740,0.008353590,-0.010797380
1640791981.248880,-0.029480810,0.062178550,9.928544040,0.070315600,-0.079464920,0.000889600
1640791981.249490,-0.120005690,-0.036884470,9.607715610,0.034639240,0.006338960,0.004470350
1640791981.250350,-0.138252900,-0.081940830,9.348117830,0.046136980,0.079105800,-0.005026160
1640791981.251350,-0.209847910,-0.151212170,10.365380290,0.081188980,0.044670700,-0.024670370
1640791981.255509,-0.022529770,0.094059060,9.782078740,0.103725500,0.053988400,-0.009204450
1640791981.256440,-0.066116510,0.061908920,9.918911930,0.080466280,-0.009289380,-0.006119910
1640791981.260360,-0.393628150,0.006951200,10.510287280,0.070741780,0.019241870,-0.003854930
1640791981.261400,-0.402676140,0.026339900,9.496037480,0.089751180,-0.039263070,-0.019928810
1640791981.265380,-0.406776190,-0.087830360,9.776195530,0.113141550,-0.032752760,-0.025869910
1640791981.266310,-0.226290520,0.210086020,9.636683460,0.120475890,0.127923500,-0.025102500
1640791981.270419,-0.346683950,0.215458450,10.532987590,0.086784360,0.014433260,-0.023889540
1640791981.271299,-0.369174990,0.212479460,10.629385950,0.108243530,-0.074237580,-0.002856550
1640791981.275760,-0.096735120,0.242208480,9.203758240,0.104679160,-0.069731470,-0.006404520
1640791981.276340,-0.182033540,0.088236740,9.799457550,0.100225220,0.016550720,-0.003622470
1640791981.280419,-0.243335630,0.356910970,10.177138330,0.118970880,0.055827200,-0.011001530
1640791981.282060,-0.206915200,0.349527570,10.355627060,0.079631810,-0.063669690,-0.021587310
1640791981.285699,-0.137761580,0.398200750,10.037327770,0.081650910,-0.062376260,-0.012949110
1640791981.286330,-0.288354690,0.435047420,9.913861270,0.072816020,-0.034034250,-0.024238230
1640791981.290370,-0.585699800,0.379185410,10.446557040,0.076986830,-0.051996110,-0.018596650
1640791981.292179,-0.441511900,0.551474990,9.734861370,0.088997190,-0.087529410,-0.012098250
1640791981.295430,-0.335578770,0.555285450,9.933984760,0.029623510,-0.056606530,-0.007036330
1640791981.296310,-0.104182300,0.617707490,10.055979730,0.012050570,0.034295020,0.006784500
1640791981.300390,0.004739390,0.456070150,10.477834700,0.031147900,-0.068445500,0.012233860
1640791981.301570,0.007488420,0.415496620,10.520953180,0.048449640,-0.104820750,0.004565720
1640791981.305420,0.179252820,0.505136310,9.408491130,0.030963130,-0.061422590,-0.008289520
1640791981.306380,-0.050791650,0.382423670,10.155595780,-0.037103890,-0.061476230,0.004437570
1640791981.310480,-0.113812510,0.317479430,10.081705090,-0.029672680,-0.029210750,0.014328960
1640791981.313789,0.032575350,0.190689270,9.766805650,-0.000171360,-0.081421450,-0.003834070
1640791981.315430,-0.009910560,0.332306360,10.117583270,0.016427040,-0.021411480,0.010207300
1640791981.316330,-0.133128050,0.370310160,9.977284430,-0.020591920,-0.006999080,0.016273560
1640791981.320370,-0.285134490,0.076784890,10.458473210,-0.050242250,-0.100964320,0.014650820
1640791981.321339,-0.182958290,0.135951620,9.717316630,-0.004401800,-0.089392070,0.023794170
1640791981.325640,-0.015489510,0.092695460,9.349534030,-0.006201860,-0.036227700,0.005799530
1640791981.327829,0.103015720,0.055594910,9.941943170,-0.010046370,0.067213190,0.019051140
1640791981.330360,0.029333470,-0.105073930,10.343614580,0.011672080,-0.006398560,0.009505450
1640791981.331280,-0.087877060,-0.267382090,10.576657300,0.037476420,-0.122873490,0.012572110
1640791981.335470,0.128541480,-0.012878900,9.125406270,0.027534370,-0.075714300,0.020691760
1640791981.336360,-0.080418760,-0.058737180,9.562839510,-0.030417740,0.000408290,0.016024710
1640791981.340449,-0.157118080,-0.148584770,10.289834020,0.015620890,0.066696110,0.002974270
1640791981.341679,-0.113718440,-0.005976200,10.006837840,0.084260100,-0.050795080,-0.006136300
1640791981.347190,-0.294498860,0.115267330,10.273041730,0.088565070,-0.103391730,0.016464290
1640791981.348290,-0.150569440,0.188782630,9.406154630,0.032649940,-0.005973880,0.026242440
1640791981.350410,-0.402672320,-0.058785120,10.125067710,0.011789800,-0.042422130,0.014334920
1640791981.352350,-0.432177310,-0.042281790,10.256402020,0.096739840,-0.022083520,0.017277900
1640791981.355379,-0.113973980,0.162964630,9.478481290,0.104211270,-0.048010050,-0.007787350
1640791981.356400,-0.139429050,0.316451730,10.165505410,0.058434900,-0.026558340,0.010953840
1640791981.360530,-0.073496340,0.375200750,10.119345660,0.031252210,-0.012330710,0.019228460
1640791981.361369,-0.089616310,0.237154960,10.232051850,0.032344460,-0.100280340,0.005136430
1640791981.365379,-0.187068580,0.334915130,9.883885380,0.090424710,-0.069548170,0.019857290
1640791981.366370,-0.271553160,0.421729950,9.891456600,0.078360740,-0.059007120,-0.004921850
1640791981.370350,-0.377747330,0.579037730,10.284463880,0.004781780,-0.056856870,0.017528240
1640791981.371349,-0.263912980,0.513666810,9.941962240,-0.011880700,-0.071915990,0.031849740
1640791981.375630,-0.189633270,0.259904440,10.346935270,0.015911460,-0.057582560,0.008441510
1640791981.378409,-0.099076990,0.548308190,9.997137070,0.054243210,-0.019422180,0.009575490
1640791981.380460,-0.281411620,0.525767980,10.391381260,0.005358460,-0.126071290,0.015790760
1640791981.381430,-0.120830130,0.546661730,10.048942570,-0.043556090,-0.097654750,0.023820990
1640791981.385500,0.149521780,0.655355630,9.243088720,-0.074484960,-0.057531900,0.012905900
1640791981.386309,0.066717330,0.479848270,10.405154230,-0.059193380,-0.024232270,0.017645960
1640791981.390460,0.096360620,0.419185970,10.315521240,-0.004494190,0.011092430,0.020597880
1640791981.391490,-0.116502990,0.234147940,10.449859620,-0.007334350,-0.158964100,0.013281410
1640791981.395350,-0.139669850,0.364249680,9.932704930,-0.058013200,-0.128766890,0.044643880
1640791981.396330,0.045374530,0.238561300,9.019063950,-0.142295670,-0.016260150,0.040437280
1640791981.400570,0.014921830,-0.141354960,10.198456760,-0.100798900,0.029958780,0.040550530
1640791981.401540,0.089934240,0.013023510,10.412058830,0.026309490,0.021219250,0.024175650
1640791981.405589,0.067550030,0.105928320,10.212890620,0.009129940,-0.105181350,0.010378660
1640791981.407740,-0.011378500,0.257504250,9.772796630,-0.090783830,-0.094504680,0.033475460
1640791981.411080,-0.044062530,0.109624700,9.412511830,-0.147277120,-0.034323330,0.022026900
1640791981.411970,-0.110229060,-0.184333530,9.935140610,-0.055783990,0.015756490,0.009164210
1640791981.415740,0.022621470,0.170791790,9.857457160,0.061498590,0.019332770,0.016599900
1640791981.416380,-0.074658190,0.229586040,10.354754450,0.006060300,-0.034517050,0.026221580
1640791981.420400,-0.172506230,0.024518210,10.089487080,-0.076782700,-0.030899050,0.046946110
1640791981.421559,-0.214968530,-0.257489410,9.647953030,-0.059451170,-0.096584840,0.033295160
1640791981.425500,-0.305434910,-0.257787080,9.737621310,0.019824510,-0.027623770,0.011962650
1640791981.426740,-0.061399290,0.084579070,9.381779670,0.040605670,0.045084950,0.009030100
1640791981.430339,-0.216174300,0.020583640,10.720303540,-0.002397600,-0.004862250,0.012591480
1640791981.431290,-0.277114930,-0.048242890,10.580837250,0.005330150,-0.051435840,0.021734840
1640791981.435370,-0.116345810,0.025300720,9.585582730,0.026378040,-0.146813710,0.014232100
1640791981.436339,-0.207456340,0.217928780,9.759489060,0.008325280,-0.026196240,0.014986100
1640791981.440510,-0.166577350,0.466958820,9.645594600,-0.011065600,0.056432190,0.006438790
1640791981.441360,-0.223348290,0.404008540,10.694934840,-0.002357360,-0.062340510,0.010184950
1640791981.445380,-0.033530090,0.561935130,10.116906170,0.037647780,-0.067476940,0.022315980
1640791981.446390,-0.023222400,0.526254000,9.730306630,0.004822010,-0.058008730,0.009894370
1640791981.450640,-0.344220130,0.439496520,10.484851840,-0.024698680,-0.025059290,0.033840540
1640791981.452109,-0.421558890,0.380506220,10.108299260,-0.034296510,-0.089149180,0.032469630
1640791981.455440,-0.231971710,0.125138270,9.977024080,-0.008523470,-0.109045210,0.024396180
1640791981.456400,0.084598630,0.387342180,9.555072780,-0.003467500,0.018881260,0.024400650
1640791981.460350,-0.035469960,0.392358150,10.455541610,-0.054830310,0.011490290,0.015266240
1640791981.461290,-0.135709270,0.225471910,10.908933640,-0.043253600,-0.058300800,0.031700730
1640791981.465340,0.010824010,0.423566310,9.748047830,-0.032600760,-0.168557470,0.015749040
1640791981.466400,0.046283170,0.554625210,9.636679650,-0.063788900,-0.075927380,0.026342280
1640791981.470680,0.217168690,0.553999660,9.454653740,-0.093349810,0.090043260,0.055548550
1640791981.472020,0.089211350,0.206849430,10.634478570,-0.064949680,-0.004969540,0.046069920
1640791981.475450,-0.028209380,0.072479870,10.769905090,0.013145810,-0.052785880,0.059555480
1640791981.476349,0.099744830,0.168813790,9.428810120,-0.031015280,-0.100596230,0.050412120
1640791981.480389,-0.179539130,0.077280980,9.810632710,-0.121399770,-0.056020920,0.054775190
1640791981.481330,-0.067344460,-0.079325630,9.513887410,-0.109244900,0.060145570,0.046475230
1640791981.485430,0.102002360,-0.218412310,9.980223660,-0.026763980,0.027194620,0.011035800
1640791981.486490,0.036012470,0.101237560,10.471138000,0.041267270,0.022818150,0.026172400
1640791981.490419,0.083916070,0.277888750,9.932878490,-0.027434530,-0.022827090,0.048659740
1640791981.492410,-0.175089520,-0.046143040,10.156281470,-0.099392260,-0.072264670,0.052535550
1640791981.495360,-0.175483110,-0.133420270,9.501632690,-0.025603180,-0.012978910,0.051975250
1640791981.496330,-0.048111890,-0.153363440,9.605697630,0.036326050,0.033043330,0.026458510
1640791981.500850,-0.043181960,0.171838860,10.032142640,0.039710110,0.095427040,0.039048490
1640791981.501969,-0.104987870,0.289140370,10.542009350,-0.025545060,0.006470080,0.037622450
1640791981.505550,-0.175357710,0.019964380,10.471795080,-0.043889880,-0.075241930,0.043810910
1640791981.506359,-0.177350040,0.106570520,9.265120510,0.017827750,-0.053842380,0.030590600
1640791981.510380,-0.302179870,0.214524240,9.814270970,0.033293670,0.019893050,0.016950070
1640791981.511370,-0.234870240,0.369171560,10.108809470,0.002151730,0.092163680,0.026382510
1640791981.515380,-0.199816300,0.342473000,10.496518140,-0.022754080,-0.027464340,0.031109160
1640791981.516399,-0.114040940,0.178944440,10.536156650,0.007036330,-0.045324870,0.037439170
1640791981.520510,0.048763510,0.379220490,9.486824040,0.006331500,0.001798570,0.027135020
1640791981.521390,-0.230616960,0.359995600,10.386466980,-0.018087030,-0.013348460,0.031396750
1640791981.525840,-0.158204810,0.384422540,10.176942830,-0.019776820,0.007547440,0.042474260
1640791981.526369,0.121476290,0.449513470,9.578825000,-0.025524200,-0.032946470,0.031648580
1640791981.530330,0.085043410,0.434751390,10.326793670,-0.021629040,0.043138870,0.031599400
1640791981.531459,0.044872900,0.621080400,10.133574490,-0.047866990,0.065185140,0.028686230
1640791981.535900,-0.305494820,0.421189520,10.680023190,-0.066760180,-0.084617730,0.030621880
1640791981.536929,-0.247217630,0.362356310,9.921954150,-0.039541720,-0.073209410,0.046642120
1640791981.540459,-0.041089330,0.453992370,9.188839910,-0.067266820,0.018562380,0.030905010
1640791981.542610,-0.036044160,0.307884100,10.088358880,-0.088706610,0.098969050,0.050657990
1640791981.545380,0.155294220,0.220416990,10.383118630,-0.064019870,0.079612430,0.051271920
1640791981.546409,0.100428770,-0.062509750,10.623884200,-0.022010510,-0.033432240,0.031441450
1640791981.550870,0.102463830,0.051670750,9.831705090,-0.019235910,-0.049634290,0.041280690
1640791981.552709,0.095075060,0.218181480,9.364820480,-0.095386810,0.008820000,0.039055950
1640791981.555379,0.033173220,-0.076609440,9.757665630,-0.114674870,0.102165360,0.042065980
1640791981.556389,0.140206810,-0.107628130,10.083646770,-0.023862720,0.105127710,0.034998360
1640791981.560320,-0.116074970,0.018022380,10.799407960,0.043156750,0.013980270,0.024069850
1640791981.561349,-0.099448520,0.334584240,9.756605150,-0.021365290,-0.018920000,0.056126720
1640791981.565480,-0.111129530,0.210266280,9.421452520,-0.119502830,0.005887450,0.065615770
1640791981.566969,-0.239129710,-0.158583820,9.886863710,-0.070789460,0.116777430,0.046156360
1640791981.570390,-0.039941940,-0.011827550,9.773495670,0.049127650,0.095640150,0.017045440
1640791981.571300,-0.047207630,0.155001630,10.373945240,0.064699350,0.030009450,0.022408370
1640791981.575470,-0.047306690,0.185868530,9.970842360,-0.038513540,0.060799720,0.032277410
1640791981.576370,-0.198353420,-0.169762150,10.094593050,-0.066338480,-0.006365780,0.030189750
1640791981.580459,-0.356869910,-0.335946320,10.034801480,0.019334260,-0.003100930,0.034663080
1640791981.581400,-0.112572420,0.029656160,9.190680500,0.070996580,0.061668470,0.016979870
1640791981.585700,-0.097780670,0.224523920,10.201329230,0.015924870,0.111611190,0.017885870
1640791981.586360,-0.127739670,0.445225980,10.585811610,-0.042772290,0.083714730,0.045651200
1640791981.590479,-0.117491650,0.256266530,10.317337040,-0.015033780,-0.045530510,0.029233100
1640791981.591400,-0.153540520,0.316102590,9.806962010,0.043863050,-0.031970440,0.027725100
1640791981.595360,-0.263189140,0.637942430,9.575282100,0.025962290,0.075294080,0.024651000
1640791981.596400,-0.422664550,0.481839540,10.451762200,-0.035874540,0.059914590,0.031195580
1640791981.600450,-0.269760700,0.385436480,10.301593780,-0.039513420,-0.001659990,0.046274070
1640791981.602249,-0.100474430,0.225224020,9.959989550,-0.000606480,-0.000543890,0.020255150
1640791981.605389,-0.166673030,0.313170760,10.097228050,0.002509360,0.043049460,0.024525830
1640791981.606380,-0.253930750,0.496451380,10.146984100,-0.046028200,0.002014640,0.033877790
1640791981.610360,-0.183140310,0.314629470,10.150366780,-0.073595330,-0.041419270,0.043971840
1640791981.611339,0.204776640,0.339765160,9.458203320,-0.050982840,0.034998360,0.053662070
1640791981.615710,0.066538970,0.376855730,10.205313680,-0.032727420,0.081597290,0.035744910
1640791981.616449,-0.174383280,0.217544820,10.807202340,-0.028248130,0.037655230,0.054992740
1640791981.620390,-0.171501590,0.230449940,10.023114200,-0.043931600,-0.085814300,0.052088500
1640791981.621300,-0.287425990,0.158385950,9.695497510,-0.065346050,-0.075958680,0.045375530
1640791981.625720,0.001998130,0.295048150,9.126844410,-0.092491510,0.090657170,0.050504510
1640791981.626400,0.085898980,0.225746880,10.048536300,-0.088341530,0.118576010,0.044286250
1640791981.630460,-0.006166170,0.020530270,10.992903710,-0.015984470,0.052036340,0.047701600
1640791981.631410,0.184134100,0.206135710,10.060612680,0.005921720,-0.049537420,0.040969250
1640791981.635620,-0.056821510,0.159334480,9.656873700,-0.063844030,-0.049327320,0.061590970
1640791981.636380,-0.178095710,0.022162260,9.432320590,-0.112140190,0.056910510,0.065302860
1640791981.640440,-0.161368440,-0.260013730,9.856971740,-0.049483780,0.077898800,0.037458540
1640791981.642340,-0.205057110,-0.139368250,10.266327860,0.036478050,0.037378070,0.032787030
1640791981.645599,-0.049259270,0.139451670,9.941393850,0.022374090,0.028455260,0.039687760
1640791981.647130,-0.126059060,-0.062462640,10.069489480,-0.069417060,0.021755700,0.050957500
1640791981.650730,-0.271998700,-0.184973570,10.076725010,-0.046125050,-0.005351010,0.057241320
1640791981.652099,-0.133590490,-0.306560100,9.648893360,0.053396820,0.004689400,0.029405950
1640791981.655480,0.016388470,-0.022608130,9.457903860,0.064840920,0.075663630,0.032421950
1640791981.656430,-0.110437470,0.050297540,10.288792610,0.033770510,0.095506010,0.039117040
1640791981.660359,-0.275871990,-0.176624280,10.692075730,0.008025770,-0.009623170,0.037750610
1640791981.661330,-0.290182830,-0.060372060,9.760463710,0.047557050,-0.096084160,0.037312500
1640791981.665370,-0.278706040,-0.003517490,9.399170880,0.076770790,0.000269710,0.027464330
1640791981.666370,-0.271697430,0.223998050,9.895053860,0.031003360,0.118041040,0.017398600
1640791981.670320,-0.330203410,0.515658140,10.588195800,0.026756530,0.027248260,0.023466350
1640791981.671360,-0.119094390,0.382048990,10.439074520,0.032362330,-0.066088150,0.049448010
1640791981.675520,0.086719610,0.456921580,9.521740910,0.046649570,-0.002196430,0.043703620
1640791981.676430,-0.242551090,0.423530670,10.162008290,0.047422950,0.024513900,0.034768880
1640791981.680390,-0.389237400,0.287298380,10.519439700,0.032813850,-0.006797910,0.048287220
1640791981.681990,-0.180815590,0.270073470,9.663262370,0.027689340,-0.072623780,0.033859910
1640791981.685770,-0.098803310,0.206516970,9.937603950,0.015246870,-0.011748080,0.029882790
1640791981.686830,-0.069668200,0.450140710,10.172576900,-0.009617210,0.089457630,0.038664050
1640791981.690430,-0.276983080,0.377846720,10.669951440,-0.011807680,-0.051870950,0.042934720
1640791981.692200,-0.290585160,0.375976060,10.443984990,0.019124150,-0.116369130,0.045260790
1640791981.695809,-0.030203410,0.669278090,9.217290880,-0.004982950,-0.027137990,0.038442020
1640791981.696390,-0.165828270,0.630917370,10.035410880,-0.071130720,0.020366910,0.054191060
1640791981.700389,-0.011073780,0.504952370,10.404139520,-0.052782890,0.055028500,0.062528260
1640791981.701860,0.067845500,0.162602250,10.282831190,-0.000861290,-0.047715010,0.040976710
1640791981.705390,-0.013238810,0.210624110,10.175852780,0.019817060,-0.075140600,0.047492980
1640791981.708779,-0.078575940,0.245886060,9.633480070,-0.049009920,-0.021854040,0.056502230
1640791981.710379,-0.159905080,-0.074405070,9.729151730,-0.111335520,-0.022262330,0.048024960
1640791981.711409,0.018489560,-0.211130650,9.902447700,-0.035740440,0.019618870,0.050713120
1640791981.715360,0.042448720,-0.233172830,10.061367030,0.048927960,0.028949980,0.021588800
1640791981.716369,0.016566260,0.024644100,10.207299230,0.033603610,-0.014938410,0.039611760
1640791981.720420,-0.144798930,0.065488110,10.223425870,-0.034342710,-0.035740440,0.054879490
1640791981.721340,-0.335499820,-0.224714320,10.042004590,-0.055624540,-0.064212090,0.053033230
1640791981.727160,-0.141788070,-0.122670960,9.374555590,0.034497680,-0.029285250,0.043329600
1640791981.728490,-0.068214210,0.023917780,9.526740070,0.077053900,0.052988540,0.029836600
1640791981.730360,-0.060011240,0.243710610,10.290540700,0.029672680,0.068685420,0.031785670
1640791981.731380,-0.056795410,0.179662780,10.521970750,0.017021600,-0.043794510,0.053615880
1640791981.735720,-0.136215400,-0.072130390,10.107213020,0.024877490,-0.111684210,0.053092840
1640791981.736330,-0.083750780,-0.122718680,9.265492440,0.079427670,-0.016786160,0.044028460
1640791981.740419,-0.293479260,-0.206074740,9.967927930,0.094455480,0.033941860,0.020162760
1640791981.745750,-0.443677130,0.007637470,10.578875540,0.076496590,-0.005462770,0.031872090
1640791981.746460,-0.224210400,0.052301670,9.833046910,0.065630680,-0.084033610,0.053824480
1640791981.747130,-0.230098380,0.032800520,10.004634860,0.052331390,-0.060358650,0.045637790
1640791981.750360,-0.324249800,0.316982240,10.002978320,0.080193580,0.023421650,0.046607860
1640791981.751380,-0.389386740,0.378008100,10.261577610,0.096358370,-0.081647940,0.033664700
1640791981.755460,-0.263661030,0.655709680,10.164162640,0.074338910,-0.083108250,0.035357480
1640791981.756470,0.053068220,0.755054590,9.390173910,0.028674300,-0.013211370,0.035808980
1640791981.761299,-0.078433540,0.553212820,10.562172890,0.012908880,-0.017230210,0.046139960
1640791981.761940,-0.264452130,0.538178270,10.688448910,0.064010900,-0.050063430,0.048193330
1640791981.765370,-0.246489630,0.428204660,9.984901430,0.060358640,-0.176852930,0.029230120
1640791981.766340,-0.151081000,0.508633320,9.709873200,0.000545380,-0.085651880,0.051505860
1640791981.770390,-0.112993830,0.495240570,9.680380820,-0.050921750,0.025726860,0.049220030
1640791981.771319,-0.113871010,0.101180200,10.722900390,-0.022721290,-0.044353300,0.050170720
1640791981.775460,0.076556250,0.217133600,10.344306950,0.059744720,-0.082848970,0.039128960
1640791981.776379,0.051076410,0.352508400,9.906708720,0.020824370,-0.098939250,0.020898880
1640791981.783020,-0.057999800,0.381991330,10.095649720,-0.072494160,-0.054930150,0.060105320
1640791981.783480,-0.198101820,0.230080660,9.961838720,-0.082616510,-0.063425310,0.051811340
1640791981.785390,-0.122037070,0.101806950,10.067178730,-0.011922420,-0.089795890,0.033169980
1640791981.786579,0.208755300,0.428214670,9.515593530,0.031761830,0.003612040,0.048723820
1640791981.790589,0.069026400,0.360759080,10.189911840,-0.023020810,-0.002108510,0.044219200
1640791981.791710,-0.014692610,0.062400070,10.732160570,-0.053630770,-0.049164890,0.063371660
1640791981.795780,0.087378260,-0.078565480,9.697444920,-0.007553400,-0.116735720,0.065994270
1640791981.796460,0.032840580,-0.181440000,9.617847440,0.012682380,-0.073112560,0.055187950
1640791981.800350,0.192707750,-0.106917280,9.561627390,0.003011530,0.094726690,0.047001250
1640791981.801339,-0.016862560,-0.246398990,10.432687760,-0.004801150,-0.000832970,0.016589460
1640791981.805529,-0.183492120,-0.236147550,10.723654750,0.049909950,-0.089903180,0.032609700
1640791981.807180,-0.051439930,-0.014637150,9.219610210,0.045371060,-0.093626980,0.038304930
1640791981.811240,-0.292253820,-0.042155190,9.787014010,0.005343560,-0.043754280,0.037436190
1640791981.811879,-0.249657200,0.040806930,9.916801450,0.039574500,0.057287510,0.044628970
1640791981.815379,-0.046739060,0.174250980,9.871713640,0.064015400,-0.026080010,0.020641090
1640791981.816350,-0.085358850,0.165364490,10.492725370,0.090372570,-0.043095650,0.050789130
1640791981.820390,0.029691530,0.153642970,9.787613870,0.072266170,-0.023873150,0.053183730
1640791981.821790,-0.281026810,-0.044005690,10.233468060,0.053767860,-0.102557260,0.036194920
1640791981.825480,-0.272415280,-0.102770920,9.728167530,0.089770550,-0.060302010,0.040215250
1640791981.827270,-0.074111250,-0.076763990,9.382794380,0.093191860,-0.020481650,0.012511010
1640791981.830330,-0.217349340,0.163903670,10.510007860,0.082983080,0.005368890,0.007286670
1640791981.831319,-0.123087670,0.410900860,10.358212470,0.063128770,-0.026805700,0.028219820
1640791981.835420,-0.124924130,0.365171520,10.211639400,0.043593350,-0.125044630,0.017203400
1640791981.837299,-0.142638460,0.517659960,9.840950010,0.084023190,-0.061438990,0.035260620
1640791981.840479,-0.149494160,0.574207480,9.842530250,0.073936580,-0.003431740,0.028589370
1640791981.841390,-0.280986310,0.565223570,10.455611230,0.043204430,-0.056706370,0.036500390
1640791981.845990,-0.046999250,0.487881960,10.026056290,0.040674210,-0.068260730,0.047852090
1640791981.846769,0.112353470,0.250261250,10.084750180,0.030243400,-0.032019620,0.022403900
1640791981.850380,-0.038459400,0.284362850,10.410545350,0.045724210,-0.008194150,0.031951070
1640791981.851349,-0.129132210,0.334557620,10.441782000,0.033365190,-0.094708800,0.024424500
1640791981.856490,0.032149150,0.435790660,9.807976720,-0.015610460,-0.101704900,0.018279250
1640791981.857519,0.266830350,0.556584000,9.391602520,-0.036910180,0.007665160,0.029537080
1640791981.861179,0.162685830,0.459203270,10.620935440,-0.024034080,0.052486360,0.020568070
1640791981.861770,-0.001377620,0.485935150,10.783503530,0.020422040,-0.024220350,0.016331670
1640791981.865350,-0.043992990,0.517895280,10.217327120,0.012128050,-0.149616600,0.023142990
1640791981.866410,-0.174756780,0.396905600,9.787801740,-0.055046390,-0.046178700,0.036588310
1640791981.870410,-0.144779650,0.273650940,9.471988680,-0.095786140,0.034949180,0.042101740
1640791981.871500,-0.057765820,0.009436280,10.398703580,-0.033357740,0.007246430,0.026275220
1640791981.875429,0.221838470,0.074179700,10.159163480,0.021554530,0.037126250,0.016695260
1640791981.877840,0.376683530,0.240417330,9.932986260,-0.013263520,-0.004607440,0.027878580
1640791981.880349,0.086323680,-0.010789150,10.633863450,-0.070080170,-0.014996530,0.042891500
1640791981.881330,0.092364380,-0.131673600,9.688900950,-0.048996500,-0.037075580,0.027240810
1640791981.885540,0.116751020,-0.176352620,9.575663570,0.009882450,-0.022336840,0.015415250
1640791981.889070,0.067149270,-0.078667880,9.735208510,0.023885070,0.122277440,0.028158720
1640791981.890370,-0.073800520,-0.045616640,10.316286090,-0.001277030,0.078685570,0.010569390
1640791981.891369,-0.322148110,-0.187060460,10.847136500,0.008352100,-0.050449380,0.025573370
1640791981.895320,-0.235374360,-0.037357870,9.371009830,0.026395920,-0.060552370,0.016582010
1640791981.896400,-0.072192610,-0.004510880,9.214137080,0.010423360,0.039049980,-0.002773110
1640791981.900349,-0.076002480,0.013469440,10.105763440,0.026044250,0.154098840,0.013044480
1640791981.901520,0.002713400,0.124043950,10.546672820,0.056315960,0.052842500,-0.000245870
1640791981.905429,0.099750050,0.076775190,10.427544590,0.065916760,-0.052097440,0.013399120
1640791981.906469,0.082414140,0.116320360,9.631038670,0.040458140,0.003160540,0.032253560
1640791981.910380,-0.161457300,-0.082211450,9.839365010,0.044693050,0.045469400,0.011283160
1640791981.911360,-0.305031900,-0.032888570,10.134480480,0.071375080,0.026503210,0.014236570
1640791981.915340,-0.148894980,0.311081530,9.774823190,0.071024880,0.023819510,-0.005967920
1640791981.916420,-0.037067600,0.319008890,10.105081560,0.043386220,0.055959820,-0.005477670
1640791981.920980,-0.123941570,0.584049760,10.487090110,0.020220880,0.064250830,0.006820260
1640791981.921820,-0.341711760,0.565982700,10.482348440,0.034596020,-0.016805530,-0.006787480
1640791981.925880,-0.297948720,0.487085160,9.954537390,0.052820150,-0.047710550,0.006365780
1640791981.926420,-0.223348380,0.754740830,9.454088210,0.023177270,0.032290820,0.017090140
1640791981.930339,-0.249023170,0.497940840,10.232038500,-0.024218850,0.075323860,0.024442380
1640791981.931360,0.020515010,0.318186070,10.371359830,-0.014239550,0.051376230,0.032475590
1640791981.935390,0.079961060,0.200492890,10.412633900,0.033439700,-0.007426740,-0.002324580
1640791981.937140,0.143126060,0.212085750,10.214281080,0.015987460,0.007945300,0.006797910
1640791981.940400,0.193442030,0.410101230,9.782155990,-0.048168000,0.025990610,0.022195280
1640791981.942380,-0.067489650,0.213110450,10.222142220,-0.065818440,0.002683700,0.006923080
1640791981.945400,0.144977910,0.311610580,9.758331300,-0.027467310,0.042937700,-0.000008940
1640791981.946859,0.070498850,0.497008030,9.835885050,-0.012843310,0.066085160,-0.002996620
1640791981.950460,-0.242434160,0.372478750,10.669784550,-0.026172400,0.050894920,0.006799400
1640791981.951560,-0.166852370,0.381371770,10.128152850,-0.047470630,0.005410610,0.017482040
1640791981.955449,-0.221094160,0.131653200,9.937893870,-0.046263640,-0.025194890,0.027787690
1640791981.956420,0.086850410,0.079218170,9.561174390,-0.037157540,0.104275350,0.037477910
1640791981.960320,0.274309190,-0.064997020,9.758146290,-0.024060910,0.156378760,0.019119680
1640791981.961390,0.102219580,-0.279816030,10.736282350,0.007154050,0.056824090,0.012890990
1640791981.965540,0.186414470,-0.089159400,10.006751060,0.018958750,-0.007066130,0.013272460
1640791981.966770,0.090297280,-0.120056700,9.393149380,-0.034989420,-0.005531310,0.008425120
1640791981.970610,-0.122970570,-0.143690650,9.839015960,-0.039952990,0.103312730,0.011453030
1640791981.971360,-0.046358380,-0.056948600,9.886395450,0.026044250,0.139424220,-0.020684300
1640791981.975780,-0.206444740,0.188552530,10.402582170,0.066617130,0.047431890,-0.009229780
1640791981.976470,-0.128203540,0.495171610,9.946891780,0.035648050,0.058005750,0.024187570
1640791981.980500,-0.236451510,0.252311290,9.759682660,-0.039613250,0.052298610,0.019884110
1640791981.981609,-0.364833240,0.031913770,10.115365980,0.007183850,0.046692780,0.018090010
1640791981.985410,-0.243834380,0.013698990,9.733911510,0.084932160,0.070197880,-0.004352630
1640791981.986400,-0.092427050,0.140879570,9.942941670,0.059446700,0.071530050,-0.006398560
1640791981.990450,-0.043211240,0.193510350,10.365671160,0.012528900,0.110968950,0.010047850
1640791981.991410,-0.115518580,0.009218820,10.398938180,-0.009380280,0.018058720,-0.008794670
1640791981.995360,-0.202818830,0.113989740,9.964268680,0.044898690,-0.023649630,-0.003980100
1640791981.996400,-0.158308160,0.402322980,9.433278080,0.062456730,0.028645990,-0.008086860
1640791982.000370,-0.147516410,0.638011630,9.789720540,-0.009088220,0.098079440,-0.001576540
1640791982.001370,-0.118504440,0.774055660,10.367660520,-0.031477220,0.090244410,0.017492470
1640791982.005839,-0.047659590,0.570836480,10.573266980,-0.013701620,0.019806630,0.012044610
1640791982.007030,-0.027871990,0.521366000,10.088871000,0.022372610,0.031103200,0.002159180
1640791982.010630,-0.234747220,0.543532070,10.042345050,0.011917950,0.024107100,-0.006632510
1640791982.011690,-0.365704690,0.353273900,10.194474220,-0.064469870,0.003317000,0.014248490
1640791982.015920,-0.022720270,0.174341290,9.330276490,-0.066828710,0.036525720,0.015132130
1640791982.017380,0.192388250,0.028459100,9.804761890,-0.033226610,0.092540690,-0.003516670
1640791982.020390,0.174567280,0.278950480,10.401355740,-0.019361080,0.147640680,0.005401670
1640791982.021770,0.058166930,0.185636060,10.440599440,-0.037471940,0.004181270,0.014117360
1640791982.026290,-0.076893350,0.055052120,10.264984130,-0.056731700,-0.070863970,0.014360250
1640791982.026970,0.078853440,0.195715410,8.911355970,-0.045774880,0.053870690,0.009286400
1640791982.030540,-0.005626840,0.125381600,9.567238810,-0.053942210,0.115662810,0.001956520
1640791982.031370,-0.155648740,0.037561190,10.654495240,-0.014066700,0.161042810,0.009082260
1640791982.035380,-0.177305400,0.010434570,10.321050640,0.020559130,-0.000949200,-0.004957620
1640791982.036419,-0.185013260,0.082075980,10.018560410,-0.013196470,-0.076794630,0.006647410
1640791982.040500,-0.045568610,0.153833060,8.908939360,-0.058978790,0.093704450,0.015437600
1640791982.041839,-0.056726680,-0.084428690,9.636590960,-0.055776540,0.128325830,-0.014774500
1640791982.047639,-0.050588400,0.063941860,10.514614110,0.035570560,0.110894460,-0.010001660
1640791982.049190,0.102034260,0.143182310,9.875200270,0.059638920,0.028614700,0.000484290
1640791982.050310,-0.082154150,0.032963690,10.160275460,0.008933250,-0.011895600,0.009293860
1640791982.051380,-0.318136330,0.080353470,9.731616020,-0.024326150,0.056843460,0.017786030
1640791982.055930,-0.457357620,-0.161175620,9.785919190,-0.007846950,0.008632240,-0.008219480
1640791982.056769,-0.324724020,0.122765970,9.840583800,0.058472160,0.058399140,-0.011976060
1640791982.060370,-0.192068070,0.411719830,9.750142100,0.046813490,0.095811490,-0.016538800
1640791982.061450,-0.227784870,0.411954280,10.655871390,-0.007677080,0.039543210,-0.012867150
1640791982.065349,-0.212177500,0.568941590,10.146983150,-0.013114510,-0.000357630,0.004200640
1640791982.066390,-0.206159620,0.378490030,9.787851330,-0.006484990,-0.044700500,-0.014792380
1640791982.070420,-0.140677390,0.407916960,9.727642060,0.027680400,0.045889620,0.002826750
1640791982.071519,-0.178646860,0.535111010,9.853720660,-0.003489850,0.065189610,0.002039970
1640791982.077080,-0.144203860,0.222794890,10.479201320,-0.028948490,0.008638200,0.016850230
1640791982.077710,0.072059640,0.270466770,9.797555920,-0.007732210,0.004868210,0.014156100
1640791982.081709,-0.095526980,0.333988580,10.031439780,-0.027309360,-0.012978910,-0.002689660
1640791982.082549,-0.147435720,0.361234640,10.167078970,-0.038875630,0.035364930,0.014497340
1640791982.085379,-0.107396160,0.467812960,9.835149770,-0.054076320,-0.015419720,0.001555680
1640791982.086419,-0.074705350,0.375480800,10.166820530,-0.034873190,-0.001600380,-0.001914800
1640791982.090430,0.172863130,0.521531820,9.570489880,-0.034196680,0.085456680,0.002998110
1640791982.091480,-0.122079250,0.392939630,10.379152300,-0.064153980,0.016418100,0.011952220
1640791982.095630,-0.304587900,0.034922880,10.480734830,-0.035986300,-0.022551420,0.033470990
1640791982.096390,-0.029708600,0.084835460,9.187737460,-0.021338460,-0.057607890,0.020343060
1640791982.100309,-0.006654770,0.080502900,9.599213600,-0.052636860,0.035125020,0.027476250
1640791982.101359,0.211656210,0.031125100,9.704298970,-0.074578820,0.171610730,0.039255610
1640791982.105729,0.090600790,-0.124771380,10.613973620,-0.035344060,0.028292830,-0.004693870
1640791982.106469,-0.039119850,0.065382680,10.447623250,0.029248000,-0.065815450,0.013615190
1640791982.111009,0.020850750,0.245258540,8.959150310,-0.012618310,-0.043065850,0.003351270
1640791982.114100,-0.290246460,0.135441050,9.621451380,-0.079450010,0.031754380,0.015290080
1640791982.115450,-0.362409380,0.028190490,9.913014410,-0.029209260,0.106877090,0.013390180
1640791982.116479,-0.224880710,-0.003857020,10.063091280,0.038282570,0.004445020,-0.017847120
1640791982.120380,-0.189728740,0.209545670,10.067736630,0.050510470,-0.004522500,0.008007880
1640791982.121420,-0.054081280,0.217988630,9.677946090,-0.026579200,0.025276840,0.013862550
1640791982.125870,-0.218097610,-0.071370640,10.131242750,-0.048743190,-0.010743740,0.012242790
1640791982.127100,-0.176819490,-0.040104650,9.658167840,0.031362470,-0.016775730,0.020337100
1640791982.130360,-0.009992790,-0.028373310,9.511022570,0.056853900,0.015710290,-0.013118990
1640791982.131399,-0.151542290,0.171658290,10.148390770,0.029300150,0.055986650,-0.003752110
1640791982.135360,-0.280440750,0.280271680,10.365507130,0.000356140,-0.021992620,0.010521710
1640791982.136380,-0.315032060,0.125475670,10.095955850,-0.001384320,-0.091229370,0.001420080
1640791982.140470,-0.205406830,0.354463520,9.363593100,0.032629080,-0.035271050,-0.000487270
1640791982.141660,-0.246790890,0.445603730,9.945816990,0.034798670,0.051622090,-0.012306870
1640791982.147729,-0.298337220,0.653803710,10.348507880,-0.005479160,0.008094310,-0.009286400
1640791982.148579,-0.075539250,0.767401040,9.999151230,-0.034700340,-0.090837480,0.002017620
1640791982.150339,0.098464510,0.535023030,9.766148570,-0.040547540,-0.028051440,-0.001335140
1640791982.151379,-0.013208220,0.543592330,9.762416840,-0.017429890,0.026944280,0.005942580
1640791982.155789,-0.253683090,0.372836260,10.608452800,-0.005272030,-0.049120190,0.009454790
1640791982.156839,-0.189771320,0.245373410,9.964628220,-0.035534810,-0.083072500,0.004377960
1640791982.161720,0.007338370,0.303799330,9.377978320,-0.077010710,-0.054495040,0.006438790
1640791982.162340,-0.061736260,0.269703030,10.176249500,-0.091031190,0.039714580,0.007793310
1640791982.165370,0.068318510,0.298924570,9.967914580,-0.070479510,0.021423400,0.004079940
1640791982.166410,0.098371400,0.325799490,10.280375480,-0.022149090,-0.082552430,-0.014455620
1640791982.170369,0.111020870,0.541562970,9.802399640,-0.048531600,-0.025738780,0.006096070
1640791982.171870,0.109903490,0.560667930,9.423001290,-0.117968030,-0.014735760,0.006395580
1640791982.175580,-0.062695720,0.193514020,10.262554170,-0.118048510,-0.008173290,0.014951830
1640791982.177179,0.040262760,0.082733070,9.645078660,-0.043135880,0.014935430,0.011169910
1640791982.180590,0.089276050,0.070742120,9.789948460,-0.008927290,-0.015392900,-0.005780160
1640791982.182520,-0.031182670,0.039776940,10.052666660,-0.060920420,0.030124190,0.025339430
1640791982.185380,-0.025516070,-0.096140370,9.781561850,-0.105966640,-0.005453820,0.006575880
1640791982.186410,0.057128850,-0.353960780,9.853042600,-0.054624680,-0.029699510,0.000725690
1640791982.190519,0.197416870,-0.073823500,9.371922490,-0.000655650,0.057832900,-0.012640660
1640791982.191589,0.160692300,0.064909980,9.756156920,-0.001044570,0.067389010,-0.020088260
1640791982.195510,-0.022301220,0.012395100,10.373449330,-0.030653180,0.015509130,-0.008399790
1640791982.196610,-0.140148330,0.088735680,9.809078220,-0.017099080,-0.042822960,-0.004602970
1640791982.200349,-0.179090400,-0.084142610,9.351104740,0.011782350,-0.046050550,-0.000001490
1640791982.201429,-0.233840290,0.124169850,9.455127720,0.011004510,0.074306140,-0.004057590
1640791982.206810,-0.310022890,0.175918330,9.969038960,0.003707410,0.074458120,-0.025466080
1640791982.208520,-0.194057050,0.076349100,10.275274280,0.012612340,-0.018021470,-0.001254680
1640791982.210379,-0.020952500,0.243470530,9.659722330,0.036181500,-0.020220870,-0.001694260
1640791982.211490,-0.113985850,0.080129010,9.721040730,0.016106670,0.010171530,-0.005349520
1640791982.215390,-0.223049340,0.105127630,10.084314350,0.025397540,0.017738340,-0.009962920
1640791982.216410,-0.272430000,0.156891180,9.811195370,0.035648050,-0.024881960,-0.023794180
1640791982.220290,-0.083311710,0.210150790,9.682209970,0.021623070,-0.033861400,-0.010187920
1640791982.221500,0.025871250,0.535164360,9.668733600,0.015661120,0.057514020,-0.014638900
1640791982.225469,-0.238234830,0.558349490,10.434486390,-0.015334780,0.012773280,-0.013937060
1640791982.226440,-0.205560540,0.570381880,10.170700070,-0.000852350,-0.070877380,0.009675320
1640791982.230360,-0.207470920,0.607973040,9.372719760,0.013534730,-0.067369640,-0.014467540
1640791982.231429,-0.221300210,0.667138930,9.639461520,-0.031656030,0.016069410,-0.007303060
1640791982.235370,-0.155447930,0.760873140,9.975750920,-0.071223080,0.055073210,0.005000830
1640791982.236460,-0.231703370,0.429380210,10.495541570,-0.069229300,-0.053347650,-0.012305380
1640791982.240460,0.001773540,0.335168960,9.957104680,-0.027771290,-0.040073690,-0.005750360
1640791982.241850,0.012746580,0.475242170,9.517968180,-0.050768250,-0.018371640,-0.014133750
1640791982.245420,-0.186577600,0.386867170,10.188302040,-0.106236330,-0.014369190,0.006571410
1640791982.247370,0.101951950,0.336463420,9.554897310,-0.106386860,-0.009782610,0.010555980
1640791982.250360,0.161046400,0.238433410,9.645051960,-0.087358060,-0.038170820,-0.013124940
1640791982.251390,0.194794830,0.352756500,9.955009460,-0.065594910,0.056898600,0.004874170
1640791982.255400,0.108201590,0.276016620,9.981639860,-0.088272990,0.020204490,-0.010323530
1640791982.256590,-0.262967500,0.177483560,10.448929790,-0.103168200,-0.089538080,-0.000479820
1640791982.260419,-0.084213850,0.222312050,9.224644660,-0.096733880,-0.040355320,0.001323220
1640791982.262120,0.001347850,0.115346600,9.069096570,-0.119104990,0.021722910,-0.004841390
1640791982.265390,0.019821120,0.037577280,10.046881680,-0.076551740,0.116886220,-0.000813600
1640791982.266409,0.162549930,0.065018870,10.084043500,-0.044296690,0.050209470,-0.010401010
1640791982.270470,0.121796500,0.074795220,10.096795080,-0.060297550,-0.076508520,0.001768770
1640791982.271479,0.145992010,0.032853850,9.290114400,-0.083634240,0.003559890,0.018818670
1640791982.278139,-0.003039870,-0.232290130,9.450389860,-0.089763100,0.033809240,-0.010383130
1640791982.279219,-0.230798870,-0.150247900,9.980369570,-0.014768540,0.040529670,-0.016479200
1640791982.280340,-0.091856280,0.082210710,9.508866310,0.000382960,0.027619300,-0.022380050
1640791982.281730,-0.145737860,0.083465420,9.977907180,-0.051625070,0.029225650,-0.012682380
1640791982.285480,-0.389592170,0.183623110,10.092195510,-0.043690210,0.036527220,-0.001312790
1640791982.286630,-0.329261180,0.155461560,9.829603200,-0.036883350,-0.059795380,-0.005887450
1640791982.290730,-0.080070770,0.308291790,9.230420110,-0.004418190,0.002889340,-0.003559890
1640791982.295320,0.122576520,0.541748940,9.443758010,-0.023652610,0.106611870,-0.021022560
1640791982.295770,0.001622820,0.517728450,10.571570400,-0.064633790,0.072284050,-0.010235610
1640791982.296419,0.050351710,0.379579780,10.174691200,-0.030706820,-0.049054620,0.001701710
1640791982.300330,0.042668320,0.220666170,9.614759450,-0.014798350,-0.077681240,-0.018458070
1640791982.301600,-0.117225710,0.305899920,9.326847080,-0.039282440,0.057932740,0.003260370
1640791982.305450,-0.378841760,0.262099440,9.962625500,-0.061425560,0.041057170,0.004175310
1640791982.306970,-0.314263250,0.209045040,10.292914390,-0.074298690,-0.015729660,0.005283950
1640791982.310959,0.043482780,0.415613980,9.276289940,-0.046893950,-0.003145640,0.005497040
1640791982.313410,0.119735550,0.549461720,9.833076480,-0.061988840,0.045239930,-0.000534950
1640791982.315379,0.002820840,0.589045760,10.143450740,-0.086617470,0.085429850,0.010970240
1640791982.316450,-0.054830750,0.405654820,9.936642650,-0.072839850,-0.067599100,0.006997580
1640791982.320410,-0.001332610,0.282911270,9.723973270,-0.049375000,-0.051555040,0.009727480
1640791982.321630,0.239430740,0.446929310,8.753825190,-0.089989610,0.082917510,0.022645300
1640791982.325430,0.098395100,0.138749170,10.087317470,-0.123409930,0.094045700,0.014632940
1640791982.327260,0.007522380,-0.010544800,10.378861430,-0.072382390,0.066369780,0.008264180
1640791982.330360,0.067771460,0.068669930,9.464937210,-0.026220090,-0.064776840,0.000266730
1640791982.331380,-0.085868120,0.089394660,9.489351270,-0.065556180,-0.012266640,0.023731590
1640791982.335430,-0.119877050,0.122247060,9.084967610,-0.124229500,0.112612530,0.020803510
1640791982.336449,-0.212784190,-0.178043370,10.047158240,-0.083144010,0.048300630,-0.003843010
1640791982.340410,-0.150152470,-0.003383430,10.004176140,0.005094710,0.045853850,-0.000368060
1640791982.341519,-0.030356890,0.173067550,9.457257270,-0.012865660,0.034731630,-0.003744660
1640791982.345389,-0.269384950,-0.006128570,10.146982190,-0.066290800,0.007118290,-0.000649690
1640791982.346500,-0.158277110,0.114884110,9.365550040,-0.074155640,0.015775860,0.009831790
1640791982.350380,0.011368210,-0.010643520,9.155189510,-0.031173230,0.018423800,-0.003658240
1640791982.351390,0.092323750,0.112043880,9.617053990,0.003920500,0.107000780,-0.000824030
1640791982.355860,0.042549380,0.373323740,10.022610660,-0.015197700,0.083616380,-0.012093780
1640791982.356720,-0.142002240,0.141947930,10.375719070,-0.040498380,-0.040631000,0.002588330
1640791982.360370,-0.167201130,0.216964220,9.614225390,-0.039404640,-0.025968260,0.006453690
1640791982.361420,-0.345427130,0.177012700,9.353883740,-0.026889150,0.033304100,-0.018666680
1640791982.365599,-0.442940740,0.192080040,9.880341530,-0.015276670,0.059074160,-0.016215440
1640791982.367020,-0.283123430,0.494693130,9.862422940,-0.021128360,0.045625870,-0.007203220
1640791982.370329,-0.077171050,0.338303120,9.877912520,-0.052405900,-0.008200110,-0.000901520
1640791982.371650,0.120390120,0.482158600,9.796619420,-0.060068070,0.034920870,0.007885690
1640791982.375429,0.024727840,0.498447570,9.943541530,-0.061205030,0.060550870,0.010396540
1640791982.378379,-0.026061210,0.281609120,10.100778580,-0.044146180,-0.012397770,0.018005070
1640791982.380360,0.129759180,0.402564820,9.480993270,-0.031508510,-0.010393560,0.009734930
1640791982.381940,0.163877080,0.243380160,9.357641220,-0.080721090,0.063605610,-0.003369150
1640791982.385399,0.165878520,0.223130610,9.790125850,-0.087982400,0.105939810,0.008699300
1640791982.386459,-0.105270620,0.047969450,10.334824560,-0.058569010,0.031234330,-0.004090370
1640791982.390470,-0.180983750,-0.005448810,9.920607570,-0.034092380,-0.050218410,-0.003951790
1640791982.391399,0.001379160,0.292787970,9.094720840,-0.048060710,0.008887050,0.002315640
1640791982.395340,-0.019249450,0.180408660,9.433529850,-0.103256110,0.133849700,0.014187400
1640791982.396450,0.121485270,0.076544580,10.022863390,-0.070428850,0.142891720,0.016905360
1640791982.400380,0.132139030,0.032742520,10.177545550,0.007154050,0.033220650,0.004597010
1640791982.401409,0.040093300,0.063826060,9.752455710,0.011101370,-0.013020640,0.010389090
1640791982.405439,0.040939830,0.139251530,9.112254140,-0.047110020,0.042085350,0.024087730
1640791982.406469,-0.140086380,-0.185393840,9.586407660,-0.085434320,0.083766890,0.010141730
1640791982.410380,-0.024675360,-0.193167910,9.717108730,-0.008355080,0.114597380,-0.015071040
1640791982.411430,0.140736280,0.067280900,9.636255260,0.054821380,0.085794930,-0.021696090
1640791982.415710,-0.034113260,0.191494170,10.139610290,0.009766220,0.069697210,-0.010499360
1640791982.416460,-0.040812510,0.212787460,9.642992970,-0.029435750,0.055257980,-0.007924440
1640791982.420320,-0.192220880,-0.059449240,9.593999860,-0.008957090,-0.002913180,0.001426040
1640791982.421650,-0.119914710,-0.038147680,9.249114990,0.061608860,0.100632030,-0.002452730
1640791982.426270,-0.004367500,0.050233550,9.473533630,0.069412600,0.147829950,-0.016643110
1640791982.426800,-0.283547490,0.093267170,10.706793790,0.033223630,0.083324320,-0.004760920
1640791982.430440,-0.121251350,0.163736520,9.765958790,0.024273990,0.006738310,-0.000019370
1640791982.431440,-0.075762200,0.091009220,9.388831140,0.018648810,-0.006084140,-0.019632280
1640791982.435380,-0.165513520,0.365429310,9.509923930,0.049978500,0.140962000,-0.021554530
1640791982.436479,-0.114636930,0.583999400,9.725198750,0.044398010,0.112389030,-0.026337800
1640791982.440430,-0.088347990,0.591310860,10.380937580,0.013963880,0.031079360,-0.008107720
1640791982.441520,0.099556940,0.475642830,9.544083600,0.021587310,0.064489250,-0.004820530
1640791982.445390,0.028804190,0.305371170,9.828519820,0.020980830,0.055426360,-0.023205580
1640791982.446750,-0.305566190,0.368798430,10.117461200,0.029756130,0.086416310,0.014382600
1640791982.450349,-0.285612790,0.199023870,9.540685650,0.006294250,0.009199980,-0.012730060
1640791982.451439,-0.169141190,0.239972980,9.674271580,-0.006704030,0.032468140,-0.014282760
1640791982.455340,-0.025029680,0.459542300,9.365955350,-0.021280350,0.136584040,0.001384320
1640791982.456470,0.082532700,0.234284920,10.165771480,-0.018955770,0.106580560,-0.008843840
1640791982.460350,0.166268620,0.306912420,10.260498050,0.027172270,0.078767550,-0.006030500
1640791982.461799,0.140132250,0.488996240,9.668148040,0.012870130,0.028365850,-0.013080240
1640791982.465350,0.019614230,0.357452660,9.671086310,-0.043717030,0.051875420,0.007630890
1640791982.466420,-0.027717560,0.319233270,9.253963470,-0.049658120,0.092676270,0.018464030
1640791982.470739,-0.039838050,0.084951590,9.649580000,-0.007012490,0.085608650,-0.006432830
1640791982.471480,0.102598150,0.132755130,9.632414820,0.038509080,0.145004730,-0.000827010
1640791982.476320,0.040978800,0.260624590,9.829751010,0.002336500,0.105367600,0.004763900
1640791982.476960,-0.127738390,-0.073589700,10.338759420,-0.029823190,0.077795980,0.019221010
1640791982.480379,0.016327260,-0.064602430,9.281981470,-0.007556380,0.047126410,0.009992720
1640791982.481459,-0.027606750,-0.086342920,9.283489230,0.024953490,0.083716210,-0.009053950
1640791982.485370,0.095762800,-0.043462420,9.368255620,0.033429270,0.197643040,0.003361700
1640791982.486580,-0.051054690,0.070798410,9.970482830,0.028027590,0.125603390,-0.009895860
1640791982.490409,-0.239744870,-0.073368040,10.242944720,0.050641600,0.035011780,0.003169480
1640791982.491479,-0.030449910,0.052601830,8.909961700,0.044427810,0.050522390,0.007364150
1640791982.496270,-0.262272030,0.014946550,9.424207690,0.039358440,0.118117040,-0.008785730
1640791982.496800,-0.244905020,0.034694400,9.768836980,0.055523220,0.178931670,-0.007312000
1640791982.500320,-0.111093580,0.173965130,9.789626120,0.078119350,0.075255330,-0.005592410
1640791982.501479,-0.127349380,0.098026440,9.866234780,0.091037160,0.051705540,0.007097420
1640791982.505440,0.012944400,0.184555920,9.214328770,0.061675910,0.102858250,0.003024940
1640791982.506480,-0.275261880,0.116248950,9.943607330,0.056777900,0.075547400,-0.004011390
1640791982.510490,-0.325598720,0.142266390,9.722030640,0.080712150,0.067700450,-0.005754830
1640791982.512329,-0.055835310,0.386780380,9.191412930,0.086206180,0.065915280,-0.015427170
1640791982.515329,-0.146858930,0.463174970,9.872884750,0.060030830,0.117982950,-0.011725730
1640791982.516430,-0.120376880,0.583230970,9.941511150,0.040806830,0.120577230,-0.004540380
1640791982.520640,-0.203591450,0.477012990,10.047592160,0.051042450,0.007011000,-0.007173420
1640791982.521410,-0.194523510,0.501675900,9.495083810,0.064125660,0.033855440,0.010481480
1640791982.525699,-0.058503890,0.622382820,9.182350160,0.040851530,0.098527990,0.008213520
1640791982.527190,-0.259815100,0.518854560,10.038171770,-0.005130470,0.094446540,0.017948450
1640791982.530449,-0.041221580,0.323521200,9.819086070,0.010526180,0.076931720,0.029519200
1640791982.531469,0.120693550,0.216521740,9.682788850,0.038231910,0.055870410,-0.000885130
1640791982.535460,-0.047275250,0.381461800,9.827649120,0.022195280,0.081245600,0.008915360
1640791982.536460,-0.071835170,0.352636670,9.752343180,-0.018754600,0.065162790,0.010821220
1640791982.540390,0.014804600,0.244566050,9.543798450,-0.044102960,0.029380620,0.013704600
1640791982.541580,0.154301700,0.395922210,9.154380800,-0.011375550,0.100000220,0.008997320
1640791982.548090,0.087951460,0.287178160,9.738954540,0.004406270,0.138017540,0.013135370
1640791982.548980,-0.160490210,0.240254800,10.154202460,0.005441900,0.073640050,0.028233240
1640791982.550380,-0.289270850,0.116886900,9.906042100,0.007057190,-0.018718840,0.033329430
1640791982.551479,-0.149621250,-0.092873490,9.087232590,-0.015649200,0.029122830,0.032907720
1640791982.555379,0.006219930,0.115577300,8.928127290,-0.020898880,0.154258310,0.024442380
1640791982.556460,-0.002841810,-0.134207530,10.011591910,0.007550420,0.183457140,0.007277730
1640791982.563079,0.039427630,-0.148575110,10.180206300,0.052057200,0.054328140,0.002652410
1640791982.564100,-0.026406910,0.016236850,9.465168000,0.078339870,-0.026853390,0.007522110
1640791982.565680,-0.116419090,-0.032926000,9.041229250,0.003081560,0.052879750,0.025689600
1640791982.566710,-0.170880990,0.051009800,9.199311260,-0.017496940,0.139832510,0.021652880
1640791982.570449,-0.373408880,-0.140099000,10.109318730,0.059205300,0.097671160,0.007988510
1640791982.571460,-0.136785240,0.055366800,9.792192460,0.121216480,0.046800070,0.020204490
1640791982.578990,-0.163297340,0.189248830,9.445249560,0.095316770,0.050733990,0.015720730
1640791982.584970,-0.339218560,0.049306310,9.809752460,0.020414590,0.057782230,0.015705830
1640791982.585569,-0.271319510,0.057001730,9.393700600,0.043877950,0.039634110,0.012536350
1640791982.585980,-0.204328400,-0.019355870,9.202095990,0.101371110,0.017276410,-0.007373090
1640791982.586890,0.018842960,0.249460790,9.434912680,0.124989460,0.116793810,0.004929300
1640791982.587340,-0.088124480,0.437649670,10.087445260,0.072777280,0.109072040,0.014455620
1640791982.590720,-0.384419410,0.171049100,10.646079060,0.045546890,-0.031442940,0.024148820
1640791982.592260,-0.263020660,0.233372600,9.316034320,0.094616420,-0.042238830,0.024640560
1640791982.595480,-0.368085270,0.269510360,9.031913760,0.095847240,0.009143350,0.001573560
1640791982.596459,-0.351966500,0.502373400,9.632433890,0.072993340,0.117218520,0.016151370
1640791982.600400,-0.144150730,0.631988410,9.793828010,0.036495930,0.058303780,0.018963220
1640791982.601440,-0.065279300,0.325264930,10.233576770,0.047732890,-0.025480990,0.018949800
1640791982.605559,0.103239670,0.457374270,9.595610620,0.088873510,0.031492120,0.023445490
1640791982.608440,-0.132473680,0.519979830,9.833947180,0.045587110,-0.010252000,0.019836430
1640791982.611690,-0.229420380,0.445399760,9.901150700,0.007025900,-0.017797950,0.046758360
1640791982.616740,0.170360890,0.254055740,8.920891760,0.011163950,0.020739440,0.032083690
1640791982.617329,0.047882520,0.129294370,9.737247470,0.046153370,0.071245440,0.024579470
1640791982.618899,-0.073184820,0.363476630,10.046750070,0.057290500,0.076314810,0.027671460
1640791982.620479,-0.233259420,0.233221350,10.005229950,0.003753600,-0.074176480,0.033572310
1640791982.621450,-0.302253250,0.183985620,9.466804500,-0.003419820,-0.078108900,0.041216600
1640791982.625450,0.037890010,0.198132570,8.670120240,0.015841420,0.066155200,0.029672680
1640791982.629490,0.015681520,0.172895890,9.826800350,0.015614930,0.131854410,0.032873460
1640791982.632079,-0.046267250,0.153792950,10.382315640,0.063499820,0.081653900,0.034575160
1640791982.635210,0.003844530,-0.006164720,9.840314870,0.059057760,-0.093536090,0.016742940
1640791982.636210,-0.054121740,0.054347950,9.069136620,0.040496880,-0.067529070,0.044608110
1640791982.637290,-0.098242460,0.018376440,8.728759770,0.012448430,0.076377380,0.036211300
1640791982.640489,-0.205754950,-0.054620100,9.846566200,0.021387640,0.089451670,0.022575260
1640791982.641500,-0.233002500,0.095454850,10.028498650,0.102569160,0.039283930,0.022913520
1640791982.646050,-0.177316780,0.076660130,9.708736420,0.106482230,-0.055597720,0.024488570
1640791982.649370,-0.300532760,0.060736270,9.452438350,0.077374290,-0.015121700,0.040371720
1640791982.651270,-0.486157690,-0.060849380,9.352411270,0.063036370,-0.003063680,0.028920170
1640791982.653129,-0.509803830,-0.258491670,9.610120770,0.096778570,-0.029340390,0.029014050
1640791982.655650,-0.230578010,-0.025928490,9.151932720,0.140872600,0.020404160,0.022418800
1640791982.656510,-0.123077990,0.098573350,9.845295910,0.125938670,0.021722910,0.015738610
1640791982.660400,-0.161507820,0.220837520,10.236461640,0.097419320,-0.004799660,0.031277530
1640791982.661960,-0.179285350,0.297983140,9.645177840,0.088793050,-0.100481510,0.027374930
1640791982.668370,-0.108110820,0.280727300,9.385293010,0.113868740,-0.073787570,0.021740790
1640791982.669999,-0.077539250,0.634290990,9.067982670,0.126148760,0.035947560,0.018064680
1640791982.671990,-0.282400190,0.624818380,10.079019550,0.076878080,-0.025168060,0.017991660
1640791982.674140,-0.192359780,0.534060060,10.025370600,0.074404460,-0.057701770,0.043618680
1640791982.675400,-0.226473360,0.404711540,9.455904960,0.089409950,-0.104443740,0.028567020
1640791982.676730,-0.386427940,0.284348910,9.876194950,0.091438000,-0.050805510,0.031109150
1640791982.684000,-0.383752670,0.372759040,9.580619810,0.070133810,-0.020273030,0.048179920
1640791982.685819,-0.457865000,0.209912790,10.020083430,0.045023860,-0.130181010,0.032748290
1640791982.689920,0.009249120,0.304021300,9.435121540,0.063031920,-0.051036480,0.037531550
1640791982.694569,0.202290250,0.537065680,9.250827790,0.039576000,-0.008417670,0.022239980
1640791982.698419,0.023464210,0.480381460,10.447131160,0.029209260,-0.032918160,0.036746260
1640791982.701180,0.151618230,0.488183800,9.725239750,0.052663680,-0.088769200,0.049999360
1640791982.701939,0.037935700,0.468584840,9.489912990,0.041708350,-0.165054250,0.033502280
1640791982.704219,0.018256060,0.558934330,9.318620680,0.015880170,-0.020484630,0.058858100
1640791982.704700,0.113059570,0.372491630,9.183772090,-0.016568600,0.015535950,0.051765140
1640791982.705150,-0.129505830,0.021492990,10.411601070,0.028367340,-0.037370630,0.037540500
1640791982.706390,-0.063591960,0.061564000,9.671939850,0.095035140,-0.066535170,0.044350330
1640791982.707860,-0.215607790,0.019526280,9.397633550,0.044220690,-0.140218440,0.040218240
1640791982.713570,-0.301411870,0.011344720,9.343523030,-0.018982590,-0.054410100,0.053045150
1640791982.714720,0.007647100,-0.139302460,8.974853520,-0.009018180,0.017738340,0.038658080
1640791982.715340,-0.067434100,-0.091220950,10.106866840,0.068214520,-0.006631020,0.017446280
1640791982.722570,0.049935180,0.249918680,9.844992640,0.111190970,-0.030283640,0.035339590
1640791982.723110,0.036788150,0.186044890,9.635612490,0.044205790,-0.119116910,0.033675130
1640791982.723600,-0.186836110,0.020689850,9.482596400,0.021746760,-0.090941790,0.046783690
1640791982.725420,-0.086234050,-0.066113290,8.795452120,0.058496010,-0.036127870,0.033947830
1640791982.726560,-0.148984610,-0.023978740,9.532520290,0.097040820,-0.006471570,0.032688680
1640791982.730540,-0.252276930,0.096992050,9.907199860,0.118622180,-0.002543630,0.034439560
1640791982.732720,-0.323284890,0.015826330,10.056623460,0.077259530,-0.119389600,0.031822920
1640791982.738819,-0.453974250,-0.109642010,9.585248950,0.084631150,-0.141944010,0.041221090
1640791982.739930,-0.352258150,-0.038945970,8.913847920,0.106079880,-0.073386740,0.029347840
1640791982.740419,-0.360006450,0.081737510,9.641124730,0.108468530,-0.021652880,0.010967260
1640791982.741750,-0.304871380,0.364961000,9.883068080,0.106544800,-0.065113600,0.020658970
1640791982.751979,0.059240560,0.417835770,9.622182850,0.093680630,-0.129275020,0.035372380
1640791982.753100,0.095768170,0.360233100,9.571635250,0.093899680,-0.072260220,0.047363350
1640791982.753640,-0.114799630,0.500702320,9.843564030,0.107674310,-0.077497950,0.027923290
1640791982.754089,-0.258137110,0.505454540,9.976773260,0.094532980,-0.155030210,0.033304100
1640791982.755339,-0.157199740,0.603040280,9.089238170,0.067430740,-0.140979890,0.034822520
1640791982.756840,-0.041346180,0.488831940,9.267015460,0.047841670,-0.052531070,0.024808940
1640791982.760530,-0.227545740,0.456534420,10.054612160,0.057755420,-0.020569560,0.033535070
1640791982.761459,-0.365260660,0.522345070,10.231227870,0.071080030,-0.147838910,0.032055380
1640791982.768240,-0.257028670,0.472975280,9.771622660,0.046283020,-0.198006660,0.031358000
1640791982.769029,-0.063920930,0.694118260,8.885447500,-0.006820260,-0.100813810,0.041669610
1640791982.770740,-0.017668670,0.617873010,9.634308820,-0.040662290,-0.037324420,0.026467440
1640791982.773209,0.113346160,0.371360780,10.152067180,0.004124640,-0.043727450,0.032970310
1640791982.777230,0.229532550,0.412025780,9.717728610,0.057007380,-0.142237560,0.019854310
1640791982.779600,0.151548270,0.426774860,9.695794110,0.012011830,-0.149308160,0.030110780
1640791982.790629,0.117580640,0.388100030,9.065254210,-0.086990010,-0.074757640,0.058305270
1640791982.791509,-0.050632320,0.015281070,9.627136230,-0.071355700,-0.103279970,0.039795040
1640791982.791999,0.092353660,-0.121103850,9.623352050,0.023083390,-0.046014780,0.026655190
1640791982.792529,0.199471040,0.292772530,9.230617520,0.046296420,-0.032281880,0.013901300
1640791982.792899,-0.159557660,0.267652810,10.264545440,-0.026328870,-0.072994830,0.030311950
1640791982.794809,-0.171478640,0.231096640,9.658971790,-0.087031730,-0.114466260,0.030016900
1640791982.795440,-0.195372850,0.081973460,9.143797870,-0.024823850,-0.159165260,0.012938680
1640791982.797430,-0.119911970,0.035048720,9.113998410,0.052790350,-0.018572810,0.007915500
1640791982.803030,0.021814680,0.389042560,9.344623570,0.029508770,0.042007870,0.015594070
1640791982.804000,-0.298949360,0.154964950,10.591305730,-0.012302400,-0.083927810,0.027470290
1640791982.809589,-0.109240180,-0.029330400,9.702589040,-0.011752550,-0.161458600,0.042921320
1640791982.819779,-0.097069260,-0.100556780,8.844258310,0.030803680,-0.126594320,0.026661160
1640791982.820600,-0.258178860,-0.176686910,9.524176600,0.058326130,-0.013610720,0.007933380
1640791982.821190,-0.080528670,0.177952690,9.698843960,0.040209290,0.003522630,-0.001862650
1640791982.821630,-0.098158910,0.220986750,10.068827630,0.017096100,-0.114642110,0.005537270
1640791982.822209,0.051694370,0.335784700,9.620604520,0.013324620,-0.113493220,0.020684300
1640791982.823040,-0.067802240,0.429038020,9.279531480,0.034968560,-0.081029540,0.018334390
1640791982.824530,-0.474305090,0.347270070,10.083282470,0.052024420,-0.099113590,0.011195240
1640791982.826910,-0.300462660,0.608037350,9.537747380,0.029590730,-0.096468630,0.018869340
1640791982.834300,-0.060694950,0.598189890,9.367939950,-0.015713270,-0.097671160,0.013181570
1640791982.838739,-0.000219510,0.562927310,10.038690570,-0.032410030,-0.017185510,0.024597350
1640791982.840449,0.094316790,0.638841750,9.885031700,-0.019419190,-0.053650150,0.016020240
1640791982.847930,-0.096004290,0.335827320,10.016123770,0.009053950,-0.174871090,0.010681150
1640791982.850170,0.032286360,0.427141100,9.206562040,0.013901290,-0.111795970,0.022625920
1640791982.851930,0.037458210,0.468384710,9.159273150,-0.055105990,-0.049087410,0.024743380
1640791982.853449,-0.115112110,0.275750160,10.235105510,-0.084291400,-0.042042140,0.042301420
1640791982.854009,0.118650950,0.247602540,9.876838680,-0.031401220,-0.053350630,0.022253400
1640791982.854519,0.058227350,0.257097420,9.725023270,0.002193450,-0.111600760,0.006593760
1640791982.854980,-0.018508360,0.598899480,9.599384310,-0.035652510,-0.062878430,0.026445090
1640791982.855409,-0.051353650,0.573028860,9.310679440,-0.117848800,-0.069527320,0.023955100
1640791982.855830,0.031397470,0.349369560,9.484077450,-0.111679740,-0.086894630,0.020150840
1640791982.856730,0.253086000,0.405766640,9.317256930,-0.031293930,0.019961600,0.022247430
1640791982.860750,0.173151690,0.190062960,9.890404700,-0.016963480,0.003002580,0.018668170
1640791982.864060,-0.104671510,0.067748700,10.464662550,-0.036071240,-0.068111730,0.037708880
1640791982.865700,-0.112594380,-0.121191680,9.491652490,-0.063127280,-0.134287790,0.035981840
1640791982.870570,-0.032087900,-0.366944760,8.808314320,-0.073790540,-0.084747360,0.036169580
1640791982.871120,0.126127360,-0.181418850,8.873796460,-0.029766560,0.085589300,0.023399290
1640791982.872120,0.075849890,-0.153536840,9.884242060,-0.015915930,0.080819430,0.006897750
1640791982.876020,-0.052133700,0.055405740,10.504861830,0.016880040,-0.079265240,0.007371610
1640791982.879650,-0.035247840,0.307086260,9.379536630,-0.001689790,-0.135201230,0.011678040
1640791982.883460,-0.182139960,0.210181130,9.022691730,-0.055906180,-0.058847670,0.014494360
1640791982.885670,-0.405851330,0.161336210,9.538263320,-0.002904240,0.054262580,0.007902090
1640791982.886360,-0.350383730,0.140434760,9.784960750,0.056852400,-0.015857820,0.004862250
1640791982.887490,-0.178481500,0.209705080,9.665866850,0.070084620,-0.072965030,0.033801790
1640791982.890450,0.028702280,0.150269400,9.286734580,0.019374490,-0.013636050,0.037013000
1640791982.891500,-0.050232070,-0.026715860,9.815361020,-0.031761830,-0.028604270,0.027383860
1640791982.895900,-0.030309810,0.027133150,9.721948620,0.027698280,-0.051413480,0.018650300
1640791982.898160,0.110216130,0.144743740,9.340792660,0.054030130,-0.059108450,-0.006315110
1640791982.900660,0.095864160,0.418580590,9.606725690,0.027512020,-0.002162160,-0.007836520
1640791982.902520,-0.097741890,0.538355590,9.958063130,0.002320110,-0.008019800,0.009457770
1640791982.905540,-0.270170720,0.330936370,10.150775910,-0.006778540,-0.092996660,0.006757680
1640791982.907960,-0.344813940,0.360995530,9.485608100,0.049412250,-0.102122130,0.016665460
1640791982.910509,-0.263310700,0.479919880,9.227451320,0.040633980,-0.033922490,0.017438830
1640791982.912079,-0.191352250,0.576742470,9.742321010,-0.025630000,0.037640330,0.025731330
1640791982.919600,-0.054874620,0.519413290,9.981584550,-0.034573670,-0.023075940,0.036489960
1640791982.920460,0.177863120,0.316806550,10.027467730,-0.004401800,-0.073988730,0.002232190
1640791982.922230,0.269709530,0.512288690,9.505819320,0.012487170,-0.021508340,-0.000040230
1640791982.924389,-0.024852720,0.494379220,9.840476990,-0.031755860,-0.049152980,0.012207030
1640791982.926540,-0.058079140,0.281784980,9.833042140,-0.067591670,-0.067846480,0.017885870
1640791982.928860,0.120061580,0.216010450,9.054951670,-0.040753200,-0.036796930,0.013670330
1640791982.930719,0.108655250,0.210295040,9.647953030,-0.026364620,0.035324690,0.014394520
1640791982.931589,0.016659030,0.307814120,10.075571060,-0.038136550,0.049589570,0.026962160
1640791982.937640,-0.091504910,0.279937950,9.974082950,-0.044201320,-0.081002710,0.018318000
1640791982.941929,-0.052823530,0.231366600,9.622179990,-0.052426760,-0.090855370,0.020600860
1640791982.942829,0.173050880,0.347337100,8.550053600,-0.062213830,0.026401870,0.019171830
1640791982.945500,0.096703060,0.166501030,9.720436100,-0.049421200,0.074167560,0.006629530
1640791982.946420,0.085499960,0.078913530,10.275546070,-0.011694430,0.061389820,0.002871450
1640791982.948300,0.070378680,0.099159450,9.737085340,-0.002565980,-0.076423590,0.011159480
1640791982.950840,-0.062848280,-0.030440090,9.601929660,-0.036704540,-0.070814810,0.030770900
1640791982.951690,-0.038387860,-0.015838070,8.814929960,-0.059109920,0.048758080,0.022473930
1640791982.955700,-0.059902600,-0.120256880,9.527692790,-0.021688640,0.054591910,-0.003415350
1640791982.959859,-0.022304660,0.026731480,9.914453510,0.028342010,0.055316080,-0.006657840
1640791982.965540,0.156736510,0.332145570,9.314641000,0.010009110,-0.001111630,0.004890560
1640791982.966070,-0.106577740,0.109656440,10.058741570,-0.029744210,-0.008630750,0.017529720
1640791982.966509,-0.267798960,-0.014405290,9.616754530,-0.014360250,0.001524390,0.009943540
1640791982.967340,-0.314031180,-0.110527810,9.351602550,0.059747690,-0.058986250,0.001206990
1640791982.970559,-0.201553200,-0.070419590,9.398662570,0.067792830,0.034475330,0.003644820
1640791982.972550,-0.002897260,0.199456140,9.366527560,0.004372000,0.096489490,0.011843440
1640791982.988649,-0.184193820,0.036493430,10.526280400,0.002701580,-0.009348990,0.008451940
1640791982.991910,-0.017295730,0.097723890,9.717898370,0.041273240,-0.059278320,0.015696880
1640791982.993480,0.107821730,0.306376810,8.971497540,0.067631890,-0.039201980,-0.000245870
1640791982.994480,-0.143939080,0.383279410,9.868499760,0.035284450,0.062288340,-0.007154050
1640791982.994979,-0.200712810,0.654772340,9.942070010,-0.004753470,0.034129620,0.004728140
1640791982.995499,-0.194092960,0.437563150,10.015410420,0.015743080,-0.083763900,0.009450320
1640791982.995900,-0.067159410,0.452385660,9.606067660,0.033882270,-0.004504620,0.007222590
1640791982.996630,-0.137499930,0.640848990,9.443651200,0.019341710,0.037045780,0.000293550
1640791982.999500,-0.352706700,0.362066000,10.227927210,-0.012257700,-0.038327270,0.007964670
1640791983.000160,-0.048849250,0.381963010,9.499794010,-0.026477880,-0.031477220,0.012691320
1640791983.000840,0.188333300,0.385167720,9.200256350,-0.017827750,-0.000396370,-0.002762680
1640791983.001570,0.138758080,0.402253300,10.082321170,-0.029531130,0.065007810,0.003845990
1640791983.005920,0.133431360,0.498357500,9.979356770,-0.032344460,0.027075410,0.001892450
1640791983.013080,-0.025929640,0.187855330,9.981907840,-0.012217460,-0.103758290,0.004073980
1640791983.014360,-0.032883150,0.344827260,9.309872630,-0.020149350,-0.038965040,0.006707010
1640791983.016660,-0.018035530,0.481779130,8.969772340,-0.065906340,0.047546620,0.009979310
1640791983.018119,-0.082620000,0.230845670,10.039487840,-0.083895040,0.050926220,0.021676720
1640791983.019450,0.144377260,0.266942950,9.840512280,-0.024737420,0.053563720,0.005014240
1640791983.020340,0.133359940,0.199665500,9.818034170,0.012819470,-0.021338470,-0.009411570
1640791983.022210,0.009257060,0.297728240,9.778374670,-0.031557680,-0.005628170,0.015942750
1640791983.025790,-0.085517100,0.158887220,9.250952720,-0.083948680,0.014041360,0.016319750
1640791983.031129,-0.065338830,-0.239193900,9.447841640,-0.052534050,0.001932680,0.003772970
1640791983.031649,0.099847420,0.055125430,9.341990470,0.024124980,0.102439550,0.000423190
1640791983.032060,0.014209190,0.173139010,9.694265370,0.008341670,0.075073550,0.002209840
1640791983.036379,-0.159362170,0.044895940,10.286227230,-0.033085050,-0.012324750,0.015378000
1640791983.039719,-0.161149440,0.042550970,9.356964110,-0.025154650,-0.038081410,0.008714200
1640791983.041570,-0.070635640,-0.063206870,8.975383760,0.002607700,-0.017042460,-0.005689260
1640791983.043239,-0.021244590,0.217307200,9.274559020,0.020608310,0.126367810,-0.007419290
1640791983.047089,-0.055554900,0.252718000,9.931959150,-0.004671510,0.099447370,-0.021609660
1640791983.048600,-0.193183170,0.075351400,10.642232890,0.019226970,-0.035671890,0.000557300
1640791983.050449,-0.140672620,0.097434800,9.393315320,0.046703220,-0.064255300,-0.002650920
1640791983.051730,-0.234410300,0.058016800,9.023836140,0.021094090,-0.019758940,-0.012530390
1640791983.055510,-0.319828420,0.190201480,9.630068780,0.009466710,0.088995700,0.002050400
1640791983.057090,-0.249880480,0.279809800,9.794692990,0.010417400,0.038532910,-0.014357270
1640791983.062660,-0.047354440,0.367528470,10.024352070,0.030702360,-0.043179090,-0.001974400
1640791983.066700,0.148356620,0.592220780,9.580477710,0.037129220,0.029385090,0.000756980
1640791983.067299,-0.101581130,0.606774630,9.969461440,-0.026619440,0.015719230,-0.018678600
1640791983.068400,-0.334816810,0.524132970,10.247864720,-0.016415120,-0.048200800,0.017641480
1640791983.070670,-0.199586720,0.435724500,9.232669830,0.007809700,-0.065208970,0.002141300
1640791983.073140,-0.132565900,0.423516810,9.370485310,0.001092260,0.003296140,0.000485780
1640791983.079510,-0.091736120,0.568115590,9.797700880,-0.032269950,0.089408460,0.015315410
1640791983.080430,-0.141972500,0.352573720,10.356786730,-0.055284810,-0.005625190,0.003595650
1640791983.080999,-0.112891840,0.321527300,10.112414360,-0.016561150,-0.091306870,0.011992450
1640791983.081529,0.083381390,0.560854260,9.213747980,-0.029292710,-0.044679640,0.001746420
1640791983.086520,0.107747490,0.614715930,9.483149530,-0.098542870,0.045262280,-0.003644820
1640791983.088970,0.185148080,0.557809410,9.874747280,-0.095355530,0.081555560,0.027620800
1640791983.090430,0.130349000,0.236115560,10.141860960,-0.038801130,0.000861290,0.006008150
1640791983.091730,-0.001189470,0.224801290,9.917716980,0.001536310,-0.054244690,0.008408720
1640791983.096000,-0.091467220,0.402084410,9.201471330,-0.059419880,-0.047001240,0.023393330
1640791983.098130,-0.193650680,0.136078760,9.446687700,-0.156952440,0.008000430,0.025990610
1640791983.100430,-0.023326880,-0.119374120,9.552672390,-0.094538930,0.092567510,0.014358760
1640791983.105870,0.121490750,-0.011234400,9.926317210,0.001354520,0.052909560,-0.010550020
1640791983.109360,0.119563650,0.211774800,10.154387470,0.005126000,0.020989780,-0.001668930
1640791983.111120,0.092288810,0.248650130,9.618852620,-0.070880360,-0.018396970,0.012150410
1640791983.111620,-0.159225510,-0.102405470,9.691410060,-0.098761920,-0.048662720,0.009873510
1640791983.112059,-0.137808680,-0.165513200,9.099547390,-0.010184940,0.027255720,0.006316600
1640791983.115890,-0.041477070,0.133360100,9.367884640,0.030608480,0.065457830,-0.009021160
1640791983.122900,-0.192441550,0.202785390,10.282589910,-0.013580920,0.085945430,0.003887710
1640791983.123989,-0.185830120,0.155618190,10.187571530,-0.040884330,-0.015202170,0.014084580
1640791983.124509,-0.197096450,-0.003550810,9.859305380,-0.005085770,-0.095692270,0.003656740
1640791983.125500,-0.121284050,0.035077750,8.974465370,0.028921670,0.022087990,0.004032250
1640791983.126550,-0.119774400,0.203565760,9.491176610,0.016425550,0.083296020,-0.014315550
1640791983.130910,-0.324097190,0.147129090,10.522958760,0.001467760,0.040757660,-0.009654460
1640791983.133380,-0.117597570,0.186470750,9.813451770,0.019514560,-0.069719560,0.005549190
1640791983.136600,-0.027645710,0.221882190,9.587139130,0.026769940,-0.050421060,0.000751020
1640791983.139959,-0.222315970,0.360786290,9.773887630,-0.001183150,0.064313410,0.008054080
1640791983.141009,-0.296459910,0.511619810,10.115077970,-0.001399220,-0.009591880,0.012052060
1640791983.142170,-0.241582140,0.454416780,10.123081210,0.019343200,-0.069406640,0.013369320
1640791983.147729,0.077023240,0.577490690,9.171935080,0.009894370,-0.005429980,0.006058810
1640791983.149400,0.020865140,0.716295060,9.797666550,-0.031287970,0.036068260,0.006018580
1640791983.150679,-0.238841940,0.524013700,10.493040080,-0.053112210,0.016741450,0.016602870
1640791983.151620,-0.242341060,0.354450520,9.991668700,-0.014266370,-0.108188400,0.016908340
1640791983.155880,-0.225488330,0.248194690,9.588055610,0.019398330,-0.105448070,0.012168290
1640791983.158550,-0.072410960,0.379899560,9.095281600,-0.040693590,0.050023210,0.026871270
1640791983.160600,-0.053052500,0.221861110,9.973752980,-0.078754130,0.057648130,0.025954840
1640791983.161690,-0.074054550,-0.111481800,10.642601010,-0.030760470,-0.018560890,0.024558610
1640791983.170859,0.120051060,0.000848850,9.583124160,0.043034550,-0.092853610,0.011266770
1640791983.171949,0.085403660,0.168153490,9.324230190,0.021754210,-0.066010650,0.017003720
1640791983.172459,-0.066920180,0.189436150,9.511892320,-0.073364380,0.042772300,0.028820340
1640791983.172840,-0.048533530,0.036446800,9.840641980,-0.057491660,0.009113550,0.002633040
1640791983.175690,-0.068051840,0.043369130,10.161654470,0.040380660,-0.047811870,0.000888110
1640791983.176560,-0.064865990,0.329911170,9.528975490,0.056883700,-0.017632540,0.020417570
1640791983.180570,-0.257935370,0.221345540,9.782043460,0.003400450,-0.043921180,0.015354160
1640791983.182619,-0.421640630,0.047400300,10.020832060,-0.031001870,-0.050441920,0.021184980
1640791983.185809,-0.223842980,-0.046312210,9.267666820,0.026534500,-0.031791620,0.010178980
1640791983.187610,-0.161182390,-0.054866090,9.768296240,0.058645010,-0.010979180,-0.004114210
1640791983.191059,-0.142262760,0.228855480,10.089911460,0.043337050,0.025756660,0.002872940
1640791983.192050,-0.127658950,0.243454290,10.106670380,0.011682510,-0.075432660,0.006075200
1640791983.195449,-0.179611360,0.076946030,10.158040050,0.013335050,-0.118185580,0.020903350
1640791983.196550,-0.043328530,0.229847060,9.241199490,0.059817730,-0.035934150,0.004127620
1640791983.200990,-0.141497270,0.349981550,9.834918020,0.057575110,-0.030432650,-0.005717580
1640791983.203879,-0.143110350,0.615225850,10.314271930,0.013752280,-0.004075470,0.021064280
1640791983.207260,-0.008344450,0.475184380,9.769168850,0.009675320,-0.087934740,0.018680100
1640791983.208130,0.089824700,0.334284690,9.889735220,0.033831600,-0.102835890,0.017967820
1640791983.210480,0.082344920,0.606524830,9.524976730,0.035446880,0.026881690,0.018012530
1640791983.213300,-0.215195250,0.392157910,10.184180260,0.003825130,-0.050540270,0.020311770
1640791983.220600,-0.300244690,0.242342770,10.393443110,0.013333560,-0.125497580,0.041466950
1640791983.221860,-0.061185760,0.212231840,9.068214420,0.025804340,-0.094439090,0.017257040
1640791983.222560,0.020264870,0.149328080,9.511404040,0.001826880,-0.024421510,0.023226440
1640791983.222880,0.022762580,0.203458090,10.030575750,0.015673040,0.070349860,0.033994020
1640791983.228880,0.014433890,0.057342510,10.217164040,0.032331050,-0.083839900,0.013302270
1640791983.231429,0.069998030,0.119196210,10.014792440,0.046363480,-0.146430730,0.032903260
1640791983.232880,0.120383370,0.260184440,8.908558850,0.015327330,-0.043508410,0.031247740
1640791983.235119,-0.005244310,0.008218770,9.647840500,-0.011900070,-0.004471840,0.015766920
1640791983.235790,-0.087549250,0.031008390,10.174245830,0.047533210,0.007382030,0.013707580
1640791983.236719,-0.125421750,0.149619920,9.778491020,0.085352360,-0.089415920,-0.000129640
1640791983.240960,-0.141393330,0.182257290,9.855396270,0.050681840,-0.103200990,0.020140410
1640791983.242329,-0.224014550,0.171613190,9.425945280,0.005762280,-0.007830560,0.022712350
1640791983.248540,-0.351199780,-0.093709730,9.884789470,0.038008390,-0.061649090,0.003622470
1640791983.250020,-0.212358270,0.121631780,9.847135540,0.098823020,-0.062339010,0.014233590
1640791983.251670,0.078850220,0.352461070,9.323347090,0.075306010,-0.030532480,0.009980800
1640791983.258060,0.076305410,0.257432040,10.259325980,0.037050240,-0.022362170,0.015740090
1640791983.259510,-0.081757740,0.370828990,10.253309250,0.037625420,-0.047428900,0.028046960
1640791983.260789,-0.133806140,0.267897900,9.808176990,0.058737400,-0.153067710,0.003184380
1640791983.261850,-0.107200190,0.416034940,9.539157870,0.073941040,-0.084954490,0.005099180
1640791983.267239,-0.209851400,0.796859920,9.412297250,0.025868420,-0.000447030,0.009016700
1640791983.267910,-0.248902110,0.565270360,10.307623860,-0.017473100,-0.057412690,0.020836300
1640791983.271400,-0.028383240,0.451463130,10.106810570,0.038599960,-0.067284700,0.025670230
1640791983.272990,0.016036020,0.494885090,9.766305920,0.064191220,-0.085151200,0.002858040
1640791983.273939,-0.103650730,0.413937510,10.059590340,0.025014580,-0.054927170,0.014643370
1640791983.275519,-0.163875070,0.479455230,9.861948010,-0.037156050,-0.070518260,0.027984380
1640791983.276500,0.003102000,0.145690590,9.702619550,-0.026823580,-0.107966370,0.017187000
1640791983.287979,0.229364810,0.149235000,9.484038350,0.034253300,-0.012789670,0.018526620
1640791983.288780,0.177279730,0.453890950,9.882751460,0.030229990,0.015695390,0.013984740
1640791983.289240,-0.048417610,0.210466850,10.513654710,0.000222030,-0.072960560,0.024215880
1640791983.289889,-0.005997560,0.288757620,9.686322210,-0.015902520,-0.148619730,0.032785530
1640791983.290320,0.055521180,0.213981960,9.173793790,-0.011812150,-0.080724060,0.014469030
1640791983.291509,0.164147650,0.230908600,9.331070900,-0.004553800,0.049620870,0.016608840
1640791983.299640,0.056230250,0.350527170,10.156419750,0.011810660,0.048100950,0.025707490
1640791983.300540,-0.088986570,-0.042049220,10.666586880,0.042380400,-0.074625020,0.018680100
1640791983.301000,-0.010216920,-0.015363900,9.605930330,0.045715280,-0.148949040,0.035089250
1640791983.301460,-0.168735190,-0.034602180,9.023308750,0.013810400,-0.054280470,0.034487250
1640791983.306110,-0.138679730,-0.240621890,9.400710110,-0.004908440,0.050821900,0.011996920
1640791983.313850,-0.124647420,-0.025816190,10.110055920,0.051571440,0.030739610,0.001443920
1640791983.314530,-0.097617660,0.011303360,10.175652500,0.101271280,-0.067585710,0.004015860
1640791983.314970,0.094511810,0.261040870,9.639760970,0.065577040,-0.085416440,0.019171840
1640791983.316490,-0.130853940,0.432320300,9.670476910,0.013349950,-0.023804610,0.020948050
1640791983.317340,-0.280433420,0.127833230,10.030208590,0.027215480,-0.035288930,0.011548400
1640791983.321940,-0.161300940,0.293861000,9.748317720,0.094911460,-0.061889000,0.009304290
1640791983.327679,-0.076607960,0.434282600,9.573947910,0.105458510,-0.032891340,0.001309810
1640791983.328570,-0.048342740,0.467130060,10.119501110,0.038687890,-0.008566680,0.010596220
1640791983.329919,-0.143515290,0.504887640,10.224669460,0.009827320,-0.048226110,0.015637280
1640791983.330360,-0.226386670,0.156914990,10.016137120,0.040832160,-0.123143200,0.004449490
1640791983.331499,-0.027170420,0.375467660,9.390814780,0.073334580,-0.062796470,0.014117360
1640791983.335420,-0.154266690,0.555291300,9.682061200,0.045582640,0.000926850,0.004778800
1640791983.336820,-0.164704950,0.513284090,10.378271100,-0.010478500,-0.041067600,0.020107630
1640791983.341030,0.058362550,0.553627430,9.866791730,-0.003623960,-0.077232710,0.030089910
