# timestamp,accel_x,accel_y,accel_z,gyro_x,gyro_y,gyro_z
1640788284.995250,-0.257563830,-0.197065800,9.223782540,0.094842910,-0.103333610,-0.074453660
1640788284.997560,-0.352194310,-0.173447100,9.497749330,0.062616180,-0.083382430,-0.074450680
1640788285.000209,-0.289540680,-0.042906690,9.557753560,-0.008836390,0.081087650,-0.067129730
1640788285.001780,-0.118364990,0.141873990,10.005448340,0.042501090,-0.023409730,-0.077468160
1640788285.005630,-0.262520610,0.139849930,10.508316990,0.099216420,-0.080499070,-0.093808780
1640788285.006860,0.033298160,0.345978590,9.179420470,0.114135440,-0.081990670,-0.084196030
1640788285.010259,-0.353434120,0.231314080,10.044367790,0.060538950,-0.087206070,-0.080624230
1640788285.012440,-0.438078400,0.051985700,9.922795300,0.006462640,-0.006110970,-0.082403440
1640788285.015309,-0.324839410,0.058531180,9.703345300,0.064916920,-0.102701790,-0.082612040
1640788285.016729,-0.560256540,0.098679960,10.478790280,0.072059040,-0.094841430,-0.080485640
1640788285.020579,0.059833860,0.313278680,9.102537160,0.042086830,-0.013272470,-0.070254510
1640788285.021680,-0.049258080,0.193093630,10.111376760,0.013321640,-0.075604030,-0.083704290
1640788285.025590,0.055723670,0.191384840,10.129049300,0.013683740,-0.017765160,-0.082233560
1640788285.026909,0.362490770,0.182651820,9.315764430,0.073212390,-0.081592810,-0.078000130
1640788285.030530,-0.197106110,0.031561010,10.481244090,0.041110810,-0.093062210,-0.080187610
1640788285.031659,-0.101802230,0.160639200,9.429244040,0.015819070,-0.061637160,-0.064630790
1640788285.036029,-0.343243690,-0.175397310,9.567449570,0.003698470,-0.128424140,-0.080409640
1640788285.038410,-0.382761300,-0.303053950,9.828109740,0.048728290,-0.018896160,-0.073984270
1640788285.040370,-0.204978630,-0.225287300,9.517889980,0.114277010,-0.011874740,-0.082974140
1640788285.041750,-0.450634300,-0.178521200,10.495707510,0.070624050,-0.102090830,-0.088569510
1640788285.045220,-0.083711410,0.262153180,9.317855830,0.008411700,-0.103971360,-0.052611530
1640788285.046680,-0.064874310,0.190332830,9.437552450,-0.038656600,-0.087900460,-0.088047990
1640788285.050590,-0.091680470,0.140126620,10.149034500,0.024658440,-0.000256300,-0.094169370
1640788285.052600,-0.108736520,0.355518670,9.778561590,0.123529130,-0.084254130,-0.097839530
1640788285.055280,-0.416693840,0.268955320,10.350323680,0.075259800,-0.169289110,-0.093927990
1640788285.056730,-0.197667760,0.264842660,9.344831470,-0.010225180,-0.064070520,-0.056438140
1640788285.060930,-0.460711540,-0.014432990,9.738595960,-0.049568710,-0.101599100,-0.072172290
1640788285.062019,-0.476145980,-0.062701110,10.353782650,0.025199360,-0.069737430,-0.079637770
1640788285.065260,-0.180788470,0.246051950,9.367020610,0.081837180,-0.091111660,-0.089819740
1640788285.066959,-0.179943230,0.433078500,10.002415660,-0.009113550,-0.135011940,-0.081917650
1640788285.070680,0.014014830,0.512101350,9.781402590,-0.070183000,-0.038038200,-0.049999360
1640788285.072090,-0.007521500,0.206122220,9.694067960,-0.063975160,-0.110203040,-0.080443920
1640788285.075650,-0.155764400,0.070779890,10.225849150,0.056934370,-0.145715490,-0.064978000
1640788285.076730,-0.158946620,0.058298220,9.448717120,0.074201830,-0.114230800,-0.063179440
1640788285.080360,-0.200463130,-0.202064890,9.696492200,-0.019653140,-0.095877060,-0.070130830
1640788285.082490,-0.194948990,-0.115073620,9.869738580,-0.064453490,-0.080549720,-0.052788860
1640788285.085209,-0.078841660,-0.219575780,9.612216000,-0.064437090,-0.104072690,-0.086914010
1640788285.086939,0.123617410,-0.072569620,9.692714690,0.015705830,-0.070007160,-0.096799440
1640788285.090230,-0.072014770,0.120668900,10.012195590,0.040674210,-0.095185640,-0.095212440
1640788285.092610,-0.179223750,0.073312900,9.935779570,0.012817980,-0.156427920,-0.086230050
1640788285.095209,-0.193115460,-0.047197000,9.532288550,-0.005993250,-0.109624870,-0.065992760
1640788285.096730,-0.482899040,-0.092275980,10.057951930,-0.023025280,-0.095784660,-0.074894730
1640788285.100580,-0.527063070,-0.013887940,10.058380130,0.023053580,-0.113070010,-0.077898800
1640788285.101820,-0.360972640,0.181755380,9.667603490,0.006939470,-0.153683130,-0.083073980
1640788285.105280,-0.174228620,0.254927220,9.569340710,-0.014901160,-0.087164330,-0.061310830
1640788285.107040,0.067907650,0.401595290,9.660831450,-0.030450530,-0.058335070,-0.067399460
1640788285.110289,0.046331190,0.357192990,10.376523020,-0.042374430,-0.078961260,-0.077128420
1640788285.113119,0.090522610,0.369128140,9.809910770,-0.004188720,-0.150020440,-0.071661170
1640788285.115290,-0.052602940,0.165171860,9.854606630,-0.014297670,-0.207017360,-0.071781880
1640788285.116670,-0.183725120,-0.074209370,9.486116410,-0.015482310,-0.073683270,-0.060276690
1640788285.120200,-0.182550820,-0.294767380,9.288782120,-0.013478100,-0.101546940,-0.068198140
1640788285.121680,-0.428011600,-0.349508080,10.541141510,-0.011333820,-0.099810960,-0.070083150
1640788285.125310,-0.042648400,-0.151232350,9.161623950,-0.000669060,-0.074242060,-0.055156660
1640788285.126789,-0.159848450,-0.123152570,10.045404430,-0.044226660,-0.185523930,-0.062264510
1640788285.130250,-0.246131050,0.020843680,10.014030460,-0.027641650,-0.072968010,-0.047381230
1640788285.132290,0.056755700,0.036754400,9.011090280,0.008334220,-0.152471680,-0.080840290
1640788285.135599,-0.321678400,-0.025441630,10.541625980,0.032196940,-0.112734740,-0.079344220
1640788285.136700,-0.059221700,0.342399600,9.324933050,0.016056000,-0.055442750,-0.066867470
1640788285.140390,-0.256048980,0.034627050,10.251359940,-0.033028420,-0.190041970,-0.069473690
1640788285.141749,-0.367808400,0.133405360,9.931150440,-0.013093650,-0.103007260,-0.037157540
1640788285.145360,-0.114523020,0.147859080,9.122356410,-0.008207560,-0.166741000,-0.060586630
1640788285.146960,-0.344364020,-0.045645340,10.416080470,0.019478800,-0.090494760,-0.049097840
1640788285.150200,0.013880960,0.390355230,9.278738020,0.005248190,-0.058145820,-0.057746460
1640788285.151739,-0.108156520,0.412816410,10.442985530,-0.071109820,-0.194835630,-0.052154060
1640788285.155820,0.113303570,0.442892070,9.762648580,-0.088110550,-0.054985280,-0.037381060
1640788285.156980,0.240733360,0.254105960,9.331848140,-0.062476110,-0.141344980,-0.064298510
1640788285.160380,-0.331550570,-0.113735580,10.799524310,0.038777300,-0.127279760,-0.052323940
1640788285.162220,-0.084185590,-0.036405260,9.174679760,0.039981300,-0.120913980,-0.045786790
1640788285.165670,-0.307907130,-0.244211320,9.747122760,-0.049521030,-0.193010270,-0.026229030
1640788285.166760,-0.161385150,-0.143786800,9.530466080,-0.102889520,-0.029006600,-0.001940130
1640788285.170800,0.213406940,-0.031912070,9.474826810,-0.108104940,-0.059404970,-0.052192810
1640788285.172020,0.138082670,0.130792140,10.287586210,-0.003704430,-0.046949090,-0.039246680
1640788285.175320,0.280867400,0.295950560,9.804706570,0.023846330,-0.103406620,-0.044432280
1640788285.176810,-0.163307920,0.153095290,10.224761960,-0.025279820,-0.156621650,-0.049848850
1640788285.180339,-0.118747610,0.038358210,8.946240430,-0.057303910,-0.126309710,-0.030510130
1640788285.181730,-0.333871750,-0.160138620,9.540945050,-0.075480340,-0.122416040,-0.040890280
1640788285.185400,-0.402179360,-0.204151870,9.829823490,-0.027124590,0.029015540,-0.036574900
1640788285.186710,-0.079759170,-0.103772660,9.923712730,-0.004000960,-0.115489970,-0.044339900
1640788285.190300,-0.430493650,-0.108620350,10.777641300,-0.000965600,-0.118097660,-0.028198960
1640788285.192010,0.206076820,0.121798910,8.805612560,-0.042313340,-0.096659370,-0.020305810
1640788285.195220,-0.091661970,-0.053405800,10.343851090,-0.063872320,-0.094540400,-0.022964180
1640788285.196780,-0.088866650,0.157045010,9.699831010,-0.024360410,-0.000396370,-0.029745700
1640788285.200349,0.026955960,0.295126320,9.962080000,-0.013753770,-0.179711000,-0.043958440
1640788285.201740,-0.338559000,0.248466030,10.295505520,-0.025174020,-0.074596700,-0.018273300
1640788285.205520,0.062006080,0.307909460,8.784441950,-0.054270030,-0.119121380,-0.023195150
1640788285.206790,-0.531530020,0.122809430,10.947572710,-0.054386260,-0.113423170,-0.014613570
1640788285.210480,-0.047651450,0.319901110,8.976052280,-0.049844380,-0.005415080,0.007638340
1640788285.212060,-0.003127830,0.134219200,10.165492060,-0.059279810,-0.185112670,-0.000530480
1640788285.215200,-0.062476530,0.033849050,10.302114490,-0.039444860,0.021529200,0.014205280
1640788285.216740,0.447415470,0.069796170,8.846352580,-0.062787530,-0.089876360,-0.020439920
1640788285.220229,-0.153942150,-0.213201810,10.806872370,-0.054085250,-0.128521040,-0.002695620
1640788285.222110,0.225149270,-0.200483860,8.857664110,-0.034222010,-0.008396800,0.004941230
1640788285.226440,-0.132754830,-0.541119460,10.129189490,-0.011627380,-0.137898340,-0.024564560
1640788285.227170,-0.389941100,-0.359823880,10.144682880,0.009012220,-0.031264130,-0.004726650
1640788285.231760,0.044992590,-0.220347570,8.992274280,-0.027996310,-0.105658200,-0.021666290
1640788285.232600,-0.246924770,-0.190901680,10.408246990,-0.023350120,-0.008091330,-0.019775330
1640788285.235170,0.267050590,0.391428440,9.195436480,-0.026126210,0.026838480,-0.005072360
1640788285.236699,-0.127361630,0.390504450,10.502956390,-0.013820830,-0.141926120,-0.005838270
1640788285.240399,0.025716350,0.388495120,9.455877300,-0.007648770,-0.024317210,0.000271200
1640788285.241920,0.102118780,0.301468130,9.417666440,-0.017850100,-0.096981230,-0.011023880
1640788285.245560,-0.655796830,-0.096017820,10.890165330,0.008283560,-0.011943280,0.000169870
1640788285.246670,-0.093652870,-0.021264040,9.343584060,0.000460450,-0.079761450,-0.008046630
1640788285.250200,-0.385147090,-0.108572080,10.317048070,-0.030443070,-0.112046310,-0.003962220
1640788285.251700,0.115624240,-0.032399830,9.020440100,-0.058338050,0.051058830,0.021976230
1640788285.255519,0.227133590,-0.021867890,10.062174800,-0.035883490,-0.031404200,-0.017027560
1640788285.256919,0.070028790,0.084818120,10.167767520,0.014822190,0.026550890,0.003132220
1640788285.260290,0.518176970,0.285811990,9.322392460,0.008979440,-0.132906440,0.008340180
1640788285.263249,-0.133178460,0.064443970,10.623368260,-0.039558110,-0.025199350,0.002974270
1640788285.265159,0.166954930,0.045966640,8.749796870,-0.046448410,0.018197300,0.008782740
1640788285.266810,-0.306069170,-0.180861980,10.623472210,0.000184770,-0.107470150,-0.003330410
1640788285.270229,-0.187957900,-0.197308880,9.344888690,0.030599540,0.104329000,0.014264880
1640788285.271809,0.059455830,-0.194323450,9.561538700,0.019456450,-0.064167390,0.003698470
1640788285.275319,-0.508880440,-0.254047360,10.935156820,0.005380810,0.007924440,0.024583940
1640788285.276719,0.314589830,0.045945600,8.358545300,-0.034597520,-0.027160350,0.009976330
1640788285.280380,-0.087068890,-0.153492690,10.685347560,-0.016680360,-0.024585430,-0.001211460
1640788285.281780,0.092627840,0.167746870,9.655916210,0.031934680,0.134509800,0.001953540
1640788285.285220,0.044848260,0.207418610,10.295198440,0.047640500,-0.107915700,-0.019651650
1640788285.286800,-0.376335350,0.087560510,10.498868940,0.024335090,-0.005207960,0.013023620
1640788285.290939,0.227827440,0.247563600,8.387382510,-0.020438430,-0.020810960,0.008572640
1640788285.292230,-0.553348120,0.041172540,10.827350620,-0.020761790,-0.007520620,0.025381150
1640788285.295300,0.044339870,0.222337250,9.092629430,-0.010615590,0.123104470,0.026613480
1640788285.296840,0.045048970,0.383882370,10.146451000,-0.004714730,-0.096944000,0.008668010
1640788285.300320,0.007164460,0.350528180,10.256709100,-0.026500230,0.091458870,0.037038330
1640788285.301720,0.580666660,0.308534230,8.914955140,-0.060036790,0.043326620,0.020746890
1640788285.305610,-0.362019810,-0.187118340,11.167736050,-0.006400050,-0.010691580,0.024542220
1640788285.306929,0.012005740,-0.225603670,9.151437760,0.048252940,0.001451370,0.044287740
1640788285.310250,-0.347118880,-0.471226810,9.692190170,0.032788520,-0.076130020,0.027115640
1640788285.312240,-0.466446250,-0.432336240,9.551759720,-0.036478040,0.111825770,0.031459330
1640788285.315209,-0.074068150,-0.082705980,9.481438640,-0.043740870,0.002858040,0.006051360
1640788285.316740,-0.377369020,-0.041133030,10.558460240,-0.014074150,0.070196390,0.008557740
1640788285.320299,0.393433960,0.488540050,9.301228520,0.011654200,0.046403700,0.006364290
1640788285.322100,-0.177106380,0.503754620,10.916408540,-0.000917910,-0.029934950,0.016169260
1640788285.325980,0.061010470,0.365010500,9.257575990,-0.016137960,0.041338800,0.028532740
1640788285.326830,-0.014409120,0.188785720,9.747080800,-0.005903840,-0.058223320,0.019207600
1640788285.330440,-0.592757940,-0.100679010,10.352683070,-0.004345180,0.094568740,0.039212410
1640788285.331750,0.007717620,-0.018740110,9.238546370,-0.007994470,-0.026072560,0.029116870
1640788285.335189,-0.512966220,-0.198799610,10.806956290,-0.025993590,-0.002871450,0.017569960
1640788285.336910,0.217249480,0.176951420,8.825346950,-0.060141080,0.090524540,0.020271540
1640788285.340469,0.049510580,0.233350780,10.680303570,-0.057356070,-0.001585480,0.014197830
1640788285.341800,-0.042034940,0.230413510,10.135186200,-0.032542650,0.112698980,0.018499790
1640788285.345180,0.302606250,0.479300050,9.297368050,-0.006408990,-0.116325930,0.006361310
1640788285.346690,-0.232590780,0.272146970,10.332797050,-0.046525890,0.005573030,0.034078950
1640788285.350220,0.374854510,0.224523070,8.231992720,-0.088870530,0.138238090,0.047078730
1640788285.351750,-0.305055830,-0.189869690,11.173035620,-0.048202280,0.016000870,0.023800140
1640788285.355739,-0.167811590,-0.195438820,10.092616080,0.001375380,0.102430600,0.042793170
1640788285.357020,0.259632950,-0.151096370,9.170200350,-0.001925230,-0.080633150,0.030963120
1640788285.361970,-0.285685840,-0.267290410,10.367696760,-0.063252430,0.091350070,0.034821040
1640788285.362540,0.354885790,0.082905830,8.594366070,-0.090026860,0.129216920,0.021332500
1640788285.365239,-0.244905560,-0.096159890,10.781011580,-0.040335960,0.008440020,0.004306440
1640788285.366789,-0.052438590,0.166848380,9.780647280,-0.001437960,0.081677730,0.018996000
1640788285.370810,-0.159328390,0.180543720,9.810423850,0.003798310,-0.049693880,0.008638200
1640788285.371800,-0.752491770,-0.089663620,10.572438240,-0.022248930,0.042575600,0.036790970
1640788285.375310,-0.118992040,0.096714590,8.884996410,-0.040218230,0.033032890,0.038060540
1640788285.376720,-0.585087600,0.045147210,10.630745890,-0.045947730,0.015023350,0.029841070
1640788285.380220,0.227104040,0.243235990,9.336147310,-0.047050420,0.136117640,0.036722420
1640788285.381719,0.289426890,0.355172990,10.023950580,-0.042371460,0.013215840,0.022393470
1640788285.385320,0.075151370,0.336914540,10.408475880,-0.058926650,0.068849330,0.027374930
1640788285.386809,0.555364550,0.332934020,9.291784290,-0.048966710,0.017233190,0.034767390
1640788285.390250,-0.403464530,-0.144855920,10.780115130,-0.029273330,0.023250280,0.032930080
1640788285.391749,-0.138748600,-0.147388260,9.314105990,-0.016833840,0.022484360,0.053666540
1640788285.395180,-0.466968030,-0.401163700,10.045812610,-0.025042890,-0.025455650,0.032711030
1640788285.396690,-0.281230090,-0.396171390,9.316711430,-0.051106520,0.149108470,0.035610800
1640788285.400250,0.028134130,-0.198950440,9.867138860,-0.042021280,0.059892250,0.036123400
1640788285.402050,-0.303191540,-0.227258490,10.786446570,-0.012582540,0.080817950,0.025877360
1640788285.405210,0.453544680,0.057177280,8.842141150,0.013570490,-0.013606250,0.029301650
1640788285.407060,0.006703100,0.002194700,10.434257510,0.001661480,0.018605590,0.021114950
1640788285.410270,0.134696500,0.023634500,9.391708370,-0.038918860,0.172863900,0.025835630
1640788285.411720,0.031005950,-0.072357080,10.212129590,0.005537270,-0.016215450,0.017118450
1640788285.415239,-0.575823430,-0.239672720,10.599205970,0.037680570,0.049978500,0.029326980
1640788285.417060,-0.044694650,-0.005115250,8.682120320,0.031085310,-0.005644560,0.032265480
1640788285.420240,-0.708112300,-0.220194970,10.668160440,-0.005450840,0.028045470,0.033034380
1640788285.421830,-0.209521710,0.046635940,9.174019810,-0.025700040,0.128023330,0.035569080
1640788285.425220,-0.120108140,0.206403760,10.396299360,0.009104610,-0.007639830,0.021798910
1640788285.427080,-0.153271510,0.255286810,10.646310810,0.006966290,0.116209690,0.030161440
1640788285.430199,0.390874420,0.477881370,9.221674920,0.010867410,-0.002625580,0.023411210
1640788285.431759,-0.227051630,0.220272720,10.769308090,-0.005638600,-0.015501680,0.022017950
1640788285.435190,0.198304770,0.177359760,8.810070990,-0.011721250,0.096403060,0.043691700
1640788285.436820,-0.112343230,-0.090547840,9.937821390,0.007633860,-0.032234190,0.037485360
1640788285.440440,-0.387613770,-0.321484210,10.464253430,0.010500850,0.110381850,0.054366890
1640788285.441789,0.152182730,-0.059989610,9.116467480,0.011010470,0.002592800,0.042115150
1640788285.445170,-0.251729910,-0.173430260,10.409688950,-0.028014180,0.018583240,0.043082240
1640788285.446740,0.363032430,0.056321290,9.124413490,-0.035089260,0.162863730,0.042904920
1640788285.450340,0.004182720,0.052312180,10.423236850,0.001730020,0.034914910,0.017577410
1640788285.451769,-0.140800670,-0.030476120,10.187825200,0.034926830,0.033946340,0.029052790
1640788285.455220,0.021960160,-0.059656790,9.209072110,0.051912680,-0.040139270,0.029177970
1640788285.456920,-0.582684040,-0.376396540,10.148157120,0.018475950,0.068272650,0.022530560
1640788285.460539,-0.164529980,-0.105483070,9.303146360,0.012868640,0.081361830,0.024232270
1640788285.461740,-0.513507130,0.051059690,10.447688100,0.001321730,0.003825130,0.026012960
1640788285.465580,0.091816980,0.336080970,9.482008930,-0.031219430,0.100368260,0.046072900
1640788285.466740,0.292193830,0.454066540,10.078628540,-0.013181570,0.062231720,0.037071110
1640788285.470189,-0.205321640,0.296795520,10.653593060,0.021253530,0.081166630,0.035636130
1640788285.472090,0.216727580,0.427327630,9.424485210,0.037574770,-0.043064360,0.031408670
1640788285.475240,-0.406534310,0.154106830,10.123870850,-0.007957220,-0.000788270,0.038842850
1640788285.476800,-0.076960670,0.102228780,8.911386490,-0.061392800,0.092315670,0.050733990
1640788285.480260,-0.306395260,-0.060744550,10.446492200,-0.042332710,0.041709840,0.033053760
1640788285.482159,-0.348413110,-0.184059010,10.190993310,-0.004498660,0.120429700,0.029219690
1640788285.485180,0.150406480,-0.021939360,9.597912790,0.035522880,-0.026687980,0.044748190
1640788285.486760,-0.419693440,-0.151527600,10.792734150,0.000151990,0.049161910,0.052338830
1640788285.490780,0.269134520,0.099865290,8.572385790,-0.058670350,0.064836440,0.056870280
1640788285.491809,0.032865520,0.013328280,10.167707440,-0.056113300,-0.007660690,0.042341650
1640788285.495149,0.047971300,0.028654670,9.816181180,-0.019173320,0.183643400,0.028595330
1640788285.496770,0.290558550,0.022707260,9.668631550,0.047102570,0.022327900,0.019428130
1640788285.500280,-0.590664860,-0.252315460,11.277334210,0.058101120,-0.002148750,0.030970570
1640788285.501770,-0.080667580,0.001058390,8.633449550,0.007414820,0.015960640,0.050891940
1640788285.505200,-0.417934030,-0.156727150,9.994660380,-0.056914990,-0.002706050,0.046409670
1640788285.506990,-0.284087060,-0.070575620,9.725076680,-0.053353610,0.196471810,0.050829350
1640788285.510959,0.069513600,0.183369460,9.831797600,0.040017060,0.029939410,0.024901330
1640788285.511839,-0.310895770,0.108639240,11.120894430,0.062148270,0.028429930,0.021156670
1640788285.515250,0.308136880,0.377864000,8.955270770,0.014828150,0.033779450,0.035814940
1640788285.516729,-0.436726450,0.064189400,10.642787930,-0.037218630,-0.051674250,0.029079620
1640788285.520239,-0.410521720,-0.086847970,9.859509470,-0.028578940,0.080651040,0.043748320
1640788285.521809,-0.126020030,0.018062310,9.346633910,0.037387020,-0.041604040,0.033664710
1640788285.526239,-0.503928960,-0.020741990,10.674839020,0.025579340,0.058940050,0.040483480
1640788285.527269,0.370531680,0.303428620,9.105520250,-0.027027730,0.105832520,0.063504290
1640788285.530370,0.016207080,0.213092490,10.526922230,-0.060844430,-0.010928510,0.054001810
1640788285.531740,0.332817170,0.258541460,9.560357090,-0.042217970,0.079563260,0.068964070
1640788285.535210,0.261847140,0.094948450,9.699636460,0.020617240,-0.002652410,0.047086180
1640788285.536759,-0.384699640,-0.233364180,10.496590610,0.045448530,0.023010370,0.036549570
1640788285.543000,0.058558870,-0.142840880,8.981270790,0.020495060,-0.036589790,0.038087360
1640788285.544360,-0.540555420,-0.341674330,10.160600660,-0.040575860,0.058527290,0.033043320
1640788285.545230,-0.222688570,-0.230351810,9.607174870,-0.049260260,0.146894170,0.041800740
1640788285.546939,-0.380404800,-0.110947200,10.597435000,0.023745000,-0.058561560,0.035065420
1640788285.550220,-0.367420140,-0.000250250,9.738191600,0.046500570,0.009267030,0.045974550
1640788285.551770,0.321182880,0.227591350,8.721775050,0.013563040,0.009237230,0.045469400
1640788285.555650,-0.382622810,0.145543400,10.808713910,-0.017119950,0.115950430,0.035944580
1640788285.556810,0.078235510,0.344724660,9.722036360,-0.031006340,0.047875930,0.041215130
1640788285.560269,-0.171297130,0.278070090,10.622789380,0.003716350,-0.107617680,0.039590900
1640788285.562039,-0.266848980,0.122526460,9.410266880,-0.006717440,0.040829190,0.045120720
1640788285.565280,-0.051901690,0.131598010,9.392671590,0.009538230,-0.009152290,0.041443110
1640788285.566789,-0.747307420,-0.166004330,10.989327430,-0.000773370,0.078825650,0.043651470
1640788285.570180,-0.019925610,0.162278460,9.011760710,-0.021070240,-0.020216410,0.053147980
1640788285.572070,-0.204700280,0.263497890,10.543373110,-0.054353480,-0.075213610,0.057597460
1640788285.575230,0.183032170,0.319803800,9.151038170,-0.102302450,0.154636800,0.053697840
1640788285.576759,0.359902770,0.269204230,9.670454030,-0.046057990,-0.014178450,0.027905400
1640788285.580390,-0.348878980,-0.110761530,11.191625600,0.037251410,0.003503260,0.037150090
1640788285.582080,0.174168010,-0.171372980,8.611017230,0.042290990,-0.015188760,0.046004360
1640788285.585209,-0.448937890,-0.482274410,10.543648720,-0.020593410,-0.089816760,0.046910350
1640788285.586820,-0.401770500,-0.403223660,9.389745710,-0.081728410,0.101487340,0.072373460
1640788285.590400,0.010849100,-0.325523050,9.227887150,-0.053353620,-0.037100920,0.047114500
1640788285.591820,-0.343353450,-0.267963950,10.857668880,0.016377870,0.078962750,0.031514470
1640788285.595790,0.364271490,0.257219490,9.052354810,0.046987840,0.053094340,0.020487610
1640788285.596720,-0.145718340,0.177884180,10.881899830,0.028538710,-0.096052890,0.028431420
1640788285.600279,-0.062853110,0.246921850,9.405649190,-0.040705490,0.046329200,0.045955180
1640788285.601800,-0.090501410,0.197558810,9.580019950,-0.041668120,-0.081773110,0.033786890
1640788285.605610,-0.812543390,-0.137905510,10.950689320,0.012867150,0.017689170,0.032857060
1640788285.606819,-0.073877450,0.072921240,8.756396290,0.050674380,0.000980500,0.033673640
1640788285.610220,-0.588946700,0.067041350,10.732775690,0.014431770,-0.082868320,0.039213890
1640788285.611830,-0.051098700,0.178991450,9.504472730,-0.066378720,0.086036310,0.066839170
1640788285.615229,0.277996300,0.237170980,9.586990360,-0.075697910,-0.039494040,0.042365490
1640788285.616740,-0.167322250,0.144931230,10.865100860,-0.018455090,0.009013710,0.050272050
1640788285.620170,0.539760170,0.324754420,9.037844660,0.013475120,-0.032845140,0.045651200
1640788285.621930,-0.087715160,-0.042117990,10.487548830,0.002010170,-0.049395860,0.025145710
1640788285.625260,-0.105606850,-0.177758430,9.609667780,-0.029538580,0.046461820,0.048649320
1640788285.626789,-0.236303690,-0.255153270,9.781627660,-0.030115250,-0.103597360,0.039453810
1640788285.630260,-0.575944900,-0.352214750,10.043590550,-0.023013350,0.019438570,0.058454280
1640788285.631749,0.015929860,-0.130396770,9.083323480,-0.022998450,0.004921850,0.048755110
1640788285.635190,-0.561354880,-0.199115680,10.970405580,0.004523990,-0.013725460,0.034482780
1640788285.636780,0.068054500,-0.038297460,9.307998660,0.015996390,0.023297970,0.024354460
1640788285.640420,0.057120510,0.204756350,10.064944270,-0.001473730,-0.075064600,0.015626850
1640788285.643849,-0.257981510,0.220899150,10.281117440,-0.040273370,0.050330170,0.031423570
1640788285.647500,0.155914020,0.359936650,9.382721900,-0.036309660,-0.076216470,0.027064980
1640788285.648030,-0.459287490,0.034785040,10.656755450,-0.004164870,-0.061264640,0.034084910
1640788285.650159,-0.108353670,-0.012343710,9.099504470,0.021551550,0.013498960,0.039999190
1640788285.651790,-0.356660930,-0.072118250,10.727193830,0.022590160,-0.072060530,0.032830240
1640788285.655740,-0.442524490,-0.007125000,10.084477420,-0.031350560,0.018946830,0.049744550
1640788285.656960,0.197169770,0.284558060,9.181474690,-0.087893010,-0.114607820,0.043801960
1640788285.660260,-0.069169830,0.244425150,10.548287390,-0.089144710,0.040870910,0.039334600
1640788285.663179,0.333258660,0.273255940,9.206040380,-0.035773220,0.065225370,0.029431290
1640788285.665180,-0.266923960,0.146097750,11.268833160,0.037252910,-0.158682480,0.009416040
1640788285.666800,-0.480926600,0.085727240,9.775197030,0.012011830,-0.055956850,0.041563810
1640788285.670270,0.046866580,0.079711370,8.536942480,-0.089040410,-0.130546090,0.043375790
1640788285.671810,-0.520534040,-0.252398640,10.731426240,-0.124372540,0.073911260,0.061231850
1640788285.675429,0.176594540,-0.108941360,9.166483880,-0.059874350,0.088188040,0.028553600
1640788285.676820,0.190540660,-0.201963810,10.897551540,0.033450130,-0.110124070,0.022713840
1640788285.680230,0.178738400,-0.003878940,9.878279690,0.017140810,0.042384860,0.037197770
1640788285.681730,0.420099770,-0.019496630,9.196381570,-0.067356240,-0.093925000,0.029486420
1640788285.685190,-0.401735780,-0.425187110,10.918864250,-0.071209680,-0.019389390,0.033010540
1640788285.686760,-0.072757370,-0.310840730,8.760896680,-0.004641710,-0.001914800,0.020687280
1640788285.690400,-0.523451030,-0.335097130,10.681162830,0.049917400,-0.104163590,0.015439090
1640788285.692540,-0.613332750,-0.109215020,10.040218350,0.018605590,0.087308890,0.032727420
1640788285.695840,-0.240023780,0.082797720,9.467320440,-0.048072640,-0.121292490,0.030061610
1640788285.697029,-0.652782980,-0.039301250,11.148491860,-0.044359270,-0.055138770,0.039279460
1640788285.702620,0.250743060,0.317548070,8.609344480,-0.018478930,0.054146360,0.024200980
1640788285.703719,-0.055068350,0.360934110,10.852744100,0.018753110,-0.086990000,0.013799970
1640788285.705350,-0.025767190,0.487846200,10.375808720,-0.005589430,0.029534100,0.031828880
1640788285.707000,0.438874480,0.445110590,9.154426570,-0.075525050,-0.125546770,0.010018050
1640788285.710700,-0.324719730,-0.146281420,10.954255100,-0.054998700,-0.052908070,0.049421200
1640788285.711830,-0.009797000,-0.241285070,9.219843860,0.001798570,0.022087990,0.032082200
1640788285.715220,-0.473620270,-0.379479410,10.630605700,0.022864340,-0.141039510,0.019897520
1640788285.716820,-0.344646040,-0.315768960,9.825098040,-0.026969620,-0.003473460,0.047746300
1640788285.720310,0.251363190,-0.112818180,9.087999340,-0.094854840,-0.030475850,0.030247870
1640788285.722280,-0.240158240,-0.159356880,11.077978130,-0.059208280,0.028030580,0.024455790
1640788285.725350,0.373056350,0.146767530,9.357524870,0.002133850,0.001950560,0.018338860
1640788285.726830,-0.061662220,0.216118370,10.492411610,0.020544230,-0.139518130,0.008827450
1640788285.730229,-0.267035340,0.092438030,9.989199640,-0.009493530,-0.002485510,0.038419660
1640788285.731760,-0.001842090,-0.130949410,9.153168680,-0.037688020,-0.084115570,0.017930570
1640788285.735230,-0.576796770,-0.353500570,10.572407720,0.003013020,-0.021524730,0.012746460
1640788285.736830,0.035760290,-0.153166640,9.233858110,0.010639430,0.044445690,0.019930300
1640788285.740660,-0.139563990,-0.143173160,10.593515400,-0.020308790,-0.053526460,0.013102590
1640788285.742179,-0.122173010,-0.101090120,10.162433620,-0.019904970,-0.004974010,0.033877790
1640788285.745630,0.135243980,-0.038584360,9.579785350,-0.001233820,-0.103108590,0.007528070
1640788285.746750,-0.382451650,-0.071372960,10.360321040,0.021171570,-0.017762190,-0.002454220
1640788285.750170,-0.126087410,0.178068060,9.418212890,0.012306870,-0.019668040,0.004664060
1640788285.751789,-0.577424470,0.236480770,10.857380870,-0.017854570,-0.101180400,0.004924830
1640788285.755180,-0.301115130,0.260383040,9.590782170,-0.033837550,-0.003898140,0.032810860
1640788285.757030,0.014427920,0.294343440,9.662166600,-0.032377240,-0.083716220,0.026974090
1640788285.760249,-0.401867870,0.146871670,10.833970070,0.003135210,0.030744080,0.039973860
1640788285.761839,0.203841520,0.251579340,9.299893380,-0.012424590,-0.036098070,0.029630960
1640788285.765139,-0.024118300,0.069543410,10.593678470,-0.038011370,-0.122582910,0.032211840
1640788285.766860,0.206471980,0.048842080,9.236552240,-0.058732930,0.022843480,0.035996740
1640788285.770560,0.343546600,-0.217214470,9.744429590,-0.057926780,-0.039313740,0.012406710
1640788285.771800,-0.353341100,-0.498059300,11.021711350,0.017640000,0.016357000,0.020010770
1640788285.775339,-0.097527090,-0.425590930,9.345268250,0.051471590,-0.118033590,0.022304060
1640788285.776810,-0.548254250,-0.509576380,10.467302320,0.011354680,-0.132772330,0.040788950
1640788285.780220,-0.242890020,-0.268839480,8.825842860,-0.054930160,0.059196360,0.044915090
1640788285.781790,-0.060708880,-0.183567230,9.884328840,-0.041246410,-0.055797400,0.020648540
1640788285.785349,-0.203662740,0.101086710,10.771632190,0.047524280,0.070351360,0.021426380
1640788285.786810,0.396013440,0.524382710,9.163149830,0.037385520,-0.044293690,0.017298760
1640788285.790500,-0.202860340,0.275666950,11.268892290,0.007495280,-0.132916870,0.021186470
1640788285.794860,-0.191899850,0.199170710,9.362740520,0.003226100,-0.019307430,0.032638010
1640788285.795320,-0.196215390,-0.145422120,9.488799100,0.010204320,-0.142204780,0.007247930
1640788285.796759,-0.740819040,-0.298485070,10.799242020,0.048685090,0.028695170,0.038610410
1640788285.800220,-0.220099910,-0.071848520,9.261633870,0.029928980,-0.035235280,0.016838310
1640788285.802389,-0.393826250,-0.167760850,10.826180460,-0.001083310,-0.131729260,0.032033030
1640788285.805210,-0.019178620,0.191477610,9.216922760,-0.026045740,0.010256470,0.037448110
1640788285.807119,0.152212350,0.163124050,9.842590330,-0.017124410,-0.101068620,0.025661290
1640788285.810279,-0.205574350,0.217608320,11.006366730,0.038722150,0.007088480,0.044766060
1640788285.811950,0.253292230,0.543928680,9.261451720,0.009694700,-0.093674640,0.024139880
1640788285.815199,-0.156172450,0.297014980,10.793026920,-0.042450420,-0.154834990,0.045537950
1640788285.816840,0.050238550,0.091937580,9.309862140,-0.044628970,0.051087130,0.054571040
1640788285.820190,0.024704160,-0.204527420,9.664888380,-0.001187620,-0.080502040,0.019413230
1640788285.821770,-0.428720180,-0.288762210,10.920813560,0.070069740,-0.038561220,0.048808750
1640788285.825460,0.151434720,-0.087255040,8.745266910,0.011302530,-0.067865850,0.038360060
1640788285.826810,-0.069205690,-0.241706400,10.149272920,-0.059352810,-0.082179910,0.035849210
1640788285.830260,-0.001910820,-0.041390170,9.877514840,-0.062306230,0.076513000,0.034907460
1640788285.831830,0.145758810,0.002454000,9.937019350,-0.002972780,-0.080201040,-0.001691280
1640788285.835359,-0.240260410,-0.050343390,10.829972270,0.076657530,-0.050579010,0.035327680
1640788285.836779,-0.060132760,0.025547840,9.371476170,0.057350100,-0.052426760,0.031077860
1640788285.840500,-0.538522180,-0.182531210,10.392827990,0.015582150,-0.120320920,0.045990940
1640788285.841869,-0.390280930,-0.187676910,9.429416660,0.004334750,-0.008203090,0.072652100
1640788285.845219,-0.073949080,-0.100637760,9.329355240,0.001181660,-0.062093130,0.037096440
1640788285.846760,-0.210753370,0.147930380,10.745294570,0.025367730,0.024816390,0.037048750
1640788285.850260,0.264385670,0.414544520,9.766090390,0.016231830,-0.000628830,0.040154160
1640788285.851800,-0.050952430,0.352887930,10.718755720,0.000898540,-0.139838470,0.033222140
1640788285.855199,-0.115433190,0.311407800,10.056151390,0.011768940,-0.037784870,0.039459770
1640788285.856969,-0.224941830,0.130608540,9.641731260,0.008994340,-0.077950960,0.032755730
1640788285.860280,-0.675268350,-0.001213840,10.310162540,0.028143830,-0.085057330,0.065730520
1640788285.861800,-0.284232710,0.162968340,9.361626630,-0.010648370,-0.054469700,0.069996720
1640788285.865610,-0.177080140,0.116739480,9.991683010,-0.071065140,-0.023686890,0.073300300
1640788285.866780,0.014038080,0.122416060,10.300631520,-0.039467220,0.019419190,0.079469390
1640788285.870329,0.110122910,0.120954200,10.346264840,-0.003880260,-0.089152160,0.052770980
1640788285.871800,0.162046540,0.192775380,9.927701950,0.011624400,-0.089825700,0.060173880
1640788285.875270,0.308565860,0.067281370,9.332427980,-0.038309400,-0.034283110,0.054976340
1640788285.876829,-0.006024480,-0.077483710,10.121565820,-0.061884530,-0.023929780,0.041331360
1640788285.880230,-0.050539540,-0.158557160,9.822953220,-0.009147820,-0.029280780,0.056679560
1640788285.882089,-0.130874380,-0.268658760,9.841125490,0.001381340,-0.083024810,0.051270430
1640788285.885170,-0.356493710,-0.218946900,10.089113240,0.016823410,-0.025239580,0.070956360
1640788285.886780,-0.257985890,-0.167658520,9.867026330,-0.021822750,-0.054186580,0.072641680
1640788285.890590,-0.140519440,-0.094420240,10.010446550,-0.037011500,-0.030000510,0.056071590
1640788285.895040,0.046143890,0.206749590,9.765000340,-0.023229420,0.008295480,0.053381930
1640788285.895700,0.051645870,0.203640040,10.461150170,-0.013956430,-0.024433430,0.029626490
1640788285.896819,-0.026521140,0.343136130,10.096332550,0.020846730,-0.043757260,0.036093600
1640788285.900210,-0.106107260,0.234220000,9.654106140,0.004026290,-0.132657560,0.050827860
1640788285.901870,-0.331693800,-0.012982690,10.166354180,-0.031295420,-0.046746440,0.059641910
1640788285.905190,-0.273901820,-0.123981470,9.720701220,-0.001922250,0.017130380,0.062707070
1640788285.906989,-0.360269900,-0.129864110,10.503787990,-0.008417670,-0.063817210,0.062751770
1640788285.910790,-0.154830260,0.181964550,10.128518100,-0.017759200,-0.030575690,0.077268490
1640788285.911870,0.220912190,0.312629730,9.513478280,-0.062067810,-0.048187380,0.073289880
1640788285.915220,0.167852670,0.242122720,10.293399810,-0.076308850,0.001476710,0.072376440
1640788285.916750,0.082191200,0.280075700,9.922693250,0.014241040,-0.014495850,0.068686910
1640788285.920179,-0.075951230,-0.013820640,10.236443520,0.026611980,-0.130166110,0.062161680
1640788285.922099,-0.133980720,-0.046039430,9.749666210,0.003218650,-0.042642660,0.083374980
1640788285.925210,-0.284851280,-0.189677920,9.754047390,-0.058569030,-0.027735530,0.083079930
1640788285.927120,-0.269340570,-0.314340680,10.336809160,-0.076259660,-0.016024710,0.070922060
1640788285.930339,0.126722720,0.015903530,9.331624980,-0.014781950,-0.004608930,0.074823190
1640788285.931790,0.146557270,-0.034701950,10.128046040,-0.008140510,-0.013013190,0.072318320
1640788285.935210,0.160337850,0.105273110,10.255355830,-0.003072620,0.045327850,0.072437520
1640788285.936780,0.024116700,0.078571130,9.757759090,-0.006429850,-0.103335090,0.066402550
1640788285.940330,-0.164614360,-0.170453590,10.077322010,-0.038559740,-0.084704180,0.066353400
1640788285.941789,-0.177031460,-0.044521390,9.597760200,-0.010700520,0.051616140,0.062522290
1640788285.945320,-0.463129310,-0.192647950,10.452379230,-0.002823770,-0.028637050,0.058725480
1640788285.946790,-0.458449040,-0.048136700,10.443031310,0.024105610,-0.049208120,0.074870880
1640788285.950199,-0.243172090,0.201088060,9.427146910,-0.003086030,-0.072477760,0.070120390
1640788285.951820,-0.092354870,0.086819050,9.949393270,-0.061291470,0.000235440,0.092728460
1640788285.955309,0.007365260,0.332593380,9.984559060,-0.022159510,0.045247370,0.087195620
1640788285.956810,-0.072943110,0.430366130,10.479063990,-0.020158290,-0.078098480,0.065977870
1640788285.960150,0.230318380,0.485469460,10.017583850,-0.032274430,-0.049427160,0.094856340
1640788285.961920,0.116691300,0.384192440,9.659196850,-0.052583230,-0.025358800,0.085574400
1640788285.965160,-0.228066410,0.011023510,10.505023960,-0.068238370,-0.013250110,0.084654970
1640788285.966879,-0.203465090,-0.041472110,9.857393260,-0.007192790,-0.025402010,0.103808940
1640788285.970199,-0.304829600,-0.261123900,9.816753390,-0.022251900,-0.090898570,0.111386170
1640788285.971930,-0.056880720,-0.251417990,9.874307630,-0.056666140,0.033281740,0.115662820
1640788285.975220,-0.019460050,-0.083414250,9.825804710,-0.065849730,0.038677460,0.099740920
1640788285.977020,0.071221300,-0.090708640,10.242589000,-0.078359250,-0.029195850,0.092417020
1640788285.980250,0.200498720,0.092650410,10.026337620,-0.023300950,0.016774240,0.093273830
1640788285.981760,-0.104731600,0.074852100,10.148904800,-0.011892620,-0.031784180,0.084392730
1640788285.985170,-0.215013280,-0.073665810,10.122443200,-0.015185770,-0.053064530,0.114971410
1640788285.987069,-0.292531460,-0.045533140,9.543834690,-0.014963750,-0.033806270,0.103408110
1640788285.990340,-0.278226380,-0.226681470,9.977130890,-0.055864460,0.015519560,0.102324780
1640788285.991880,-0.033020300,0.001173660,10.045152660,-0.024355950,0.057190650,0.112552950
1640788285.995520,-0.216028050,0.258674440,10.423350330,-0.047156210,-0.018820160,0.094038230
1640788285.996780,0.135046390,0.339308080,10.145923610,-0.073352460,-0.032866000,0.113302480
1640788286.000290,0.080673810,0.352308330,9.832259180,-0.051361330,-0.004073980,0.108206270
1640788286.001799,-0.262922410,0.171903760,10.421896930,-0.045363610,-0.025644900,0.108312070
1640788286.005299,-0.220566620,0.167808470,10.137107850,-0.022105870,-0.012287500,0.125077380
1640788286.006790,-0.394557180,0.099076180,9.919974330,-0.050042570,-0.052005050,0.117276630
1640788286.010540,-0.142017350,0.071049270,9.847714420,-0.115400580,0.001576540,0.130020080
1640788286.011860,-0.056063090,0.046618830,9.904463770,-0.091871610,0.062446300,0.129310770
1640788286.015300,-0.054311600,-0.023919460,10.209801670,-0.058484080,-0.014957790,0.106127560
1640788286.016800,0.361464080,0.178599060,9.759463310,-0.018435710,-0.012563170,0.135810640
1640788286.020579,0.108686610,0.123361190,10.107718470,-0.070986150,0.026808680,0.119833670
1640788286.023870,0.033773240,-0.037995480,10.301492690,-0.129580500,-0.003480910,0.120061650
1640788286.027930,-0.037628220,-0.075605590,9.807796480,-0.075723240,-0.050055980,0.123959790
1640788286.029230,-0.306466370,-0.191317900,9.860155110,-0.054216390,0.009624660,0.096522260
1640788286.030170,-0.144391210,-0.046901300,9.864102360,-0.043766190,0.070929520,0.121963030
1640788286.031800,-0.503212510,-0.007482640,10.462826730,-0.049321360,-0.020812450,0.132896010
1640788286.035220,-0.310479160,0.005499300,10.104921340,-0.102695830,-0.041264300,0.121782730
1640788286.037119,0.059493740,0.255110060,9.544672010,-0.091791150,0.019778310,0.126305220
1640788286.040249,-0.265768740,0.232065230,10.430434230,-0.092080240,0.038878620,0.107197470
1640788286.044139,-0.070392240,0.440482050,10.356347080,-0.085736800,-0.001838800,0.103417040
1640788286.045230,-0.067865850,0.468724640,9.978342060,-0.082229090,-0.067581240,0.107386710
1640788286.046769,-0.022366740,0.293555320,9.828371050,-0.136736040,-0.016093260,0.114211440
1640788286.050180,0.088352110,0.212415640,9.836033820,-0.117182730,0.060667100,0.137221800
1640788286.051790,-0.260913310,0.035733440,10.594491960,-0.104027990,-0.010827180,0.121833410
1640788286.055280,0.031203100,0.069643300,9.947462080,-0.122955450,-0.028494000,0.138270850
1640788286.057960,0.052472060,-0.004950930,9.697414400,-0.124062600,-0.026687980,0.137914690
1640788286.060180,-0.041929240,-0.177214700,10.085129740,-0.160174090,0.059267880,0.106902420
1640788286.062270,0.207087980,0.026410200,9.664805410,-0.118476170,0.045353190,0.124418750
1640788286.065160,-0.212758410,-0.010798000,10.472798350,-0.105808680,-0.039499990,0.113715230
1640788286.066880,0.008843810,-0.024741310,9.813342090,-0.144660490,0.036460160,0.122864570
1640788286.070200,-0.067174840,-0.049582050,9.844253540,-0.113132620,-0.004489720,0.128920380
1640788286.072070,-0.497468950,-0.229660330,10.597493170,-0.095480700,-0.011788310,0.123588760
1640788286.077620,0.067241610,-0.024754370,9.228521350,-0.104314070,0.046651070,0.116921950
1640788286.078120,-0.201442330,0.015571860,10.221667290,-0.107859080,0.015668570,0.105990480
1640788286.080160,-0.118184240,0.177725480,10.283251760,-0.154015440,0.063228610,0.115220230
1640788286.081780,0.148240580,0.272599460,9.713201520,-0.127641870,-0.026988980,0.119051340
1640788286.085180,-0.247790220,-0.043721790,10.567714690,-0.106072430,-0.022949280,0.113952170
1640788286.087040,-0.098173440,-0.010312010,9.827754970,-0.086057190,0.043989720,0.113925350
1640788286.090210,-0.317593010,-0.005832210,10.349061970,-0.074906650,-0.037080050,0.109931850
1640788286.091899,-0.354492160,0.004115110,10.220883370,-0.153538580,0.024314230,0.125297900
1640788286.095199,0.156743210,0.301377000,9.368664740,-0.179013610,0.007146600,0.135354740
1640788286.096750,-0.139486240,0.210005970,10.721464160,-0.159186110,0.046166770,0.120215130
1640788286.100210,0.131527300,0.309863690,9.897562980,-0.127774480,0.051951410,0.109396880
1640788286.101840,0.127155800,0.331190320,10.113862040,-0.076940670,-0.074528180,0.115227710
1640788286.105280,-0.133669240,0.220978260,10.241578100,-0.145006190,0.048312550,0.123615560
1640788286.106799,0.210366260,0.165573570,9.262038230,-0.203821080,0.044174490,0.130809830
1640788286.110370,-0.267041330,-0.192723560,10.798944470,-0.175017120,-0.002855060,0.125670450
1640788286.111840,-0.022295850,-0.222344820,9.579894070,-0.136451440,0.078696010,0.112484400
1640788286.115170,0.062228300,-0.240449640,9.624117850,-0.085139260,-0.009922680,0.118269020
1640788286.116780,-0.468539630,-0.377359660,10.771306990,-0.114844750,0.057174280,0.124384480
1640788286.120800,0.004463280,-0.249054000,9.342495920,-0.164116920,0.024786590,0.116327410
1640788286.121980,-0.143414510,-0.261156290,10.235965730,-0.145825760,-0.019155440,0.121411700
1640788286.127139,-0.088009180,-0.099869190,9.925113680,-0.137421500,0.123512740,0.104901190
1640788286.127770,0.130451140,0.135994200,9.892828940,-0.092460210,0.039158750,0.096647450
1640788286.130129,-0.306887270,0.137112140,10.894949910,-0.081048910,0.009822850,0.116348290
1640788286.131780,-0.034916130,0.184047360,9.343965530,-0.145375740,-0.006799400,0.120629380
1640788286.135190,-0.152038430,0.087556970,10.089156150,-0.138001160,0.008574130,0.119289760
1640788286.137210,-0.407065090,-0.043056790,10.255792620,-0.119151190,0.118832300,0.116470460
1640788286.140420,-0.167097850,0.078449380,10.038963320,-0.105346760,-0.019046660,0.102584080
1640788286.141870,-0.216457620,0.220772180,10.532104490,-0.120890140,0.002108510,0.115181520
1640788286.145180,0.226788130,0.116312880,9.272985460,-0.186668350,0.091259190,0.114232300
1640788286.146780,0.073291000,-0.002003660,10.509308820,-0.143109310,0.058032580,0.107680280
1640788286.150190,-0.251067940,0.007442960,10.712955470,-0.084912780,0.050653520,0.107248130
1640788286.151909,0.081511390,-0.015835070,9.414034840,-0.109361120,-0.066110490,0.114239760
1640788286.155500,-0.078588160,-0.041222610,10.013133050,-0.140556660,0.018985570,0.131015490
1640788286.160080,0.029366470,-0.054912540,9.511809350,-0.185333210,0.158604980,0.106857720
1640788286.160470,0.235030030,-0.076562970,10.177783010,-0.156344470,0.057652600,0.108426820
1640788286.161790,-0.029077730,0.058264820,10.663373950,-0.085432830,0.065334160,0.111386200
1640788286.165200,0.125724260,-0.020271040,9.694274900,-0.119373220,0.026878720,0.085794950
1640788286.166760,-0.098672900,-0.049557980,10.029948230,-0.137850640,-0.002756720,0.107955930
1640788286.170420,-0.303744670,-0.241537930,9.632538800,-0.137874500,0.071442130,0.092065330
1640788286.171990,-0.137102720,-0.397334010,9.903472900,-0.121888530,0.096367300,0.082680590
1640788286.176720,-0.303817150,-0.204655530,10.602285390,-0.065709660,0.101907560,0.092275440
1640788286.177170,-0.202877330,-0.116738630,10.272899630,-0.103203970,0.027403240,0.084622200
1640788286.180230,0.015765330,0.042424430,9.920928000,-0.134004670,0.024770200,0.111204390
1640788286.181810,-0.038823240,0.098288760,9.721777920,-0.123253480,0.085085640,0.107191520
1640788286.185360,-0.050727200,0.119238800,10.332991600,-0.120386500,0.077469650,0.081692640
1640788286.186810,-0.006889530,0.341801940,10.198122020,-0.079348690,0.065366920,0.102427620
1640788286.190240,-0.015046020,0.303879200,10.075282100,-0.117859270,0.018763540,0.085800890
1640788286.193060,0.143707410,0.346550850,10.027414320,-0.176484900,0.087673960,0.101445640
1640788286.195150,-0.068969030,0.035598320,10.196071620,-0.141361330,0.110536800,0.103941550
1640788286.196770,-0.247387260,-0.263102200,10.377309800,-0.103159240,0.036850560,0.084720540
1640788286.200320,-0.128346310,-0.190867140,9.669685360,-0.065884000,0.028109550,0.112050770
1640788286.202350,-0.207754550,-0.373093310,9.722442630,-0.113563250,0.079080460,0.108709920
1640788286.205720,-0.067170380,-0.278878210,9.976088520,-0.183245550,0.136387360,0.100290790
1640788286.208050,-0.035051130,-0.238297750,10.298356060,-0.125241290,0.066438320,0.086911030
1640788286.210559,0.022012540,-0.251238500,10.141875270,-0.077854110,0.054973380,0.067275770
1640788286.211870,0.221087780,-0.088415970,9.622558590,-0.040046870,0.087910890,0.076311830
1640788286.215220,-0.208055410,-0.058713000,10.486560820,-0.044751160,0.065439930,0.085455180
1640788286.216840,-0.169401150,-0.056970430,9.749772070,-0.117729610,0.069293360,0.104466090
1640788286.220240,-0.025445490,-0.164462420,9.571676250,-0.111645470,0.037242470,0.095432980
1640788286.222230,-0.249030950,-0.150805580,10.508767130,-0.059774530,0.149038450,0.072291490
1640788286.225190,0.035893110,0.022700700,9.853810310,-0.033037360,0.120905030,0.058150300
1640788286.227270,-0.252032040,0.006163960,10.733890530,-0.037154560,0.019358100,0.070217250
1640788286.230229,-0.099606070,0.125909610,9.888160710,-0.093314040,0.091667470,0.076062970
1640788286.231840,0.147444780,-0.028912290,9.518374440,-0.109158460,0.076887020,0.078533590
1640788286.235240,-0.396516170,-0.119395970,10.840104100,-0.039123000,0.126972810,0.081874430
1640788286.236840,-0.122945410,0.083465270,9.791830060,-0.034236910,0.074437270,0.053907940
1640788286.240239,0.059411350,0.098805070,10.029726030,-0.053116690,0.017459690,0.072355580
1640788286.241819,0.017454100,0.137547140,9.988173480,-0.091621290,0.171345440,0.071099390
1640788286.245260,0.253127160,0.100702350,9.914570810,-0.104877350,0.110192600,0.045132640
1640788286.246780,0.094669020,0.081625130,10.614103320,-0.043258070,0.089791420,0.074478990
1640788286.250310,0.149444940,0.071747800,9.609356880,-0.036689640,0.105480860,0.060719260
1640788286.251799,-0.020740850,-0.173970550,10.256664280,-0.064599520,0.067983570,0.058852130
1640788286.255509,-0.288133260,-0.304980580,9.972728730,-0.048758090,0.118236270,0.064043700
1640788286.256840,-0.146305840,-0.373625040,9.415287970,-0.063386570,0.064010920,0.040039420
1640788286.263680,-0.235632200,-0.346120600,10.378376010,-0.039216880,0.169003010,0.054180620
1640788286.264200,-0.118255860,-0.081262460,9.834573750,-0.030159950,0.169402380,0.037498770
1640788286.265300,-0.169439120,-0.039491280,10.508794780,-0.042282040,0.030919910,0.054024160
1640788286.266970,-0.137492140,-0.066704250,9.918418880,-0.012826920,0.122778130,0.056861340
1640788286.270210,0.048912060,-0.109061000,9.404132840,-0.007547440,0.099010770,0.030215090
1640788286.272080,-0.186404910,-0.097157920,10.505880360,0.006002190,0.139208150,0.027841330
1640788286.275770,-0.065740980,0.151936250,9.745754240,-0.003431740,0.141933550,0.026193260
1640788286.276810,-0.022591890,0.096378720,10.170952800,-0.057108700,0.061789160,0.031988320
1640788286.280180,-0.165190800,0.139355240,10.295811650,-0.043432410,0.127722310,0.036323070
1640788286.281999,-0.157982020,0.032082330,9.904818530,0.002644960,0.108149660,0.023348630
1640788286.285159,-0.268808600,-0.022750510,10.251103400,0.017258520,0.091698760,0.034664560
1640788286.286810,-0.219484660,0.231839690,9.999113080,-0.001816450,0.113619880,0.042213500
1640788286.290210,-0.077700500,0.218890210,9.972035410,-0.093509270,0.142303120,0.056454550
1640788286.292400,-0.021329440,0.171563550,10.153036120,-0.095275050,0.120055680,0.038209560
1640788286.295169,-0.076958750,0.121983510,10.337259290,-0.002607700,0.093115870,0.023305420
1640788286.296960,0.080464530,0.038900030,9.769984250,0.017346440,0.141206380,0.021465120
1640788286.300160,-0.063233040,0.019297240,10.180644040,-0.015053150,0.094611950,0.031416120
1640788286.301859,-0.211739780,-0.104417240,10.323208810,-0.071768460,0.121910880,0.050376350
1640788286.305240,0.202276470,-0.221613170,9.241361620,-0.097134720,0.122639560,0.035326180
1640788286.306830,-0.031455280,-0.334386170,10.432033540,-0.016239290,0.136964020,0.028777120
1640788286.310200,-0.012084260,-0.293552130,10.153112410,0.028423970,0.200790170,0.018924470
1640788286.311879,-0.068992570,-0.234889330,10.073935510,0.024348500,0.053784250,0.007863340
1640788286.315169,-0.405477730,-0.231297730,10.326419830,-0.014680620,0.075203170,0.042836360
1640788286.316800,-0.140826690,-0.191653820,9.157691000,-0.046773260,0.162133540,0.025437770
1640788286.320619,-0.359042790,-0.256574300,10.458643910,-0.000247360,0.130538640,0.007012490
1640788286.322219,-0.282697110,0.127797440,10.162270550,0.055490450,0.185181230,0.011341270
1640788286.325389,0.022762400,0.127289740,9.816476820,0.027863680,0.093106930,0.004686420
1640788286.326789,-0.150378660,0.183681120,10.588853840,0.003941360,0.122866050,0.017252570
1640788286.330279,-0.055171190,0.155003400,9.692710880,-0.002980230,0.135846440,0.016628210
1640788286.331900,-0.161771850,-0.085622940,10.384448050,0.006595250,0.058716550,0.001910330
1640788286.335260,-0.203065320,0.037014580,10.012425420,0.045491750,0.164559450,0.023391840
1640788286.336860,-0.138477560,-0.014944660,9.900412560,0.021070240,0.110211960,0.003589690
1640788286.340260,-0.259285510,0.016217100,10.650197980,-0.012634700,0.131177920,0.011268260
1640788286.343420,-0.048644210,0.120268510,9.533524510,-0.012663010,0.124049200,0.017507380
1640788286.345290,-0.037904090,-0.033873510,10.149715420,-0.007323920,0.085061790,0.009548670
1640788286.346900,-0.078280950,0.049964970,10.137551310,0.040994590,0.191590190,0.013332070
1640788286.350149,-0.147257160,-0.045784850,9.917115210,0.045910480,0.079447030,0.009925660
1640788286.351859,-0.188260360,-0.038754070,10.335869790,-0.001715120,0.060833990,0.007393960
1640788286.355260,0.074215750,-0.135842310,9.349565510,-0.013306740,0.178501010,0.011812150
1640788286.356830,-0.065874040,-0.355233520,10.155875210,-0.003266330,0.158226490,-0.014524160
1640788286.360170,-0.213394780,-0.136891950,10.468223570,0.065724560,0.125381350,-0.013951960
1640788286.362100,-0.075186480,-0.170642790,9.532824520,0.068327790,0.071258840,-0.009985270
1640788286.365150,-0.191811430,-0.087547370,9.952044490,-0.000151990,0.101286170,-0.004698340
1640788286.366799,-0.346865210,-0.148772870,10.146401410,0.009776650,0.163105160,0.003090500
1640788286.370180,-0.376657250,-0.250944550,10.174171450,0.054721530,0.099742420,-0.019268690
1640788286.371950,-0.293189290,0.069795460,10.194252010,0.086961690,0.080806020,-0.017103550
1640788286.375700,-0.269954980,0.156094130,10.173479080,0.058093670,0.120121240,-0.005654990
1640788286.376880,-0.174745220,0.220394630,9.945879940,-0.008228420,0.121688850,-0.008057060
1640788286.380200,-0.174605220,0.151057630,10.206592560,0.012862690,0.058677800,-0.011001530
1640788286.381830,-0.166061920,0.045625810,10.144865040,0.075449060,0.107687710,-0.018829110
1640788286.385170,0.067487600,0.181461870,9.589038850,0.064830480,0.101970140,-0.017675760
1640788286.387140,-0.234579270,0.118157720,10.702026370,0.036181500,0.063815710,-0.008502600
1640788286.390220,-0.037279370,0.080656250,9.762205120,-0.007292630,0.123539570,-0.017705560
1640788286.391880,0.067853690,-0.019420220,9.732167240,0.002528730,0.062514840,-0.017592310
1640788286.395220,-0.402063790,-0.214029030,10.912433620,0.076583030,0.137428940,-0.009788570
1640788286.396829,-0.249293630,-0.195445870,9.699485780,0.087645660,0.072181220,-0.037795310
1640788286.400270,-0.318639670,-0.305677800,10.041316990,0.063169000,-0.038930780,-0.016927720
1640788286.401870,-0.161047070,-0.191943200,9.427061080,0.026369090,0.176128720,-0.014859440
1640788286.405320,0.109190810,-0.246705110,9.619769100,0.002355870,0.177896050,-0.047910220
1640788286.406819,-0.228906930,-0.151262860,11.329071040,0.088571010,0.081010170,-0.026880200
1640788286.410200,-0.029153750,0.013718560,9.710339550,0.126464660,0.043946510,-0.039543220
1640788286.412010,-0.037706260,-0.232338070,9.607848170,0.096452240,-0.000888110,-0.034308430
1640788286.415170,-0.428636970,-0.176898900,10.067138670,0.083498660,0.147578140,-0.023935730
1640788286.416800,-0.281599520,-0.160703210,9.680157660,0.074236080,0.109495220,-0.059022000
1640788286.420519,-0.274393320,-0.067595860,10.610966680,0.084590900,0.064904990,-0.045183300
1640788286.422000,-0.217106360,0.293804140,10.042491910,0.091019270,0.100585820,-0.046667460
1640788286.425230,-0.072085050,0.254257410,10.107399940,0.060142590,0.044821210,-0.055040430
1640788286.427300,-0.211672660,0.307759550,10.254583360,0.076654550,0.085580360,-0.036434830
1640788286.430250,-0.173693180,0.277429550,9.831617360,0.088772200,0.053575640,-0.042743990
1640788286.431840,-0.057821080,0.097607670,10.193410870,0.072383880,0.064019870,-0.026018920
1640788286.435250,-0.030606350,0.211736430,9.998280530,0.071711850,0.110429530,-0.020332630
1640788286.436800,-0.129145180,0.062366390,10.347077370,0.032745310,0.051179530,-0.032798950
1640788286.440260,0.051322030,0.006975730,9.976473810,0.028090180,0.066554550,-0.036199390
1640788286.442580,-0.126689170,-0.153078270,9.976736070,0.091496120,0.079232450,-0.040683150
1640788286.445449,-0.371092860,-0.214729700,10.398904800,0.096699600,0.070114430,-0.041462480
1640788286.446780,-0.204179440,0.028491240,9.729220390,0.078973180,0.032883880,-0.037813190
1640788286.450160,-0.255904410,0.033762050,9.841049190,0.004790720,0.054828830,-0.022810700
1640788286.451910,0.055247440,-0.011662760,9.809000970,-0.006169080,0.143930330,-0.028997660
1640788286.455289,-0.047358860,-0.091266460,10.407697680,0.099854180,0.099246210,-0.044816730
1640788286.456830,-0.235747920,-0.106100820,10.476799010,0.159916280,0.020377340,-0.035260620
1640788286.461069,0.021938570,-0.015258840,9.398935320,0.105977070,0.010266900,-0.022485860
1640788286.461809,-0.268166900,-0.204355850,9.998065950,0.010369720,0.087630760,-0.006330010
1640788286.465139,-0.296641050,-0.287995430,9.961675640,0.007338820,0.114236770,-0.026497250
1640788286.466820,-0.217048410,-0.223217830,10.236432080,0.116828080,0.039173670,-0.047764170
1640788286.470569,-0.322495040,-0.056729120,10.322412490,0.157547010,0.069081770,-0.056883690
1640788286.472020,-0.153331130,0.225128070,9.647235870,0.089158140,0.031378870,-0.039650500
1640788286.475459,-0.381202040,0.176938670,10.391686440,0.031694760,0.025315580,-0.023546810
1640788286.476800,-0.302672920,0.120451340,9.745208740,0.027094790,0.070984670,-0.018708410
1640788286.480190,-0.243616850,0.117842730,10.166318890,0.096224250,0.000442560,-0.025223200
1640788286.481819,-0.385669380,0.165347310,10.679028510,0.129850210,0.063799330,-0.012023750
1640788286.485190,-0.110097650,0.143134770,9.638476370,0.069728500,0.015881660,-0.018702450
1640788286.487120,-0.110718420,0.090651290,10.313616750,0.029195850,-0.016635660,-0.011499230
1640788286.490460,-0.026172400,0.044994260,9.697866440,0.023821000,0.115746280,-0.010320550
1640788286.492839,0.046289020,-0.146303130,9.949560170,0.065363930,0.015096370,-0.032542640
1640788286.495220,-0.277463440,-0.017172470,10.664190290,0.127771510,-0.003394490,-0.022080540
1640788286.496770,-0.138594670,-0.010024360,9.297743800,0.068128110,-0.005014240,-0.025637450
1640788286.500170,-0.121190680,-0.118752450,9.810792920,0.017973780,-0.001037120,-0.006203350
1640788286.501950,-0.339499830,-0.079693090,10.266572950,0.037015970,0.119425360,-0.018902120
1640788286.505329,-0.179339570,-0.124261180,10.032850270,0.073096160,0.023382910,-0.042085360
1640788286.507910,-0.241066980,0.072803710,10.418726920,0.127644810,-0.039538740,-0.003591180
1640788286.510710,-0.290190700,-0.018935670,9.603879930,0.077798960,0.007981060,-0.026826560
1640788286.511910,-0.112154330,-0.199864010,9.534287450,0.035195050,-0.000299510,-0.028882920
1640788286.515159,-0.329570830,-0.105734090,10.101853370,0.081485520,0.043338540,-0.018072130
1640788286.516810,-0.291017830,-0.130759850,10.070967670,0.083953140,0.014589730,-0.053197150
1640788286.520259,-0.068924670,0.054445460,10.165437700,0.086620450,-0.018773970,-0.030738120
1640788286.523830,-0.331138670,0.190709980,10.275719640,0.082163510,-0.008262690,-0.030910970
1640788286.526530,-0.263809410,0.056492440,10.026727680,0.033891210,-0.022754080,-0.024116040
1640788286.527140,-0.224298420,0.097019930,9.842507360,0.080591450,-0.009971860,-0.004869700
1640788286.530170,-0.455721290,0.102027460,10.319230080,0.099852700,-0.019574170,-0.025184460
1640788286.531800,-0.162841220,0.237715110,9.824518200,0.060805690,0.004944210,-0.008532400
1640788286.535169,-0.130448770,0.334943150,9.835851670,0.036266450,-0.054430970,-0.008718670
1640788286.537119,-0.136154430,0.263040780,10.328152660,-0.006110970,0.019793210,-0.010699030
1640788286.540340,0.059000820,0.184408710,9.869499210,0.044344370,0.023444000,-0.003331900
1640788286.541940,-0.382139650,0.026192910,10.660615920,0.102901460,-0.111338500,-0.022795800
1640788286.545189,-0.214787750,0.051556640,9.585642810,0.050430000,-0.054867570,0.000163910
1640788286.546830,0.081953460,-0.053666840,8.980028150,0.009217860,-0.012969970,0.015182790
1640788286.550160,-0.301439610,-0.346879330,10.628451350,-0.006604200,0.060862300,0.005881490
1640788286.551890,0.076868360,-0.217567970,9.900418280,0.051359840,0.024873020,0.003752110
1640788286.555889,-0.136485400,-0.270140530,10.449530600,0.126597300,-0.138656810,0.001402200
1640788286.556919,-0.317064340,-0.272585630,9.880952840,0.075112290,-0.037868310,-0.004278120
1640788286.560180,-0.138270440,-0.089694080,9.088271140,0.024889410,-0.049684950,-0.017923120
1640788286.561879,-0.619361460,-0.202088270,10.540947910,0.033479930,-0.033883750,-0.018510220
1640788286.565169,-0.241209610,0.065300960,9.497880940,0.061689320,0.022199750,-0.030364100
1640788286.567040,-0.239193160,0.328926150,10.408310890,0.088970370,-0.079898520,-0.027321280
1640788286.570639,-0.413774790,0.284613910,10.544202800,0.052763520,-0.023622810,0.005409120
1640788286.572490,-0.075249810,0.257161950,9.418233870,0.041860340,-0.100827240,0.008158390
1640788286.575930,-0.442208170,0.071230420,10.514495850,0.059773030,-0.094057620,-0.000657140
1640788286.576870,-0.249300990,0.103928450,9.539870260,0.037848950,-0.003470480,0.008180740
1640788286.580190,-0.091475500,0.017507460,10.041293140,0.035446880,-0.093066700,-0.000613930
1640788286.581920,-0.255532860,-0.028736880,10.626395230,0.033600630,-0.026132160,-0.018706920
1640788286.585630,0.049522810,0.026096130,9.383579250,0.016468760,-0.069555640,-0.018948320
1640788286.587170,-0.225887160,-0.073852780,10.469937320,0.048871350,-0.122603790,-0.000599030
1640788286.590230,-0.253660470,-0.121887360,9.772276880,0.047303740,-0.023114680,-0.001786650
1640788286.592170,-0.000110780,-0.087811310,9.472766880,0.046738990,-0.117951650,0.006119910
1640788286.595180,-0.283269520,-0.018950970,10.459148410,0.050133470,-0.063228610,0.013639040
1640788286.596900,-0.022024080,-0.093736600,9.488184930,0.005687770,-0.001470740,-0.003030900
1640788286.600309,-0.127762030,-0.101171140,10.401069640,0.041385000,-0.114588440,-0.004510580
1640788286.602079,-0.434161900,-0.116799650,10.396723750,0.085511790,-0.102923820,0.002057850
1640788286.605630,-0.097368000,-0.245394890,9.150443080,0.076350580,-0.116518160,-0.011277200
1640788286.607050,-0.298622130,-0.038463420,10.097805020,0.056567790,-0.076428050,0.010553000
1640788286.610659,-0.321104940,-0.080751920,10.120052340,0.014951830,-0.003163520,-0.002878900
1640788286.611860,-0.016874710,-0.021118300,10.120386120,0.031077870,-0.101280220,0.002290310
1640788286.615160,-0.286706180,0.285135980,10.499085430,0.090305510,-0.134313120,0.001753870
1640788286.617030,-0.090891370,0.229938460,9.483768460,0.044423340,-0.100059830,-0.010995570
1640788286.620469,0.006646410,0.377140790,9.631715770,0.025434800,-0.076498100,0.012926760
1640788286.621879,-0.393642570,0.071510190,10.549125670,0.035783650,-0.052061680,0.012640660
1640788286.625249,-0.137220430,-0.022112660,10.143186570,0.046765810,-0.084444890,0.002633040
1640788286.626799,-0.086092960,0.161483730,9.904972080,0.070868430,-0.148530320,0.028730930
1640788286.630169,-0.113447150,-0.078357130,9.890413280,0.001052020,-0.061967960,0.010275840
1640788286.631940,0.304562870,0.002835580,9.256918910,-0.022085010,-0.013434890,0.004073980
1640788286.635270,0.044313520,-0.151444720,10.324887280,0.050556660,-0.088460740,0.007995960
1640788286.638409,-0.003205300,-0.288906250,10.176762580,0.087516010,-0.056022410,0.007298590
1640788286.640190,0.108253790,-0.122794600,9.473627090,0.081674760,-0.115524230,0.001201030
1640788286.643669,-0.479204300,-0.345253110,10.489752770,0.024658440,-0.109788770,0.008149440
1640788286.645170,-0.244774580,-0.173684210,9.300509450,0.013087690,-0.013855100,0.005558130
1640788286.646829,-0.377500090,-0.099514180,10.074278830,0.067639350,-0.088177630,-0.009563570
1640788286.650440,-0.553899820,-0.038951620,10.552273750,0.083312400,-0.035470720,-0.003150110
1640788286.651880,-0.084118870,0.263363000,9.268993380,0.085607160,-0.105372080,0.004905460
1640788286.655779,-0.419247000,0.087750670,10.418207170,0.050535800,-0.125579540,0.007331370
1640788286.657050,-0.150823030,0.122255260,9.501867290,0.012123580,-0.019702320,0.011241440
1640788286.660140,0.052202120,0.110153330,9.961429600,0.064089910,-0.103114570,0.005187100
1640788286.661850,-0.246446710,0.022662190,10.837184910,0.082603100,-0.046430530,0.005957480
1640788286.665410,0.238495350,0.344505880,9.154894830,0.037315490,-0.097854440,0.007885700
1640788286.666900,-0.108790110,0.219741640,10.424229620,0.004328790,-0.110888470,0.013193490
1640788286.670509,-0.234951540,0.061071580,9.808982850,-0.008204580,-0.010803340,0.008781250
1640788286.671900,-0.111093130,0.103596610,9.734673500,0.052355220,-0.142489360,-0.002858040
1640788286.675180,-0.462149410,0.127880350,10.454746250,0.064595030,-0.092989190,0.007791820
1640788286.676780,0.017386680,0.206257450,8.881981850,-0.017356870,-0.023913390,0.010569390
1640788286.680199,-0.094142890,0.081382170,10.473985670,-0.041618940,-0.065560650,0.012525920
1640788286.682040,-0.207737460,-0.164118780,10.398394580,-0.000208620,-0.013002750,0.003989040
1640788286.685200,0.105494840,-0.280166600,9.351814270,0.083036730,-0.151622280,-0.003166500
1640788286.687039,-0.270750550,-0.224222240,10.229750630,0.099982320,-0.115144260,0.015395880
1640788286.690440,-0.162587020,-0.155238350,9.130011560,-0.018726290,-0.000642240,0.000557300
1640788286.691830,-0.101469330,-0.106416430,10.004714010,-0.048868350,-0.085465600,0.008207560
1640788286.695190,-0.404239620,-0.084013170,10.600354190,0.024293360,-0.027079880,-0.012268130
1640788286.697070,0.030763620,0.073461940,9.496788020,0.066900260,-0.087675450,-0.031258170
1640788286.700209,-0.238075940,0.353325520,10.298166280,0.082048780,-0.106683370,-0.002171100
1640788286.702240,-0.436232890,0.328778680,9.916610720,0.005555150,-0.055100030,-0.006541610
1640788286.705200,-0.144254570,0.248346880,9.531545640,-0.038720670,-0.097368660,0.008015340
1640788286.708150,-0.400147110,0.251303400,10.288805010,0.014491380,-0.091552720,0.012929740
1640788286.710189,-0.148085300,0.158121690,9.792159080,0.017122920,-0.048041350,0.001478200
1640788286.711850,0.136198740,0.226654890,9.824679370,0.025482480,-0.067780910,0.011031330
1640788286.715139,-0.083642130,0.199747790,10.341731070,-0.020276010,-0.078617040,0.002002720
1640788286.716830,0.260090320,0.004944840,9.624038700,-0.064036250,-0.031425060,0.026656690
1640788286.720510,0.083194630,-0.160235480,9.932627680,0.001408160,-0.078380090,0.026661150
1640788286.721949,-0.359573960,-0.311044280,10.394479750,0.038699810,-0.101405380,0.004650650
1640788286.725160,0.168378680,-0.133106410,8.740876200,0.011028350,-0.056472430,0.014013050
1640788286.726899,-0.175300060,-0.203720140,9.960070610,-0.019951160,-0.030504170,0.010569390
1640788286.730290,-0.294090390,-0.145656780,10.493673320,-0.041560830,0.033806270,0.006283820
1640788286.731870,-0.030608910,0.054256140,9.665851590,0.023315850,-0.121709700,0.010849530
1640788286.735240,-0.451874820,-0.059591250,10.398404120,0.048165030,-0.140582040,0.006194410
1640788286.737089,-0.000176140,0.157793690,8.876334190,0.004938250,0.021848080,0.011935830
1640788286.741299,-0.136142730,0.084059530,10.118391040,0.005814430,-0.045225040,0.003014510
1640788286.742070,-0.387585220,0.089398050,10.704012870,-0.002124910,-0.026844440,0.012554230
1640788286.745299,0.295480490,0.315333870,9.029033660,-0.006197390,-0.082656740,0.010384620
1640788286.746870,-0.046381790,0.232335020,10.446324350,-0.008620320,-0.078246000,0.006075200
1640788286.750229,0.048446390,0.304166140,9.643921850,-0.036382680,0.045107300,0.011052190
1640788286.752580,0.052530060,0.237197520,9.981334690,-0.015491250,-0.103923690,0.000095370
1640788286.755230,-0.385948870,0.041184090,10.592267990,0.001777710,-0.054325170,0.010153650
1640788286.757789,0.045565520,0.151081900,8.890080450,-0.026118760,-0.040151180,0.014355780
1640788286.760170,-0.250044520,0.089702000,10.297462460,-0.050556660,-0.033761560,0.017668310
1640788286.762070,-0.165574860,0.027382560,9.762559890,-0.070589790,0.029070680,0.015515090
1640788286.765139,0.101558820,0.041310820,9.669435500,-0.036408000,-0.064729150,0.012716650
1640788286.766960,-0.230334190,-0.108591770,10.620487210,-0.001513960,-0.011861320,0.011043250
1640788286.770480,-0.001293720,-0.142173920,9.373550420,-0.020815430,-0.024358920,0.013756750
1640788286.771910,-0.083518680,-0.192284360,10.057403560,-0.012901430,-0.095044080,0.012911860
1640788286.775179,-0.093934500,-0.075806300,9.390861510,-0.041748580,0.039958950,0.006426870
1640788286.776990,0.212483850,0.038826700,9.329964640,-0.074300180,0.012052060,0.002282860
1640788286.780210,-0.125856730,0.022700780,10.747376440,-0.027239320,0.013603270,0.006578860
1640788286.781829,-0.128308710,-0.062916900,9.777492520,0.021342940,-0.046880540,-0.004284080
1640788286.785460,-0.184709760,-0.165167120,9.848629000,0.032450260,-0.112612570,0.019274660
1640788286.786870,-0.568021360,-0.120648500,9.914449690,0.002537670,0.015038250,0.012558700
1640788286.790419,-0.307763010,-0.229648040,9.502885820,-0.051291280,-0.005103650,0.014664230
1640788286.791950,-0.266224830,0.052158950,10.332292560,-0.012826920,-0.014860930,0.021544100
1640788286.795210,-0.102228090,0.237387140,9.934496880,-0.019955640,0.002461670,0.002321600
1640788286.796880,0.274314140,0.268287900,9.707057950,-0.028465690,-0.036460160,0.016209480
1640788286.800220,-0.016637220,0.317361800,10.182719230,0.009919700,-0.012564660,0.015583640
1640788286.801880,0.006725540,0.107923790,9.771840100,-0.017412010,-0.027537350,0.010874870
1640788286.805270,0.224801530,0.170027080,9.448867800,-0.018653270,-0.035820900,0.034686930
1640788286.806919,-0.070561320,0.126349960,10.052649500,-0.042419140,0.019632280,0.029154130
1640788286.810510,0.189462510,-0.106860090,9.710526470,-0.079034260,0.055432320,0.015690920
1640788286.811859,0.071737650,-0.055088830,9.912034990,-0.004030760,-0.012519950,0.020416080
1640788286.815160,-0.254147440,-0.242304920,10.258856770,0.021372740,-0.011634830,0.018934910
1640788286.816860,-0.023302490,-0.268658670,9.143073080,-0.007714330,0.008828940,0.014650820
1640788286.820380,-0.330662580,-0.264541300,9.946577070,-0.020028650,-0.028461220,0.006425380
1640788286.821869,-0.231623810,-0.275167940,9.729864120,-0.047688190,0.084224340,0.011374060
1640788286.825219,0.053742570,-0.171489600,9.542064670,0.010454660,0.038832430,0.001059470
1640788286.826900,-0.463364600,0.015292070,11.043141370,0.037421280,-0.005672870,0.006452200
1640788286.831679,0.046711550,0.197389860,9.287835120,-0.011320410,0.007362660,0.019060080
1640788286.832310,-0.013422600,0.041868810,9.686662670,0.002534690,-0.042505570,0.020906330
1640788286.835199,-0.269315660,0.135538580,10.128813740,0.002984700,0.096778560,0.025965270
1640788286.837149,0.130099980,0.218296170,9.386610030,0.004464390,0.023482740,0.028486550
1640788286.842610,-0.248727110,0.189111110,10.734438900,0.001931190,-0.039385260,0.027582050
1640788286.843330,0.046850780,0.276786920,9.293657300,-0.042191150,0.053636730,0.020071870
1640788286.845229,0.084484850,0.055820700,9.763020520,-0.025799870,0.010970240,0.005407630
1640788286.846860,-0.501768230,-0.065494490,10.807236670,0.023925300,0.072586540,0.025692580
1640788286.850180,-0.228042980,-0.199787110,9.564057350,0.023373970,-0.036412480,0.015872720
1640788286.851859,-0.260963470,-0.259155570,9.836133960,0.019295520,-0.058870020,0.030151010
1640788286.855260,-0.014629550,-0.111524410,8.964915280,-0.038263200,0.126570460,0.032308700
1640788286.856940,0.190921160,-0.197619320,9.962777140,-0.041037800,0.103174170,0.031532350
1640788286.860370,-0.101273780,-0.078110820,10.942307470,0.026117270,0.052487850,0.031130020
1640788286.861889,0.065192340,-0.070872240,9.563219070,0.056083510,-0.067274270,0.012791160
1640788286.865170,-0.051384690,-0.161716510,9.623440740,0.044602160,-0.025385620,0.020346050
1640788286.867669,-0.277939350,-0.023045870,9.314974780,-0.008589030,0.132152450,0.018121300
1640788286.870430,-0.356353340,-0.130395890,10.152132990,-0.019948180,0.031796090,0.014337900
1640788286.871919,-0.326185260,0.070036060,10.251633640,0.030392400,0.031521910,0.025010110
1640788286.878010,-0.183232740,0.156082120,9.502082820,0.036309660,0.008693340,0.019831960
1640788286.878409,-0.246967000,0.092015880,10.283462520,0.019399820,0.033922490,0.029286740
1640788286.880120,-0.353413400,0.125937300,9.977033620,0.029635430,0.060847410,0.032156710
1640788286.881880,-0.254367380,0.004097290,9.878661160,0.012847780,-0.030940770,0.020378830
1640788286.885190,0.005852090,0.248605250,9.744346620,0.021316110,0.047305230,0.030311940
1640788286.887310,0.065960550,0.237264160,9.592006680,-0.014837090,0.083796680,0.034888080
1640788286.890410,0.127239180,0.127524750,10.283448220,-0.032737850,0.048573320,0.031571090
1640788286.893600,0.096010890,0.089811060,9.975128170,0.022539500,0.038348140,0.037229060
1640788286.895150,-0.040490770,-0.248243570,9.815688130,0.040104990,-0.006079670,0.031189620
1640788286.896910,-0.074913960,-0.202713530,9.675029750,0.036452710,0.045016410,0.044612590
1640788286.900139,-0.211696830,-0.260820210,9.646107670,0.004629790,0.070504840,0.032716990
1640788286.901929,-0.108347260,-0.155355650,9.724122050,-0.046661500,0.068472330,0.021298230
1640788286.906020,-0.123241260,0.049805510,9.894974710,0.006112460,0.070863970,0.031371410
1640788286.906890,-0.330253690,-0.126623030,10.242718700,0.043609730,0.052295630,0.013224780
1640788286.910590,-0.287854820,0.007240050,9.820193290,0.070533170,-0.002411010,0.017896300
1640788286.911900,-0.293985280,-0.018030480,9.654128070,0.066812340,0.013414030,0.027984380
1640788286.915160,-0.094292550,0.098435850,9.371812820,-0.026184320,0.141303240,0.018651790
1640788286.916800,-0.013334700,0.246438950,10.178311350,-0.039020180,0.088028620,0.034849350
1640788286.920390,-0.101818260,0.153343350,10.735080720,0.019840890,0.048726790,0.033175940
1640788286.922299,0.163718060,0.165481730,9.350028990,0.056214640,-0.009968880,0.017900770
1640788286.925170,-0.081004930,0.143824070,9.860203740,0.052483390,0.000597540,0.018280750
1640788286.927480,-0.233591170,0.010969010,9.822758670,-0.012539330,0.158311440,0.030435620
1640788286.930189,-0.216884490,-0.085686390,9.998209950,-0.038337710,0.026470420,0.032825770
1640788286.931860,-0.379725960,-0.127104520,10.558258060,0.020410120,0.008375940,0.044041880
1640788286.935160,0.071569450,-0.016510730,8.842079160,0.021715460,0.092622650,0.018917020
1640788286.937009,-0.096438990,-0.046334290,10.106654170,0.023156400,0.054770700,0.030775370
1640788286.940490,-0.289278120,-0.089301740,10.407282830,0.025314090,0.120478890,0.050981350
1640788286.943850,0.039351170,-0.215694980,9.441545490,0.018635390,-0.015729670,0.024963920
1640788286.945140,-0.178990440,-0.175051840,10.134559630,0.050342080,0.009524820,0.042408700
1640788286.946869,0.026588320,0.009243620,9.061394690,0.008694830,0.163733960,0.018721820
1640788286.950130,-0.044025070,-0.051868820,10.197113040,-0.015942750,0.053572650,0.002384190
1640788286.951920,-0.266908110,0.059766160,10.402032850,0.051404550,0.073252620,0.034269690
1640788286.955720,0.082762580,-0.089525420,9.132011410,0.071702890,0.012581050,0.014695530
1640788286.956940,-0.208660300,-0.099965680,10.215790750,0.060139600,0.049132110,0.044174490
1640788286.960810,-0.302086350,-0.041286540,9.641499520,0.034804650,0.128354130,0.035853680
1640788286.961870,-0.225795480,-0.230954830,10.045290950,0.011079010,0.009647010,0.005631150
1640788286.965170,-0.316311060,-0.009161580,10.234602930,0.060845920,0.058022150,0.028318170
1640788286.966910,-0.094740610,0.095420410,9.396919250,0.055794430,0.059577830,-0.000436600
1640788286.970569,-0.169872940,0.245618370,10.201265340,0.025992100,0.056087970,0.010071690
1640788286.974190,-0.214357600,0.406929340,9.869832990,0.028997670,0.065644090,0.026449560
1640788286.975200,-0.046329370,0.256413940,9.715279580,0.009518860,0.025185940,0.017218290
1640788286.977180,-0.069881690,0.224329710,10.008248330,0.031916800,0.087532410,0.045154990
1640788286.980199,-0.110413970,0.160993430,9.966388700,0.047485530,0.073178110,0.037316980
1640788286.981900,0.047193930,0.094900160,9.778623580,0.001518430,0.043743850,0.031173230
1640788286.985540,0.066386540,0.051028610,9.534265520,-0.010672210,0.075283650,0.040468570
1640788286.986879,-0.111341970,-0.201122250,9.947253230,0.002914670,0.111219310,0.024338070
1640788286.990280,-0.196553440,-0.311201180,10.053319930,0.043432410,0.043080750,0.011758510
1640788286.992600,-0.434461470,-0.411432620,9.985690120,0.090627360,-0.016434490,0.013656910
1640788286.995170,-0.264659080,-0.266467090,9.180322650,0.033608080,0.082996490,0.007562340
1640788286.996870,-0.271294270,-0.169192580,9.811195370,-0.020514430,0.116458540,0.005443390
1640788287.000310,-0.486533910,-0.071654830,10.599264140,0.009348990,0.086922950,0.013521310
1640788287.002149,-0.019811040,0.105475970,9.508257870,0.067923960,0.012534860,0.005675850
1640788287.005190,-0.125795420,0.022326770,9.982810020,0.106270620,0.007191300,0.016038120
1640788287.007050,-0.101197310,0.133856950,9.653754230,0.077886860,0.127822150,0.026349720
1640788287.011240,-0.002588350,0.045629080,9.895877840,0.016210980,0.035254660,0.004006920
1640788287.012070,-0.289231660,0.047987950,10.512320520,0.027221440,0.047253070,0.016674400
1640788287.015250,-0.013636200,0.279884010,9.238067630,0.028336050,0.039413580,-0.009015200
1640788287.017060,-0.231965020,0.173906590,10.121800420,0.036470590,0.011403860,-0.011797250
1640788287.020170,-0.415985200,0.166270060,9.924361230,0.058695670,0.112140190,0.000923870
1640788287.022159,-0.287662710,0.100398450,9.785578730,0.051194430,-0.007449090,-0.008755920
1640788287.025190,-0.507442650,0.006803990,10.499146460,0.043117990,0.021080670,0.031226880
1640788287.026890,-0.134238500,0.070854670,9.144481660,0.011761480,0.074876840,0.023774800
1640788287.030150,-0.119101090,-0.052214920,10.110929490,-0.007507210,0.025601690,0.012566150
1640788287.031870,0.012176450,-0.015745740,9.792407990,0.029557950,0.098852810,0.017476080
1640788287.035270,0.264394760,-0.045596180,9.470427510,0.060348220,0.026185810,-0.004646180
1640788287.036919,-0.084662750,-0.277675480,10.556620600,0.066681210,0.049296020,0.015240910
1640788287.040210,-0.107703010,-0.201809540,9.414284710,0.062012680,0.030735140,0.002402070
1640788287.041910,-0.236401200,-0.178950120,9.759491920,0.016422570,-0.047980250,-0.000710790
1640788287.045179,-0.394185450,-0.216663290,9.674860950,0.020472700,0.111852590,0.005157290
1640788287.046860,-0.345948930,-0.043535030,9.492389680,0.060550870,0.058017680,-0.021012130
1640788287.050240,-0.506461200,0.081661510,10.511920930,0.083121650,0.007504220,0.000198190
1640788287.051910,-0.313156660,0.134869550,9.476025580,0.075477370,0.027421120,0.018043820
1640788287.055620,-0.266330390,0.057010050,9.859318730,0.038264700,-0.002144280,0.013101100
1640788287.056870,-0.402589050,-0.038925470,10.395338060,0.045444080,0.050918770,0.013332070
1640788287.060390,-0.211403100,0.034495990,9.593936920,0.074249530,-0.006085640,-0.003522630
1640788287.061910,-0.105730140,0.183002780,9.864590640,0.062894830,-0.013586880,-0.010302670
1640788287.065209,-0.022459950,0.270340290,9.673365590,0.034433610,0.063447660,-0.015261770
1640788287.066870,-0.018571500,0.305997520,9.885523800,0.008662050,0.023873150,-0.006198880
1640788287.070190,-0.166832360,0.262190070,10.125966070,0.022472440,-0.009079280,-0.003527100
1640788287.072300,-0.246546820,0.149373700,9.807875630,0.059077150,-0.030502680,-0.002697110
1640788287.076089,-0.248015540,0.114773910,9.558033940,0.044265380,0.008916850,0.013563040
1640788287.077469,-0.388061640,-0.029932180,9.976755140,0.015278160,0.015513600,0.001730020
1640788287.080210,-0.326182540,-0.136877460,9.801805500,0.006228690,0.010041890,0.001238290
1640788287.082029,-0.012030190,-0.091535100,9.278862000,0.020293890,0.006806850,-0.004167860
1640788287.085120,-0.172907810,-0.219855860,10.232064250,0.038713220,0.027303400,-0.011473900
1640788287.086890,-0.098664570,-0.102774810,9.753552440,0.056859850,0.026044250,-0.008748470
1640788287.090230,-0.137523800,-0.116907200,9.830448150,0.056865820,-0.101445630,-0.021395090
1640788287.091920,-0.208020140,-0.132365360,9.657640460,0.031536820,0.028699630,-0.022605060
1640788287.095150,-0.000632640,0.102130410,9.071488380,0.015412270,0.053635240,-0.024886430
1640788287.097180,-0.491271730,-0.103124060,10.900642400,0.052239000,-0.019334260,-0.020298360
1640788287.100160,-0.307133820,0.012400490,9.486850740,0.096638510,-0.022502240,-0.008337200
1640788287.101899,-0.273193360,-0.003609130,9.467200280,0.079645210,-0.110238780,-0.006669760
1640788287.105480,-0.596707400,-0.206842650,10.327301980,0.040370230,0.050868100,-0.005222860
1640788287.109880,-0.300829710,-0.061825150,9.370788570,0.054492060,0.007632370,-0.005660950
1640788287.110710,-0.515010300,0.010389210,10.822997090,0.072503090,-0.102145980,-0.023570660
1640788287.111909,-0.126403570,0.344454910,9.401931760,0.049985950,0.007811190,-0.022156540
1640788287.115170,0.109087420,0.458777550,9.282748220,0.007723270,-0.062455240,-0.022543970
1640788287.116920,-0.276471110,0.217685670,10.784825330,0.038746000,0.009518860,-0.023056570
1640788287.120180,0.019569310,0.191786230,9.258587840,0.093279760,-0.036750730,-0.019133090
1640788287.122130,-0.214737240,0.071957010,10.188482280,0.088433930,-0.148493050,-0.016775730
1640788287.126370,-0.255232780,-0.049277480,9.658072470,0.024154780,0.016045570,-0.002214310
1640788287.126900,-0.065615940,-0.235088880,9.143355370,-0.006453690,-0.041531030,-0.022321940
1640788287.130230,-0.337171140,-0.307437510,10.620408060,0.043238700,-0.043427940,-0.035735960
1640788287.131850,-0.121658920,-0.297033190,9.393177990,0.112731760,0.009384750,-0.039893390
1640788287.135239,-0.183336360,-0.256184430,9.927927970,0.100637980,-0.118185600,-0.047492980
1640788287.137140,-0.465319070,-0.160358440,10.174880980,0.062185520,-0.053888550,-0.036166600
1640788287.140220,-0.188032720,-0.283410220,8.860500340,0.048014530,-0.057627260,-0.035111610
1640788287.142239,-0.308680240,-0.184847530,10.034655570,0.090922400,-0.050958990,-0.045822560
1640788287.145300,-0.291725430,-0.055959280,10.009794240,0.128658130,0.009696190,-0.053732100
1640788287.146960,0.028071010,0.149167150,9.600263600,0.108917070,-0.098451990,-0.046709180
1640788287.150149,-0.178870590,0.263692500,10.234865190,0.080914790,-0.089575340,-0.027593970
1640788287.151890,-0.036706440,0.202229590,9.498822210,0.051932040,-0.021317600,-0.026614960
1640788287.155480,-0.098975110,0.205160680,9.794873240,0.081510850,-0.073033560,-0.038659570
1640788287.156900,-0.453886450,0.089838950,10.419700620,0.131060180,-0.087241840,-0.048722330
1640788287.160400,-0.181262200,0.103410040,9.307989120,0.115486970,-0.061021740,-0.046360490
1640788287.167179,-0.224408090,0.110993070,9.634721760,0.075955700,-0.093097980,-0.035871570
1640788287.168660,-0.404410540,-0.052432750,10.359070780,0.038015850,-0.017812850,-0.034941730
1640788287.169360,-0.015596540,0.061247300,9.318374630,0.055478520,-0.045859810,-0.035567580
1640788287.171310,-0.312861680,0.023505450,10.416205410,0.105690960,-0.155146430,-0.031708180
1640788287.172129,-0.109017230,-0.053217460,9.552830700,0.109237450,-0.011080500,-0.023859740
1640788287.175609,0.197879550,0.042906790,8.970074650,0.081375250,-0.069479650,-0.041171910
1640788287.177260,-0.306447120,-0.110393290,10.765942570,0.059467560,-0.066681210,-0.034494710
1640788287.180850,0.221942540,-0.041529580,8.826043130,0.064784280,0.001817940,-0.028641520
1640788287.182320,-0.069230050,-0.065042170,10.078690530,0.099168730,-0.139270720,-0.049811610
1640788287.185150,-0.520322440,-0.108423290,10.521258350,0.117684920,-0.027310850,-0.040063270
1640788287.186849,-0.055883340,-0.048442500,8.545339580,0.109638300,-0.123105960,-0.052745640
1640788287.190250,-0.615983550,-0.151677360,10.546748160,0.092218820,-0.104403500,-0.050896410
1640788287.191959,-0.243036210,0.083606980,9.245414730,0.069780650,0.078682610,-0.046008830
1640788287.195410,-0.148399200,0.143355060,10.011228560,0.082705910,-0.136904420,-0.052252420
1640788287.196920,-0.512713250,0.174295500,10.789911270,0.110162800,-0.087843820,-0.035351520
1640788287.200170,0.138937760,0.236935940,8.500641820,0.100974740,-0.080414120,-0.038616360
1640788287.201880,-0.281917120,0.078617520,10.519447330,0.097748640,-0.115837160,-0.029022990
1640788287.206030,-0.346772460,0.110394780,9.992337230,0.091257680,0.012026730,-0.029580290
1640788287.211979,0.029545480,0.239626440,9.413584710,0.065381820,-0.149993610,-0.043100120
1640788287.213400,-0.243535640,0.285160690,10.417990680,0.052350760,-0.099928680,-0.026470420
1640788287.214010,0.134593860,0.272901620,8.941668510,0.044468050,0.001545250,-0.044654320
1640788287.215119,-0.014598990,0.048506690,10.106635090,0.076520460,-0.099927200,-0.045052180
1640788287.216940,-0.386696670,-0.095744590,10.368670460,0.123499360,-0.083173810,-0.032998630
1640788287.220170,0.032136490,-0.154238890,8.968786240,0.097435710,-0.118353950,-0.036656850
1640788287.222200,-0.282690730,-0.247539740,10.090188980,0.050948560,-0.089274340,-0.024394690
1640788287.228720,-0.282990190,-0.254498450,9.670166970,0.028418000,-0.014203780,-0.042265650
1640788287.229220,0.128085270,-0.107481000,9.399641040,0.062595310,-0.087678440,-0.054420530
1640788287.230150,-0.206511800,-0.131439980,10.306447980,0.131468470,-0.055591770,-0.049321360
1640788287.231890,0.017941850,-0.007072100,9.538457870,0.131508710,-0.058229270,-0.050956010
1640788287.235190,-0.067948830,0.090635600,9.848874090,0.098566730,-0.130337490,-0.035685300
1640788287.236930,-0.367827560,-0.070549380,9.870573040,0.072039660,-0.079882130,-0.035338110
1640788287.240320,-0.023335740,0.100708180,9.202716830,0.064873700,-0.037436190,-0.037856400
1640788287.241920,-0.342103120,0.155927840,10.278497700,0.112195340,-0.070624050,-0.044028460
1640788287.245210,-0.346143810,0.171339380,10.037146570,0.116349760,-0.076735000,-0.046975910
1640788287.247100,0.064348860,0.301485660,9.232208250,0.094221550,-0.094252840,-0.039885950
1640788287.250160,-0.346953120,0.125563640,10.325869560,0.077034530,-0.077857080,-0.024333600
1640788287.251950,-0.122424980,0.121229510,9.719384190,0.067684050,-0.011397900,-0.019165880
1640788287.255499,-0.117153160,0.226375710,9.895493510,0.088904800,-0.120879710,-0.029091540
1640788287.256929,-0.284524080,0.149360570,10.184766770,0.066496440,-0.105012950,-0.029282270
1640788287.260769,0.252222000,0.188363420,8.702378270,0.057725610,-0.026547910,-0.013598800
1640788287.262200,-0.115817290,-0.099799320,10.211282730,0.081078720,-0.051255520,-0.036868460
1640788287.265110,-0.204745550,-0.035664660,10.112733840,0.088740890,-0.019343200,-0.022548440
1640788287.267040,0.174686830,0.096317850,9.146107670,0.092721000,-0.149890800,-0.010491910
1640788287.270239,-0.251349060,-0.116320570,10.119704250,0.044858460,-0.051081180,-0.016610330
1640788287.272220,-0.005984240,-0.015080950,9.018166540,0.032754240,0.019864740,-0.022931400
1640788287.275390,-0.234953180,-0.159750640,10.144701960,0.106142470,-0.117845840,-0.043788540
1640788287.276890,-0.279148910,-0.161850320,9.786229130,0.134371240,-0.005829340,-0.038638720
1640788287.280150,0.107101100,0.090721700,8.992887500,0.106424090,-0.059004140,-0.025887790
1640788287.281920,-0.468350260,-0.044738110,10.835175510,0.051677230,-0.064827500,-0.013515350
1640788287.285140,-0.072357520,-0.024964310,9.028157230,0.051955880,-0.030475850,-0.001880530
1640788287.287140,0.002549410,-0.040240300,9.788244250,0.123684120,-0.114043060,-0.029541550
1640788287.290370,-0.146551940,0.086818050,10.140730860,0.128895010,0.065554670,-0.042237340
1640788287.292019,0.289348240,0.383425410,9.147824290,0.085046890,-0.034299490,-0.031279030
1640788287.295230,-0.194053530,0.346626700,10.836501120,0.054562100,-0.089806330,-0.020474200
1640788287.296960,0.037274230,0.471289100,8.997033120,0.021968780,-0.006136300,-0.018110870
1640788287.300150,-0.062410540,0.346058670,9.658401490,0.065466770,-0.097578760,-0.007237490
1640788287.301940,-0.620906590,0.234508540,10.632785800,0.109471390,0.018301610,-0.012324750
1640788287.305940,-0.141925170,0.248537720,9.029206280,0.077568000,-0.063559420,-0.017349420
1640788287.308140,-0.300936160,0.190152660,10.296603200,0.039185590,-0.081792470,0.000721220
1640788287.310200,0.004644140,0.130578470,9.386878010,-0.027580560,0.094304990,-0.010022520
1640788287.311910,0.381230470,0.019243780,9.585925100,0.008331240,-0.016406180,-0.012978910
1640788287.315110,-0.077561830,0.098285890,10.545094490,0.097450620,-0.039511920,-0.011669100
1640788287.316900,0.206236630,-0.025734130,8.912632940,0.071342290,-0.035487120,-0.009669360
1640788287.320170,0.043474340,-0.159632470,9.664921760,0.041982530,-0.055763130,0.003954770
1640788287.326290,-0.404839960,-0.129712050,9.989111900,0.020994250,0.031705200,-0.017862020
1640788287.327060,0.006427990,-0.162947420,9.250688550,0.013892350,-0.009265540,-0.021733350
1640788287.327580,-0.243403670,0.025528430,10.246997830,0.074349350,0.002604720,-0.015543400
1640788287.330200,-0.265041980,0.196252690,9.873642920,0.053206090,0.021186470,-0.023449960
1640788287.331940,0.016572960,0.137426780,9.569592480,0.043444330,-0.042998790,-0.001862650
1640788287.336150,-0.399513810,0.059897910,9.926856990,0.057353080,-0.027570130,-0.003544990
1640788287.336959,-0.093487160,-0.127267380,9.365604400,0.052270300,0.025427340,-0.006374720
1640788287.340659,-0.168809350,-0.048499880,10.026040080,0.101000080,0.012294950,-0.009305780
1640788287.342020,-0.358910590,0.153509230,10.314806940,0.049987440,-0.023792680,-0.017823280
1640788287.345310,0.270204010,0.253819200,9.186633110,-0.007872280,-0.005407630,-0.001165270
1640788287.346959,0.107121070,0.285918680,9.850068090,0.018914040,0.033868850,-0.001174210
1640788287.350129,-0.005483380,0.262450160,10.275984760,0.043812400,0.060920420,-0.003531580
1640788287.351899,0.172896980,0.376892180,9.610069270,0.082166480,-0.028011200,0.002489980
1640788287.355830,-0.230317740,0.321597990,9.979920390,0.045305490,-0.071750570,0.005617740
1640788287.356920,0.058227200,0.228793990,9.047953610,-0.049343710,0.086937850,0.019034740
1640788287.360469,-0.005763050,-0.016372750,9.739439010,-0.021272900,0.059449680,0.003923480
1640788287.361920,-0.389093040,-0.247076730,10.711428640,0.057472290,0.033192340,-0.011047720
1640788287.365160,0.013970190,-0.128051220,9.181012150,0.096760680,-0.004969540,0.006045400
1640788287.366969,-0.363005880,-0.289718210,9.963411330,0.054219370,-0.035448370,0.011602050
1640788287.370509,-0.283566920,-0.277576000,9.451033590,-0.030738120,0.086864820,0.011187790
1640788287.373050,-0.008614010,-0.179244070,9.273030280,0.016675890,0.021527710,-0.007157030
1640788287.375200,-0.213796410,-0.109107080,10.296715740,0.077386200,0.069989250,-0.003816190
1640788287.377100,0.144241970,0.305384670,9.474681850,0.074894730,0.072561200,-0.006720420
1640788287.380169,-0.201573360,0.281278040,10.498703000,0.049407780,-0.045989460,0.000721220
1640788287.381960,-0.319907670,0.139091400,9.665836330,0.012621280,-0.000678000,0.011159480
1640788287.385460,-0.131010130,0.075613690,9.014746670,0.041720270,-0.014036900,0.002303720
1640788287.386940,-0.502642270,0.009568520,10.254939080,0.079071520,0.083318360,0.001063940
1640788287.390240,-0.177821550,0.249126260,9.495343210,0.041635340,0.060108310,0.008496640
1640788287.392930,-0.173750700,0.261039820,10.311584470,-0.004686420,-0.031387810,0.006565450
1640788287.395160,-0.035596120,0.213102070,9.664902690,-0.027254230,0.060808650,0.005187090
1640788287.396940,0.022951040,0.138657330,9.637931820,0.024946040,0.010752680,0.000213090
1640788287.400200,-0.350290480,-0.000133330,10.442678450,0.090371080,0.022599100,0.005495550
1640788287.402190,-0.189605920,0.132491890,9.193717000,0.042746960,-0.012701750,0.007711350
1640788287.405130,-0.087224630,0.144830580,9.632838250,-0.021183490,-0.022837520,0.030697880
1640788287.407209,-0.119865160,0.046191520,9.597777370,-0.048039850,0.139719260,0.021027030
1640788287.410339,0.038837110,0.102954160,9.770307540,-0.008386370,0.022368130,-0.012752410
1640788287.411980,-0.118235130,0.195065540,10.361352920,0.071322930,-0.005623700,0.012226400
1640788287.415160,0.046938340,0.144721930,9.039333340,0.035706160,0.035145880,0.003267820
1640788287.417430,-0.111423080,-0.054703860,9.937896730,-0.017844140,0.004173810,0.012737510
1640788287.420159,-0.315401140,-0.059875250,9.788017270,-0.013820830,0.081957880,0.002577900
1640788287.422700,-0.191743630,-0.142394040,9.338040350,-0.010918080,-0.009708110,-0.012317300
1640788287.427340,-0.361893860,-0.058438610,10.217936520,0.041817130,0.030912460,0.009316210
1640788287.427850,-0.258588310,0.114830170,9.472963330,0.027140970,0.057695810,-0.014193360
1640788287.430140,-0.250984790,0.014195300,9.995887760,-0.004978480,-0.034756950,0.004249810
1640788287.432040,-0.270893160,0.163547770,9.778697010,0.015395880,0.051762170,0.014251470
1640788287.435940,-0.091913820,0.192756700,9.538102150,-0.012081860,0.027650600,-0.011901560
1640788287.436960,-0.150526780,0.330130820,10.308879850,-0.001923740,0.020948050,0.017140810
1640788287.440230,-0.157110180,0.394338730,9.691018100,0.003463030,0.021569430,-0.000266730
1640788287.441980,-0.035933180,0.188716740,9.581130980,-0.031252210,-0.034685440,0.000315900
1640788287.445170,-0.121598550,0.201636310,9.607994080,-0.002281370,0.042873630,0.022755570
1640788287.446920,-0.172438710,-0.014958080,9.744321820,-0.002512340,0.054892910,0.009968880
1640788287.450240,-0.199123070,-0.084212210,10.122333530,-0.007870790,0.000821050,0.023365020
1640788287.451939,-0.197331370,0.069809950,9.642824170,-0.009363890,-0.027337670,0.024598840
1640788287.455649,0.067928780,-0.070134130,9.243733410,-0.075347730,0.047461700,0.014737250
1640788287.456940,0.051892520,-0.069764060,9.704187390,-0.023397800,0.093993530,0.010433790
1640788287.460240,-0.145311150,-0.036807910,10.106902120,0.038512050,0.029973690,0.006592270
1640788287.461939,0.010026150,-0.049047050,9.557935710,0.023785240,-0.029066210,0.020039080
1640788287.465560,-0.219621750,-0.116351020,9.534950260,-0.001212950,-0.001463290,0.025965270
1640788287.466930,-0.330429380,-0.103153990,9.665181160,-0.038906940,0.051261490,0.024259090
1640788287.470189,-0.221233680,-0.108604460,9.604734420,-0.018538540,0.035353000,0.009487570
1640788287.472210,-0.318942040,0.047870420,10.036681180,0.031055510,0.035758320,-0.003074110
1640788287.475230,-0.062053940,0.248367380,9.619051930,0.015161930,0.053234410,-0.001423060
1640788287.476950,-0.211674300,0.160584490,9.972402570,0.003014500,-0.019170350,0.011228020
1640788287.480229,-0.334701660,0.152028310,9.721753120,-0.008140500,0.000165400,0.016461310
1640788287.483749,-0.111962710,0.131432850,9.150146480,-0.015860800,0.000777840,0.013740360
1640788287.486889,-0.383912240,-0.029318660,10.293443680,0.018371640,0.036691120,0.030021370
1640788287.487460,-0.111493400,0.167937000,9.719482420,0.009228290,0.058698650,0.011432170
1640788287.490300,-0.040362940,0.163224120,10.003816600,-0.017094610,-0.042533870,0.010991100
1640788287.491950,-0.097949790,0.261777490,9.779704090,-0.035099690,0.041884180,0.023250280
1640788287.495180,0.135636910,0.377900510,9.133131980,-0.050820410,0.022469460,0.019972030
1640788287.497779,-0.241670880,0.177916540,10.321373940,-0.025692580,0.006610160,0.026355690
1640788287.500150,-0.126740900,0.209248160,9.366684910,0.003908580,0.014682120,0.012378400
1640788287.502030,-0.131021780,0.016385110,9.635444640,-0.015299020,-0.041839480,0.014398990
1640788287.505530,-0.245857420,-0.183976160,9.841773030,-0.035354500,0.103716550,0.037638850
1640788287.506940,-0.055726930,-0.211824030,9.422389030,-0.039848690,0.037512180,0.013288860
1640788287.510140,-0.275425760,-0.293544470,10.440189360,-0.007189810,-0.034995380,0.016385320
1640788287.511910,0.042378260,-0.160119830,8.864097600,0.015839940,0.040906670,0.030073530
1640788287.515159,-0.010218550,-0.098309640,9.557886120,-0.019624830,-0.014489890,0.011590120
1640788287.516880,-0.219416320,-0.064171310,10.141995430,-0.017349420,0.105898100,0.017930570
1640788287.520180,0.021235580,0.125937160,9.282140730,0.005610290,0.000724200,0.010588760
1640788287.522150,-0.282714690,0.249803720,10.627311710,0.003679100,-0.028678770,0.014415380
1640788287.525200,-0.083449240,0.358265790,9.173030850,-0.026027860,0.081752250,0.033769010
1640788287.528180,-0.134560810,0.285759630,9.774340630,-0.037091970,-0.031004850,0.027747450
1640788287.530439,-0.380163580,0.147160020,10.303704260,-0.008271630,0.067763040,0.032071770
1640788287.534870,0.053311350,0.232704850,8.828893660,-0.000506640,0.019446010,0.032477080
1640788287.535460,-0.191858430,0.194108710,10.417498590,-0.033397980,-0.006063280,0.036841630
1640788287.536900,0.087722240,0.130857650,9.365635870,-0.068376970,0.118963420,0.030161440
1640788287.542580,0.266281460,0.119928290,9.518327710,-0.071056180,-0.011369580,0.024151800
1640788287.543700,-0.075189680,-0.047365870,10.470721240,-0.013154750,0.069229300,0.035214420
1640788287.545189,0.037945150,-0.182545650,9.129140850,0.009503960,0.064153980,0.028876960
1640788287.547500,-0.351938040,-0.249229940,10.225791930,-0.005014240,-0.066120920,0.038282580
1640788287.550150,-0.395973500,-0.366189930,9.431706430,-0.019487740,0.056169930,0.039911270
1640788287.551960,-0.084257630,-0.291292010,8.794450760,-0.034840400,0.052921490,0.023554270
1640788287.555840,-0.351736580,-0.057241230,10.528974530,-0.019349160,0.105813150,0.013360380
1640788287.557000,0.009943080,0.159578840,9.699440960,-0.009609760,0.086553390,0.004361570
1640788287.560220,0.185191420,0.314968680,9.761951450,0.001426040,-0.026568780,0.024056440
1640788287.562009,-0.089835660,0.210654710,9.981806760,0.016750400,0.058035560,0.023286040
1640788287.565209,-0.039718530,0.052146310,9.368680950,0.004148480,0.067234040,0.024367870
1640788287.566959,-0.364964220,-0.043501680,10.130108830,0.026018920,-0.004418190,0.033168490
1640788287.570200,-0.455510710,-0.090717030,9.813611030,0.016655030,0.041562310,0.024378300
1640788287.572320,-0.015341780,0.075655780,9.068695070,-0.029245020,0.055423390,0.027923290
1640788287.575749,-0.230989190,0.193038060,10.220887180,-0.036208330,0.068058070,0.027287010
1640788287.579380,-0.008029900,0.252941940,9.892345430,-0.043962900,0.117693840,0.010676680
1640788287.580440,0.165254920,0.412321090,9.620013240,-0.001385810,0.001820920,0.020378820
1640788287.581990,-0.232787800,0.281154420,10.348140720,0.017948450,-0.009237230,0.030529500
1640788287.585130,0.058440910,0.126776870,8.917898180,-0.034290540,0.094534440,0.044237070
1640788287.586920,-0.162076180,-0.025182360,9.791693690,-0.040686130,0.013035540,0.032351910
1640788287.590270,-0.398540080,-0.283360720,10.202100750,-0.030833490,0.082431750,0.035372380
1640788287.592280,0.196846750,-0.262418540,8.762748720,0.003899630,0.070141260,0.034505130
1640788287.596470,-0.373072680,-0.312528130,10.764191630,0.026944280,0.024399160,0.030907990
1640788287.597829,-0.139595270,-0.130456820,9.559722900,-0.010629000,0.100184980,0.027404730
1640788287.600170,0.082257220,0.050758240,9.157536510,-0.024671850,-0.049000980,0.012139980
1640788287.601970,-0.434581850,0.040909450,10.464066510,-0.016975400,0.084285450,0.010842080
1640788287.605630,0.074635650,0.324666650,8.827709200,-0.006975230,0.122575460,0.004647670
1640788287.607890,-0.359500290,0.318189770,10.710149770,0.038620830,-0.047236680,0.012508030
1640788287.611620,-0.359000620,0.350142750,9.768454550,-0.000074510,0.075349220,0.030012430
1640788287.612460,0.104883990,0.271879140,8.775799750,-0.044405460,-0.002969800,0.040988630
1640788287.615120,-0.502282260,-0.074436430,10.916042330,-0.013257560,0.069552670,0.049175320
1640788287.616930,-0.043297450,0.002887700,9.150929450,0.003647800,0.097998980,0.026835500
1640788287.620200,0.067666400,-0.003722590,9.909430500,0.018289690,-0.052106380,0.020086770
1640788287.622239,-0.059820160,0.123971340,9.893569950,-0.050505990,0.117427100,0.021505350
1640788287.626350,0.369134520,0.091426520,8.947274210,-0.087818500,0.091907380,0.010387600
1640788287.627020,-0.253782810,-0.117504100,10.846577640,0.000198190,0.001569090,0.011077520
1640788287.630260,-0.314886450,-0.129498120,9.401373860,0.052347780,0.037325920,0.018221140
1640788287.631970,-0.100111040,-0.251178500,9.084859850,0.034649670,-0.018681590,0.028707090
1640788287.635190,-0.674490030,-0.189231370,10.288533210,-0.016713140,0.109848380,0.033180420
1640788287.636960,-0.201329130,-0.165572170,9.190114020,-0.060050190,0.077496470,0.024664400
1640788287.640270,-0.067342130,-0.086350700,9.983661650,-0.002115970,0.015842910,0.021895760
1640788287.642050,-0.108778700,0.189766690,9.817186360,0.038622320,0.099568070,0.011917950
1640788287.646400,0.253115450,0.198984890,9.591141700,0.030794740,0.028304760,0.007151070
1640788287.646960,-0.210964070,0.143506200,10.390904430,0.025860970,0.000616910,0.029779970
1640788287.650149,-0.205516310,-0.059261650,9.528080940,-0.002071260,0.025370720,0.021179020
1640788287.651960,-0.101187680,-0.074536670,9.575048450,0.018867860,0.023332240,0.024706130
1640788287.655300,-0.527737740,0.058886230,10.204968450,0.035057970,0.047756740,0.029003620
1640788287.657940,-0.128150640,0.097985100,9.475200650,-0.008942190,0.045709320,0.013285880
1640788287.660169,0.035891310,0.331357990,9.617500310,-0.001764300,0.026431680,0.015713270
1640788287.662210,-0.138998990,0.255426910,10.135604860,-0.011755530,0.067731720,0.025938450
1640788287.665109,0.228896450,0.229624580,9.539729120,-0.000041720,0.072668500,0.023064020
1640788287.666990,-0.125117590,0.099377810,10.183953290,0.040562450,-0.029619040,0.029803810
1640788287.670189,-0.076616030,-0.191604060,9.564861300,0.014239550,0.026024880,0.032693150
1640788287.672350,0.210458790,-0.179198160,8.917779920,-0.002992150,0.085005160,0.025619570
1640788287.675190,-0.418232290,-0.458264620,10.590929030,0.013872980,0.067055230,0.030450530
1640788287.678320,-0.087930520,-0.350580510,9.512858390,0.037196280,0.049753490,0.025656820
1640788287.680159,-0.031142210,-0.196526690,9.264730450,0.065624720,-0.032164160,0.021538140
1640788287.681959,-0.392928810,-0.245926620,10.065451620,0.024890900,0.090828550,0.019927320
1640788287.685200,0.017439690,0.083249070,9.113226890,0.021678210,0.074048340,-0.001889470
1640788287.686960,-0.387420270,0.109528150,10.514334680,0.052724780,-0.031037630,-0.004591050
1640788287.690690,-0.261437650,0.300937560,9.546059610,0.040388110,0.088512900,0.011375550
1640788287.692570,-0.028667850,0.420795020,9.407349590,0.032839180,-0.013376770,0.008803610
1640788287.696179,-0.574887040,0.147419100,10.697941780,0.030218060,0.034405290,0.021712480
1640788287.697110,-0.054541630,0.115648490,8.932230000,0.033406910,0.043110540,0.019527970
1640788287.700160,-0.128635880,-0.013538010,10.076223370,0.062268960,-0.023552770,0.009873510
1640788287.701969,-0.114108020,0.018096150,9.798604010,0.030283630,0.115673270,0.033210220
1640788287.705279,0.350706850,0.044882040,9.369876860,-0.009587410,0.022444130,0.002475080
1640788287.707260,-0.068167040,0.042939860,10.576990130,0.000694390,0.013649460,0.001142920
1640788287.711249,0.091686200,-0.006444480,9.214525220,0.025989120,0.046737490,-0.009089710
1640788287.712730,-0.071176890,-0.152551340,9.860733030,0.079846380,-0.008772310,-0.003392990
1640788287.715119,-0.601101640,-0.142186880,10.116831780,0.081650930,0.036647920,0.010037420
1640788287.716920,-0.229838910,-0.137685540,9.053604130,0.025701520,-0.022855400,0.006239120
1640788287.720340,-0.238062840,-0.024995900,9.663618090,0.005249680,0.049120200,0.021138790
1640788287.722000,-0.105273810,-0.064988170,9.576482770,0.003992020,0.130839650,0.017401580
1640788287.725260,0.144359450,-0.085329670,10.247879030,0.074176500,0.034813590,-0.003719330
1640788287.726930,-0.134835820,-0.010199840,10.221341130,0.145766150,-0.017094610,-0.002972780
1640788287.730150,0.030510650,-0.094346040,9.160091400,0.073705620,-0.048477960,-0.014647840
1640788287.731989,-0.025521530,-0.112307630,9.358379360,0.024200970,0.061957540,-0.008307400
1640788287.735170,-0.448706690,-0.207940910,9.952761650,0.046145920,0.068408250,-0.012396280
1640788287.737089,-0.230157420,-0.048994940,9.980259900,0.088645530,-0.008066000,-0.010958320
1640788287.740540,-0.205043780,0.158692150,9.710058210,0.111332540,-0.008551770,0.008127090
1640788287.742040,-0.293932440,0.181209860,9.838834760,0.056785340,0.026430190,0.005151330
1640788287.745210,-0.176330700,0.286095200,9.802377700,0.042575590,0.054055450,0.023920830
1640788287.746919,-0.307761760,0.246846350,10.048375130,0.068241370,-0.036083160,0.010348860
1640788287.750170,-0.048556270,0.336843370,9.594117160,0.058129430,-0.002096590,0.001229350
1640788287.752060,0.263611580,0.409755620,9.136863710,0.047591330,0.050507490,0.007267300
1640788287.755200,-0.087937410,0.101677870,10.415380480,0.026880210,0.051684680,0.007945300
1640788287.757079,0.106359530,-0.040243910,9.796139720,0.048498810,0.015284120,0.001755360
1640788287.760779,-0.069256760,-0.327019510,9.733333590,0.117321320,-0.080072880,0.009079280
1640788287.761960,-0.368327920,-0.368152290,9.645104410,0.078868870,0.014072660,0.014491380
1640788287.765139,0.007590000,-0.159004630,8.766568180,0.013995170,0.044167030,0.003138180
1640788287.766940,-0.374021650,-0.268389760,10.404353140,0.015142560,0.031492120,-0.008970500
1640788287.770550,-0.140690590,-0.054334250,9.742697720,0.069066890,0.068119170,-0.017195940
1640788287.771979,-0.096649130,0.066269380,9.984242440,0.134249050,-0.066301230,-0.025329000
1640788287.775260,-0.508949880,0.066496530,10.227282520,0.105574730,-0.014154610,-0.012224910
1640788287.777030,-0.146405580,0.173040520,8.868583680,0.048941370,-0.014470520,0.005391240
1640788287.780120,-0.394833180,0.083232800,10.148724560,0.039088730,0.000979010,0.004580620
1640788287.781980,-0.233347100,0.140604720,9.644544600,0.055518760,0.069744880,-0.000293550
1640788287.785689,0.120720390,0.215648000,9.761912350,0.095967960,-0.045165420,-0.015687940
1640788287.786939,-0.103705260,0.268885970,10.206623080,0.102640700,0.007079540,0.004044180
1640788287.790310,0.096735980,0.300714220,9.367428780,0.031857190,-0.007273260,-0.007700920
1640788287.792009,-0.094122750,0.184107420,10.251029010,0.019270180,-0.019617380,0.006182490
1640788287.795199,-0.289550420,0.063688960,9.898489950,0.048461560,0.005662440,0.000290570
1640788287.796960,-0.210713430,0.067906390,9.637295720,0.066249080,-0.052315000,-0.011157990
1640788287.800240,-0.263996180,0.071175560,9.737975120,0.071410830,-0.010746720,-0.003549460
1640788287.803079,-0.116571180,0.004281430,9.424641610,0.026391450,0.031469760,-0.000399350
1640788287.805140,0.089268270,-0.031859620,9.939897540,0.016617780,0.023053590,0.011682510
1640788287.807309,0.045143820,-0.047378830,9.821452140,0.062932070,-0.002907220,0.004890560
1640788287.811309,0.210686480,-0.132983100,9.593113900,0.059229150,-0.031083830,0.013330580
1640788287.811980,0.098841820,-0.205736980,9.631042480,0.073570010,0.031892960,0.003004070
1640788287.815150,-0.217484180,-0.307664010,9.806468010,0.066746760,-0.029754640,-0.021845100
1640788287.817489,-0.167114450,-0.251497210,9.594341280,0.062599790,-0.009970370,-0.016309320
1640788287.820150,-0.258412810,-0.114014990,9.480693820,0.088329620,0.007110830,-0.016452370
1640788287.822170,-0.496371090,-0.002669600,10.225593570,0.060993440,0.005190070,-0.011914970
1640788287.825189,-0.309649170,0.221944880,9.682733540,0.066526230,-0.010465090,-0.000044700
1640788287.826969,-0.385639310,0.175460920,9.848980900,0.093261880,-0.071260330,0.001199540
1640788287.830119,-0.272749360,0.190185580,9.676896100,0.081138310,0.024910270,0.004567210
1640788287.831980,0.052136220,0.332853470,9.528093340,0.087681410,-0.005468730,-0.006099050
1640788287.835199,-0.174930210,0.176339390,10.494047160,0.044347350,-0.016343600,-0.004850330
1640788287.836949,0.321113970,0.209046530,9.173702240,0.032599270,-0.002203880,-0.005613270
1640788287.840400,0.085041220,0.056636770,9.942958830,0.068952150,-0.050568590,-0.014555460
1640788287.844329,-0.186966230,-0.048839630,9.960513110,0.061970940,0.031758850,0.002187490
1640788287.845160,-0.064091000,-0.042185330,9.448016170,0.066249070,-0.070475040,-0.001977380
1640788287.846959,-0.414838080,-0.183749530,10.093675610,0.058773170,-0.064195710,0.000707810
1640788287.850160,-0.026506790,-0.052260580,8.727921490,0.033646830,0.042665000,-0.003841520
1640788287.851940,-0.127863110,-0.003061290,10.115257260,0.045534970,0.025902690,-0.014732780
1640788287.855490,-0.407791140,0.015126170,10.494546890,0.064761940,0.022466480,-0.019393860
1640788287.856940,-0.139085490,0.108883570,9.346902850,0.090232480,-0.141358350,-0.018838050
1640788287.860180,-0.344970410,-0.006036150,9.623702050,0.087548780,-0.076188130,-0.014376640
1640788287.861970,-0.219681410,-0.038535310,9.002176280,0.045333800,0.056323410,-0.014396010
1640788287.865340,-0.120554240,-0.004199630,10.134762760,0.062035030,0.002516810,-0.025339420
1640788287.866989,-0.111309270,0.183736290,10.158958440,0.076727570,-0.002865490,-0.023546820
1640788287.870170,0.241376180,0.296654940,9.396071430,0.032411520,-0.067827110,-0.016912820
1640788287.872460,0.010573240,0.381778270,9.939999580,0.023198120,-0.027497110,-0.010901690
1640788287.876430,-0.248234180,0.218556790,9.644794460,0.034973030,-0.022181870,-0.016611820
1640788287.876999,-0.320875730,0.119020540,9.789943700,0.068755460,-0.077465180,-0.022158030
1640788287.880299,-0.509389160,0.182139500,9.793682100,0.082989040,-0.040103500,-0.013849140
1640788287.881970,-0.480212360,0.077746790,9.734664920,0.005914270,-0.034564740,-0.011909010
1640788287.885130,-0.249639020,0.182007600,9.806568150,-0.015257300,-0.018016990,0.005376340
1640788287.886970,-0.241337020,0.079898300,9.867631910,0.002260510,-0.040571380,-0.016222900
1640788287.890210,0.069981300,0.178327160,9.633617400,0.036571920,-0.049087410,-0.019167370
1640788287.891990,0.243888180,0.284789410,9.390460010,0.051817300,-0.030314920,-0.006273390
1640788287.895120,-0.017312490,0.054451150,10.003360750,-0.008450450,-0.037164990,-0.021298230
1640788287.897420,0.194921050,0.110724580,9.355306630,-0.020174680,-0.037387010,-0.008152430
1640788287.900250,-0.042780800,-0.138987530,9.735053060,0.015658140,-0.051191450,-0.009423490
1640788287.901980,-0.441381340,-0.315552950,10.149160390,0.023740530,-0.013159220,-0.011146070
1640788287.905530,-0.319675300,-0.172899430,9.423613550,0.061662500,-0.101859870,-0.010663270
1640788287.906970,-0.632517810,-0.367838170,9.908517840,0.037944320,-0.097440180,-0.013935570
1640788287.910159,-0.295157730,-0.131597760,8.958967210,0.000168380,0.022399430,-0.016741450
1640788287.912030,-0.266100730,0.056159220,10.033720970,0.012438000,-0.046908860,-0.030303000
1640788287.915140,-0.308350210,0.186075490,10.297925950,0.014512240,-0.041779880,-0.026218600
1640788287.916950,0.220919560,0.460744890,9.075732230,0.039282440,-0.119975220,-0.028719010
1640788287.920179,-0.056484420,0.307663320,10.212127690,0.029174990,-0.076054060,-0.025409470
1640788287.922160,-0.119166940,0.261223670,9.591396330,-0.000219050,-0.003333390,-0.021037460
1640788287.925279,-0.132708650,0.202232420,9.945701600,0.024375320,-0.144848240,-0.012502080
1640788287.926940,-0.438818420,0.120794490,9.963470460,0.009998680,-0.079071530,0.000903010
1640788287.930260,0.063476380,0.313831480,8.612822530,-0.043702120,-0.071933870,-0.002202390
1640788287.931959,-0.133866790,0.234136730,10.294569020,-0.043877960,-0.029349330,0.001531840
1640788287.935160,-0.116580540,0.170917790,9.949689870,-0.032508370,0.005120040,-0.022263830
1640788287.937350,0.069522470,0.167944940,9.823362350,0.009898840,-0.154767950,-0.024737420
1640788287.940150,-0.270310610,0.002290490,10.036373140,0.024411080,-0.089654330,-0.012986360
1640788287.942040,-0.152363050,-0.099485880,8.934782030,-0.042760380,-0.067847970,-0.011116270
1640788287.945560,-0.186270890,-0.094075410,9.681395530,-0.046098230,-0.094050170,-0.000557300
1640788287.947000,-0.151433260,-0.120984850,9.471841810,-0.038048620,-0.004816060,-0.011517110
1640788287.950120,0.158069540,-0.085709470,9.530689240,-0.016832350,-0.047361850,-0.009451810
1640788287.952010,-0.026772060,-0.027267020,10.349178310,0.024065380,-0.057889520,-0.009457770
1640788287.955250,-0.087515890,-0.119620470,9.756207470,-0.008258220,-0.092780590,-0.032058360
1640788287.957010,-0.047372100,-0.068401150,9.320919990,-0.016514960,-0.114578010,-0.011946260
1640788287.960180,-0.386065100,-0.073437180,9.542737960,-0.017821790,-0.056716810,-0.033183400
1640788287.962240,-0.321075500,-0.074313370,9.501976010,-0.032866000,-0.030262770,-0.027671460
1640788287.965129,-0.322654250,0.067176610,9.847042080,0.033615530,-0.094160450,-0.010822710
1640788287.966960,-0.464900020,-0.049764740,10.136105540,0.021590290,-0.102621320,-0.020091240
1640788287.970130,-0.048680310,0.092408280,9.272539140,-0.011160970,-0.065542760,-0.002793970
1640788287.972339,-0.197286110,0.234481020,10.116271020,-0.010438270,-0.079295050,-0.015926360
1640788287.976470,-0.127446140,0.262249050,9.982097630,-0.043921170,-0.043036050,-0.019018350
1640788287.977059,0.308085950,0.489326750,9.040623660,-0.020706660,-0.124195220,-0.022809210
1640788287.980250,-0.095444920,0.425342740,10.250319480,-0.025154650,-0.090065600,-0.029219690
1640788287.981999,0.039260140,0.272510950,9.297839160,-0.047042970,-0.000062580,-0.012969970
1640788287.985119,-0.261435480,0.101259850,10.195723530,-0.013139850,-0.165620450,-0.020097200
1640788287.987320,-0.542837080,-0.117519480,10.246467590,-0.018849970,-0.100789960,0.002248590
1640788287.990219,0.046555050,-0.132670060,8.448368070,-0.044924020,-0.079324840,0.008071960
1640788287.992070,-0.306454210,-0.166350110,10.447621350,-0.054435430,-0.060774390,-0.002934040
1640788287.995290,0.072368500,-0.006873860,9.384791370,-0.069284450,0.029881300,-0.015699860
1640788287.996960,0.363598440,0.172362790,9.583597180,-0.030784310,-0.146362190,-0.022545460
1640788288.000170,-0.142116280,0.128603760,10.524504660,-0.015152990,-0.051589320,-0.016367440
1640788288.002060,0.081511860,0.013805640,8.854616170,-0.037685040,-0.090908990,-0.034359090
1640788288.008340,-0.371373440,-0.102278200,10.197038650,-0.007568300,-0.163315240,-0.032374270
1640788288.009050,-0.473182650,-0.107799520,9.432747840,-0.029361250,0.001300870,-0.028191510
1640788288.010170,-0.122305560,-0.034462550,9.305980680,-0.055463600,-0.087402750,-0.026506180
1640788288.011979,-0.430382310,0.162620870,10.656975750,-0.049588080,-0.057274100,-0.017122920
1640788288.015210,0.084977800,0.217835370,9.215152740,-0.063383560,-0.048564370,-0.019621850
1640788288.016960,0.130288090,0.256602050,9.943375590,-0.035764280,-0.110392270,-0.015571710
1640788288.020700,-0.193577630,0.290836240,10.246131900,-0.023773310,-0.032922630,-0.019846860
1640788288.022189,0.106395560,0.040476090,9.467074390,-0.046870100,-0.099867590,-0.019782780
1640788288.025849,-0.143758070,0.085025480,10.004021640,-0.035373870,-0.119824710,-0.010870400
1640788288.027030,-0.165152070,-0.013863140,9.576851840,-0.069095190,-0.050282470,-0.018773970
1640788288.030200,0.120709960,0.020134600,9.412555690,-0.071476400,-0.037945810,-0.004120170
1640788288.031989,-0.246636080,0.152891740,10.459455490,-0.050961980,-0.078466520,-0.013956430
1640788288.035159,-0.005830160,0.031673000,9.736778260,-0.072503100,-0.069575020,-0.020223860
1640788288.037250,0.275143060,0.237435890,9.118181230,-0.043743850,-0.098989910,-0.012426080
1640788288.040220,-0.115417670,0.164744530,10.041758540,-0.065308820,-0.020343070,-0.007973610
1640788288.042359,0.248510180,0.091721060,9.283924100,-0.105066610,0.036408010,-0.003492830
1640788288.045460,-0.102483320,0.048213870,10.236749650,-0.056089470,-0.128856320,-0.005227330
1640788288.046939,-0.346525700,-0.298825170,10.098608020,-0.033614040,-0.073739870,0.005653500
1640788288.050140,0.047536350,-0.331113490,8.581738470,-0.016303360,-0.053586070,-0.002849100
1640788288.051999,-0.537564990,-0.391270910,10.581901550,-0.020769240,-0.057573630,-0.018511710
1640788288.055230,-0.054736660,-0.118600860,9.238481520,-0.076782710,0.053973500,-0.017322600
1640788288.057210,0.213756070,0.182321460,9.578694340,-0.083845850,-0.101137170,-0.026102360
1640788288.060819,-0.206424620,0.279435990,10.678686140,-0.072704270,0.002206860,-0.020617250
1640788288.062019,0.374711250,0.426036630,8.772316930,-0.035776200,-0.043350460,-0.030130150
1640788288.065189,-0.247606220,0.258467320,10.542130470,0.004121660,-0.140729560,-0.024838750
1640788288.067030,-0.330370310,0.258995230,9.498791690,-0.042040650,0.026778880,-0.002320110
1640788288.070660,-0.034925140,0.095894520,9.247411730,-0.075210620,-0.091563170,0.009670850
1640788288.072180,-0.481677530,0.089936320,10.730914120,-0.087106240,-0.026215610,0.024051970
1640788288.075850,0.120714750,0.142818500,8.953930850,-0.111493470,0.011663140,0.006201860
1640788288.076980,0.203207630,0.065182640,10.008094790,-0.065410140,-0.072352600,-0.004774330
1640788288.080230,-0.033174020,0.082307030,10.062119480,-0.029167530,0.038026280,-0.005534290
1640788288.081970,0.287230100,-0.032765090,9.202448840,-0.057636210,-0.054132940,-0.019915400
1640788288.085130,-0.159039660,0.059386010,10.221650120,-0.077626090,-0.091789650,0.001829860
1640788288.087270,-0.083988190,-0.079657570,9.085233690,-0.120809680,-0.008438530,0.001092260
1640788288.090370,0.104376630,-0.193251330,9.370147710,-0.087608400,-0.000068550,-0.002761190
1640788288.093979,-0.433095070,-0.172634850,10.583400730,-0.013075770,0.038613380,-0.001537800
1640788288.095100,-0.156407890,-0.160776620,9.694985390,-0.018168990,-0.043319170,0.000640750
1640788288.096979,-0.158799620,-0.011447200,9.617330550,-0.049094860,-0.100371250,0.007689000
1640788288.100129,-0.284825270,-0.058526550,9.476758960,-0.115044440,0.008985400,0.001318750
1640788288.102170,0.087574750,0.024162270,9.274588580,-0.099931680,0.055333980,-0.013412540
1640788288.105280,-0.182172450,0.167699230,10.432683940,-0.008797650,-0.019350650,-0.016206500
1640788288.107090,-0.107187880,0.170686500,10.048705100,-0.020368400,-0.034400820,-0.015768410
1640788288.110829,0.169679520,0.354737940,9.165004730,-0.062757730,-0.053413220,-0.005531310
1640788288.112010,-0.379263940,0.001674790,10.306072240,-0.094713270,-0.030551850,0.008779760
1640788288.115090,-0.134436000,-0.000864420,9.350765230,-0.074212250,0.035598870,0.000604990
1640788288.117020,-0.020453880,0.162083940,9.520999910,-0.030003490,-0.081007200,-0.001254680
1640788288.120659,-0.188008260,0.187677680,10.185839650,-0.072352590,0.032946470,0.002539160
1640788288.122150,0.371987220,0.428296450,8.939843180,-0.132925820,0.032880900,0.002206860
1640788288.126910,-0.136142970,0.187315970,10.717230800,-0.122813880,-0.078023970,-0.009232760
1640788288.127400,-0.141538550,0.056364850,9.657902720,-0.069791080,0.026239460,0.002764170
1640788288.130139,0.010127720,-0.059462650,9.234219550,-0.026385490,-0.076952580,-0.004148480
1640788288.132000,-0.617919740,-0.306286480,10.631251340,-0.054687270,-0.011777880,0.001960990
1640788288.135229,0.065606900,-0.188635420,8.529045100,-0.109197200,0.028960400,0.004932280
1640788288.137250,-0.040371990,-0.285985710,9.999661450,-0.113119190,-0.007577240,0.000631810
1640788288.140300,-0.129379470,-0.174379870,10.105031970,-0.076894470,0.083407760,-0.003351270
1640788288.142020,0.309972820,0.054183380,9.216545100,-0.032982230,-0.078164030,-0.015142560
1640788288.145200,-0.249135170,0.038823590,10.273575780,-0.032949450,-0.062690680,-0.004786250
1640788288.146979,-0.072746720,0.119846910,8.831866260,-0.086393970,0.037764020,0.000306960
1640788288.150169,-0.206055950,0.040455880,10.062703130,-0.090967130,-0.019118190,-0.008024280
1640788288.152089,-0.627651810,0.022004090,10.548498150,-0.061763820,0.012318790,-0.000229480
1640788288.155900,-0.173944230,0.118441920,9.161520000,-0.030057140,-0.073514890,0.010253490
1640788288.157169,-0.380233350,0.163263660,10.083337780,-0.052978110,-0.047981750,0.007237490
1640788288.160210,-0.201406090,0.202095930,9.298594470,-0.102610890,0.054004790,0.026871270
1640788288.161970,0.068444640,0.127253980,9.886051180,-0.100289300,-0.010178980,0.016658010
1640788288.165109,-0.122318790,0.073397020,10.412631990,-0.048831110,-0.024080280,0.004668530
1640788288.167630,0.211187590,0.066467650,9.243494990,-0.049327320,-0.048565860,0.003810230
1640788288.170349,0.097243550,0.059470790,9.725278850,-0.069886450,-0.016798080,0.009456280
1640788288.172010,-0.237788380,-0.081995370,9.855974200,-0.099501010,0.024433440,0.007884200
1640788288.175289,-0.026352030,-0.012556710,9.445140840,-0.089049320,-0.041879710,0.009734930
1640788288.176990,-0.211351190,-0.098450910,9.795847890,-0.044621520,-0.025951860,0.011406840
1640788288.180140,-0.221200530,-0.175389420,9.707753180,-0.055652860,0.023375450,0.001539290
1640788288.182040,0.006757920,0.078449110,9.449469570,-0.056624420,-0.021645430,0.000053640
