timestamp,accel_x,accel_y,accel_z,gyro_x,gyro_y,gyro_z
1640841152114949888,-0.026748460,-0.062110000,9.613317490,0.111101560,0.062347940,-0.028048450
1640841152117209856,0.010206160,0.196407320,9.327833180,0.079639260,0.040856000,-0.022524600
1640841152120129792,-0.293305100,-0.162624840,10.080192570,-0.043140350,-0.021590290,-0.004263220
1640841152122659840,-0.303727870,-0.438797210,9.164060590,-0.014875830,-0.007461010,0.009576980
1640841152125299968,-0.284073710,-0.368484140,9.076340680,0.065471230,-0.033608070,-0.021965800
1640841152127239936,-0.395395430,-0.114896660,9.709541320,0.103439410,0.078688560,-0.022478400
1640841152129959936,-0.397556360,0.382632730,9.670477870,0.037558370,0.036200870,-0.025361770
1640841152133019904,-0.447702320,0.440858810,10.063081740,-0.033491840,-0.083583590,-0.009566540
1640841152134959872,-0.151465340,0.485180230,9.099079130,0.019238890,-0.032839180,0.004938250
1640841152138979840,-0.029992930,0.709726930,9.041968350,0.055027010,0.007306040,-0.021080670
1640841152141559808,-0.198813560,0.693837050,10.047318460,0.034503640,0.045642260,-0.010441240
1640841152142469888,-0.083950770,0.591583250,9.710309030,-0.010223690,-0.025911630,0.023634730
1640841152145309952,0.052882800,0.051769830,9.588217740,-0.037358700,-0.084304810,0.010183450
1640841152147290112,0.129178380,-0.375999780,9.221119880,0.046619780,0.036127870,0.011004510
1640841152150029824,0.058725950,-0.306298730,9.221604350,0.067044800,0.031767790,-0.011272730
1640841152152279808,-0.271933910,-0.301661850,9.947161670,0.019334260,-0.036652390,-0.001116100
1640841152154969856,-0.242365430,-0.332027050,9.278547290,-0.020958480,-0.037287170,0.016410650
1640841152157309952,-0.319149610,-0.367697270,9.382054330,0.013141330,-0.062778600,-0.022955240
1640841152160699904,-0.432602230,-0.137266920,9.472455020,0.108279300,0.026720760,-0.026303540
1640841152162269952,-0.201367500,0.501444760,9.081166270,0.075989970,0.001704690,-0.035084790
1640841152165659904,-0.318940310,0.558755280,9.959566120,-0.004294520,-0.022692980,-0.026032330
1640841152167310080,-0.173252660,0.317377180,9.641506200,0.006684660,-0.016564130,0.000330810
1640841152174160128,-0.230384530,0.041912430,9.441477780,0.110748430,-0.125764310,-0.008510050
1640841152175649792,-0.201645150,-0.174278530,9.197922710,0.162823510,-0.040008130,-0.002829730
1640841152176120064,0.075087650,0.088484150,8.930999760,0.055994100,0.036275390,-0.013525790
1640841152178030080,-0.297880290,-0.238913700,10.406509400,-0.027167800,-0.017593800,-0.011846420
1640841152180659968,-0.039816370,-0.485266660,9.709890370,0.064060090,-0.072799630,-0.007049740
1640841152182240000,-0.003882670,-0.242936150,9.063051220,0.181029710,-0.125537830,-0.032986700
1640841152187879936,-0.386740740,0.074606380,9.710067750,0.148701680,0.001628700,-0.023071470
1640841152188910080,-0.351845950,0.685721520,9.422826770,0.008378920,-0.016252700,-0.007611510
1640841152189959936,-0.627015110,0.541714310,10.100465770,-0.030133130,-0.145900280,0.000961130
1640841152192279808,-0.215230270,0.527990580,9.283592220,0.076489160,-0.036016110,0.014078620
1640841152195430144,-0.110018510,0.814497350,9.320206640,0.150200740,-0.032611190,-0.025025010
1640841152197239808,-0.364466670,0.817517760,10.277194020,0.078150650,-0.050623720,-0.007519130
1640841152200099840,0.125826690,0.725733160,9.151733400,-0.047612190,-0.066941980,0.027105210
1640841152202479872,-0.015707980,-0.081522180,9.751394270,-0.034531950,-0.118832300,0.011472400
1640841152204929792,0.019826780,-0.395111080,9.623393060,0.092768670,-0.010357800,0.008577110
1640841152207170048,0.190562900,-0.066275080,9.036174770,0.131972130,-0.074115400,-0.008852780
1640841152209959936,-0.163216960,-0.176755350,9.954040530,0.001272560,-0.069671870,0.015440580
1640841152212669952,0.105099070,-0.137229550,9.186992650,-0.071874270,-0.007382040,0.030517580
1640841152215059968,-0.299668490,-0.557615400,10.023400310,0.051361330,-0.115239630,-0.002090630
1640841152218799872,-0.493488190,-0.220114900,9.720917700,0.176842530,-0.081509350,-0.000865760
1640841152220259840,-0.094814240,0.586708660,8.437744140,0.101210200,-0.111800450,-0.019790230
1640841152222309888,-0.306987580,0.488452370,9.786325450,-0.067368160,-0.001035630,-0.005929170
1640841152224929792,-0.035686880,0.435724590,9.616184230,-0.041309000,0.042666500,0.004495680
1640841152227209984,-0.163619430,0.044375180,10.059395790,0.153197360,-0.178134440,-0.020839280
1640841152230059776,-0.200746920,0.092830570,9.442804340,0.213772100,-0.115874420,0.008486210
1640841152232339968,0.016772030,0.298472110,8.390431400,0.053238870,-0.071315470,0.007247920
1640841152235069952,-0.470661370,-0.429452870,10.183401110,-0.077535220,-0.031112140,0.009824340
1640841152237189888,-0.189917370,-0.618827760,9.608284950,0.056445590,-0.038190180,0.018288200
1640841152239960064,-0.063653090,-0.536868450,9.557994840,0.237995420,-0.166219520,-0.024008760
1640841152242249984,-0.313024430,-0.044947110,9.864332200,0.184786320,-0.044955320,-0.010706490
1640841152245270016,-0.174301090,0.618095760,9.077281950,0.005058950,-0.087629270,0.013501940
1640841152247269888,-0.479658960,0.212407480,10.168659210,-0.035387270,-0.147978950,0.004941230
1640841152251309824,-0.186104040,0.508452000,9.284790990,0.115534690,-0.053785740,0.002156200
1640841152252249856,-0.095527430,0.925785120,9.452988620,0.213064270,-0.123275820,-0.019705300
1640841152255790080,-0.324911560,1.000492450,10.076609610,0.071179870,-0.046366450,0.006951390
1640841152257239808,0.196212830,1.177357200,8.972811700,-0.076012310,-0.113204140,0.038479270
1640841152259939840,0.018321120,0.125628670,10.123012540,-0.052016970,-0.110150880,0.020498040
1640841152262449920,0.020897270,-0.211285520,9.639224050,0.122489060,-0.033767520,0.006046890
1640841152266009856,0.003462810,-0.042609100,9.395667080,0.192441060,-0.180138660,-0.003591180
1640841152267689984,-0.168291510,-0.266277640,9.571465490,-0.001794100,-0.080034140,0.017294290
1640841152269979904,0.252884120,-0.044800370,8.807124140,-0.111718480,-0.026403370,0.033693020
1640841152272249856,-0.074524100,-0.532594200,10.319681170,-0.013513860,-0.066789990,0.000725690
1640841152274919936,-0.134560700,-0.277381000,9.782050130,0.178620190,-0.070212770,-0.011794270
1640841152277249792,-0.079742070,0.494185000,9.142073630,0.183819200,-0.186395630,-0.010822710
1640841152280140032,-0.226062720,0.362189710,9.482821460,-0.036244090,-0.042529410,0.005352500
1640841152282400000,0.081289150,0.404051630,9.104946140,-0.069993730,0.017371780,0.031779710
1640841152286949888,-0.051312010,0.203789190,10.056524280,0.072608900,-0.085754710,-0.005193060
1640841152287809792,0.142265410,0.212971660,9.550545690,0.166845340,-0.043618680,-0.006236140
1640841152289959936,0.078169730,0.438906610,9.377042770,0.119960320,-0.093297680,0.015051670
1640841152292280064,-0.290659400,-0.276446280,9.980811120,-0.013193490,-0.079457460,0.010187920
1640841152294949888,-0.106566410,-0.550840740,9.112746240,0.047098100,-0.071030860,0.027538840
1640841152297369856,-0.175545570,-0.347171190,9.380208970,0.136433560,-0.070525710,-0.005936620
1640841152300029952,-0.232809220,-0.237775270,9.852294920,0.110329700,0.012317300,0.000049170
1640841152302449920,-0.243785630,0.204346370,9.926147460,0.079488770,-0.086945320,0.006756190
1640841152304960000,-0.354819920,0.042696810,9.940165520,0.056876240,-0.148725490,0.001400710
1640841152307209984,-0.104534710,0.208435950,9.127386090,0.119464110,-0.062473130,0.009378790
1640841152309929728,-0.245677720,0.882059690,9.612626080,0.115020600,-0.044408450,0.002890830
1640841152312599808,-0.295601130,0.811195730,10.140186310,0.012934210,-0.051371760,0.008437040
1640841152315130112,0.194434340,0.834659700,9.326107030,0.015872720,-0.090962630,0.042437020
1640841152317299968,0.189014350,0.358546140,9.568946840,0.073961900,-0.063744180,0.010019540
1640841152320869888,0.172856850,0.065159340,9.702141760,0.125576560,-0.005692240,0.015127660
1640841152322240000,-0.013031780,0.385675130,9.628481860,0.082576280,-0.092820820,0.010994080
1640841152324920064,-0.259927720,-0.216960740,9.866434100,-0.048658260,-0.124485810,0.030837960
1640841152327229952,0.018984400,-0.441921350,9.067867280,0.005054470,-0.039914250,0.041829050
1640841152330139904,-0.242217540,-0.497944500,9.561466220,0.140303370,-0.026626890,-0.008825960
1640841152332310016,-0.295265700,-0.276030900,9.979458810,0.157479940,-0.033269830,-0.011798740
1640841152335359744,-0.057308730,0.461843100,9.155860900,0.065600870,-0.088629130,0.019817060
1640841152337260032,-0.240834640,-0.011276370,9.852963450,-0.041718780,-0.072041160,0.015255810
1640841152339920128,-0.043954610,0.072649810,9.537007330,0.073805460,-0.022253390,0.020734970
1640841152342239744,-0.140791520,0.287254420,9.328709600,0.208121550,-0.096394120,-0.017328560
1640841152345239808,-0.024014370,0.290373150,9.538908960,0.130669790,-0.039778650,-0.025555490
1640841152347379968,0.110319430,0.628543560,9.325882910,0.020082290,0.017113990,0.009375810
1640841152350050048,-0.252908800,-0.110210870,10.202995300,-0.001148880,-0.088843700,0.005650520
1640841152353999872,-0.057440330,-0.277786520,9.538913730,0.137145830,-0.088542700,0.018252430
1640841152354949888,-0.193993240,-0.055384770,9.012687680,0.216928140,-0.084206470,-0.000616910
1640841152357179904,-0.394445660,-0.237295820,9.985516550,0.097054230,-0.017508860,-0.006744260
1640841152359930112,-0.319820910,0.114517450,9.735028270,0.037242470,-0.025637450,0.005757810
1640841152362779904,-0.399612160,-0.045168840,9.894067760,0.062455230,-0.137335050,-0.013390180
1640841152365190144,-0.055818730,0.304019540,9.486043930,0.139868240,-0.045429170,-0.020353490
1640841152367239936,-0.135941620,0.985308950,9.347300530,0.137959420,-0.051346430,-0.025522710
1640841152369939968,-0.246260690,0.724173430,10.164840700,0.029304630,-0.079685450,0.001907350
1640841152372239872,0.125161960,0.622165140,9.413676260,0.046454360,-0.040411950,0.027345120
1640841152376049920,0.029577110,0.438899610,9.812612530,0.101637840,-0.087159870,0.013564530
1640841152377250048,0.105917700,0.398322190,9.794049260,0.075380500,-0.014658280,0.028951470
1640841152380120064,0.129077610,0.445508210,9.229011540,0.020556150,-0.075356670,0.031745440
1640841152382380032,0.008948590,-0.278229560,9.809313770,-0.017529730,-0.048124800,0.014388560
1640841152385030144,-0.010411000,-0.453274430,9.566155430,0.107224290,0.013418500,-0.011344250
1640841152387320064,-0.409223140,-0.199444770,9.865813260,0.161534520,-0.124314420,-0.015753500
1640841152389969920,-0.297272710,-0.033358860,9.458247180,0.023321810,-0.066772100,-0.001658500
1640841152392310016,-0.035560080,0.270023110,8.936165810,-0.041274720,-0.011610990,0.004319850
1640841152395049728,-0.141794400,0.045713160,9.999216080,0.015984480,0.010001660,-0.010812280
1640841152397519872,0.026179880,0.176134350,9.853739740,0.175008180,-0.006574390,-0.012566150
1640841152399999744,-0.081333090,0.526877220,9.577472690,0.185489650,-0.123053810,0.005675850
1640841152402289920,-0.039413870,0.268833760,9.407804490,0.002859530,-0.054946540,0.032241650
1640841152404989952,-0.004308150,-0.009510700,9.191978450,-0.016517940,0.007955730,0.029620530
1640841152407199744,-0.176377510,-0.279743790,9.755685810,0.086475930,-0.017514820,-0.000824030
1640841152410049792,-0.020678930,-0.285551700,9.688063620,0.185927760,-0.018891690,-0.015626850
1640841152412240128,-0.143272770,-0.048147310,9.683617590,0.156195510,-0.036783520,-0.019645690
1640841152415010048,-0.379649310,-0.179403680,9.910299300,0.035427500,-0.079353140,-0.007534030
1640841152417270016,-0.353538190,-0.207988550,9.333818440,0.081661350,-0.078547000,0.004184250
1640841152421139968,-0.363573760,0.177445670,9.305602070,0.123764600,-0.034759940,-0.030234460
1640841152422279936,-0.285711290,0.564804020,9.865858080,0.107091690,0.003604590,-0.014741720
1640841152424979968,-0.228243530,0.713483690,10.064167980,0.102370980,-0.029928980,0.005874040
1640841152427490048,-0.117052300,0.593650580,9.745289800,0.071345250,-0.104901190,-0.011667610
1640841152430179840,0.084448830,0.494006930,9.477625850,0.107385220,-0.048966710,0.007301570
1640841152432299776,-0.055410980,0.571538330,9.694712640,0.080034140,0.001989310,-0.009733440
1640841152435649792,-0.136878880,0.335571350,9.991654400,0.032527750,-0.070874400,0.003665690
1640841152437229824,0.142247800,0.079653260,9.532081600,0.060230500,-0.049911440,0.020293890
1640841152439960064,0.104597210,-0.098282930,9.445256230,0.083650660,-0.010867420,-0.010755660
1640841152442329856,0.023216930,0.082864690,9.898178100,0.088731950,-0.014495850,-0.000764430
1640841152444939776,-0.163218780,0.350803880,9.783889770,0.024326150,-0.026267770,0.004360080
1640841152447239936,-0.235568820,0.106639660,9.744450570,-0.022143130,-0.095240780,-0.003378090
1640841152450039808,-0.120861500,0.073334910,9.512211800,0.076833370,-0.013233720,0.000272690
1640841152454629888,-0.146220910,0.283507940,9.313355450,0.131235990,0.008735060,-0.031116600
1640841152455200000,0.026631680,0.481061820,9.723464970,0.054854160,-0.012063980,-0.005692240
1640841152457349888,0.215427710,0.461224200,9.565006260,-0.028747320,0.047037010,0.023122130
1640841152460029952,0.124615970,-0.179956730,9.962619780,0.009876490,-0.030891600,-0.000028310
1640841152462619904,0.013323450,-0.295104030,9.844175340,0.167320680,-0.027272110,0.018447640
1640841152464920064,0.071024960,-0.039737000,8.828811650,0.145570930,-0.017258520,-0.005950030
1640841152467379712,-0.012059140,-0.179555420,9.573852540,0.002150240,0.036537650,-0.007046760
1640841152469949952,-0.106497310,-0.158942250,9.771047590,-0.000067060,0.118097680,0.004272160
1640841152472260096,-0.307517770,-0.406885740,9.997331620,0.120279200,-0.065776710,-0.019043690
1640841152475100160,-0.369058910,-0.084959920,9.744470600,0.218191740,-0.064729150,-0.017291310
1640841152477219840,-0.309937150,0.468044820,8.701935770,0.118625180,0.017721950,-0.016029180
1640841152480029696,-0.456899670,0.193090710,9.960450170,0.000135600,0.025388600,-0.012123590
1640841152482300160,-0.242507040,0.309852120,9.898470880,0.062790510,0.059677660,-0.001271070
1640841152485859840,0.119630040,0.362988080,9.510621070,0.157816710,-0.031566620,-0.035187610
1640841152489159936,0.017946920,0.417956110,10.113942150,0.166744010,0.023233890,-0.008289520
1640841152490809856,-0.032384340,0.611184660,9.507763860,0.076662000,0.020588930,0.003579260
1640841152492470016,-0.184382110,0.122121410,9.857322690,0.013481080,-0.089715410,-0.002153220
1640841152495020032,-0.127349700,0.112464740,9.445369720,0.071628390,0.012484190,-0.005906820
1640841152497309952,-0.022803920,0.311479090,9.358973500,0.121989860,0.073118520,-0.037211180
1640841152500019968,-0.376373770,0.396023510,10.859301570,0.080117590,0.033739210,-0.020335610
1640841152502269952,-0.212396960,0.631102440,9.770924570,0.027056040,-0.048333410,0.006149710
1640841152504910080,-0.039437640,0.357314500,9.288054470,0.001426040,-0.072288520,-0.007689000
1640841152507259904,-0.175956010,0.455480720,9.576285360,0.053063040,0.078704980,-0.002057850
1640841152509969920,-0.222702040,0.731478990,9.751656530,0.061061990,0.030344730,-0.010080640
1640841152512569856,-0.116566010,0.456143770,10.222177510,-0.002667310,-0.045661630,-0.006821750
1640841152514939904,0.195622030,0.442677470,9.392008780,-0.016781690,0.030952690,-0.000768900
1640841152517299968,0.237005810,0.220161020,9.578174590,-0.007088480,0.043500960,-0.013716520
1640841152520189952,0.116873040,0.127362220,9.970489500,0.015673040,0.046543780,-0.005932150
1640841152522310144,0.122128320,0.179016590,9.448745730,0.015500190,0.013346970,0.008361040
1640841152525009920,0.009269220,-0.360691310,9.809085850,-0.010439750,-0.006207820,0.002799930
1640841152527249920,-0.161042730,-0.471869440,9.616908070,0.046058000,0.056406860,0.009903310
1640841152530030080,-0.151867600,-0.228082270,9.409650800,0.050805520,0.025393070,-0.021521750
1640841152532339712,-0.197187630,-0.137694390,9.898433690,-0.000800190,0.065025690,-0.023864210
1640841152535539968,-0.285087320,0.105088160,9.799014090,0.005681810,0.068075950,-0.020849710
1640841152538869760,-0.220976590,0.093053860,9.770838740,0.054332610,-0.019145010,-0.030384960
1640841152541879808,-0.282198760,0.127580660,9.440447810,0.123447190,0.017189980,-0.019599500
1640841152543119872,-0.038061480,0.494974370,9.045593260,0.069113080,0.061868130,-0.018949810
1640841152545080064,-0.140457900,0.268607770,10.045888900,-0.017853080,0.076241790,-0.014846030
1640841152547879936,-0.140170680,0.004838690,10.113508220,0.034491720,0.065714130,0.008332730
1640841152549999872,0.050846130,-0.050332700,9.713527680,0.126996650,-0.017276410,-0.008125600
1640841152552429824,-0.129865570,-0.138028580,9.878664970,0.130733830,0.027966500,-0.000755490
1640841152555330048,-0.168343500,0.168116880,9.481976510,0.044569380,0.076547290,0.001117590
1640841152557809920,-0.375531460,0.054668870,10.030904770,-0.010217730,-0.001598890,-0.019666560
1640841152559929856,-0.354834620,-0.066417350,9.861620900,0.067384540,0.016894930,-0.018173460
1640841152562279936,-0.030854340,0.548045040,9.206150050,0.124096880,0.038589540,-0.037038330
1640841152564920064,-0.331901070,0.701582310,10.315762520,0.070036940,0.054135920,-0.029033420
1640841152567289856,-0.197446720,0.912273470,9.955887790,-0.015746060,0.039277970,0.010335450
1640841152570089728,-0.092357710,0.784204900,9.755565640,-0.038443500,-0.042609870,0.001816450
1640841152572329984,-0.212188480,0.375625130,10.022740360,0.043948010,0.036521260,0.007717310
1640841152574959872,-0.000679190,0.687743540,9.262248990,0.063894700,0.060288610,-0.002548100
1640841152577219840,-0.145613890,0.515127960,10.106659890,-0.030849880,-0.006224220,-0.001573560
1640841152580199936,0.226663380,0.260695460,9.575624470,-0.097265850,0.080801550,0.030384960
1640841152582330112,0.315916810,-0.082993510,9.549090390,-0.037282710,0.066488980,-0.009956960
1640841152585209856,-0.215734870,-0.318321200,10.639002800,0.071246910,0.032790000,-0.015054640
1640841152588239872,-0.031035660,0.201345800,9.164778710,0.040628020,-0.012432040,0.003448130
1640841152590169856,-0.152583940,0.106444840,9.271062850,-0.091370950,-0.017182530,-0.003395980
1640841152592300032,-0.096636210,-0.039415490,9.602526660,-0.103946040,0.165490780,0.020930170
1640841152594929920,0.017671030,0.084635660,9.688893320,0.031584500,0.101037320,-0.019690390
1640841152597559808,-0.296500650,0.257720500,10.572546010,0.099417570,-0.004655120,-0.020399690
1640841152600049920,-0.028413220,0.559965730,9.147662160,0.002226230,0.041201700,0.009089710
1640841152603909888,-0.337501260,0.215990470,9.491209030,-0.104551040,-0.000773370,-0.004325810
1640841152604909824,-0.353658560,-0.176464230,9.720362660,-0.037485350,0.088308740,0.000281630
1640841152607280128,0.069626270,0.036192980,8.992268560,0.078034410,0.092060860,-0.028964880
1640841152609929984,-0.246987950,0.098473750,10.557932850,0.071460010,0.073935100,-0.031900410
1640841152612249856,-0.065796620,0.173554790,10.004876140,-0.021560490,0.070826720,0.005087260
1640841152614969856,-0.120462460,-0.024401540,9.633365630,-0.045153510,-0.058077280,-0.008942190
1640841152617410048,-0.274908010,-0.167278920,9.806600570,0.017437340,0.049644710,-0.004057590
1640841152622959872,-0.015159960,0.319684570,9.050598140,0.065943580,0.111429390,-0.025576350
1640841152624009728,-0.481236550,0.594771800,10.557521820,0.006905200,0.035260620,-0.031870600
1640841152624969984,-0.233694820,0.732829870,10.003030780,-0.078140200,0.040379170,0.003013010
1640841152627219968,0.049863540,0.623383100,9.294061660,-0.060480830,-0.002005700,-0.004224480
1640841152630179840,-0.265258700,0.434769780,10.275700570,0.015026330,0.078551470,-0.013540690
1640841152632329984,-0.042184240,0.672614040,9.478712080,0.019867720,0.083780300,-0.004462900
1640841152635079936,-0.259447520,0.428684150,10.108287810,-0.059598680,-0.031374390,-0.000491740
1640841152637849856,-0.076647270,0.043972560,9.689211850,-0.103953500,0.052110860,0.026153030
1640841152640009984,0.236619640,-0.218758230,9.053682330,-0.039312240,0.084683310,0.002558530
1640841152642259712,-0.193908450,-0.304769960,10.468682290,0.022313000,0.066599260,-0.023372470
1640841152644909824,0.083600520,0.155055370,9.482349400,-0.011892620,0.066542630,-0.007805230
1640841152647599872,-0.076310070,0.073611190,9.738105770,-0.085179520,-0.007949770,-0.005602840
1640841152651340032,-0.319245990,-0.174891520,10.039768220,-0.073771180,0.075800720,0.005428490
1640841152652469760,-0.071639550,0.036707080,9.121200560,0.036291780,0.064800680,-0.013980270
1640841152655680000,-0.326277670,0.274528120,9.943406110,0.041954220,0.025442240,-0.027823450
1640841152657309952,-0.089797090,0.566132900,9.358691220,-0.064709780,0.119148200,0.009423490
1640841152659940096,-0.134866680,0.174090340,9.858627320,-0.092276930,0.046668950,0.001376870
1640841152662269952,-0.457221630,-0.327299120,10.469722750,0.026494270,0.024840240,-0.000129640
1640841152664960000,-0.087528960,-0.148491370,8.993799210,0.131881240,0.005109610,-0.005628170
1640841152667399936,-0.322636070,-0.136401220,9.610124590,0.032083690,0.025136770,-0.034418710
1640841152671200000,-0.263078570,0.001358660,9.759583470,-0.101090970,0.142486410,-0.002188980
1640841152672269824,-0.125098690,-0.213849370,9.881194110,-0.041343260,0.019097330,-0.011956690
1640841152674919936,-0.347476510,-0.310193600,10.420536040,0.109526520,-0.032061340,-0.038090350
1640841152677249792,-0.063352240,0.325362530,9.067520140,0.151559730,0.024582450,-0.023952130
1640841152679950080,-0.432066140,0.563187780,9.901418690,-0.002619620,0.017887350,-0.027059020
1640841152682289920,-0.602582450,0.526926580,10.256503110,-0.113050640,0.045213100,-0.000248850
1640841152685099776,-0.132475440,0.501667320,9.460460660,-0.018188360,-0.019246340,-0.000287590
1640841152689389824,-0.329780070,0.369493400,10.204591750,0.110998770,-0.003267830,-0.031714150
1640841152690029824,-0.135193880,0.754326340,9.532306670,0.078502310,0.045195230,-0.016051530
1640841152692270080,-0.049890390,0.760903000,9.747025490,-0.077930100,-0.025594230,-0.002667310
1640841152694919936,-0.224042360,0.095573220,10.352760310,-0.134962780,0.014452640,0.016731020
1640841152697339904,0.094838950,-0.046839350,9.582177160,0.011679530,0.008092820,0.007015470
1640841152700389888,-0.236333210,0.075948220,10.123923300,0.090131170,-0.052687530,-0.027407710
1640841152702329856,-0.102762770,0.367780480,9.432079320,-0.012734540,0.016498570,0.016435980
1640841152704939776,0.076369550,0.424110980,9.299004550,-0.141927610,0.030671060,0.012946130
1640841152707229952,-0.309954020,-0.132001040,10.543586730,-0.102673490,0.032392140,0.007365650
1640841152709899776,-0.132630270,-0.009740460,9.777153970,0.083373480,-0.014466050,-0.001429020
1640841152712299776,-0.232662980,0.337744650,9.630689620,0.090491780,-0.098291040,-0.024172670
1640841152715489792,-0.124012680,0.388324860,9.401580810,-0.093011560,0.051386650,0.016880040
1640841152717909760,0.157918810,0.309723880,9.414180760,-0.165463950,0.105558340,0.009079280
1640841152720059904,-0.169272690,-0.261990460,10.652908330,-0.020228330,-0.011797250,-0.018627940
1640841152722739968,0.030120670,-0.077240180,9.553032880,0.140094730,-0.040093070,0.007106360
1640841152724920064,-0.062560710,0.144428600,9.221978190,0.067225110,-0.048318500,0.002650920
1640841152727259904,-0.465235260,-0.341478590,9.993810650,-0.093530130,0.033698980,0.022861370
1640841152730330112,-0.160452070,-0.325247320,9.442869190,-0.060495740,0.035107140,0.017216800
1640841152733090048,-0.262363310,-0.440850050,10.038892750,0.079651180,-0.018393990,-0.033944850
1640841152734989824,-0.259144370,0.003373610,10.044212340,0.139603060,0.041350730,-0.019635260
1640841152737259776,-0.256436590,0.603979590,9.634302140,0.034268200,-0.060290100,-0.014014540
1640841152739919872,-0.541107480,0.284461080,10.001613620,-0.072391320,-0.077378730,-0.002965330
1640841152742390016,-0.147569520,0.464747010,9.112972260,-0.001394750,0.004185740,0.015097860
1640841152744979968,-0.215740320,0.523812770,9.871048930,0.086706880,0.008323790,-0.030814120
1640841152747500032,-0.342271090,0.572207690,10.682434080,0.068897010,0.038219990,-0.001300870
1640841152750309888,0.006216190,0.817595240,9.763638500,-0.014461580,-0.071017440,0.029373170
1640841152755929856,-0.239223480,0.116150630,10.078010560,-0.054334110,-0.100596270,0.015036760
1640841152756300032,-0.000333870,0.044382830,9.307938580,-0.002509360,0.022892650,0.019328300
1640841152757230080,-0.153913630,0.276063830,9.617583270,0.041778380,-0.024007260,-0.010946390
1640841152759929856,-0.467210200,0.006037220,10.618631360,-0.005142390,-0.039091710,0.009073320
1640841152762359808,-0.000444470,0.293289100,9.395175930,-0.040669740,-0.045117740,0.021415950
1640841152765199872,-0.286710170,0.160556300,10.026701930,-0.040806830,-0.080919270,-0.004239380
1640841152767389952,-0.139921440,0.408576910,9.721191410,-0.026817620,0.021439790,0.002895300
1640841152769969920,0.045476090,0.878420170,9.378526690,-0.030620400,-0.027322770,0.005815920
1640841152772339712,-0.326017410,0.301201130,10.669152260,-0.050337620,-0.053212050,0.017669800
1640841152774939904,0.074814730,0.305113460,9.442324640,-0.008723140,-0.024265050,0.029136240
1640841152777459968,-0.155586300,0.232772410,9.500322340,0.010058280,-0.114934170,0.009916720
1640841152779929856,-0.066276790,-0.006808320,9.670872690,-0.063388060,0.022760030,0.031512980
1640841152782359808,0.153560340,0.130981740,9.422000890,-0.080293420,0.030168900,0.024797030
1640841152784979712,-0.348125340,-0.546559570,10.857999800,-0.015543400,-0.064936280,0.002053380
1640841152787369984,-0.089549270,-0.476179870,9.652916910,0.086137660,-0.064195690,0.013911730
1640841152789959936,-0.273994300,-0.051582180,9.084199910,0.064685940,-0.117866720,-0.013165180
1640841152792249856,-0.460338500,-0.034643160,9.874710080,-0.092741850,0.016883020,0.004959110
1640841152795009792,-0.181618360,0.223249760,9.542228700,-0.083880130,0.022611020,0.010563430
1640841152797550080,-0.325601940,0.007249690,10.339016910,0.077299780,-0.113478300,-0.013940040
1640841152799980032,-0.073677050,0.288295890,9.738632200,0.145842130,-0.036683670,0.009982290
1640841152802369792,-0.146581950,0.695081650,9.336904530,0.048476450,-0.074946880,0.024451320
1640841152804920064,-0.489933970,0.284667820,10.435372350,-0.103455800,-0.051115450,0.025025020
1640841152807219968,-0.082873140,0.237174200,9.437211040,-0.044085090,-0.051821770,0.020767740
1640841152810599936,-0.130351510,0.159188050,9.793017390,0.089816760,-0.105504690,-0.010818240
1640841152812280064,-0.121236740,0.357525440,10.079535480,0.076879560,0.021179020,-0.004088880
1640841152815619840,-0.093949480,0.704205390,9.765160560,-0.027671460,-0.073952980,0.010140240
1640841152817279744,-0.423723820,0.270057080,10.548131940,-0.118784610,-0.143140550,0.014513730
1640841152820169984,-0.091246000,0.207828600,9.332497600,-0.030915440,-0.063230100,0.022426250
1640841152822700032,-0.183526500,0.442085740,9.658659930,0.069579490,-0.078549980,-0.015424190
1640841152826099968,-0.347481340,0.766178250,10.394264220,-0.024454300,-0.015623870,0.006797910
1640841152828389888,0.155544150,0.916964290,9.436960220,-0.137305260,-0.086276240,0.037610530
1640841152829929728,0.027928630,0.403731640,10.220064160,-0.132225420,-0.089049350,0.023110210
1640841152832519936,-0.035070160,0.309289520,9.924195290,-0.028593840,-0.007088480,0.013069810
1640841152834990080,-0.078103230,0.520679470,9.631976130,0.024296350,-0.146031390,0.011414290
1640841152837250048,-0.349637060,0.301937490,9.974387170,-0.117519510,-0.093634430,0.022822620
1640841152839899904,0.127313820,0.195037470,9.129324910,-0.192095340,-0.003059210,0.048393010
1640841152842479872,-0.036341680,-0.248495440,10.243520740,-0.102822500,-0.010457630,0.010147690
1640841152844950016,-0.085337880,-0.190077650,10.301115990,0.002357360,-0.035147370,0.002238150
1640841152847290112,0.134073000,0.215174700,9.415318490,-0.001208480,-0.119432810,0.034029780
1640841152850060032,-0.244057690,-0.064071200,9.919808390,-0.131855910,-0.069877510,0.031569600
1640841152854369792,-0.049268500,-0.069968040,9.344094280,-0.147072970,-0.013805930,0.034622850
1640841152855029760,0.042448840,-0.067964030,9.579549790,-0.020730500,-0.038333230,0.010135770
1640841152857270016,-0.132317540,0.070735160,10.046694760,0.009103120,0.017960370,-0.017489490
1640841152860019968,0.036300220,0.508311090,9.783570290,-0.033916540,-0.036478040,0.025668740
1640841152862299904,-0.283065080,0.044491920,10.223105430,-0.105562810,-0.088866050,0.026384000
1640841152865219840,-0.291346010,-0.209207390,9.484227180,-0.046013310,-0.075165930,0.031521920
1640841152867329792,-0.107588970,-0.033950180,9.171419140,0.050567100,-0.044909130,0.012926760
1640841152869999872,-0.350566120,-0.061224150,9.999747280,-0.014497340,0.043527780,-0.012965500
1640841152872289792,-0.269166050,0.100207930,10.260855670,-0.050245220,-0.032193950,0.020714110
1640841152875180032,-0.174845190,-0.009521510,10.092733380,-0.018394000,-0.116914530,0.019219520
1640841152877270016,-0.242081750,0.010086990,9.649309160,0.012244290,-0.081881880,0.007456540
1640841152879909888,-0.105288970,0.566758990,9.460544590,0.024066870,-0.037735700,0.019791720
1640841152882710016,-0.310473350,0.556708040,10.097672460,-0.058440870,-0.004085900,0.012446940
1640841152884969984,-0.148422450,0.503810520,10.195968630,-0.060929360,-0.076302890,0.030887130
1640841152887329792,0.117723580,0.584452150,9.719218250,-0.001545250,-0.065557670,0.038696830
1640841152890569984,-0.105648720,0.420552220,9.947121620,-0.014741720,-0.035780670,0.010219220
1640841152892329984,-0.098825600,0.733183090,9.889457700,-0.057773290,-0.073024630,0.032219290
1640841152894949888,-0.273972960,0.433055130,9.847465520,-0.112569350,-0.081054870,0.039394200
1640841152897299968,-0.276670870,-0.086630530,9.940820690,-0.077703600,-0.074470050,0.032565000
1640841152900079872,-0.026557950,0.151281030,9.652993200,0.010944900,-0.024667380,0.038535890
1640841152902999808,-0.188963890,0.126496180,9.963370320,-0.035475200,-0.027661030,0.009904800
1640841152904960000,0.092644390,0.318280070,9.953070640,-0.127166490,-0.048537550,0.041177870
1640841152907429888,0.093435910,0.104822170,9.764027600,-0.120377540,-0.029283760,0.045326350
1640841152909959936,-0.153541770,-0.383212390,10.136218070,-0.008124110,-0.084173680,0.018011030
1640841152912289792,0.023556220,0.163691360,9.439329150,0.071744640,-0.067105890,0.020439930
1640841152914939904,-0.072435720,0.426309820,9.217253680,-0.064301490,-0.033958250,0.016869610
1640841152917409792,0.005635020,0.204570710,10.014512060,-0.189423530,0.020742420,0.029088560
1640841152920159744,-0.120849970,0.129053340,10.246364590,-0.073762240,0.006733840,0.030830500
1640841152924150016,-0.176641550,-0.122813360,10.028246880,0.079073020,-0.130280850,0.009962920
1640841152925159936,-0.065109810,0.130261990,9.482841490,0.085052830,-0.047852100,0.037999450
1640841152927259904,-0.231680780,0.328370630,9.320870400,-0.083446500,0.020672380,0.037896630
1640841152929939968,-0.296385440,-0.145877610,10.353734970,-0.167080800,-0.030140580,0.035120550
1640841152932320000,-0.210804670,-0.214754450,10.072742460,-0.003683570,-0.034944710,0.030983980
1640841152935020032,0.005828950,0.033279220,9.543706890,0.122991200,-0.068686900,-0.000964110
1640841152937299968,-0.122563540,0.391931090,10.095015530,0.041782860,-0.007657710,0.023300950
1640841152940640000,-0.212303340,0.781256910,9.897089000,-0.121752920,-0.013524290,0.040389600
1640841152942269952,-0.096346970,0.436287970,10.065817830,-0.160297750,-0.089968750,0.042551760
1640841152944900096,-0.098889630,0.291587800,9.949499130,0.008594990,-0.026075550,0.034815080
1640841152947259904,-0.018358380,0.662709470,9.627834320,0.095354040,-0.009608270,0.018647310
1640841152950419968,-0.078010240,0.754530190,10.100114820,-0.035813450,-0.025175510,0.026535990
1640841152954639872,-0.074434600,0.690152470,9.876789090,-0.183576350,-0.033511230,0.058957930
1640841152955600128,0.099431070,0.185445560,9.758672710,-0.165195760,-0.032380220,0.053831950
1640841152958210048,-0.167448740,-0.256602380,10.248250010,0.010956820,-0.010722880,0.030879680
1640841152959950080,-0.214088010,0.120051950,9.804376600,0.086672610,-0.040344890,0.021727380
1640841152962319872,0.038112910,0.257999690,9.337716100,-0.079716740,-0.042389340,0.039295850
1640841152964900096,0.073613450,0.049380390,9.696990970,-0.215514000,0.051380690,0.057961050
1640841152967549952,0.184370910,-0.101167560,9.991913800,-0.115796940,0.065293920,0.049056120
1640841152970119936,-0.024834580,-0.137282740,10.414082530,0.078669200,-0.056380030,0.014111400
1640841152973270016,-0.109729540,0.286105720,9.583933830,0.082348290,-0.066778070,0.033488870
1640841152974959872,0.059850720,0.545234440,8.900378230,-0.125080350,0.005057460,0.035613780
1640841152977289984,-0.337882910,0.045867260,10.080942150,-0.199703890,0.074502830,0.032903260
1640841152979949824,-0.186082770,-0.060825220,10.053512570,-0.031971930,0.047867000,0.026209650
1640841152982349824,0.014713160,0.234650080,9.853994370,0.101318960,-0.039514900,0.001436470
1640841152987139840,-0.301728550,0.130604850,10.185697560,0.021862990,0.009863080,0.027321280
1640841152988389888,-0.094605860,0.219779060,9.423284530,-0.115807360,0.019438560,0.038775810
1640841152990629888,-0.284063130,-0.217888760,9.965547560,-0.103044520,-0.024263560,0.025457140
1640841152992989952,-0.141463350,-0.212154330,9.903608320,0.016108160,0.044862920,0.025337930
1640841152994919936,0.138972650,0.376639690,9.506431580,0.067421800,0.054351990,0.002913180
1640841152997249792,-0.365249040,0.360035750,10.755955700,-0.022783880,-0.002573430,-0.001524390
1640841153000189952,-0.034997490,0.609772680,9.717247960,-0.103470690,-0.012569130,0.039678810
1640841153002980096,-0.077184600,0.529355350,9.585945130,-0.074164570,-0.037230550,0.008469820
1640841153005769984,-0.311975240,0.489007170,10.331881520,-0.023815030,0.059510770,0.015263260
1640841153007289856,0.029409120,0.966849800,9.551870350,-0.020229820,0.063304600,0.036118930
1640841153009949952,-0.166144090,0.574074390,10.441846850,-0.093905630,-0.034450000,0.028060380
1640841153012329728,0.153323890,0.231848700,9.867479320,-0.118859100,0.059084590,0.051267440
1640841153015030016,0.216087580,0.068530050,9.494109150,-0.040185460,0.032225250,0.028000770
1640841153017459968,-0.295728770,-0.251551570,10.619951250,-0.031997260,0.013035530,0.009451810
1640841153020150016,0.139824720,0.069208480,9.251647000,-0.064302970,0.030773880,0.037784870
1640841153023079936,0.078674380,-0.074500290,9.605851170,-0.111848110,0.023385880,0.013294820
1640841153025229824,0.044686240,-0.211112410,10.142870900,-0.103563070,0.135849420,0.010871890
1640841153027269888,0.186823550,0.162822400,9.629848480,0.003825130,0.061255690,0.017620620
1640841153029899776,-0.249228340,0.227839500,10.404850960,0.002668800,-0.015577670,0.004573170
1640841153032719872,-0.067524400,0.352527920,9.436133380,-0.087387860,0.056402390,0.043925640
1640841153035159808,-0.232725260,0.128136620,9.617474560,-0.078378620,0.049938260,0.030046700
1640841153038480128,-0.378256020,-0.222432450,10.240793230,-0.013238190,0.087375950,0.005599860
1640841153039919872,0.063057100,0.109676600,9.458559990,0.046849250,0.084210940,0.006736820
1640841153042320128,-0.154338370,0.243657480,10.241225240,-0.022983550,0.074437260,0.010357800
1640841153044960000,-0.065188850,0.012915800,10.104880330,-0.115810330,0.070086120,0.027842820
1640841153047319808,0.014932480,-0.062016290,9.740136150,-0.014545020,0.030107790,0.028768180
1640841153050089728,-0.188868400,-0.109398570,9.930603030,0.062318160,0.039763750,0.005058940
1640841153052450048,-0.006221310,0.238075410,9.576407430,0.043167180,0.102436540,0.016941130
1640841153055269888,-0.295329120,0.694984080,10.312886240,-0.063084070,0.084006800,0.014986100
1640841153057339904,-0.244068820,0.530050580,10.329004290,-0.138510780,0.042495130,0.027531390
1640841153059980032,-0.091632230,0.372680310,9.831102370,-0.009414550,0.032310190,0.031293930
1640841153062340096,-0.200307820,0.560284020,9.885022160,0.079861280,0.082235050,-0.000503660
1640841153065260032,-0.139905480,0.622809530,9.827842710,-0.009375810,0.087226930,0.012682380
1640841153067539968,-0.054536620,0.598843870,10.060537340,-0.113713730,0.059661270,0.051717460
1640841153070139904,0.169096920,0.105004720,9.860010150,-0.149977210,0.081017620,0.040470070
1640841153072809984,0.341468780,-0.306274470,9.922339440,-0.005564090,0.104120370,0.028991700
1640841153074929920,0.220669730,0.035183880,9.932155610,0.093391550,0.115169590,0.001908840
1640841153077280000,0.072933410,0.141473560,9.811647420,-0.032953920,0.070449720,0.001981850
1640841153079919872,-0.176459580,0.030648400,10.009102820,-0.134149210,0.063976650,0.042407210
1640841153082809856,-0.268594380,-0.170278100,9.604177470,-0.082521140,0.085820270,0.013342500
1640841153085299968,-0.361229840,-0.232507710,9.813716890,0.054775190,0.085142270,-0.011813640
1640841153088749824,-0.249109580,0.391041340,9.782871250,0.088273000,0.142350790,-0.003398960
1640841153089929728,-0.192034600,0.504021700,9.982577320,-0.053705280,0.133089720,-0.003863870
1640841153092300032,-0.262571810,0.064915810,10.652818680,-0.101362180,0.065352020,0.027012830
1640841153094919936,-0.081362370,-0.095738430,9.663677220,0.032107540,0.070956360,0.018306080
1640841153097440000,-0.005310750,-0.131391560,9.451202390,0.124663110,0.056199720,-0.014102460
1640841153100359936,-0.073967680,0.190526750,9.939340590,0.047971310,0.147998350,0.003346800
1640841153102389760,-0.022610380,0.295356270,9.836209300,-0.077675290,0.151903930,0.002431870
1640841153105489920,-0.205873980,-0.087570930,10.652134900,-0.052475930,0.025899710,0.005672870
1640841153107280128,-0.215840850,0.083719110,9.910289760,0.097072120,0.063167520,0.013738870
1640841153109920000,-0.307652260,0.554844320,9.501707080,0.102581090,0.070805850,-0.018544500
1640841153112339968,-0.547246750,0.843769970,10.318498610,-0.038376440,0.095470240,0.009638070
1640841153115200000,-0.400929300,0.744747100,9.890700340,-0.114059470,0.109474380,0.029899180
1640841153117669888,-0.077873770,0.286217990,9.977306370,-0.011685490,0.038759410,0.009563570
1640841153120029952,-0.035028660,0.230884090,10.105303760,0.118635600,0.122325120,0.006634000
1640841153123749888,0.145291480,0.547658860,9.575284960,0.063072150,0.109221040,0.006613140
1640841153124940032,0.011455530,0.389807370,10.217308040,-0.108753130,0.041706850,0.022256370
1640841153127279872,-0.043265200,-0.111635860,9.883967400,-0.127881780,0.082911540,0.042781240
1640841153130619904,0.210222890,-0.377042800,9.487335210,0.038364530,0.086386500,0.010730330
1640841153132339968,-0.143225820,-0.251919690,10.197951320,0.152927640,0.114911800,-0.020729010
1640841153135059712,-0.058805730,0.314351230,9.607545850,0.041766470,0.116488330,0.003424290
1640841153137459968,-0.132835780,0.374564800,9.870384220,-0.118476170,0.067171460,0.018624960
1640841153139919872,-0.499805720,-0.200464370,10.339011190,-0.085818760,0.083149970,0.022989510
1640841153142360064,-0.304922820,-0.101661730,9.518045430,0.140671420,0.062228730,0.003202260
1640841153144919808,-0.423246150,0.249021170,9.759480480,0.191237000,0.050817430,-0.028178090
1640841153147339776,-0.264390500,0.594149950,9.902210240,-0.015872720,0.150740150,0.006811320
1640841153150230016,-0.006324300,0.642170670,10.137225150,-0.139157490,0.123786930,0.023244320
1640841153152509952,-0.182056380,-0.002967660,10.648094180,-0.026883180,0.015223030,0.002276900
1640841153155129856,0.211327700,0.011566400,9.551166530,0.179697590,0.063180930,0.004009900
1640841153157289984,0.137527940,0.464076160,9.446642880,0.156168650,0.087995840,-0.005035100
1640841153159919872,-0.270935150,0.318068360,10.459603310,-0.056603560,0.124493240,0.020799040
1640841153162880000,-0.055749320,0.274928510,10.038666730,-0.134843570,0.071199240,0.048258900
1640841153164929792,-0.190178020,-0.053456710,10.035411830,0.009946520,0.006513300,0.007338820
1640841153167459840,-0.221095110,0.012799660,9.908735280,0.157979130,0.112018000,-0.012384360
1640841153170329856,-0.146412030,0.727462050,9.601987840,0.116686550,0.115601730,-0.017364320
1640841153172320000,-0.532483280,0.566329660,10.458618160,-0.085712980,0.051587820,0.006003680
1640841153174889984,-0.097158600,0.113351250,9.901597980,-0.115141280,0.069381300,0.033906100
1640841153177399808,0.025952600,-0.096435380,9.566968920,0.081667300,0.076088290,-0.010803340
1640841153179929856,-0.060376280,0.030302840,10.046281810,0.170524430,0.103041530,-0.022916500
1640841153182659840,0.354621080,0.509008650,9.522743230,0.049962110,0.128932310,0.007128720
1640841153185009920,0.018335450,0.179603030,10.269662860,-0.092282900,0.089345880,0.013548140
1640841153188140032,-0.062108640,-0.392810580,10.400930400,-0.037226080,0.056971610,0.027734040
1640841153189939968,-0.072555600,-0.359239220,9.455072400,0.185595440,0.032933050,-0.011821090
1640841153192319744,-0.543044750,0.069500130,9.770664220,0.184302050,0.045275690,-0.044420370
1640841153195139840,-0.226104560,0.567107680,9.550353050,-0.021733340,0.145390630,-0.011187790
1640841153197280000,-0.431765530,0.478362140,10.424387930,-0.109680000,0.132052620,-0.014254450
1640841153200099840,-0.469933030,0.163161350,10.845093730,0.027553740,0.016379360,-0.017283860
1640841153203680000,-0.063951140,0.365636200,9.572713850,0.227119040,0.020247700,-0.012648110
1640841153204979968,-0.336929020,0.747376740,9.717214580,0.147725660,0.060966610,-0.021828710
1640841153207360000,-0.205624070,0.816395700,9.955752370,-0.099435450,0.115877410,0.031697750
1640841153211330048,-0.078664060,0.288414870,10.128051760,-0.107868020,0.056064130,0.037193300
1640841153213469952,0.142773900,-0.075226160,10.110753060,0.065927210,0.028489530,-0.009424990
1640841153215040000,0.335934880,0.156704140,9.714352610,0.194691140,0.103826830,-0.037662680
1640841153218080000,-0.077086670,0.565288010,10.195754050,0.072157390,0.075209140,-0.031141940
1640841153220160000,-0.179071660,0.546898900,10.162792210,-0.154222550,0.022669140,-0.002671780
1640841153222519808,-0.164735560,-0.025646740,9.721432690,-0.104665770,0.028914220,0.013957920
1640841153224910080,-0.243864130,-0.242017330,9.758832930,0.126323120,0.090508170,-0.018018480
1640841153227490048,-0.287105410,0.128872650,9.789303780,0.205762700,0.102110210,-0.038450960
1640841153229969920,-0.252474430,0.601631880,9.878450390,0.034447020,0.060108300,0.003449620
1640841153232349952,-0.092218330,0.287794920,9.969082830,-0.174027680,0.089138750,0.016833840
1640841153235040000,-0.119250410,-0.340457560,10.332908630,-0.034157940,0.056219100,-0.005285440
1640841153237459968,-0.133935650,-0.267344920,9.942553520,0.228899690,0.038342180,-0.028426940
1640841153239939840,-0.103865850,0.263754100,9.412191390,0.198116910,0.060385470,-0.058451290
1640841153242369792,-0.211455460,0.624869470,10.015156750,-0.050410630,0.098723180,-0.017656390
1640841153244889856,-0.194071190,0.310898630,10.180238720,-0.157718380,0.097353760,0.007188320
1640841153247289856,-0.229185070,-0.087922450,10.308982850,0.043356420,-0.006520750,-0.025051830
1640841153250059776,-0.131439600,0.180839340,9.954849240,0.259542470,0.037771470,-0.016069410
1640841153254390016,-0.105558910,0.754876550,9.653536800,0.133962940,0.109796230,-0.026200710
1640841153255209984,-0.415197370,0.756232320,10.774108890,-0.112108890,0.062899300,0.002041460
1640841153257419776,-0.219761070,0.374488260,10.159627910,-0.134293750,0.023974480,0.021338460
1640841153259980032,0.001496100,0.104557660,9.500651360,0.072987370,-0.013440840,-0.035782150
1640841153262329856,-0.137765060,0.398337240,10.033592220,0.201706590,0.089715410,-0.051689150
1640841153265260032,-0.143907560,0.842101750,9.775418280,0.038979940,0.103729950,-0.026559830
1640841153267330048,-0.311820030,0.508090020,10.479970930,-0.152573030,-0.029860440,0.000126660
1640841153269989888,-0.060429760,-0.134886460,10.115591050,-0.100122390,0.031837820,0.024072830
1640841153272320000,0.154834550,-0.191628990,9.436447140,0.119507300,0.071324400,-0.015126170
1640841153275059968,-0.106046540,0.039564090,10.396745680,0.171078790,0.060358650,-0.028835240
1640841153277279744,0.106487960,0.408229290,9.672769550,-0.014312560,0.087486190,0.009618700
1640841153279909888,0.026362130,0.084536410,9.859126090,-0.135174440,0.016857690,0.015029310
1640841153283039744,-0.276515780,-0.458336350,10.549537660,-0.011624400,0.034511090,-0.005488100
1640841153285049856,-0.091117470,-0.058142190,9.305221560,0.186398630,0.010947880,-0.029720370
1640841153287609856,-0.322875290,0.399024220,9.772084240,0.142502750,0.009079280,-0.043681260
1640841153290299904,-0.172213520,0.578006150,9.953496930,-0.087113680,0.143331300,-0.013414030
1640841153292749824,-0.163138520,0.281977860,10.249763490,-0.097352270,0.066079200,0.008222460
1640841153294919936,-0.426224140,-0.237567350,10.867612840,0.107063360,-0.063571340,-0.006735320
1640841153297319936,-0.100944600,0.022190000,9.093357090,0.234770770,-0.005090240,-0.013202430
1640841153300400128,-0.261160370,0.475319650,9.476224900,0.091636170,0.027708710,-0.016613300
1640841153302439936,-0.384590060,0.256604190,10.563171390,-0.124962630,0.120674080,0.010527670
1640841153304899840,-0.044075200,0.031778520,10.163440700,-0.041666630,0.009551640,0.009252130
1640841153307340032,0.027754100,0.036365120,10.351567270,0.171287390,-0.055928540,-0.032305720
1640841153309919744,0.135361240,0.415069370,9.713025090,0.197336120,0.078454610,-0.037719310
1640841153312369920,-0.031051130,1.049171920,9.839794160,0.014272330,0.020599370,-0.005680320
1640841153315259904,-0.389674010,0.685595510,10.560360910,-0.155273080,-0.023527440,0.021955370
1640841153317379840,-0.066137190,0.177921880,9.563939090,-0.027255720,0.006428360,0.024177130
1640841153320910080,-0.084175570,0.329600070,9.804366110,0.186269030,0.012950600,-0.007739660
1640841153322789888,-0.288479150,0.497880940,10.181020740,0.129386800,0.082999470,-0.016078350
1640841153325169920,0.071775220,0.687702300,9.697506900,-0.077661870,0.011822580,0.027595460
1640841153327299840,-0.052858630,0.060805770,10.343572620,-0.151002420,0.011053680,0.028385220
1640841153329919744,-0.114197350,-0.567458030,10.241596220,0.026810170,0.014972690,0.003440680
1640841153332659968,0.038205570,-0.120316880,9.480376240,0.228852030,-0.027222940,-0.011312960
1640841153334959872,-0.215353650,0.250939640,9.683342930,0.078104440,0.026936830,-0.028079750
1640841153337309952,0.063470440,0.474879000,9.717902180,-0.155822950,0.092799960,0.014108420
1640841153339959808,-0.083444840,0.260636150,10.483787540,-0.105294570,0.051465630,0.014387070
1640841153342329856,-0.343469710,-0.017624000,10.689222340,0.115326050,-0.056916480,-0.019851330
1640841153344889856,0.018354540,0.588098760,9.346912380,0.224110500,-0.040656330,-0.000040230
1640841153347280128,-0.357788470,0.893967990,9.653657910,0.006112460,0.052213670,-0.012090800
1640841153350040064,-0.394961090,0.631051720,10.470945360,-0.199337320,0.064556300,0.026455530
1640841153353580032,-0.146062250,0.315076710,10.223291400,-0.078302630,-0.004851820,0.030292580
1640841153354969856,-0.194605140,0.116232340,10.118262290,0.113153470,-0.054956980,-0.032481560
1640841153357549824,0.134290740,0.535782810,9.638014790,0.123183430,0.043006250,-0.008462370
1640841153359909888,-0.102906960,0.743385850,10.006698610,-0.069260600,0.055722900,0.003051760
1640841153362319872,-0.119666770,0.221791070,10.630422590,-0.194741790,-0.016848740,0.033162530
1640841153365200128,0.228094350,-0.164774030,9.956657410,-0.048497320,-0.007599590,0.041449070
1640841153367349760,0.077059730,-0.100014480,9.801218030,0.139592600,0.025340910,-0.015296040
1640841153370149888,-0.020114500,0.311233790,10.013415340,0.073193010,0.040470070,-0.005225840
1640841153372489984,-0.046636620,0.612070020,9.643350600,-0.121429560,0.013956430,0.023786720
1640841153374929920,-0.102053080,0.117686960,9.971376420,-0.185327230,0.017569960,0.016185640
1640841153377309952,-0.193335430,-0.243589360,10.439550400,0.016275040,0.046761330,0.015136600
1640841153379920128,-0.372914610,0.072269960,10.018379210,0.198133300,-0.025610630,-0.010670720
1640841153382479872,-0.211979490,0.500279190,9.658932690,0.042249260,-0.020152330,-0.013832750
1640841153385069824,-0.037582530,0.578901230,9.669799800,-0.192327800,0.092969830,0.035931170
1640841153388519936,-0.044753370,-0.090916050,10.249595640,-0.140865150,0.088988250,0.021646920
1640841153389959936,-0.040401860,-0.278951260,10.617490770,0.123925510,-0.037230550,-0.007598100
1640841153392349952,0.038034040,0.251318840,9.626447680,0.215110170,-0.038769830,0.014518200
1640841153394909952,-0.053189790,0.514447090,9.627676010,-0.037236510,0.047871480,0.011780860
1640841153397319936,-0.290259930,0.361566510,10.591076850,-0.213079200,0.045697390,0.035722560
1640841153400100096,-0.326688770,-0.048359350,10.361110690,-0.053079430,-0.000771880,0.031518930
1640841153402560000,-0.162951220,0.041766920,10.041186330,0.166973470,-0.037938360,-0.027637180
1640841153405619968,-0.224574940,0.701905910,9.867362980,0.145490470,0.034244360,-0.009204450
1640841153407279872,-0.300614360,1.066491250,9.908069610,-0.112007570,0.045616920,0.024209920
1640841153409910016,-0.303410950,0.592638430,10.436978340,-0.235746800,-0.019608440,0.041030350
1640841153412349952,-0.245267060,0.003152430,10.235339160,-0.017674270,-0.028872490,0.046250230
1640841153415399936,0.088113200,0.192741480,9.536803250,0.181014850,0.016984350,0.011017920
1640841153417399808,-0.082485380,0.406316100,10.050210000,0.077775130,0.035595890,0.019420690
1640841153421559808,0.082761020,0.373091850,9.950532910,-0.159580980,0.040620560,0.073267510
1640841153422860032,0.260802330,-0.268803390,10.034319880,-0.172542050,-0.000724200,0.050698220
1640841153424979968,-0.150082600,-0.735327360,10.558089260,0.080957990,-0.022891160,0.016370410
1640841153427320064,-0.086543690,-0.102902680,9.478124620,0.220733900,-0.022067130,0.007894640
1640841153429949952,-0.336137830,0.312727270,9.624045370,0.034776340,-0.024221840,-0.010256470
1640841153432669952,-0.453466920,0.276886610,10.104476930,-0.176289680,0.065322230,0.031629200
1640841153435229952,-0.203852220,0.199033200,10.029209140,-0.080378350,0.030907990,0.039219860
1640841153438200064,-0.429158480,-0.086363320,10.605714800,0.168606640,-0.074338920,0.014530120
1640841153439980032,-0.113071090,0.402382700,9.589744570,0.220523770,-0.003248450,0.034300990
1640841153442339840,-0.129726500,0.720666350,9.660651210,0.005729500,-0.001244250,0.027993320
1640841153444900096,-0.376426220,0.091292620,10.718991280,-0.155323760,-0.008676950,0.054924200
1640841153447320064,0.151308850,-0.008880510,9.671349530,-0.006023050,-0.011476870,0.038969520
1640841153450320128,0.019691460,0.126029490,10.057424550,0.183054800,-0.053095820,-0.005804000
1640841153452600064,-0.022628210,0.536569240,10.235889430,0.116999430,0.038051600,0.008831920
1640841153455020032,0.014131710,0.933004800,9.766798020,-0.058722500,-0.030356650,0.034603480
1640841153457659904,-0.302806760,0.269904430,10.548989300,-0.124090900,-0.092333540,0.043140350
1640841153459929856,-0.033856890,0.202483360,9.787111280,0.023745000,0.022123750,0.042141970
1640841153462369792,-0.137600570,0.536052820,9.870754240,0.148819400,-0.021262470,0.010806320
1640841153464979968,-0.326918390,0.518383200,10.520407680,0.036564470,-0.003035370,0.035941600
1640841153467549952,0.217798260,0.594074370,9.403621670,-0.108502820,0.001354520,0.075419250
1640841153470010112,0.003491380,-0.115516550,10.284212110,-0.071257340,-0.011080500,0.063249480
1640841153472329728,-0.174882380,-0.377660510,10.418208120,0.085967760,-0.007101890,0.046728550
1640841153474919936,0.082223180,0.078095070,9.226772310,0.156195460,-0.094713270,0.038130590
1640841153477319936,-0.065403690,0.051567430,9.689153670,-0.022947790,0.005556640,0.030508640
1640841153479919872,0.126408920,0.089873760,9.822516440,-0.119602690,0.117285550,0.054806470
1640841153483000064,-0.043153350,-0.091142510,10.590084080,0.029559430,-0.005446370,0.029189890
1640841153485309952,-0.382372860,0.041787800,10.562574390,0.146782410,-0.090132660,0.009615720
1640841153489939968,-0.138003410,0.517068680,9.022342680,0.107365850,-0.092172630,0.041881200
1640841153490700032,-0.406326290,0.308862980,9.688467030,-0.032211840,0.036223230,0.038225950
1640841153492409856,-0.449442770,0.098925080,10.264333720,-0.041966140,0.059358780,0.061354050
1640841153494940160,-0.049622490,0.101162850,10.131555560,0.110843770,-0.038397310,0.061124560
1640841153497390080,-0.047087100,0.187282880,10.276890750,0.130653400,-0.022371110,0.034239890
1640841153500559872,0.056356370,0.461764870,9.896323200,0.040654840,-0.029152630,0.062134860
1640841153502419968,-0.096667920,0.259897320,10.056860920,-0.008916860,-0.033046310,0.077223790
1640841153505400064,-0.213980540,0.072956820,10.023320200,0.010430810,-0.038038190,0.036357340
1640841153507360000,-0.030563900,0.343663190,9.762358670,0.106391300,-0.039301820,0.036916130
1640841153509959936,-0.142337990,0.646541060,9.982742310,0.066991150,0.012148920,0.035129490
1640841153512359936,-0.045405280,0.691725670,10.034206390,-0.042423610,-0.006709990,0.044836110
1640841153515319808,-0.067490270,0.357957040,10.354228970,-0.004786250,-0.021959840,0.070875880
1640841153517969920,-0.165808560,0.121078440,10.175355910,0.071518130,-0.042998780,0.048169490
1640841153520179968,-0.133884360,0.196654890,9.766573910,0.102126610,-0.078064210,0.050649050
1640841153523079936,-0.088101930,0.206272170,9.474801060,0.009885430,-0.018431250,0.065954020
1640841153524940032,0.110734750,-0.073134620,9.522041320,-0.053040690,0.042168790,0.045365090
1640841153528470016,-0.005911600,-0.292006400,10.544716840,0.040104990,0.024963920,0.035800040
1640841153530279936,-0.069193770,-0.093198870,10.145061490,0.135369610,-0.056473910,0.027512020
1640841153532429824,-0.199377950,0.046371960,9.677155490,0.095154350,-0.121046600,0.032089650
1640841153535030016,-0.276898650,0.121692480,9.592544560,0.000911950,-0.016282500,0.051125880
1640841153537479936,-0.258455310,0.092499390,9.616065030,0.003258880,0.044697520,0.043243170
1640841153539909888,-0.314910020,0.059424530,10.615342140,0.110399730,-0.020948050,0.024515390
1640841153542379776,-0.128764450,0.491961570,10.120347020,0.146591680,-0.033056740,0.022317470
1640841153544899840,-0.099543850,0.704018710,9.738567350,0.052496790,-0.072269140,0.030907990
1640841153547559936,-0.234316590,0.476378890,10.232489590,-0.024151810,-0.051623590,0.038245320
1640841153550560000,-0.072672610,0.365809080,9.676099780,0.033493340,-0.010414420,0.054122510
1640841153552489984,-0.018400230,0.267494920,10.122105600,0.113296510,-0.041028860,0.024761260
1640841153555789824,-0.027121730,0.413114990,10.398830410,0.090755520,0.005416570,0.030991440
1640841153557329920,0.032619180,0.504780770,9.828182220,0.008957090,-0.052531070,0.056901590
1640841153559959808,-0.010864200,0.216244030,9.965716360,-0.026690960,-0.102646650,0.057618320
1640841153562449920,-0.011600610,-0.007496340,9.678996090,0.040680170,0.004221500,0.036081670
1640841153564940032,-0.002342170,0.231936620,9.802404400,0.108106430,-0.004456940,0.028170650
1640841153567449856,-0.361644000,0.253866290,10.606317520,0.072468830,-0.049047180,0.028370320
1640841153570459904,-0.172039760,0.177370950,9.807168960,-0.003308060,-0.065617260,0.048477950
1640841153572329984,0.019159560,0.122755740,9.412737850,0.005887450,-0.042761860,0.031432510
1640841153574909952,-0.155089470,-0.055623790,10.131563190,0.073651970,0.009028610,0.013764200
1640841153577379840,0.123010910,0.380331070,9.729727750,0.111934540,0.007554890,0.035502020
1640841153579959808,0.009119040,0.392520010,10.054007530,0.050754850,-0.066873430,0.029921530
1640841153582429952,-0.060204530,-0.024834670,10.191249850,0.004132090,-0.038523970,0.030234460
1640841153588169728,0.098216440,0.090762720,9.324391370,0.073598330,-0.026264790,0.033597650
1640841153588759808,-0.227303480,0.041676860,9.971697810,0.106561180,-0.053249310,0.005573030
1640841153589939712,-0.093816260,0.240586950,9.906073570,0.053669510,0.029799340,0.020454830
1640841153592339968,-0.191550330,0.382569760,9.934797290,0.030469900,-0.040566930,0.032128390
1640841153594990080,-0.455875010,-0.130139830,10.600090980,0.061295940,-0.088663410,0.024192040
1640841153597299712,-0.111646880,0.150005970,9.310035710,0.136175770,-0.032864510,0.022888190
1640841153600339968,-0.284135100,0.559736670,9.777983670,0.102303910,-0.053092830,0.005540250
1640841153602419968,-0.303503510,0.576258000,10.433992390,-0.026720770,0.014856460,0.031346090
1640841153604950016,0.132165490,0.715469060,9.634426120,-0.008967520,-0.058388710,0.035794080
1640841153607300096,0.011184560,0.386963780,10.402803420,0.078578290,-0.080801540,0.024092200
1640841153610630144,0.171114440,0.416939620,9.885907170,0.125360460,0.025436280,0.027045610
1640841153612349952,-0.006175720,0.788156390,9.929603580,0.064729160,-0.082373600,0.032754250
1640841153614899968,-0.200509950,0.541940030,10.233992580,-0.096663850,-0.062470150,0.052034870
1640841153617559808,0.257934390,0.246627420,9.053540230,-0.075466950,-0.016137960,0.066743810
1640841153620110080,0.087605720,-0.035011920,10.039922710,0.085292750,0.005629660,0.032544130
1640841153623239936,-0.196568000,-0.017356240,10.447187420,0.127251450,0.030715770,0.006154180
1640841153624889856,-0.086150840,0.391810980,9.744644170,0.033120810,-0.124800210,0.043876470
1640841153627389952,-0.265119310,0.102257580,9.879933360,-0.109358140,-0.065332650,0.037217140
1640841153629900032,-0.158224020,-0.218944130,9.557579040,-0.063680110,0.024557120,0.023411220
1640841153632369920,-0.081522670,0.030164780,9.930561070,0.131414800,-0.009270010,0.012949110
1640841153635040000,-0.104584870,0.318446520,9.973299980,0.138765570,-0.014963740,-0.000219050
1640841153637869824,0.238888080,0.411069720,9.626162530,-0.008539860,-0.033703450,0.044590240
1640841153639879936,0.095533590,0.135754500,10.054324150,-0.055456170,0.012667480,0.057598950
1640841153642729984,-0.142816800,-0.247412520,10.146332740,0.041414800,-0.063316520,0.030152500
1640841153644929792,0.069376570,-0.042729330,9.492970470,0.163246710,-0.060017410,0.027130540
1640841153647359744,-0.112175850,0.399704840,9.607969280,0.091283040,0.041969130,-0.011077520
1640841153650349824,-0.302574070,0.385279450,10.525551800,-0.051146750,-0.002554060,0.007547440
1640841153652469760,-0.228970780,0.330920580,10.212514880,-0.020188100,-0.052091480,0.028406090
1640841153655259904,-0.244804220,0.323055600,9.685076710,0.087249280,-0.097548960,0.002987680
1640841153657440000,-0.095229210,0.440406890,9.688912390,0.115698600,0.000642240,0.020629170
1640841153659930112,-0.242676260,0.685301960,10.078151700,0.041215130,0.048501790,0.023341180
1640841153662329856,-0.139772440,0.390430870,10.354657170,-0.043877970,-0.068971540,0.033710900
1640841153664889856,0.205479700,0.132959960,9.737111090,0.002154710,-0.045125190,0.044448670
1640841153667439872,0.245542820,0.210461770,9.582278250,0.082427270,0.017209350,0.016053020
1640841153670199808,0.161216900,0.296622280,10.104738240,0.050823390,0.015124680,0.006502870
1640841153672379904,0.013139950,0.390277420,10.080515860,-0.000743570,-0.039993230,0.033126770
1640841153675010048,0.020435920,0.068605860,9.813041690,-0.025659800,-0.052908070,0.028194480
1640841153677329920,0.015986390,-0.142559860,9.751056670,0.030454990,0.010210280,0.019519030
1640841153679899904,-0.139300420,0.026370970,9.939149860,0.113385930,0.021071730,0.010867420
1640841153682839808,-0.138081330,0.372846660,9.722442630,0.037340830,-0.000429150,0.000290570
1640841153684989952,-0.221529160,0.328697000,9.837135310,-0.050275020,-0.038087370,0.017580390
1640841153688549888,-0.279472530,-0.119402890,10.046760560,0.004433100,0.003679100,0.024223330
1640841153690059776,-0.206879270,-0.126949340,9.733900070,0.146642340,-0.020146370,-0.003013010
1640841153692389888,-0.231746120,0.061985830,9.989882470,0.151912870,-0.032326580,-0.000277160
1640841153694899968,0.078251900,0.469188480,9.560015680,-0.012192130,0.060240930,0.010369720
1640841153697339904,-0.000770340,0.383674500,10.175458910,-0.085312140,0.004030760,0.005958970
1640841153700349696,-0.155436920,0.033347530,10.600655560,0.046131010,-0.053274640,0.010342900
1640841153702409984,0.215959500,0.378743050,9.062324520,0.182569030,-0.045850880,0.004547830
1640841153704919808,-0.166857910,0.621213200,9.918582920,0.117667010,-0.010038910,-0.003378090
1640841153707639808,-0.265670300,0.790674510,10.334056850,-0.084106620,0.062350940,0.033640860
1640841153709929984,-0.168673520,0.602315370,10.001020430,-0.109428170,-0.060400370,0.039152800
1640841153712399872,-0.289567950,0.023062010,10.514697070,0.055541100,-0.082643340,0.009992720
1640841153714939904,0.075740490,0.290192750,9.225938800,0.170531870,0.048184390,-0.011549890
1640841153718629888,-0.148902000,0.703097700,9.826689720,0.054097170,-0.014786420,-0.012065470
1640841153720699904,-0.225445700,0.476717590,10.461403850,-0.154961660,-0.003956260,0.030490760
1640841153722449920,0.206434120,0.101747450,9.409148220,-0.112955270,-0.029897690,0.044287740
1640841153725009920,0.075960670,-0.127022620,10.123458860,0.090022400,-0.044101480,0.003212690
1640841153727350016,0.118550670,0.130839200,9.796066280,0.154659150,0.055199870,0.005684790
1640841153729910016,0.316425410,0.590559840,9.425448420,-0.007672610,-0.000624360,0.023846330
1640841153732760064,0.034807000,0.246962410,10.472164150,-0.175096120,0.029799350,0.033803280
1640841153735040000,-0.010530460,-0.297594960,10.187488560,-0.071674590,0.020942100,0.025984650
1640841153737319936,-0.123133680,-0.203920080,9.722245220,0.170126560,-0.088815400,-0.016480680
1640841153740019968,-0.412686080,0.124946180,9.520546910,0.155368460,-0.017657880,-0.034222010
1640841153742400000,-0.066746910,0.535221930,9.206439020,-0.087226930,0.085896260,0.006268920
1640841153744949760,-0.238814580,0.314575580,10.505517960,-0.170759840,0.080424550,0.014555450
1640841153747320064,-0.331204950,-0.288098480,10.996789930,0.021383170,-0.040882830,-0.003816190
1640841153750039808,0.186774270,0.212181690,9.360584260,0.238286000,-0.084081290,0.004650650
1640841153752480000,-0.109821540,0.540625570,9.438126560,0.113578150,0.003947320,-0.014926490
1640841153755179776,-0.122429300,0.531376600,10.101140980,-0.152868030,0.093723850,0.017198930
1640841153757329920,0.045408890,0.369211700,10.083155630,-0.128138070,0.006572900,0.033088030
1640841153759879936,-0.021328620,-0.023819350,10.496706960,0.074958800,-0.074587770,-0.025761130
1640841153762379776,0.240825910,0.490532340,9.527204510,0.165370110,0.046382850,-0.018358230
1640841153764930048,-0.128966230,0.887581530,9.888557430,0.015689430,0.011032820,-0.011244420
1640841153767500032,-0.355039810,0.507078590,10.605760570,-0.184056210,-0.008253750,0.016315280
1640841153770079744,0.032867990,0.213399810,9.439488410,-0.104299190,-0.005291400,0.037600100
1640841153772499968,-0.112223080,-0.009734830,10.046402930,0.101408360,-0.005467240,-0.011576710
1640841153778959872,-0.096941910,0.385216530,9.960903170,0.093708920,0.085830670,-0.022111830
1640841153779439872,0.056831010,0.773110690,9.538737300,-0.076550250,-0.015933810,0.012056530
1640841153780029952,-0.010888560,0.093135710,10.315607070,-0.193095180,0.020144880,0.009045000
1640841153782389760,0.041416010,-0.237749190,9.819060330,-0.048483920,0.048679120,0.000657140
1640841153785169920,-0.066846150,-0.003294260,9.929032330,0.143738090,-0.065566600,-0.010146200
1640841153788610048,-0.064494000,0.212200190,9.473321910,0.042994320,0.055739290,-0.020532310
1640841153791559936,0.008145530,0.466888400,9.524105070,-0.145217760,0.064571190,0.002713500
1640841153792419840,-0.190314190,0.084512810,10.593977930,-0.146682530,0.045174360,0.008443000
1640841153794880000,-0.203228130,-0.165668680,10.124473570,0.034216050,-0.016543270,-0.010418890
1640841153797339904,-0.134163380,0.242487480,9.599236490,0.165958700,-0.045523060,0.008250770
1640841153800179968,-0.326545800,0.521562460,9.719451900,-0.000584130,0.071075560,-0.007070600
1640841153802779904,-0.314319580,0.513930440,10.180006030,-0.190676750,0.034977500,0.010447200
1640841153805069824,-0.127618250,0.260821130,10.231438640,-0.105281160,-0.000816580,0.024618210
1640841153807369984,0.000809130,0.206101550,9.846971510,0.071933870,-0.002315640,-0.032696130
1640841153809870080,0.072186430,0.732577680,9.841179850,0.082011540,0.008903450,-0.020781160
1640841153812379904,-0.025113470,0.993923310,9.828578000,-0.108534100,0.035080320,0.010229650
1640841153814939904,-0.007064290,0.449615120,10.131112100,-0.220550640,-0.000639260,0.026834010
1640841153817529856,0.038411440,0.036129360,10.203597070,-0.076156860,0.011958180,0.035250190
1640841153822219776,-0.048563800,0.093353410,9.894315720,0.079359120,0.006796420,-0.011578200
1640841153824019968,-0.092602190,0.407114890,9.878669740,-0.011146070,0.004553800,-0.007016960
1640841153824909824,0.005976420,0.509311080,9.637304310,-0.187695000,0.043819840,0.031706690
1640841153827399936,0.070853580,-0.130231750,9.965744970,-0.190842120,0.064773850,0.018446150
1640841153829939968,-0.109158080,-0.286147480,10.397235870,0.002668800,0.011067090,-0.004771350
1640841153832649984,-0.086495320,0.158397210,9.668599130,0.105962180,-0.044538080,-0.001861160
1640841153834060032,0.013777910,0.515687110,9.250686650,-0.090241440,0.022591650,-0.012893980
1640841153839399936,-0.021759950,0.425630720,9.829727170,-0.241377950,0.100873430,0.017635520
1640841153840039936,-0.033307070,-0.026182940,10.421381000,-0.112964210,0.080758340,0.000232460
1640841153842409728,-0.096904180,0.057207730,10.180478100,0.091788180,-0.023370980,-0.026276710
1640841153842759936,-0.266928760,0.342042570,9.756382940,0.079122200,-0.052173440,-0.005002320
1640841153847339776,-0.193965630,0.300039260,9.242530820,-0.134901720,0.069367890,0.014813250
1640841153850099968,-0.323490410,-0.087042080,9.903259280,-0.191916510,0.043985250,-0.000490250
1640841153852599808,-0.110190730,-0.394240500,10.395537380,-0.015747540,0.058633090,0.001719590
1640841153853289728,0.256844520,0.039390030,10.095284460,0.114376870,0.080098220,-0.030042230
1640841153857689856,-0.023326460,0.485494910,11.092587470,0.011782350,0.015164910,-0.029352310
1640841153859979776,0.220248850,0.842443650,10.490016940,-0.176708370,0.035643570,0.009742380
1640841153862439936,0.558651210,1.045154930,9.688336370,-0.209994630,0.038497150,-0.000999870
1640841153862909952,0.532999520,1.260701540,10.671303750,-0.112974650,0.147025300,-0.023524460
1640841153867929856,0.674170490,1.951564430,10.370123860,-0.075387950,0.216798480,-0.011003020
1640841153870159872,0.321958420,1.966208580,10.903317450,-0.186781570,0.030386450,0.005596880
1640841153872480000,0.053338510,1.349083420,10.664112090,-0.296576320,0.046969950,0.038410720
1640841153873100032,-0.084841830,0.622175930,9.805521010,-0.264713200,0.132367030,0.043001770
1640841153877499904,-0.599800350,0.060827110,11.023853300,-0.182215870,0.119903690,0.022405390
1640841153879979776,-0.633970440,-0.224805740,11.081737520,-0.188504160,0.156423460,0.037863850
1640841153882789888,-0.085497260,-0.473089990,10.304324150,-0.257214900,0.131072120,0.038392840
1640841153884379904,0.085741440,-0.644976140,10.937957760,-0.285556910,0.182859570,0.026214120
1640841153887559936,0.144280720,-0.463676780,10.911905290,-0.213123900,0.183013080,0.026361650
1640841153890380032,0.381946210,0.207657040,10.275297160,-0.174836860,0.078538060,0.027550760
1640841153892449792,0.180665850,0.598238470,10.507560730,-0.237581160,0.108194370,0.041736660
1640841153892949760,0.251021060,0.718137090,10.284568790,-0.281925500,0.207783280,0.051617630
1640841153897420032,0.157962070,0.906952680,10.681642530,-0.231155770,0.198425350,0.059211260
1640841153901969920,-0.352287620,0.794885520,11.406065940,-0.192303960,0.141669820,0.058867050
1640841153902649856,-0.324814950,0.589091300,10.674263950,-0.214503720,0.116835530,0.077216330
1640841153903879936,-0.645535830,0.082349840,10.609717370,-0.239698590,0.090266760,0.076532370
1640841153907480064,-0.871316250,-0.567571280,10.760663030,-0.206162050,0.130307640,0.065372890
1640841153909920000,-0.253250960,-0.608136950,10.226461410,-0.169783860,0.182876040,0.055241600
1640841153912449792,-0.303048100,-0.332781550,11.268374440,-0.186078240,0.180804730,0.039613250
1640841153912940032,-0.185375690,-0.207550000,11.614454270,-0.223577040,0.128991920,0.052472950
1640841153918099968,0.272710890,0.190779390,10.494767190,-0.200650080,0.057378410,0.072404730
1640841153918889984,0.085549730,0.536388460,10.495118140,-0.166970510,0.085292760,0.081075730
1640841153923019776,0.094523670,0.812705990,10.604866980,-0.177858740,0.190794480,0.085058810
1640841153923460096,0.042505860,1.157330630,10.914541240,-0.220844150,0.146031380,0.116698470
1640841153928320000,-0.274751930,0.866883640,11.287462230,-0.237832980,0.078602140,0.129850220
1640841153930159872,-0.031567470,0.444622010,10.435409550,-0.204758390,0.103220360,0.110015270
1640841153932539904,-0.171411540,0.269412640,10.436732290,-0.160813330,0.142121330,0.097002090
1640841153933309952,-0.567534800,0.126865490,11.083928110,-0.193163780,0.138841600,0.090670590
1640841153937459968,-0.331737610,-0.182397010,10.696992870,-0.260028270,0.085674230,0.119178000
1640841153938009856,-0.172595740,-0.520972010,10.463612560,-0.221712890,0.094825040,0.117759410
1640841153942599936,-0.142316740,-0.513220370,10.660333630,-0.140090300,0.165680050,0.107145320
1640841153943229952,0.106859300,-0.152862970,10.483209610,-0.130161640,0.133925680,0.128009930
1640841153948000000,0.024860960,0.253892030,10.695461270,-0.182193550,0.102396330,0.151844350
1640841153948769792,0.082745020,0.229520280,10.781735420,-0.245136050,0.121501110,0.151141000
1640841153952659968,0.023998580,0.231457380,10.748431210,-0.157795850,0.105063620,0.142297150
1640841153953549824,-0.284906830,0.523990930,10.743493080,-0.063607080,0.074045350,0.123646850
1640841153957659904,-0.173422780,0.740821720,10.339138030,-0.153414910,0.128622370,0.132422150
1640841153958329856,-0.380157320,0.694213690,10.805948260,-0.248618420,0.140239310,0.173577680
1640841153962479872,-0.526197550,0.213519650,11.160828590,-0.219549250,0.084282460,0.178928690
1640841153963579904,-0.362368140,-0.156848740,10.542310710,-0.102305410,0.046560170,0.174780200
1640841153967419904,-0.335285870,0.006083230,10.347284320,-0.060713290,0.077450260,0.171817820
1640841153967889920,-0.420374480,0.119430150,10.928446770,-0.183203800,0.132229890,0.175501380
1640841153972649728,-0.296007930,-0.003680230,11.039269450,-0.263194800,0.063255440,0.195562870
1640841153974479872,-0.116113240,-0.018184910,10.713354110,-0.167348980,0.007638340,0.186237680
1640841153977569792,0.097569440,0.216828360,10.362950330,-0.091543800,0.099973380,0.152836750
1640841153978479872,0.033588850,0.752694430,10.727623940,-0.120085500,0.120386500,0.170509520
1640841153982470144,-0.225361300,0.930960480,11.259566310,-0.220191520,0.036990640,0.202524680
1640841153983019776,0.061410710,0.556770860,10.413079260,-0.270794330,0.017093120,0.219827910
1640841153987629824,0.178516540,0.324194880,10.065767290,-0.155949590,0.095519430,0.222004950
1640841153988349952,-0.122548710,0.399622920,10.801108360,-0.085489460,0.140488150,0.215305390
1640841153992460032,-0.186790470,0.310988460,10.753735540,-0.184376570,0.056818140,0.228439300
1640841153992969984,-0.395779490,-0.101745410,10.650086400,-0.246514390,-0.008216500,0.253726540
1640841153997449984,-0.267934530,-0.581341330,10.276888850,-0.197865110,0.043334070,0.223091290
1640841153997969920,-0.400917500,-0.563124180,10.405862810,-0.089459130,0.100113450,0.190286310
1640841154002549760,-0.424397740,0.044813440,10.548727990,-0.086683040,0.054703650,0.202439740
1640841154003419904,-0.077732960,0.252308040,10.324724200,-0.224535140,0.076523410,0.205126390
1640841154007429888,-0.253820570,0.069776840,10.789547920,-0.227434930,0.047041480,0.224667820
1640841154007949824,-0.160688500,-0.005718490,10.539165500,-0.065319240,0.003746150,0.242464260
1640841154012509696,-0.098446570,0.138058020,10.136047360,-0.011762970,0.000387430,0.225217610
1640841154013020160,-0.203931610,0.469516490,10.344008450,-0.111645480,0.062492500,0.248475400
1640841154017429760,-0.090593490,0.422730570,10.583496090,-0.239406560,0.095371910,0.270342830
1640841154017760000,-0.284819570,-0.023713110,11.097766880,-0.177222510,-0.011044740,0.247013570
1640841154022650112,-0.372484150,-0.101512710,10.535586360,0.005070870,-0.050927710,0.246562060
1640841154023309824,-0.308263630,0.251969340,9.722792630,-0.003546480,0.002662840,0.215779240
1640841154027459840,-0.744659420,0.461049940,10.709012030,-0.171770140,0.026293100,0.236608100
1640841154028450048,-0.608170450,0.360979470,10.639873500,-0.242810000,-0.002044440,0.293451550
1640841154032599808,-0.251760510,0.145668300,10.290224080,-0.141501440,-0.051653390,0.253169270
1640841154033360128,-0.337521940,0.269260290,10.695550920,-0.008487700,-0.005291400,0.243295770
1640841154037459968,-0.088056570,0.674402890,10.228298190,-0.049395860,0.008992850,0.268931660
1640841154037979904,-0.199469390,0.579864380,10.596965790,-0.197617750,-0.055901710,0.278866290
1640841154042619904,-0.214886620,0.123230570,10.657067300,-0.226247280,-0.067713860,0.308775900
1640841154043759872,0.306786450,-0.044782480,9.538066860,-0.108298660,-0.013400610,0.295448330
1640841154047479808,0.112548680,-0.071241380,10.381569860,-0.017510360,0.020179150,0.255163040
1640841154047979776,0.000920960,0.111531820,10.827711110,-0.079029810,0.027602910,0.293669100
1640841154052489984,-0.046200640,0.046331390,10.392356870,-0.185315310,-0.069452830,0.297634300
1640841154053169920,-0.528132800,-0.464721080,10.727760310,-0.152191520,-0.140327220,0.290410310
1640841154057560064,-0.443497570,-0.227960940,9.495946880,-0.036090620,-0.044515730,0.302024220
1640841154058619904,-0.504446800,0.262571720,9.552013400,-0.022003050,-0.025579340,0.275722180
1640841154062589952,-0.709455490,0.319550870,11.069865230,-0.121451940,0.000329320,0.294505090
1640841154063109888,-0.344229160,0.351770010,10.483821870,-0.145427900,-0.054827340,0.322614610
1640841154067440128,-0.385806560,0.034152210,10.548685070,-0.041797760,-0.173389880,0.293149080
1640841154067809792,-0.296612560,0.140214530,10.213628770,0.011257830,-0.075007970,0.295333590
1640841154072519936,-0.012383620,0.625509680,9.581810000,-0.068806110,-0.035423040,0.300768020
1640841154073230080,-0.266674610,0.299320370,10.981507300,-0.161719350,-0.088499490,0.306907330
1640841154077609984,0.025002420,0.019639920,10.523139950,-0.108423840,-0.085572900,0.341087610
1640841154078320128,0.144823850,0.031191780,9.845926280,0.027938190,-0.134453210,0.320819080
1640841154082520064,-0.417010550,0.098041760,10.823821070,0.008182230,-0.110468270,0.310649010
1640841154083139840,-0.394260470,0.554762480,10.057677270,-0.136515500,-0.093002600,0.358928770
1640841154087970048,-0.614319210,0.338542580,10.245033260,-0.188370060,-0.195215640,0.353385540
1640841154089089792,-0.482154460,-0.043717110,10.403691290,-0.086686020,-0.110454880,0.338956740
1640841154092900096,-0.003233630,0.470937610,9.465408330,0.044755630,-0.041225550,0.323452000
1640841154093519872,-0.349266020,0.731637840,10.722154620,-0.021901730,-0.139011460,0.311866400
1640841154097430016,-0.043002560,0.648277700,10.311933520,-0.204823930,-0.125403700,0.362582530
1640841154097859840,0.092374100,0.181348130,9.656863210,-0.172622490,-0.170370940,0.360445620
1640841154102949888,-0.183665320,-0.497630420,10.557471280,0.004516540,-0.153660800,0.327408400
1640841154103459840,0.097618030,-0.119448660,9.530310630,0.076839330,-0.070579350,0.327700410
1640841154107559936,-0.225092920,0.275034250,10.057538990,-0.067073110,-0.162287060,0.346544410
1640841154108089856,-0.288201270,-0.150523900,10.687216760,-0.251156090,-0.109262770,0.354854790
1640841154112480000,-0.311063680,-0.262648200,9.980928420,-0.112406920,-0.148312750,0.362204050
1640841154112999936,-0.667100130,-0.263824220,10.363628390,0.125113130,-0.257793070,0.326541040
1640841154117639936,-0.528455850,0.245459010,9.630230900,0.084695230,-0.128376480,0.315217700
1640841154118340096,-0.525052370,0.958014190,9.742742540,-0.128115710,-0.133709620,0.346589120
1640841154123680000,-0.606822250,0.566365660,11.063413620,-0.248555870,-0.166270150,0.366705660
1640841154124529920,-0.102037850,0.421510310,10.007161140,-0.067375600,-0.185430050,0.353349780
1640841154127499776,-0.026393020,0.693450930,9.895913120,0.121355080,-0.245319310,0.326445730
1640841154128150016,-0.087851500,0.722078440,10.229796410,-0.005131960,-0.125141460,0.336846800
1640841154132439808,-0.078364540,0.762540640,9.910590170,-0.192485790,-0.185227390,0.388611940
1640841154132859904,-0.152459100,0.036003680,10.399847030,-0.215029760,-0.266635510,0.403192700
1640841154137420032,0.091853940,-0.434325130,9.765230180,-0.056838990,-0.154584620,0.366336140
1640841154138319872,-0.047154930,0.031111700,9.869060520,0.081993650,-0.181497630,0.351016220
1640841154142419712,-0.490725870,0.136021970,10.680588720,-0.054836270,-0.201189530,0.359232720
1640841154142870016,-0.359645280,0.071294670,9.947319030,-0.208771270,-0.241956160,0.389733970
1640841154147529728,-0.333068370,-0.077517280,9.763975140,-0.139039750,-0.251178470,0.384230910
1640841154148249856,-0.375175540,-0.088976760,9.962184910,0.000949200,-0.167058440,0.348956880
1640841154154609920,0.020324070,0.661109690,9.478453640,0.042624780,-0.192213060,0.356058810
1640841154156359936,-0.067725210,0.837409200,10.182738300,-0.111265490,-0.195260330,0.377069350
1640841154157750016,0.038906460,0.341462170,10.349670410,-0.204350100,-0.197318230,0.400969480
1640841154159239936,0.017638040,-0.071191090,10.074999810,-0.033718350,-0.266702560,0.399305020
1640841154162360064,-0.313402440,-0.161567200,9.861333850,0.076106210,-0.278717280,0.351788190
1640841154162759936,-0.096366430,0.185556520,9.331088070,-0.032852590,-0.199183840,0.357113780
1640841154167449856,-0.340249180,0.245345890,10.225413320,-0.178009320,-0.153522220,0.387644860
1640841154167859968,-0.369493960,-0.217362240,10.690207480,-0.166964550,-0.233390960,0.379517730
1640841154172799744,-0.241895900,-0.170231690,10.162378310,0.046195100,-0.297890690,0.378185570
1640841154173289984,-0.458416160,0.398617920,9.800756450,0.080770270,-0.296181500,0.366140990
1640841154177399808,-0.369104060,0.630408880,9.732705120,-0.113414240,-0.217460140,0.384694400
1640841154177760000,-0.418894680,0.719507580,10.250988960,-0.198611620,-0.217329010,0.425213660
1640841154182530048,-0.254139330,0.416339580,10.215779300,-0.114811980,-0.288391170,0.398491410
1640841154183109888,0.015430080,0.483136360,9.849102020,0.017602740,-0.274182890,0.380556290
1640841154188599808,-0.131892220,1.099489330,9.751140590,-0.028809910,-0.255344840,0.378997680
1640841154189499904,-0.242307600,0.770066740,9.979695320,-0.222684460,-0.279572610,0.405202810
1640841154192549888,-0.082774370,0.141492500,9.989638330,-0.223444450,-0.295843240,0.433111280
1640841154193179904,0.077185680,-0.130213230,9.608529090,-0.061722110,-0.264580550,0.399449560
1640841154197419776,0.077847940,-0.245390530,9.857934000,0.010100010,-0.227685320,0.395283160
1640841154197979904,0.064199320,0.118459100,9.965115550,-0.092129430,-0.229632880,0.419846240
1640841154202859776,-0.182333500,-0.178213670,10.064362530,-0.214724290,-0.290858810,0.424744280
1640841154204380160,-0.328313530,-0.690055430,10.106791500,-0.132612900,-0.333438840,0.416703520
1640841154207869952,-0.448021290,-0.237420380,9.334278110,0.033608090,-0.303822850,0.390251040
1640841154209110016,-0.379579040,0.276655550,9.303292270,-0.011925400,-0.274033870,0.352640420
1640841154212649728,-0.339376810,0.644945440,10.186211590,-0.166510090,-0.205169650,0.385010330
1640841154213479936,-0.336886670,0.504616860,10.340623860,-0.179801910,-0.255751670,0.402617540
1640841154217540096,-0.237491150,0.038040360,10.298343660,-0.017325580,-0.395694380,0.402441650
1640841154218190080,-0.119498990,0.372011900,9.305208210,0.077240190,-0.345657830,0.419792590
1640841154223719936,-0.173300370,0.502347410,9.148188590,-0.074003650,-0.267411860,0.416868980
1640841154224509952,-0.238914340,0.030950630,10.340193750,-0.207459960,-0.260971550,0.427016710
1640841154227820032,-0.161846190,-0.233317700,10.188346860,-0.102250280,-0.303041960,0.413675610
1640841154229009920,0.006346660,-0.275072400,9.907049180,0.044715410,-0.375472010,0.384157900
1640841154232460032,-0.107021380,0.102079870,10.025801660,0.033526120,-0.295144350,0.391304550
1640841154232950016,-0.404156660,0.625691710,9.852870940,-0.126987740,-0.309887620,0.411258700
1640841154237679872,-0.404405740,0.351622820,10.088028910,-0.207196220,-0.393715560,0.431896840
1640841154238530048,-0.289476420,0.133330260,9.645797730,-0.065112130,-0.331315490,0.418514100
1640841154245189888,-0.073958680,0.451868030,9.439148900,0.067929930,-0.282007460,0.398075670
1640841154245789952,-0.076185060,0.658943360,10.106844900,-0.016605850,-0.283581080,0.409261970
1640841154247419904,-0.120192110,0.673221410,10.015101430,-0.171285900,-0.321324260,0.446148280
1640841154247729920,0.034292540,0.069536300,9.797678950,-0.186975350,-0.392074940,0.435531200
1640841154252569856,-0.180846210,-0.504017950,9.833279610,-0.009648500,-0.355246690,0.407402220
1640841154253069824,-0.095848170,-0.229163680,9.197350500,0.100162650,-0.308537510,0.391995910
1640841154257550080,-0.092717890,-0.074210380,9.589895250,-0.035798550,-0.281798900,0.386154740
1640841154258220032,-0.347980200,-0.233073860,10.419380190,-0.168147680,-0.293359190,0.417174430
1640841154262660096,-0.244424250,-0.321118770,9.966588970,-0.098408780,-0.385892390,0.407689900
1640841154263180032,-0.513593850,-0.393502920,9.711086270,0.090077530,-0.455097940,0.382566510
1640841154267639808,-0.445868970,0.114797220,9.039352420,0.115592790,-0.324446050,0.389933650
1640841154268229888,-0.332325400,0.594735800,9.485472680,-0.043109070,-0.272850780,0.394758670
1640841154272499968,-0.516504820,0.254886120,10.816589360,-0.126743350,-0.342148630,0.415264130
1640841154274019840,0.005288460,0.233455720,9.823287010,-0.003530090,-0.385645090,0.421980110
1640841154277979904,-0.085897040,0.312869250,9.641271590,0.120006520,-0.438085290,0.377614860
1640841154279049984,-0.386091050,0.445488040,9.947034840,0.058399150,-0.355945620,0.389589400
1640841154282629888,-0.209395720,0.596196830,9.240773200,-0.083477810,-0.362391860,0.409989120
1640841154283709952,-0.422736320,-0.101816420,10.090998650,-0.088042020,-0.442422930,0.398956330
1640841154287619840,-0.134152760,-0.207212190,9.726370810,0.043742370,-0.320313930,0.399516610
1640841154288139776,-0.126705800,0.240266400,9.712393760,0.099796070,-0.386650890,0.371219310
1640841154292440064,-0.567775070,0.227719950,10.646495820,-0.011153520,-0.438554640,0.385947610
1640841154293069824,-0.168812140,0.364432960,9.168732640,-0.106732560,-0.409959320,0.414052700
1640841154297720064,-0.139213650,-0.111264320,9.439435010,-0.035230820,-0.433132050,0.387196270
1640841154298480128,-0.211912020,-0.020766390,10.038434980,0.086827590,-0.323832120,0.368709950
1640841154302429952,0.268005370,0.680971320,9.118788720,0.065225370,-0.376023350,0.384205610
1640841154302889728,-0.000044170,0.380717550,10.231340410,-0.076685870,-0.407968550,0.392676950
1640841154307459840,0.077290020,-0.042302130,9.831941600,-0.072389860,-0.343914390,0.410914510
1640841154308039936,-0.062496940,-0.329118340,9.504056930,0.101397950,-0.465811850,0.383171500
1640841154312989952,-0.663547400,-0.340035920,9.893245700,0.133934630,-0.445541800,0.358907910
1640841154314449920,-0.262952890,0.119033740,8.647907260,0.007198750,-0.370366930,0.370007840
1640841154317560064,-0.510913790,-0.041839670,10.049615860,-0.084519400,-0.357782930,0.359529320
1640841154318429952,-0.616488580,-0.232208700,10.631359100,0.004929300,-0.378420950,0.348627570
1640841154322439936,-0.105554690,0.083478450,9.296042440,0.182300840,-0.499296280,0.354547800
1640841154323000064,-0.414284560,0.309175250,9.797638890,0.136435050,-0.457839760,0.342549380
1640841154327699968,-0.030097420,0.569775880,9.278863910,-0.033123800,-0.350046250,0.377075430
1640841154328270080,0.048554610,0.385524930,9.872551920,-0.055958340,-0.415419130,0.382261070
1640841154332729856,0.017223960,0.036048520,10.279013630,0.054426500,-0.427833290,0.348597820
1640841154334109952,0.533330800,0.309465020,9.154072760,0.174357030,-0.409759640,0.346668150
1640841154337590016,-0.011635990,0.554773270,9.941579820,0.079898550,-0.399911490,0.332568590
1640841154338129920,-0.284331590,0.387727860,10.051147460,-0.089617070,-0.428973170,0.359763230
1640841154342389760,-0.161777110,0.088263240,9.340954780,-0.043267020,-0.466120300,0.379593760
1640841154342889984,-0.534830450,-0.052224110,9.721841810,0.088039060,-0.438650010,0.323405950
1640841154347610112,-0.395725670,0.207029690,9.516612050,0.111489020,-0.370435420,0.332464310
1640841154349159936,-0.291958270,0.435249510,9.546271320,0.030729180,-0.395238460,0.351068440
1640841154352419840,-0.390605570,-0.035887290,10.357458110,-0.052998970,-0.438147870,0.345040920
1640841154352919808,0.048085250,-0.180980560,9.562412260,0.028704120,-0.427664910,0.366902410
1640841154357430016,-0.076437090,-0.066548840,9.375117300,0.151309360,-0.474326310,0.319340850
1640841154358959872,0.048074080,0.040964150,9.477890970,0.082603110,-0.407309920,0.316044780
1640841154362979840,0.335443440,0.332493750,9.167757990,-0.000670550,-0.335392360,0.339658590
1640841154364019968,-0.039211040,-0.007378320,10.381050110,0.000531970,-0.432334900,0.308971200
1640841154367579904,-0.052346310,-0.002699830,9.933085440,0.096216800,-0.455640350,0.336372850
1640841154368659968,-0.193065330,0.386396940,9.089363100,0.154139100,-0.491756230,0.324095820
1640841154373400064,-0.576539040,0.216874810,9.923589710,0.031708180,-0.397619660,0.318054880
1640841154374389760,-0.515995090,0.305358830,9.698934560,-0.005920230,-0.377719130,0.342501760
1640841154377519872,-0.603803340,0.132152320,10.059037210,0.064195710,-0.488290250,0.319103990
1640841154378299904,-0.343001190,0.193632650,9.721514700,0.105221590,-0.438277480,0.308857920
1640841154382489856,0.002236340,0.677343900,9.142313960,0.087627780,-0.441983430,0.329132440
1640841154383089920,-0.075922820,0.514767350,10.138506890,-0.024740400,-0.406239990,0.318376810
1640841154387490048,0.228408160,0.249803040,9.823773380,-0.028054420,-0.408047500,0.335305960
1640841154388569856,0.292541060,0.061113340,9.743456840,0.115554030,-0.484804840,0.317154850
1640841154392589824,0.181048180,0.221815030,9.585226060,0.102050620,-0.411255750,0.296518270
1640841154393629952,0.384559240,0.517882940,9.046664240,-0.012947620,-0.410835470,0.342370570
1640841154397899776,-0.019149920,0.079077860,10.056056980,-0.077572490,-0.379893180,0.323450600
1640841154399020032,-0.227133560,-0.338398070,10.006959920,0.039769710,-0.427210390,0.300706920
1640841154402679808,-0.406875940,-0.205126490,9.687368390,0.202636440,-0.502651930,0.318533270
1640841154403239936,-0.746977930,0.045947760,9.379758830,0.089103000,-0.437305930,0.295519920
1640841154407449856,-0.477308270,0.137694950,9.141590120,-0.071311000,-0.416581390,0.305624340
1640841154407929856,-0.389734630,-0.006673020,9.786788940,-0.031632190,-0.343550740,0.310459730
1640841154413979904,-0.235957950,-0.085039080,10.074773790,0.123786950,-0.424739780,0.274050330
1640841154414419968,0.094898180,0.243475110,9.737781520,0.215399300,-0.470174910,0.305873190
1640841154417590016,0.157984970,0.466337380,9.287477490,0.076082370,-0.420686660,0.295503470
1640841154419229952,0.101953640,0.287334800,9.724020000,-0.073708600,-0.419868530,0.310347970
1640841154422459904,0.156248090,0.186681960,9.733211520,0.010369720,-0.412748810,0.320148500
1640841154422989824,0.059161640,0.152466800,9.663799290,0.134350400,-0.439442780,0.260388850
1640841154427830016,-0.090231950,0.503202500,9.958410260,0.134067250,-0.427326620,0.283828410
1640841154428409856,-0.280797690,0.609092710,9.631749150,0.021612650,-0.408473670,0.312605500
1640841154432430080,-0.515872840,0.163811160,9.976303100,-0.051070760,-0.477248490,0.304465030
1640841154432920064,-0.450654480,0.140770930,9.684263230,0.039254130,-0.444460000,0.313662050
1640841154437459968,-0.284287600,0.231801390,9.369778630,0.104166590,-0.405094090,0.284116000
1640841154438099968,-0.028493160,0.289592240,9.945073130,0.043010720,-0.392495160,0.292326570
1640841154442540032,0.324653690,0.363464500,9.677165990,0.003892180,-0.368933410,0.317122100
1640841154444300032,0.498207990,0.033294450,9.703336720,-0.001169740,-0.421984490,0.282168420
1640841154447629824,0.442117870,0.177493750,9.706728940,0.054427980,-0.403492180,0.300414860
1640841154448129792,0.278320190,0.284071360,9.234767910,0.059431790,-0.407964080,0.295823840
1640841154452489728,0.144541730,0.021896730,9.558398250,-0.010360780,-0.409711990,0.269778130
1640841154453199872,-0.053522580,0.029886540,9.543942450,0.025549530,-0.340963930,0.283709170
1640841154457499904,-0.199291900,0.026249750,9.587855340,0.055269900,-0.372636410,0.265783070
1640841154459159808,-0.320757480,0.170951410,9.838611600,0.034762920,-0.391791820,0.266791940
1640841154462540032,-0.434781370,0.102996020,9.654728890,0.031666460,-0.385254650,0.296418370
1640841154465009920,-0.287493050,-0.221430470,9.498310090,0.045122220,-0.389838310,0.272426070
1640841154471330048,-0.231390360,-0.169470730,9.630770680,0.111232720,-0.364874360,0.275267750
1640841154471859968,0.092009460,0.169955910,9.426481250,0.081272420,-0.326412950,0.283011820
1640841154472869888,0.262936350,0.275913800,9.861419680,-0.001223390,-0.327152010,0.269731910
1640841154473389824,0.020442930,0.286059320,10.373176570,0.019456450,-0.389582010,0.289870860
1640841154477519872,0.233063010,0.319224920,9.230864520,0.081053400,-0.429031310,0.279885620
1640841154478149888,0.013109050,0.292700260,9.321151730,0.113020860,-0.388303400,0.255486370
1640841154482419968,-0.201507260,0.687850890,9.824077610,0.051847100,-0.265404580,0.274412360
1640841154482899968,-0.263765510,0.668409110,9.926362990,-0.050045560,-0.374654000,0.291112150
1640841154489349888,-0.293206570,0.125418770,10.180284500,-0.011415780,-0.428998530,0.291508470
1640841154492849920,0.076303040,0.111995370,9.000753400,0.099107640,-0.306913290,0.276516410
1640841154493549824,-0.215934190,0.011198070,9.823770520,0.123029970,-0.342001080,0.268581600
1640841154494200064,-0.406550560,0.045910280,10.234902380,0.027567150,-0.359530750,0.302274550
1640841154497579776,0.024766660,0.010021240,8.907316210,-0.054343050,-0.423374860,0.319755080
1640841154498129920,-0.015545400,-0.522129710,9.719499590,0.015625360,-0.357250870,0.298842790
1640841154502419968,0.165640860,-0.154215460,9.518722530,0.134085130,-0.233806670,0.283752410
1640841154502909952,0.153333130,0.181198890,9.747251510,0.138555480,-0.387464490,0.278107820
1640841154507719936,-0.076868060,0.180289580,10.155635830,0.031054020,-0.384557340,0.299960430
1640841154508369920,0.102227120,0.243451480,8.872682570,-0.016446420,-0.356057320,0.301420720
1640841154512499712,-0.369612900,-0.113383200,9.850674630,0.073382270,-0.398504790,0.275477800
1640841154514159872,-0.256638710,0.094785640,9.387288090,0.166088310,-0.294116080,0.260816540
1640841154517489920,-0.067609270,0.481036990,9.267621040,0.116793810,-0.345009600,0.253237720
1640841154517959936,-0.347644030,0.173904400,10.532248500,0.011754040,-0.333014190,0.273567440
1640841154522729984,0.033663420,0.020372130,9.476520540,0.037853420,-0.350806180,0.289458070
1640841154524600064,-0.028673640,-0.053641490,9.719564440,0.140176760,-0.426794680,0.281639400
1640841154527500032,-0.005986160,0.067559580,9.665181160,0.134809330,-0.290328260,0.279699300
1640841154528090112,0.232259840,0.430306520,9.333135600,0.055150690,-0.300458100,0.286012920
1640841154532489984,-0.093466030,0.191603940,10.440486910,0.010494890,-0.362616840,0.287532900
1640841154533099776,0.228264840,0.104910810,9.467499730,0.069046030,-0.330877330,0.287698210
1640841154537410048,0.261659410,0.418482210,9.284115790,0.136528910,-0.352282910,0.259201230
1640841154538109952,-0.162978410,0.531364980,10.039759640,0.074654820,-0.282806190,0.255641370
1640841154542490112,0.003577470,0.568706990,9.504753110,-0.000208620,-0.309090350,0.297589540
1640841154543079936,-0.167720090,0.071334420,9.899111750,0.023123630,-0.373707770,0.289379150
1640841154547809792,-0.054207690,-0.134864960,9.500196460,0.117570180,-0.287824900,0.287330150
1640841154548630016,0.223146200,0.237457630,9.096804620,0.130827720,-0.275296000,0.286081460
1640841154553120000,-0.074670400,0.049544280,10.077148440,0.016279520,-0.283794110,0.284630090
1640841154553779968,0.217852950,-0.332548290,9.657503130,0.000575180,-0.276629660,0.307440700
1640841154557479936,0.156616670,-0.478111450,9.608717920,0.133454810,-0.319893600,0.274927940
1640841154557900032,-0.162275720,-0.361378790,9.781992910,0.186044020,-0.313919840,0.264176730
1640841154562510080,0.230167090,0.226591020,8.872081760,0.083844370,-0.270187850,0.276568560
1640841154563079936,-0.040229630,0.208417300,9.819312100,-0.015544890,-0.225585740,0.257296860
1640841154567499776,-0.039916290,0.067542030,10.316972730,0.055845080,-0.242504490,0.277651850
1640841154569399808,0.117261510,0.296147020,9.507650380,0.215159390,-0.326250520,0.269416000
1640841154572480000,-0.360014350,0.335762020,9.816832540,0.185181220,-0.335127120,0.255599650
1640841154572960000,-0.049471400,0.688109990,9.152287480,0.028726460,-0.235185060,0.292092650
1640841154577440000,-0.383029730,0.270857510,9.974512100,-0.029614570,-0.254190000,0.297725200
1640841154578080000,-0.278185780,-0.247394550,10.375804900,0.093324470,-0.284734310,0.287167670
1640841154582720000,0.312704860,0.145169110,9.082206730,0.235049410,-0.272870060,0.262366210
1640841154583689984,-0.091360550,0.283004940,10.001123430,0.119191410,-0.261375250,0.235715520
1640841154587960064,0.179423470,0.424315540,9.821746830,-0.045397880,-0.218755010,0.292275880
1640841154588769792,0.111570160,-0.031021690,9.717537880,-0.003896650,-0.299079720,0.280366840
1640841154592460032,-0.024355280,-0.383349450,9.969698910,0.162534420,-0.300116870,0.254230200
1640841154592849920,0.404723550,0.284405020,8.751444820,0.240258890,-0.205779090,0.270602110
1640841154597609984,-0.022428370,0.351026090,9.822426800,0.070287290,-0.211316380,0.269329580
1640841154599259904,0.099311850,0.197105270,10.110279080,-0.074028980,-0.187383640,0.302742510
1640841154602710016,0.031937530,-0.179221540,9.714673040,0.069703160,-0.277720420,0.283087850
1640841154604110080,-0.391788180,-0.415520460,9.975528720,0.250034030,-0.312936310,0.241725190
1640841154607439872,-0.023490050,0.231511380,8.631743430,0.219698250,-0.210073610,0.254572930
1640841154607889920,-0.276260170,0.224725860,9.537106510,0.019682940,-0.180757060,0.256922870
1640841154613039872,-0.130911140,-0.081859140,10.354665760,-0.042612850,-0.166510060,0.275693830
1640841154614329856,0.219231190,-0.123573550,9.637265210,0.158889580,-0.235779600,0.269466640
1640841154617580032,-0.107429910,-0.211813180,10.140842440,0.276365940,-0.280469750,0.240005580
1640841154618389760,0.154732360,0.335111110,9.182417870,0.178611310,-0.204421620,0.275337730
1640841154622639872,-0.102974220,0.361277100,9.603737830,0.017590830,-0.218838480,0.279289570
1640841154623350016,-0.052167080,-0.001427620,10.033617020,-0.011669100,-0.205534700,0.287160310
1640841154627409920,0.376380740,0.213783980,9.283047680,0.188742610,-0.186954480,0.273372290
1640841154627849728,-0.088613230,0.389310450,10.308324810,0.234954100,-0.209745790,0.224047930
1640841154632470016,0.052645780,0.805642720,9.660020830,0.092811890,-0.187106460,0.267857340
1640841154633309952,-0.133409200,0.641153870,9.687020300,-0.017482040,-0.256414800,0.293082060
1640841154637459968,-0.176281650,-0.024691540,9.852691650,0.004774330,-0.193278510,0.276489560
1640841154638209792,0.184364960,0.174220440,9.167944910,0.184069600,-0.155513030,0.267379020
1640841154642419712,0.011153420,0.284983130,9.919733050,0.160840150,-0.170795600,0.257889930
1640841154642799872,0.311438020,0.131065580,9.630574230,0.007119780,-0.138565910,0.289447550
1640841154647429888,0.261616470,-0.202758680,9.850323680,0.010345880,-0.180366640,0.284899800
1640841154647810048,-0.050232230,-0.562891420,10.136770250,0.106748950,-0.217233600,0.254230200
1640841154652760064,0.134216770,-0.202442200,8.964818000,0.200486180,-0.208006810,0.271347170
1640841154654149888,-0.042833090,0.211367960,9.219285960,0.102713700,-0.136442480,0.240460080
1640841154657459968,0.095919830,0.150384190,9.697136880,-0.020228320,-0.063709900,0.261913210
1640841154658020096,0.055817210,0.250186650,10.159425740,0.076186660,-0.126636030,0.276987250
1640841154662380032,-0.164356440,0.219756570,10.112862590,0.167945030,-0.231415080,0.251854960
1640841154663589888,0.061939350,0.373854640,9.047588350,0.165326890,-0.195276740,0.279744000
1640841154667589888,-0.137742830,0.537782190,9.307085990,0.059582300,-0.091837350,0.262299180
1640841154668320000,-0.124583480,0.197772550,9.913083080,-0.017578900,-0.092846160,0.280888380
1640841154672410112,0.157893260,0.126808000,9.812603000,0.101099910,-0.135922450,0.278539960
1640841154672930048,0.002562810,0.315680150,9.951938630,0.134490430,-0.162941220,0.226444020
1640841154678649856,0.127091800,0.375821080,9.591553690,0.065767770,-0.148081790,0.271616880
1640841154679149824,-0.037295220,0.393009750,9.623035430,0.019699340,-0.123544060,0.280766280
1640841154682380032,-0.084412470,0.011203000,9.848198890,0.008411700,-0.134283300,0.271640690
1640841154683099904,0.212764810,0.202135790,9.530723570,0.105077030,-0.100560490,0.285032420
1640841154688809984,0.063874740,0.595251260,9.768272400,0.067308550,-0.104244080,0.273938480
1640841154689750016,0.274439690,0.474121600,9.776884080,-0.036726900,-0.105471910,0.305537880
1640841154692440064,0.294798550,0.367523970,9.634140010,-0.008876620,-0.069944570,0.307057800
1640841154692899840,-0.015841950,0.099821900,10.014215470,0.054131450,-0.138580800,0.266566900
1640841154697729792,0.196752350,0.227929740,9.321534160,0.097513220,-0.120392460,0.292861550
1640841154699889920,0.155155240,0.316460910,9.024815560,-0.010576840,-0.056158000,0.272259090
1640841154702419968,0.218969760,-0.084500490,9.878767010,-0.083047150,-0.010579830,0.280256570
1640841154702800128,0.277339460,-0.149854910,9.928579330,0.034366560,-0.016690790,0.280380340
1640841154707449856,-0.060423030,-0.128113420,9.964956280,0.100420440,-0.144763290,0.246113580
1640841154707949824,0.049248800,-0.074989630,9.356206890,0.070509310,-0.108771050,0.291579990
1640841154712430080,-0.121547860,0.054451860,9.074025150,-0.023682420,-0.027465820,0.266824690
1640841154713639936,-0.190463360,-0.024372480,9.869456290,-0.044815240,-0.031945110,0.268468290
1640841154717409792,0.158159930,0.144145070,9.663372040,0.052583230,-0.001467760,0.280395150
1640841154717789952,0.069596740,0.273770240,9.944569590,0.076994300,-0.046324730,0.246188060
1640841154722459904,0.150010140,0.428340580,10.093983650,0.037018950,-0.045022360,0.289233030
1640841154723089920,0.100309920,0.421315850,9.469058040,-0.016307840,-0.054058440,0.291349050
1640841154727479808,0.004283110,0.245644850,9.598721500,-0.032599270,-0.065207480,0.271932810
1640841154728009984,0.195312430,0.436044540,9.499398230,0.023113190,0.025205320,0.292208820
1640841154732489728,-0.039899250,0.367695900,9.931330680,0.007399920,-0.002266470,0.256681440
1640841154733449984,0.053353450,0.363440070,10.076080320,-0.018160050,-0.043761730,0.277160110
1640841154737449984,0.162198160,0.292691230,9.366580960,-0.016544760,-0.022685530,0.302888450
1640841154737919744,-0.079017610,-0.039145680,9.765695570,-0.035062430,-0.011835990,0.272972910
1640841154742379776,0.057167520,0.276961480,9.694876670,-0.021012130,0.006757680,0.297516610
1640841154742909952,0.012723480,0.135013280,9.569077490,-0.054064390,-0.020404160,0.294400780
1640841154747490048,0.296871220,-0.107041000,9.648161890,-0.053720180,0.029653320,0.297644790
1640841154748709888,0.455010950,0.105026490,9.532340050,0.012400750,0.082665690,0.287881520
1640841154752430080,0.088150720,-0.002006070,10.137679100,-0.016802550,-0.017271940,0.274300610
1640841154752999936,0.230214660,0.234461170,9.389879230,-0.048798320,-0.023911890,0.308622450
1640841154757599744,0.066385270,0.069246940,9.076090810,-0.080575040,0.032664840,0.270032850
1640841154758309888,-0.132546290,-0.190986690,9.863149640,-0.027856230,0.067168480,0.271415740
1640841154763089920,-0.023578500,0.225194830,9.473172190,0.052037850,0.062385210,0.276696710
1640841154765299968,-0.196588040,0.148310590,9.913214680,-0.025516750,0.001500550,0.260534910
1640841154767680000,-0.090766980,0.314797370,9.794713970,-0.088252130,0.033919520,0.310806930
1640841154768989952,-0.191101920,0.068472650,9.513879780,-0.067977620,0.010509790,0.287871150
1640841154772460032,-0.178164330,-0.201769140,9.880052570,0.011646750,0.002601740,0.274278220
1640841154772969984,0.117834220,0.349629070,9.311092380,0.046207010,0.079157930,0.289824630
1640841154777609728,0.050588170,0.319593520,10.057832720,-0.081886340,0.064270210,0.263325810
1640841154778929920,0.213176590,0.381904240,10.280706410,-0.131933410,0.046554220,0.303536710
1640841154782449920,0.292573750,0.263783130,9.460857390,-0.052256870,-0.002273920,0.294837360
1640841154782979840,0.204938740,0.062911500,9.672748570,0.009684260,0.036522740,0.272706120
1640841154787420160,0.139984070,0.569809380,9.553070070,-0.004473330,0.107325610,0.303152230
1640841154787889920,-0.198220330,0.331826180,9.977976800,-0.126437840,0.019954150,0.305087890
1640841154792549888,0.028637960,-0.023193490,9.772299770,-0.135223580,0.029619040,0.326132800
1640841154793249792,0.084364000,0.065564750,9.228103640,-0.034229460,0.081448260,0.295622650
1640841154797750016,-0.111143720,0.007523790,9.944558140,-0.010950860,0.085043910,0.280669330
1640841154798640128,0.047749450,0.358242330,9.808221820,-0.059449680,0.085736830,0.310404690
1640841154802409984,-0.086016610,0.066288780,9.752072330,-0.140532820,0.015912950,0.312030260
1640841154802850048,0.141164150,-0.307033780,9.609145160,-0.081937030,0.045824050,0.310871030
1640841154807430144,0.210009050,0.033806430,9.122869490,0.015294550,0.098118190,0.290745500
1640841154807950080,0.107308700,0.034276290,9.689802170,-0.032939020,0.104549530,0.296984610
1640841154812630016,0.277910860,0.048099330,9.899891850,-0.086365640,0.116986040,0.312866270
1640841154813329920,0.026032260,-0.259167460,10.019971850,-0.082500290,0.045688450,0.300166010
1640841154817879808,-0.002618070,-0.404646720,9.647142410,0.013414030,0.034017860,0.303861500
1640841154819539968,-0.027268910,0.104441900,9.104469300,0.034378470,0.086013980,0.286363100
1640841154822429952,-0.273352320,0.203918550,9.721105580,-0.098246350,0.116586710,0.284367800
1640841154822840064,-0.215415240,0.248193230,10.074069020,-0.091907400,0.100477050,0.314466690
1640841154827719936,-0.189306240,0.046741410,9.875207900,-0.002542140,0.022479890,0.295582440
1640841154829389824,-0.099735560,0.123938650,9.628080370,0.053022810,0.050808490,0.296509270
1640841154832460032,0.009439480,0.582260010,9.501982690,-0.007683040,0.114658460,0.305598940
1640841154832969984,-0.100365650,0.420747040,10.226234440,-0.155654560,0.094896560,0.318476560
1640841154837459968,0.148576930,0.262762310,10.008470540,-0.088509910,0.050394230,0.339847770
1640841154837889792,0.311033070,0.100333650,9.408690450,0.021077690,0.049962110,0.305967060
1640841154842439936,0.263793260,0.187892120,9.558482170,0.028613210,0.122632090,0.302493570
1640841154843069952,0.201506660,0.639264880,9.680060390,-0.080177190,0.109660630,0.336743920
1640841154847409920,0.038663300,0.123887350,10.029451370,-0.201004770,0.069487100,0.338193830
1640841154847960064,0.109927190,-0.179317550,9.746399880,-0.072279570,0.087708240,0.343881580
1640841154854660096,-0.017244130,0.013315980,9.578598020,0.047782060,0.075595070,0.303834650
1640841154855229952,-0.109697460,0.085124540,9.611278530,-0.009478630,0.110577050,0.324207540
1640841154857479936,0.085491940,0.389065500,9.330973630,-0.125348580,0.137354430,0.358490680
1640841154858439936,-0.031516280,-0.169279930,10.079043390,-0.177344660,0.127431720,0.340209900
1640841154862449920,0.119907510,-0.320576340,9.906445500,-0.000259280,0.116033870,0.347597990
1640841154862989824,0.064107970,0.068616490,9.452854160,0.078783940,0.046482690,0.310844180
1640841154867960064,0.137720480,0.087636900,9.342406270,-0.061410670,0.129127520,0.313977900
1640841154869189888,0.215374540,0.262761290,9.483604430,-0.148153320,0.192181770,0.336027150
1640841154872399872,0.061630140,-0.106962280,10.196084980,-0.106798130,0.120627890,0.323082540
1640841154872920064,0.159907730,-0.108600850,9.768732070,0.063402960,0.096976760,0.340029600
1640841154877420032,0.025198790,0.315173800,9.362994190,0.063169000,0.094087430,0.334754590
1640841154877859840,-0.187764060,0.140926780,9.804321290,-0.094829510,0.146599160,0.340277050
1640841154882449920,-0.149371240,0.098433450,9.748226170,-0.107748810,0.150942790,0.354577600
1640841154883159808,-0.164941420,-0.006370630,9.919586180,-0.050693750,0.107628110,0.322082580
1640841154889079808,0.030314850,0.201487030,9.749193190,0.030918420,0.148046030,0.336229800
1640841154889849856,0.010662500,0.681695400,9.693420410,-0.008818510,0.119858990,0.325849680
1640841154892760064,-0.014334840,0.567016540,9.922158240,-0.140883030,0.117421160,0.342373550
1640841154893469696,0.170227540,0.382968220,9.569205280,-0.094532950,0.128106770,0.363743280
1640841154897469952,0.019646680,0.309688000,9.982559200,-0.042766340,0.120075060,0.329835740
1640841154897929984,0.102194670,0.570977270,9.772350310,-0.037850440,0.146262390,0.362616870
1640841154902880000,0.152322290,0.551135180,9.586526870,-0.114217410,0.123129800,0.381957020
1640841154903929856,0.199513550,0.119477800,9.819520950,-0.189358000,0.160971310,0.367674260
1640841154907640064,0.245813700,0.034083450,9.661394120,-0.074863430,0.181561680,0.368982520
1640841154908589824,-0.059076750,-0.074699560,10.146425250,-0.021119410,0.104948880,0.345842480
1640841154912389888,0.114631590,0.004622070,9.459489820,-0.073960430,0.119689090,0.371876330
1640841154912760064,0.296252820,0.048944080,9.087714200,-0.137175620,0.172880290,0.373230900
1640841154917639936,0.213746440,-0.167634040,9.850696560,-0.170464810,0.246356470,0.352102520
1640841154918969856,0.332411800,0.128068660,9.710176470,-0.053705280,0.208835300,0.369612870
1640841154924049920,-0.011465870,0.106451790,10.163496020,-0.026470430,0.102323320,0.346924420
1640841154925560064,-0.171030720,0.031467210,9.545800210,-0.070525710,0.116954750,0.375123320
1640841154927480064,-0.255229000,0.082400400,9.022953990,-0.084446380,0.134356320,0.376625390
1640841154928179968,-0.479926850,-0.153141740,9.737562180,-0.127273810,0.199581680,0.349085030
1640841154932399872,-0.213874910,0.173965930,9.691455840,-0.067715350,0.196418200,0.370751350
1640841154933760000,-0.250636910,-0.032714570,10.348224640,-0.038418170,0.137390200,0.336824390
1640841154939089920,-0.079756190,-0.099542410,10.052958490,-0.037996470,0.118571520,0.358720150
1640841154940280064,0.095685650,0.113013400,9.157036780,-0.014658280,0.098782790,0.374561610
1640841154942870016,0.022843000,-0.017606290,9.805803300,-0.109718730,0.167338540,0.343535840
1640841154943800064,0.218200190,0.496075960,9.660106660,-0.118662420,0.187140720,0.384065510
1640841154947389952,0.144396830,0.199569940,10.068268780,-0.072412200,0.101782380,0.375512270
1640841154947759872,0.194120290,0.084605500,9.954750060,-0.015199190,0.140738490,0.354175270
1640841154952569856,0.159216720,0.674637020,9.330039980,-0.004288550,0.129461290,0.370138910
1640841154953379840,-0.369076850,0.378736470,10.338799480,-0.149907170,0.130818810,0.359977870
1640841154957559808,-0.170215320,0.405311580,9.641859050,-0.186473160,0.131614550,0.397072790
1640841154958249728,-0.195456950,-0.035418800,9.537274360,-0.066915150,0.107194490,0.373137030
1640841154962540032,-0.102598360,-0.174198700,9.886812210,0.005111100,0.199386510,0.360068710
1640841154963140096,0.148028280,0.410775420,9.385154720,-0.027583540,0.159259140,0.393907760
1640841154967500032,-0.104223500,0.003053080,10.294740680,-0.179405510,0.102983420,0.391179320
1640841154967909888,0.264935370,-0.179042430,9.681633950,-0.183488470,0.145193960,0.413167540
1640841154972839936,0.086145100,-0.346159100,9.469735150,0.004613400,0.116387020,0.385518370
1640841154974129920,-0.056522110,-0.248544500,9.766432760,0.053219500,0.127635900,0.353923470
1640841154977440000,0.256051390,0.509550570,8.997152330,-0.065480180,0.174066390,0.393122460
1640841154977819904,-0.069843770,0.044527590,10.046340940,-0.202555950,0.167186570,0.387316970
1640841154982439936,0.026986000,-0.226009070,10.170812610,-0.091692810,0.156772150,0.399971010
1640841154983249920,-0.103637930,-0.030936710,9.411382680,0.102965530,0.051802400,0.375698540
1640841154987670016,-0.240035680,-0.074264910,9.492733960,0.045757000,0.107981280,0.361856910
1640841154988529920,0.030135840,0.324128150,9.255639080,-0.099682810,0.220622170,0.391583230
1640841154993089792,-0.240801890,-0.124201140,10.258593560,-0.146152080,0.151564200,0.403043630
1640841154993779968,0.110012950,-0.342745960,10.075263980,-0.006099050,0.123351830,0.394004580
1640841154997489920,0.202225310,0.117623210,9.437089920,0.114670400,0.101695950,0.375022020
1640841154997989888,-0.122306990,0.118074980,9.953301430,0.007820130,0.129422550,0.376047190
1640841155002499840,0.156112050,0.359767320,9.475727080,-0.104293230,0.156381730,0.401288300
1640841155003529984,-0.020452310,0.122812320,9.832860950,-0.098106270,0.117960560,0.387656660
1640841155007559936,0.133891090,0.176367570,9.898050310,0.009377300,0.158868730,0.375120370
1640841155008149760,0.207029400,0.810115990,9.568764690,0.044827160,0.133693230,0.377908380
1640841155012549888,-0.135097240,0.576658670,10.141691210,-0.085490950,0.111940520,0.390459630
1640841155013129984,0.203385080,0.434536580,9.464631080,-0.114263600,0.148032620,0.410190280
1640841155017699840,-0.049126670,0.114931250,9.852481840,-0.055775040,0.126051870,0.388032170
1640841155018569984,-0.110657210,0.065244740,9.996376040,-0.018697980,0.148448360,0.408519830
1640841155022769920,0.293456350,0.315411480,9.174995420,-0.056022410,0.124751030,0.413751630
1640841155023219712,0.104372960,-0.253351150,9.874545100,-0.127080100,0.181762890,0.400799570
1640841155027449856,0.290014740,-0.263922180,9.744104390,-0.051380700,0.204753920,0.405724410
1640841155028159744,0.072965240,-0.153180780,9.862427710,0.014166540,0.093679150,0.387986030
1640841155032409856,-0.048723210,-0.234604090,9.685474400,-0.038868190,0.106470290,0.395828520
1640841155032909824,0.294207750,0.136777850,8.814505580,-0.074346370,0.180345790,0.391462500
1640841155037420032,-0.075254680,-0.088521670,9.924549100,-0.087928790,0.224542650,0.380052720
1640841155037799936,0.040308080,0.080596220,9.963729860,0.001169740,0.197122990,0.395430620
1640841155042479872,-0.060178050,0.315655500,9.791709900,0.034503640,0.078810760,0.381752850
1640841155043089920,-0.256076660,-0.000493280,9.742783550,-0.042739510,0.121749940,0.401684640
1640841155047409920,-0.012716480,0.025747590,9.059550290,-0.028455260,0.180795820,0.413981170
1640841155047940096,-0.304831090,-0.166899770,9.978251460,-0.019606950,0.172561420,0.385436450
1640841155054849792,0.044507980,-0.110838850,9.885019300,0.010415910,0.180453030,0.400310780
1640841155055359744,0.090282910,0.147761150,9.861811640,0.005050000,0.123220680,0.381505520
1640841155057400064,-0.155688380,-0.119188950,10.152278900,-0.028645990,0.103944530,0.392274560
1640841155057839872,0.145856720,0.051475360,9.227839470,0.018110870,0.114977350,0.404457720
1640841155062439936,-0.234335630,0.200044410,9.847885130,-0.005184120,0.115552560,0.361156550
1640841155063089920,-0.068325120,0.321237270,9.745779040,-0.032977760,0.182189060,0.412759240
1640841155068859904,0.145643730,0.443978130,9.731270790,-0.021125380,0.134848070,0.415092770
1640841155069890048,0.068664370,-0.004566040,10.171251300,-0.004546340,0.134615590,0.394986600
1640841155072379904,0.435083300,0.097814220,9.251976970,0.067625940,0.158034280,0.419797060
1640841155072689920,-0.007296610,0.223884900,9.845669750,0.014692550,0.116980100,0.393384700
1640841155077449984,0.003560260,-0.013358090,9.680347440,-0.093878810,0.137054940,0.431738850
1640841155077959936,0.306517780,-0.261188450,9.118878360,-0.013460220,0.142386560,0.422818960
1640841155082609920,0.053999610,-0.522534790,9.941072460,0.080356000,0.187189890,0.372849460
1640841155084179968,0.377005430,-0.085283180,9.461031910,0.108391070,0.212839290,0.397367840
1640841155087989760,0.106301020,0.094839710,9.943919180,0.001244250,0.130487950,0.391751500
1640841155090829824,-0.020738090,-0.338005270,9.979482650,-0.074563920,0.136598960,0.406767460
1640841155092349952,0.101517770,-0.411654260,9.126283650,0.098770870,0.139869760,0.397117500
1640841155092679936,-0.380459580,-0.339647350,9.650307660,0.187227130,0.118155790,0.357402890
1640841155097440000,-0.049002900,-0.015692930,9.146081920,0.108303150,0.194604720,0.392349150
1640841155098549760,-0.063973720,0.167692110,9.862453460,-0.004309420,0.198704000,0.383144620
1640841155102809856,-0.154155730,-0.287023930,10.536926270,-0.002329050,0.149692610,0.402575730
1640841155104270080,0.219378050,-0.273815750,9.391340260,0.206433270,0.114551200,0.407996860
1640841155107419904,-0.025488570,0.003016540,9.582834240,0.230245340,0.098849830,0.358909400
1640841155107800064,0.162358210,0.315759390,9.384839060,0.057435040,0.207643260,0.397393200
1640841155112369920,0.078319650,0.304374670,9.767415050,-0.005106630,0.168994070,0.400795070
1640841155112699904,-0.034631080,-0.114034320,10.316483500,0.070472060,0.118044020,0.380556320
1640841155117869824,0.230030460,0.112772080,9.300199510,0.246700690,0.143049660,0.383992580
1640841155118439936,-0.261859120,0.405431450,9.948985100,0.185583550,0.125457350,0.354114170
1640841155122979840,-0.239156310,0.410005960,9.861105920,0.002579390,0.156287830,0.410941240
1640841155124399872,-0.041036880,0.062962600,9.408584590,0.012996790,0.120890130,0.425916910
1640841155127589888,-0.078414310,-0.295122090,10.039900780,0.132441540,0.142507260,0.374600320
1640841155128480000,0.332982930,0.036530520,9.310793880,0.241142560,0.194402070,0.383386020
1640841155132470016,0.255569960,0.233710680,9.677203180,0.147457420,0.125850750,0.383779410
1640841155133029888,0.329150350,-0.098923260,9.895112990,-0.008247790,0.178772230,0.405316000
1640841155137459968,0.471707820,-0.394437700,9.441652300,0.087426610,0.175783040,0.406873320
1640841155137910016,0.016430260,-0.534684420,10.089228630,0.234785680,0.094428670,0.358618830
1640841155142409984,0.292910550,-0.096702290,8.903173450,0.233052700,0.177608480,0.373676420
1640841155142870016,0.126772970,0.192842290,9.183624270,0.105494270,0.204421620,0.365512070
1640841155147409920,-0.160745230,-0.160883110,10.407546040,0.030091410,0.220394130,0.376774400
1640841155147849984,-0.015378620,-0.221245170,9.647739410,0.210553450,0.136637690,0.385618270
1640841155153600000,-0.303332570,-0.140550910,9.724540710,0.305964110,0.050632670,0.350685480
1640841155154559744,-0.018538730,0.043978830,9.079139710,0.207170870,0.217893750,0.370749860
1640841155157420032,-0.047065650,0.051494550,9.532727240,0.120358190,0.228680700,0.382784100
1640841155157920000,-0.079310770,-0.268325840,10.515783310,0.126527250,0.168885310,0.381863150
1640841155162619904,0.521212040,-0.028635410,9.300131800,0.263208210,0.162044210,0.382496480
1640841155163679744,0.247736770,0.209614590,9.730180740,0.270789920,0.131583240,0.350444110
1640841155167449856,0.132174340,0.404534070,9.838652610,0.151208090,0.220486550,0.379149710
1640841155167959808,0.062546100,0.433405970,9.531955720,0.132319330,0.143724670,0.392568140
1640841155173080064,-0.224993050,0.000271410,10.221261980,0.169572230,0.114360460,0.357936320
1640841155174160128,0.108439170,0.396655260,9.191192630,0.253698230,0.220356910,0.372791320
1640841155177510144,-0.190087010,0.544324640,9.859732630,0.200504060,0.151033710,0.370964410
1640841155178040064,-0.171399250,0.284233210,10.110204700,0.081898260,0.188283610,0.382336940
1640841155182380032,0.153586800,0.089333410,9.360445980,0.139683500,0.160309670,0.379583270
1640841155182870016,-0.151435150,-0.252243310,10.281733510,0.224114970,0.132383420,0.352276860
1640841155187579904,0.213554750,0.058109480,9.266667370,0.223842290,0.209285360,0.384830000
1640841155188419840,0.397300150,0.152734520,9.199211120,0.139571730,0.145903210,0.376085910
1640841155192659968,0.423162760,-0.233409180,10.006051060,0.078746680,0.257244800,0.391569790
1640841155193120000,0.581610200,-0.148305710,9.595466610,0.196166370,0.239607720,0.375430380
1640841155197549824,0.094861160,-0.299158360,10.321151730,0.281728860,0.077538210,0.348691700
1640841155198099968,0.187431600,-0.161392210,9.001065250,0.236851010,0.175042500,0.368735280
1640841155202390016,0.216446850,0.021401680,8.740500450,0.151622310,0.207330290,0.340601770
1640841155202800128,-0.146364540,-0.256208450,10.210475920,0.121523460,0.276726570,0.349450170
1640841155207529984,0.189120350,-0.047125750,9.526024820,0.260670540,0.241668570,0.346323910
1640841155208240128,-0.125951140,-0.069935550,10.252823830,0.312346250,0.123068710,0.317683820
1640841155212649728,-0.200544700,-0.145303670,9.775619510,0.245800660,0.198562470,0.364279840
1640841155213510144,-0.150906980,-0.138399530,9.012207980,0.228817790,0.156275960,0.359530840
1640841155217449984,-0.356961910,-0.318189260,9.858142850,0.212973360,0.172710430,0.350214480
1640841155217799936,0.263723640,0.171536450,9.043542860,0.235641030,0.290347670,0.364181490
1640841155222880000,0.100960970,0.289100710,10.294660570,0.252001050,0.198347910,0.324332770
1640841155223579904,0.076107740,0.216228430,10.473157880,0.249549780,0.174935190,0.338174430
1640841155227670016,0.442198720,0.495530160,8.919414520,0.271290540,0.121320790,0.326713920
1640841155228879872,0.048911560,0.287638990,9.859518050,0.218923430,0.178076330,0.304703410
1640841155232519936,0.302905110,0.617422280,9.267877580,0.179599270,0.304880800,0.341615170
1640841155233260032,0.167152640,0.528608500,9.936412810,0.180035830,0.171490040,0.331862300
1640841155237679872,0.101640970,-0.023491200,10.243623730,0.209814310,0.195695500,0.334928930
1640841155238839808,0.247860940,0.156028810,8.987726210,0.277531210,0.201232780,0.323456620
1640841155242539776,-0.456283180,-0.005485540,10.208222390,0.225879270,0.132298470,0.327990980
1640841155243529984,-0.140150100,-0.025751040,9.248254780,0.131316500,0.222234470,0.369381900
1640841155247459840,0.188495560,-0.186080460,9.108415600,0.149801390,0.208812980,0.329734410
1640841155248019968,0.254331800,-0.468634580,10.405204770,0.247257980,0.302803610,0.321991830
