timestamp,accel_x,accel_y,accel_z,gyro_x,gyro_y,gyro_z
1640793409736029952,-0.438116970,0.537315430,10.176159860,0.037202240,0.115519770,0.009834770
1640793409736869888,-0.240341070,0.169257340,9.218521120,-0.001573560,0.008966030,-0.012348590
1640793409739529728,-0.495894250,-0.029493030,10.571164130,0.062239170,-0.024990740,0.004470350
1640793409741880064,-0.085575430,0.529872000,9.040262220,0.087036210,0.117805620,-0.006684660
1640793409744629760,0.096675090,0.354471950,9.735368730,0.004680450,0.039206450,-0.010228160
1640793409747490048,-0.035701940,0.335614860,10.683316230,-0.007481870,0.133535270,0.025336450
1640793409749580032,0.320198830,0.158088460,9.185554500,0.054106120,0.036434830,-0.017766650
1640793409751899904,-0.005618420,0.079101290,10.281992910,0.095541780,-0.045645240,-0.014185910
1640793409754599936,0.031615280,0.546658690,8.931077000,0.023312870,0.119663780,0.014930960
1640793409756950016,0.136324110,0.022574600,9.162181850,-0.051605710,0.076892970,-0.012253230
1640793409760749824,-0.359990980,-0.150446270,10.797635080,0.033628940,0.134922560,0.006663800
1640793409761890048,-0.064253470,0.106310290,9.153442380,0.112608070,0.076903400,-0.015790760
1640793409766350080,-0.318098960,0.026053730,10.153365140,0.074243550,-0.027459860,-0.008116660
1640793409767069696,-0.367264420,0.064328260,9.557781220,0.000189240,0.144577010,0.030885640
1640793409769699840,-0.120060350,-0.265414120,9.297730450,0.027872620,0.074507300,-0.015939770
1640793409771960064,-0.380755310,-0.185316250,10.518593790,0.117753450,0.067964190,-0.008907910
1640793409774579968,0.082790400,0.293240730,8.884074210,0.110881030,0.117401790,-0.013107060
1640793409777279744,0.094098230,0.321742090,9.979467390,0.039994720,0.056071580,-0.024038550
1640793409781679872,-0.162125990,0.306259810,10.291616440,0.019113720,0.141994670,0.005522370
1640793409782289920,0.063713210,0.316088770,9.332108500,0.088517360,0.028777120,-0.015583630
1640793409784580096,-0.312489480,0.238790200,10.209683420,0.131511690,0.038629770,-0.006234650
1640793409786969856,-0.241863730,0.510954980,9.329675670,0.066016610,0.158560290,0.006881360
1640793409789600000,-0.382321770,0.420447050,10.103060720,0.016917280,0.054898850,0.003886220
1640793409791869952,-0.487915520,0.221108230,10.179671290,0.023320320,0.065135960,0.015826530
1640793409795470080,-0.026914340,0.337072490,9.135775570,0.074495360,0.073730940,-0.006745760
1640793409797309952,-0.164619330,0.420163240,10.279342650,0.074167560,0.119996090,-0.001013280
1640793409799739904,-0.168102130,0.341941680,10.043362620,0.026702880,0.135676550,0.011700390
1640793409801920000,0.000678590,0.353574370,9.839005470,0.025428830,0.008668010,0.010925530
1640793409804559872,-0.012150290,0.367701170,9.638154980,0.029926000,0.083817530,0.008803600
1640793409806880000,0.173864750,0.502444330,9.217837330,-0.005504490,0.129030660,0.007267300
1640793409810099968,-0.022398050,0.499416620,10.139504430,0.000721220,0.122639540,0.018109380
1640793409812130048,-0.025223830,0.075418860,9.882977490,0.028957430,0.125044550,0.015275180
1640793409814609920,-0.093423010,0.145212650,9.849961280,0.066916640,0.045521560,0.004722180
1640793409817509888,-0.410436450,0.279685410,9.702292440,0.025482480,0.085030500,0.027506060
1640793409819510016,-0.283702050,-0.064323950,9.282188420,-0.054164230,0.097820170,0.017754730
1640793409821859840,-0.317898780,-0.065564620,9.901833530,0.004407760,0.144615780,-0.001685320
1640793409826419712,-0.157016550,-0.133883580,9.726629260,0.087833400,0.156903280,-0.019524990
1640793409828130048,-0.052070770,0.139841840,10.001852040,0.083340690,0.088883930,-0.002555550
1640793409830080000,-0.116382660,0.394484310,9.683315280,0.009191040,0.099898880,0.023990870
1640793409831919872,-0.047359310,-0.168853330,9.511198040,-0.032436850,0.077135860,0.026278200
1640793409834949888,-0.206172470,-0.144200680,9.832838060,0.090263780,0.114853700,0.021779540
1640793409836900096,-0.156026040,0.026884860,9.348928450,0.137987750,0.130759180,-0.008514520
1640793409839529984,-0.131121530,0.132920190,10.120758060,0.057572130,0.116951760,-0.001543760
1640793409842010112,-0.309393470,0.404977740,10.069205280,0.000807640,0.136709210,0.004528460
1640793409844569856,-0.300242660,0.055062170,9.865888600,0.016017260,0.018633900,-0.010980670
1640793409847509760,-0.295438530,0.308797750,9.770224570,0.118221340,0.087280560,0.017872450
1640793409849599744,-0.285244760,0.445229950,9.290546420,0.112615540,0.149388610,-0.005379320
1640793409851869696,-0.369764600,0.292426110,10.558904650,0.030532480,0.104357320,0.024232270
1640793409854480128,-0.278695520,0.506827350,10.019141200,0.014905630,0.098821530,0.042018300
1640793409856900096,-0.094629610,0.134947360,9.580621720,0.027152900,0.021809340,0.007514660
1640793409859619840,-0.047448230,0.399153200,9.889522550,0.056269770,0.146108880,0.021331010
1640793409862169856,-0.045309750,0.652490740,9.567914010,0.041557850,0.159949050,0.000643730
1640793409864559872,-0.271448020,0.342595220,10.717765810,-0.002837180,0.041948260,0.014930970
1640793409867009792,-0.170144620,0.601892350,9.696663860,0.012624270,0.077250610,0.034292040
1640793409869499904,-0.215470630,0.492760960,9.395137790,-0.011907520,0.031493610,0.005459790
1640793409871840000,-0.234371960,0.468346300,10.134730340,-0.039115550,0.153073670,0.048787900
1640793409874619904,-0.124079030,0.385592220,9.472582820,-0.010523200,0.175082700,0.028489530
1640793409877179904,-0.333069000,-0.098672050,10.630262370,0.025345390,0.029142200,0.018413360
1640793409879549952,-0.196286870,0.310143140,9.641534810,0.018163030,0.092515360,0.035813450
1640793409881939968,-0.209219100,0.244652320,9.087441440,-0.062133380,0.041742630,0.019076470
1640793409884529920,-0.213882510,-0.119471610,10.282249450,-0.082953260,0.129489590,0.042019780
1640793409886880000,0.053428360,0.090938000,9.391534810,0.014249980,0.199700920,0.011393430
1640793409889550080,-0.083070270,0.024035580,10.282143590,0.061151390,0.029869380,-0.006444750
1640793409891919872,-0.015948110,0.441649970,9.909136770,-0.006914140,0.129081310,0.053092840
1640793409895000064,-0.050700150,0.247106330,9.166354180,-0.086912510,0.081324580,0.034481290
1640793409896940032,-0.478488860,-0.218045130,10.556576730,-0.040705500,0.043228270,0.051553550
1640793409899669760,-0.279428600,0.078522490,9.063496590,0.088225290,0.125823920,0.029999020
1640793409902169856,-0.262486250,0.061816800,9.588056560,0.055322050,0.050926210,-0.003109870
1640793409906339840,-0.358062680,0.302264780,10.607772830,-0.040331480,0.194923560,0.033980610
1640793409907460096,-0.225618300,0.207739160,9.722272870,-0.063805270,0.091317300,0.021679700
1640793409911259904,-0.480384290,-0.202364880,10.566441540,0.024223330,-0.042723120,0.017142300
1640793409912160000,-0.225552250,0.344732460,9.077971460,0.089210270,0.107349450,0.030173360
1640793409914969856,-0.262866850,0.358819540,9.353069310,0.006890300,0.076051060,0.017276410
1640793409916960000,-0.397759590,0.380523740,10.850985530,-0.070358820,0.125063960,0.051261500
1640793409919600128,-0.005308680,0.514703510,9.469730380,-0.037801270,0.082474950,0.036709010
1640793409922279936,-0.159842890,0.296584130,10.361381530,0.019028780,-0.024934120,0.027772790
1640793409924529920,-0.183262070,0.718603490,9.854743000,0.010822720,0.132547360,0.038476300
1640793409926869760,-0.217278760,0.580783490,9.558686260,-0.054030120,0.051912670,0.031976410
1640793409929939968,-0.518772010,0.235248060,10.722732540,-0.079874690,0.018134710,0.061187150
1640793409931959808,-0.115809760,0.465786700,9.161660190,-0.039547690,0.103543710,0.042061510
1640793409935520000,-0.266632710,0.327756020,10.067469600,-0.051777080,0.036573410,0.035531820
1640793409936950016,-0.266402130,0.432983190,10.409697530,-0.082846000,0.119957350,0.065292420
1640793409939579904,0.061968300,0.288569780,9.283254620,-0.076748420,0.058287370,0.045353170
1640793409941890048,-0.218146580,0.060001610,10.324674610,-0.068785260,0.007890160,0.048901140
1640793409944529920,-0.052549530,0.458294990,9.485159870,-0.065179180,0.122794530,0.068400820
1640793409947310080,-0.170629290,0.129310760,9.730221750,-0.102220480,0.033041830,0.054880980
1640793409949619968,-0.355727820,0.008067480,10.463219640,-0.089889760,0.063450630,0.060386960
1640793409951849984,-0.028314170,0.207429330,9.175922390,-0.040157140,0.097332890,0.037506230
1640793409954809856,-0.208194510,0.046355010,9.945029260,-0.066180530,0.036908690,0.035983330
1640793409956930048,-0.305140910,0.193060410,10.141221050,-0.087125580,0.120782860,0.068771840
1640793409959529984,-0.274255070,-0.096127080,9.611381530,-0.066100070,0.028097640,0.052423780
1640793409962089984,-0.463269380,-0.266392980,10.109876630,-0.018855930,-0.020006300,0.049518050
1640793409964569856,-0.188353240,0.091178630,9.211105350,-0.008010870,0.107413530,0.040566920
1640793409969430016,-0.200123950,0.048013710,9.859853740,-0.072509050,0.099329670,0.026705860
1640793409971670016,-0.444012140,0.041341610,10.901829720,-0.063054260,0.051973770,0.044591730
1640793409972239872,-0.145367610,0.138590980,9.442705150,0.003124770,-0.018973650,0.038200620
1640793409974489856,-0.256023290,0.195043560,9.571706770,0.008539860,-0.015732650,0.052058700
1640793409976940032,-0.362825630,0.381236370,9.928472520,-0.040993090,0.119155650,0.069700180
1640793409979840000,-0.355621810,0.301126090,10.098428730,-0.067272780,0.069607790,0.050471730
1640793409981929984,-0.517236350,0.254825710,10.685107230,-0.040245060,-0.047351420,0.055359310
1640793409984570112,-0.238829430,0.524316190,9.607453350,-0.005720560,0.009989740,0.046961010
1640793409986899968,-0.211405890,0.680799370,9.468276980,-0.065539780,0.027941170,0.027763840
1640793409989479936,-0.306830970,0.692625050,10.374383930,-0.120671100,0.055667760,0.056751070
1640793409991869952,-0.186270670,0.466476200,9.988023760,-0.075073530,0.046348570,0.066992640
1640793409994550016,-0.249413610,0.278270780,10.096603390,-0.025728350,-0.075735150,0.048041340
1640793409996979968,-0.274586920,0.500559450,10.012234690,-0.038735560,-0.000061090,0.074724850
1640793410003320064,-0.215631680,0.528619950,9.449778560,-0.155815480,0.040496890,0.069716580
1640793410005070080,-0.254043190,0.096102650,10.308216090,-0.174459820,-0.016576050,0.071641800
1640793410005420032,-0.201708730,0.107520120,9.984256740,-0.055716940,0.049997870,0.049880150
1640793410006889728,-0.096269970,0.277556690,9.412224770,-0.034877660,-0.029835110,0.024007260
1640793410009549824,-0.394218270,0.411918100,10.442311290,-0.120255370,-0.026842960,0.060985990
1640793410012140032,-0.224562910,0.338010670,9.446465490,-0.192409770,0.036528710,0.065286460
1640793410014919936,-0.181009310,-0.157724840,9.884348870,-0.132460910,-0.046437980,0.043518840
1640793410016999936,-0.261511560,0.057888750,10.242504120,-0.017514830,0.067865850,0.049072510
1640793410019630080,0.032399170,0.237237450,9.224612240,-0.056281690,0.028242170,0.029566890
1640793410021859840,-0.294537750,-0.104770950,10.688732150,-0.119525210,-0.055378690,0.058136890
1640793410024509952,-0.324701190,-0.051313360,9.628491400,-0.119379190,0.018256900,0.052590680
1640793410026909952,-0.309008330,-0.234207020,9.152112960,-0.055781010,-0.111441310,0.028434400
1640793410029860096,-0.599245370,-0.102513320,10.362062450,-0.014713410,0.010578330,0.040055820
1640793410031980032,-0.277377720,0.278577420,9.301304820,-0.061298910,0.079703340,0.005823370
1640793410035630080,-0.518697080,0.137292940,10.866226200,-0.087307400,-0.089471030,0.022237000
1640793410037720064,-0.405897350,0.377081070,10.244065280,-0.070838640,-0.027747450,0.047351420
1640793410039579904,-0.084197650,0.367944300,8.915701870,-0.065018240,-0.073768200,0.026653710
1640793410041949952,-0.449823200,0.212244970,10.684712410,-0.038583580,-0.024786590,0.046141450
1640793410044580096,-0.316044690,0.429926010,9.638205530,-0.049616400,0.033295160,0.039270520
1640793410047279872,-0.202615160,0.247539950,9.860580440,-0.075639780,-0.165383530,0.036634500
1640793410051739904,-0.310520320,0.342283130,10.366370200,-0.080925230,-0.020290910,0.049394380
1640793410053200128,-0.090581010,0.455048410,9.344379430,-0.124135610,-0.007162990,0.025859480
1640793410054550016,-0.431818340,0.150383680,10.905000690,-0.086678570,-0.127367680,0.036583840
1640793410056869888,-0.382107700,0.296257410,9.921378140,-0.043222310,-0.034646690,0.022454560
1640793410059480064,-0.185389250,0.450697870,9.224757190,-0.077642510,-0.126619650,-0.000330810
1640793410061899776,-0.567828770,0.572570560,10.682197570,-0.152681800,-0.057700290,0.048175450
1640793410064639744,-0.198041080,0.465535100,9.403498650,-0.175450760,-0.023880600,0.045993920
1640793410067360000,-0.046062080,0.093541200,10.031084060,-0.080348560,-0.132803620,0.033183400
1640793410071480064,-0.180390920,0.262170640,10.258119580,-0.032609700,-0.017832220,0.042714180
1640793410071990016,0.037963580,0.259234760,9.323741910,-0.105346760,-0.072807070,0.041277710
1640793410074649856,-0.302158980,-0.116996710,10.557619090,-0.161099450,-0.135636330,0.051623580
1640793410076969984,-0.248852540,-0.196215640,9.556599620,-0.122959930,-0.072866690,0.031881030
1640793410080199936,-0.111794080,-0.171909910,9.297983170,-0.050279500,-0.116322930,0.008070470
1640793410082319872,-0.352298590,0.055085900,10.198255540,-0.057041650,-0.027775770,0.012660030
1640793410084640000,-0.186213080,0.107667310,9.727462770,-0.099524860,-0.013156230,0.020933150
1640793410086959872,-0.332216110,-0.024130600,10.460335730,-0.087687370,-0.157651320,0.030478840
1640793410089749760,-0.384228530,0.018416880,9.829918860,-0.042478740,-0.128269210,0.036935510
1640793410091909888,-0.242299960,0.055549130,9.124758720,-0.038346650,-0.105308020,0.032877920
1640793410094550016,-0.472667250,0.039226190,10.127550130,-0.059001160,-0.055643920,0.013531750
1640793410097289984,-0.310663010,-0.067914150,9.996788020,-0.056530550,-0.088435410,0.014717880
1640793410104989952,-0.121471570,0.050863870,9.854036330,-0.015555320,-0.152938070,0.016134980
1640793410105530112,-0.120176970,0.228959830,9.821027760,-0.026147070,-0.091071410,0.015603000
1640793410105959936,-0.186642930,0.210531030,10.154773710,-0.072799630,-0.101901610,0.016798080
1640793410106860032,-0.230190160,0.257752480,10.195554730,-0.041048230,-0.123240070,0.022909050
1640793410109489920,-0.182349010,0.154991310,9.666205410,-0.002042950,-0.157976150,0.006617610
1640793410111879936,-0.193420450,0.483190330,9.859753610,-0.020709640,-0.095911320,0.018721820
1640793410114719744,-0.281071450,0.731345710,9.859478000,-0.084114070,-0.079087920,0.019450490
1640793410117059840,-0.370471630,0.373371060,10.463068960,-0.116118780,-0.157068640,0.018310550
1640793410119510016,-0.270568400,0.443157910,9.894857410,-0.047837190,-0.121220950,0.027219950
1640793410121889792,-0.275571500,0.319753530,9.722891810,-0.010767580,-0.149621080,-0.002913180
1640793410124579840,-0.529052560,0.434198980,10.456906320,-0.074186930,-0.100936000,0.021991130
1640793410126950144,-0.257781680,0.554530500,9.660800930,-0.153136270,-0.137265000,0.039462740
1640793410130419968,-0.084862040,-0.129838260,9.942675590,-0.130240620,-0.172129240,0.024393200
1640793410132599808,0.088223640,0.076231320,9.705314640,-0.027602910,-0.036473580,0.031064450
1640793410134699776,0.271062230,0.297939630,9.733098030,-0.018721820,-0.083515050,0.014069680
1640793410137270016,-0.137735440,0.047305050,10.950880050,-0.115257520,-0.131538560,0.031870610
1640793410139520000,-0.015257440,0.177070320,9.492566110,-0.137315690,-0.158804680,0.026054690
1640793410141870080,-0.199477750,-0.132833630,9.428271290,-0.074619050,-0.184276700,-0.008378920
1640793410144529920,-0.429500730,0.071919820,9.834424970,-0.038446490,-0.036269430,0.004041200
1640793410147549952,-0.294472460,0.407041190,9.614361760,-0.049659610,-0.062274940,0.003464520
1640793410149560064,-0.502312720,-0.094049630,10.767845150,-0.079365080,-0.160209850,0.016666950
1640793410152019968,-0.276617650,0.040882890,9.826733590,-0.051349400,-0.115624080,0.039905310
1640793410154670080,-0.172740340,-0.091691200,9.496641160,-0.018675620,-0.150159000,0.029452140
1640793410156909824,-0.333174470,-0.363075380,10.349084850,-0.022801760,-0.084064900,0.021664800
1640793410159510016,-0.095010510,-0.073639420,9.592613220,-0.007623430,-0.093925010,0.000651180
1640793410162050048,0.001961580,-0.183639710,9.703569410,-0.012440980,-0.165253920,-0.019744040
1640793410165349888,0.026336070,0.113915960,9.909397130,-0.034430620,-0.072085860,-0.003154580
1640793410167130112,-0.021008760,0.461972980,9.905004500,-0.022089490,-0.083734120,-0.002858040
1640793410171069952,-0.327269760,0.263900550,10.648105620,-0.019209090,-0.170455870,-0.000299510
1640793410171909888,-0.349484030,0.457765670,9.925899510,0.019940740,-0.153312090,0.015832490
1640793410174530048,-0.263989450,0.464303970,9.393921850,0.021752720,-0.116717830,0.005319710
1640793410177009920,-0.472622280,0.396523860,10.315563200,-0.046277050,-0.058642030,0.014528630
1640793410179610112,-0.296990570,0.553341630,10.308341980,-0.059525680,-0.113850850,0.021524730
1640793410182829824,-0.000579830,0.230321620,9.803812030,-0.039260090,-0.154079500,0.001490120
1640793410185359872,0.140764240,0.175110310,9.881177900,0.010372700,-0.098234420,-0.011035800
1640793410186919936,0.116771180,0.519900140,10.014828680,0.003008540,-0.039410590,-0.002716480
1640793410189509888,-0.050237760,0.318043980,10.214531900,-0.092232230,-0.130945440,0.003702940
1640793410191849984,-0.005371180,0.114980760,10.141191480,-0.088752810,-0.171995160,0.026312470
1640793410195129856,0.106527590,0.020317650,9.173440930,-0.007641320,-0.047403570,-0.003075600
1640793410196979968,-0.080984500,-0.007956470,9.856471060,0.006464120,-0.071598600,-0.017397110
1640793410201949952,-0.243264680,0.175498500,10.598613740,-0.019130110,-0.037716330,0.017596780
1640793410202970112,-0.240321760,-0.113733940,9.747982030,-0.058299300,-0.108401460,-0.010140240
1640793410204529920,-0.415625100,-0.192319070,10.287224770,-0.017589330,-0.201904820,0.006297230
1640793410206969856,-0.255735310,0.160914810,9.274385450,0.011207160,-0.014868380,0.013342500
1640793410209499904,-0.091680920,-0.016660270,9.479733470,-0.018416340,-0.039318200,-0.023423130
1640793410212110080,-0.370971800,0.024546950,11.215492250,0.011713810,-0.047230730,0.007645790
1640793410214899968,0.013392130,0.201276080,9.411531450,0.029754640,-0.099553170,-0.013735890
1640793410216999936,-0.051354070,0.064084900,9.791028980,0.015001000,-0.210425260,0.002680720
1640793410219769856,-0.133370370,0.297521380,9.948246960,-0.010967260,0.008229910,0.028079750
1640793410221869824,-0.081632990,0.107550640,9.598645210,-0.009095670,-0.029249490,-0.011058150
1640793410224599808,-0.469604820,-0.048720510,11.277180670,0.064949700,-0.160352890,0.004267690
1640793410227049728,-0.135827410,0.340472100,9.446011540,0.078593190,-0.067277260,-0.011293590
1640793410229479936,-0.098694320,0.425565150,9.518746380,-0.023101270,-0.133530810,-0.018353760
1640793410232100096,-0.383912830,0.540166080,10.798451420,-0.072138020,-0.031600890,0.021988150
1640793410234729984,-0.009538360,0.392120330,9.476365090,-0.018389520,-0.041285160,-0.008307400
1640793410237079808,-0.139323760,0.183893740,10.522893910,0.092011700,-0.180161000,0.002437830
1640793410239470080,-0.103967780,0.585788130,10.071687700,0.068825490,-0.016674400,0.027158860
1640793410242060032,0.104475080,0.514923990,9.455375670,-0.074996050,-0.074072170,0.038154430
1640793410244539904,-0.084211540,0.064793340,10.816773410,-0.106821960,-0.101827090,0.060114260
1640793410247579904,0.170135270,-0.083497150,9.474286080,0.017245110,-0.002382700,0.014397500
1640793410249519872,0.248758580,0.009281940,9.592844960,0.087021300,-0.092166670,-0.020384780
1640793410252399872,-0.237914000,0.313464820,10.625483510,0.015610460,-0.012093780,0.021004680
1640793410254540032,-0.087764770,0.137240690,9.665753360,-0.088156770,-0.065520410,0.015291570
1640793410257129984,-0.178296580,-0.177504150,10.132711410,-0.044116380,-0.124473880,0.016371910
1640793410259579904,-0.253816190,0.027991910,9.728884700,0.056500740,0.012859700,0.016038120
1640793410261920000,-0.017929330,0.134641380,9.553803440,0.065107640,0.002089140,0.023670490
1640793410265120000,-0.243658740,0.117459770,10.743555070,0.013200940,-0.021289290,0.039039550
1640793410267079936,-0.089048950,-0.111048180,9.998539920,-0.009609760,-0.055781000,0.040052830
1640793410269719808,-0.001755350,-0.221914960,9.623920440,0.040826200,-0.092957910,0.039979820
1640793410271970048,-0.128342700,-0.154422570,9.826948170,0.082963710,0.001172720,0.022998460
1640793410274619904,-0.013755830,-0.038321350,10.057024960,0.049477820,0.013688210,0.006406010
1640793410276909824,-0.073690440,0.131779790,10.301942830,0.047722460,-0.027407710,0.024850670
1640793410279559936,-0.079174850,0.122321550,9.914037700,0.060902540,-0.074620540,0.026939810
1640793410282609920,-0.145834620,0.301003010,9.889676090,0.053440030,-0.031432510,0.036732850
1640793410284610048,-0.347384360,0.423413430,9.876871110,0.059261910,0.003160540,0.037619470
1640793410286909696,-0.449517610,0.200977270,10.432075500,0.063566870,-0.064247850,0.027796630
1640793410289659904,-0.216927100,0.403214990,9.856743810,0.074328480,-0.018952790,0.043383240
1640793410291889920,0.000070990,0.511992450,9.785027500,0.050455340,-0.003181400,0.027287010
1640793410294479872,-0.114103760,0.503146890,10.752490040,-0.013944510,0.032582880,0.040316590
1640793410296939776,0.065024530,0.544179680,9.899282460,0.001510980,-0.027726590,0.040233140
1640793410301719808,0.018724280,0.009790010,10.036115650,0.064533950,-0.097240510,0.022016470
1640793410304000000,-0.014143460,0.190079530,9.608348850,0.092273960,0.038322810,0.032345950
1640793410304580096,-0.103806150,0.454017880,9.658338550,0.016732510,-0.010472530,0.040943910
1640793410307069952,-0.227328960,-0.069286910,10.675976750,-0.070482490,-0.008730590,0.054445860
1640793410309509888,0.090449610,-0.006788730,9.670188900,0.011490290,0.037464500,0.041021410
1640793410311899904,-0.016048450,-0.010284310,10.082260130,0.118337570,-0.028288370,0.022102890
1640793410314960128,-0.210896420,0.214551550,10.178543090,0.071759530,0.015929340,0.038644670
1640793410317080064,-0.086005840,0.433227000,9.285654070,-0.023178760,-0.027740000,0.047159190
1640793410320279808,-0.268059940,-0.252222180,10.135605810,-0.021465120,-0.006382170,0.039061910
1640793410322439936,-0.248946650,-0.143497050,9.902803420,0.091654070,0.043304260,0.023977460
1640793410324559872,-0.126378180,0.148864430,9.706382750,0.134077670,-0.017127400,0.008620320
1640793410326989824,-0.189041790,0.057640600,10.244984630,0.032523280,0.038044150,0.021912160
1640793410329509888,-0.149501200,0.186080560,10.139164920,-0.007732210,0.015497210,0.048230590
1640793410332089856,-0.107417260,-0.128675910,9.905082700,0.066721450,-0.031355020,0.034813580
1640793410334689792,-0.112486560,-0.145332130,9.730625150,0.132459400,-0.001741950,0.036104030
1640793410337009920,-0.143646370,0.286684300,9.934256550,0.118730960,0.046008820,0.032101560
1640793410339840000,-0.272619160,0.233650770,10.289076810,0.029763580,0.021357830,0.023178760
1640793410341889792,-0.278207600,0.280315250,10.377188680,0.013773150,-0.059126330,0.044004630
1640793410344559872,-0.101536230,0.466154040,9.599688530,0.082220140,0.010283290,0.038193170
1640793410347229952,-0.105865110,0.523564640,9.760336880,0.076203050,0.032053890,0.013703110
1640793410349659904,-0.213811730,0.696348970,10.602685930,0.051409020,0.038695340,0.059731310
1640793410351970048,-0.122212760,0.471260580,9.874703410,0.027216970,0.008270140,0.052431230
1640793410354629888,-0.099810960,0.114393350,10.127608300,0.036020580,-0.082214180,0.047531720
1640793410356959744,0.006449880,0.452143970,9.892274860,0.041779880,0.051887340,0.060172380
1640793410359459840,0.154998110,0.283892480,9.607967380,-0.009064380,0.067415830,0.033941860
1640793410361899776,-0.049900370,-0.021647620,10.976772310,0.004315380,0.010934470,0.060568750
1640793410364559872,0.089232810,0.162435610,9.758559230,0.075750050,0.045342750,0.049769880
1640793410367059968,-0.052390060,0.044674490,9.680697440,0.051264470,-0.069351490,0.043986740
1640793410369550080,-0.275963720,0.273552330,10.169241910,-0.023216010,0.042542810,0.082103900
1640793410372189952,-0.053669040,0.090281510,9.084976200,-0.027304890,0.087781260,0.034795700
1640793410374549760,-0.209628460,-0.237170980,10.598699570,0.059078640,-0.009469690,0.019206110
1640793410376979712,-0.078347820,0.322194130,10.055479050,0.117696820,0.109300020,0.025258960
1640793410379500032,-0.043247700,0.256360590,9.710534100,0.033356260,0.008495150,0.017130380
1640793410382149888,-0.415163010,-0.007923710,10.919746400,-0.023603440,-0.008602440,0.061586480
1640793410387620096,-0.128325950,-0.037847490,9.094697000,0.046436500,0.049255800,0.039331620
1640793410388379904,-0.115792080,-0.310890170,9.579523090,0.123654310,-0.005777180,0.029778480
1640793410389499904,-0.150598480,0.020817590,10.388431550,0.118184100,0.147244330,0.042597950
1640793410391889920,0.030900880,0.227086590,9.849693300,0.038729610,0.069966920,0.014302130
1640793410394520064,-0.177585080,0.054474250,10.893814090,0.012515490,-0.053013860,0.041130190
1640793410397529856,-0.089538700,0.275292840,9.797271730,0.077167180,0.050210960,0.036756700
1640793410399539968,-0.196570160,0.354860040,9.613717080,0.115340950,0.022064150,0.006552040
1640793410404879872,-0.436815050,0.588307980,10.467899320,0.076302880,0.067052250,0.036524230
1640793410405429760,-0.249370160,0.683035020,9.859074590,0.020289430,0.057145960,0.041687500
1640793410406970112,-0.095381390,0.317253770,10.017880440,0.024738910,0.007382040,0.035178660
1640793410409519872,-0.059410030,0.352391780,10.267585750,0.071227560,0.063635420,0.031881030
1640793410411959808,-0.037952370,0.440498710,10.167291640,0.066819790,0.080880530,0.030171870
1640793410414670080,-0.101900440,0.245950450,10.263308530,0.013720990,0.026449560,0.036887820
1640793410417799936,-0.086850180,0.127553870,10.187567710,0.015626850,-0.000509620,0.033338370
1640793410422019840,0.038643960,0.245889040,9.470166210,0.037267800,0.080786650,0.041502720
1640793410422439936,0.109045460,0.310004000,9.779843330,0.005050000,0.090673570,0.036390130
1640793410424529920,-0.042524870,0.218202250,10.703930850,0.006558000,0.095742960,0.047579420
1640793410426939904,0.067431430,0.231963980,9.753285410,0.036424390,0.075280660,0.031703700
1640793410429519872,-0.063882110,0.129734380,10.141434670,0.051756210,-0.005412100,0.024740400
1640793410432160000,-0.306477580,0.281044360,10.000495910,0.012198090,0.097548970,0.048896670
1640793410434799872,-0.054411600,0.092434600,9.224521640,-0.023673480,0.084957480,0.024455790
1640793410438530048,-0.225736620,-0.124362020,10.569726940,0.026290110,0.091305370,0.010246040
1640793410439499776,-0.075365010,0.204031330,9.703529360,0.073546180,0.145067290,0.014887750
1640793410441939712,0.037840850,0.047602300,9.921709060,0.049388400,0.024892390,0.011664630
1640793410444480000,-0.233428270,0.008534500,10.660845760,0.009505450,0.090995420,0.034373990
1640793410447529984,-0.034829040,-0.075541270,9.272822380,0.028003750,0.099125510,0.025592740
1640793410450089984,-0.171295840,-0.220588130,10.199507710,0.082032390,0.032256550,0.007298590
1640793410452009984,-0.203092100,0.223691730,9.902210240,0.074711450,0.148619710,0.011304020
1640793410454700032,0.034542960,0.280284080,9.618204120,0.021539630,0.091934230,0.001913310
1640793410456969984,-0.328886690,0.220630200,10.809734340,0.019828980,0.063338880,0.012370940
1640793410459489792,-0.245968760,0.376346080,9.706079480,0.055539620,0.071272250,0.002838670
1640793410461969920,-0.108952460,0.369649440,9.719453810,0.070174040,0.053116690,-0.004205110
1640793410464659968,-0.502323990,0.524810490,10.582386020,0.042741000,0.136061030,0.004245340
1640793410467660032,-0.306463660,0.566981430,10.037593840,-0.005714600,0.073440360,0.021515780
1640793410469590016,-0.113182770,0.253583760,9.927086830,0.006793440,0.030301510,0.021156670
1640793410472800000,-0.207798670,0.200435800,9.960781100,0.054495030,0.109551850,0.010213260
1640793410474530048,-0.128461990,0.365546550,10.012562750,0.043444340,0.107508920,0.020539760
1640793410476999936,-0.248661640,0.281718050,10.291916850,-0.015045700,0.044558950,0.032570950
1640793410479529984,-0.206537380,0.106023620,10.083348270,-0.024902820,0.022660200,0.036221740
1640793410482939904,0.077072220,0.180014250,9.454493520,0.015744570,0.119164580,0.001585480
1640793410484580096,-0.099178280,0.374688090,10.121305470,0.025285780,0.089964260,-0.002786520
1640793410487769856,-0.152866300,0.324079300,10.481425290,-0.015766920,0.105187300,0.012594460
1640793410489519872,0.021410790,0.238172950,9.562317850,-0.010776520,0.066512830,-0.001016260
1640793410491879936,-0.383124440,0.023307740,10.315484050,0.034111740,-0.014625490,0.011205670
1640793410494569984,-0.248194720,0.174097480,9.404151920,0.015352670,0.094814610,0.011146070
1640793410497519872,-0.186941440,0.065960860,9.474728580,-0.022938850,0.078110400,-0.005719070
1640793410502459904,-0.537793520,-0.176214080,10.997823720,0.002115960,0.100657340,0.006312130
1640793410503399936,-0.146122720,0.020026470,9.551212310,0.053788720,0.065462300,-0.009793040
1640793410505359872,-0.363964920,0.009166780,10.189814570,0.059820720,-0.061732530,-0.004822020
1640793410506969856,-0.348604290,0.138011230,9.799345020,-0.002442300,0.109747060,0.017027560
1640793410509479936,-0.131310240,0.071211870,9.375466350,-0.006271900,0.073918700,-0.017671290
1640793410511970048,-0.504678370,0.035606140,10.932776450,0.055284810,0.003460050,-0.008463860
1640793410514989824,-0.086629850,0.418086530,9.359499930,0.072649130,0.074747200,0.002044440
1640793410517060096,-0.105536520,0.620555580,9.915564540,0.011222070,-0.013729930,-0.016111140
1640793410519640064,-0.383381430,0.575736760,10.764978410,-0.049591080,0.080959510,0.015757980
1640793410521989888,-0.076257900,0.370635570,9.652389530,-0.014266370,0.031465300,0.002782050
1640793410524539904,-0.296211510,0.324171750,10.413648610,0.079011920,-0.056816640,-0.008919840
1640793410526939904,-0.271347020,0.512854100,9.801478390,0.021959840,0.079795700,0.011967120
1640793410531440128,-0.064392570,0.565301120,9.606931690,-0.087840850,0.011116270,0.027410690
1640793410533159936,-0.237843440,0.160433490,10.495282170,-0.090220570,0.030702350,0.024341040
1640793410537230080,0.019629440,-0.018406690,9.740206720,0.009979310,0.052827600,-0.011895600
1640793410537939968,0.022456930,0.317079570,10.018807410,0.053299970,-0.000895560,-0.015933820
1640793410539559936,-0.238050030,0.424554940,10.253230090,-0.048787900,0.061091790,0.003130730
1640793410541979904,-0.108333240,0.209961130,9.932589530,-0.129987310,0.004704300,0.025847560
1640793410544620032,-0.113857930,-0.009809310,9.786823270,-0.047418480,0.026845930,-0.001692770
1640793410547979776,-0.073349800,0.059506660,9.613816260,0.033308570,0.049957630,-0.024563080
1640793410551269888,-0.066961250,0.293740480,10.059591290,0.002692640,0.086210680,0.004188720
1640793410552450048,-0.201766480,0.167389020,10.149082180,-0.060606010,0.043687230,0.002427400
1640793410554669824,-0.228923140,-0.213808980,10.263935090,-0.067295130,-0.046600410,-0.005081300
1640793410557029888,-0.168615610,-0.038523370,9.472992900,0.014080110,0.038261720,-0.001317260
1640793410559520000,-0.296864120,0.006920560,9.668988230,0.021974750,0.032401100,-0.048577790
1640793410562309888,-0.431814310,0.114396420,10.501508710,-0.032639510,0.053453450,-0.020475690
1640793410564940032,-0.225389880,0.254041190,9.661038400,-0.033417340,0.024035570,-0.016383830
1640793410569099776,-0.286712910,-0.051553320,10.250698090,-0.006498400,-0.048644840,-0.018858910
1640793410570040064,-0.210122850,0.326923310,9.905359270,0.021666290,0.073345010,0.006976720
1640793410571889920,-0.235548620,0.302344950,9.885869980,0.007894640,0.003704430,-0.016888980
1640793410574509824,-0.424184920,0.122055950,10.738749500,-0.027686360,-0.026370590,-0.003965200
1640793410577219840,-0.014593940,0.381455180,9.354962350,-0.009280440,0.021861500,-0.004237890
1640793410579650048,-0.087504890,0.252173630,10.010721210,0.006416440,-0.023727120,-0.033192340
1640793410582659840,-0.217435230,0.497517590,10.385936740,-0.037266310,0.062704090,-0.011639300
1640793410584569856,-0.055276220,0.551027060,9.704484940,-0.043623150,-0.013898310,-0.018940870
1640793410587129856,-0.330215220,0.095427770,10.547127720,-0.022616980,-0.060719260,-0.013130910
1640793410589540096,-0.215762940,0.382916030,9.588816640,0.003881750,0.021404030,0.000430640
1640793410591929856,-0.181554680,0.397646070,9.569203380,-0.033894180,-0.014762580,-0.000409780
1640793410594769920,-0.212774800,-0.000741730,10.309118270,-0.085258480,0.045025350,0.002390150
1640793410597260032,0.015874070,0.021390190,9.821267130,-0.010778010,0.028808410,-0.011239940
1640793410599670016,-0.126371610,-0.009833670,10.077140810,0.039657950,-0.063228610,-0.026941300
1640793410602840064,-0.203293220,0.214558180,9.759928700,-0.036019090,-0.011681020,-0.019533930
1640793410604519936,-0.102256630,0.254622220,9.585235600,-0.094623850,0.008867680,-0.001508000
1640793410606959872,-0.255233230,-0.145440470,10.026994710,-0.046327710,0.033602120,-0.037653740
1640793410609720064,-0.277100410,0.140922930,10.149320600,0.036041440,-0.012107200,-0.038528450
1640793410611970048,-0.127804160,0.413489340,9.656908040,0.026212630,-0.015504660,-0.021824240
1640793410614949888,-0.278601650,0.114694650,9.877153400,-0.066101550,-0.009767710,-0.022131210
1640793410617070080,-0.392084570,-0.026510080,10.341900830,-0.052489340,-0.008805100,0.006261470
1640793410619500032,-0.355650540,-0.122373400,9.514015200,0.041422250,-0.037840010,-0.014351310
1640793410621969920,-0.303628120,-0.019206550,9.896434780,0.048278260,-0.069209930,-0.044788410
1640793410624549888,-0.151322410,0.518149910,9.986642840,-0.031687320,0.069418530,-0.017997620
1640793410627009792,-0.153463200,0.394559740,10.067229270,-0.092521310,-0.005869570,-0.033965710
1640793410629750016,-0.192741590,0.243092610,10.813501360,-0.027631230,-0.093753650,-0.018520660
1640793410634789888,0.104671680,0.629235330,9.250495910,0.046418620,-0.024591390,-0.024347010
1640793410635979776,-0.206672060,0.527519580,9.942234990,-0.011166930,-0.042955570,-0.026838480
1640793410636979712,-0.321321610,0.487220560,10.509196280,-0.097294160,0.017294290,0.021538140
1640793410639499776,-0.073221120,0.191070270,9.459326740,-0.064942240,-0.045295060,-0.002181530
1640793410642339840,-0.111343380,-0.120176370,10.325138090,0.001303850,-0.076828900,-0.019057100
1640793410644529920,0.118330930,0.314196590,9.630550380,-0.019830470,0.072270630,-0.010913610
1640793410647359744,-0.053936680,0.120675090,9.944623950,-0.070175540,-0.019122660,-0.016367440
1640793410649529856,-0.284981460,-0.168734820,10.775035860,-0.074079640,-0.068134080,-0.001743440
1640793410651990016,0.000569650,0.051608930,9.122331620,-0.009790060,-0.047011670,-0.013987720
1640793410652429824,-0.174227270,0.120267930,9.522334100,-0.001637640,-0.060038280,-0.025230650
1640793410657120000,-0.066443060,0.304247680,9.876875880,-0.079090890,0.084249680,-0.002172590
1640793410659569920,-0.042697510,0.204514740,10.039700510,-0.056950760,0.040844090,-0.016967950
1640793410661919744,-0.185057680,-0.070424950,10.684195520,0.005954500,-0.094857810,-0.013169650
1640793410664679936,-0.044580400,0.142182570,9.503705020,0.035245720,-0.061295930,-0.011502210
1640793410668140032,-0.153752240,0.219239990,9.310431480,-0.026744600,-0.010591740,-0.018562370
1640793410669570048,-0.209396420,-0.079671030,10.025609020,-0.096280870,0.051110980,-0.031013780
1640793410672009984,-0.229731990,-0.064450800,10.222491260,-0.008173290,-0.006419420,-0.031177700
1640793410672430080,-0.166068140,0.033960120,9.883450510,0.069551170,-0.069169690,-0.025095050
1640793410677059840,-0.052181370,0.150478930,9.729816440,0.006002190,-0.035123530,-0.014568870
1640793410677510144,-0.367104500,0.265233160,10.297960280,-0.053994360,0.025376680,0.006237630
1640793410682099712,-0.311008930,0.033616610,10.034735680,-0.036026540,-0.027920310,-0.011008980
1640793410682759936,-0.255835740,0.046705790,10.178306580,0.050649050,-0.096535670,-0.011996920
1640793410687000064,-0.124193770,0.638325510,9.508204460,0.049592560,0.013668840,-0.010259450
1640793410687579904,0.078473200,0.638451460,9.621891020,-0.074131790,0.015099350,-0.016584990
1640793410692029952,-0.150619520,0.494450690,10.928517340,-0.097601100,-0.011518600,0.006930530
1640793410692600064,0.119905050,0.366293160,9.595753670,-0.004157420,-0.027665500,-0.010526180
1640793410697180160,0.043805360,0.097381660,10.018134120,0.054648520,-0.105191770,-0.016929210
1640793410698060032,-0.168159980,0.628662410,10.014952660,-0.021786990,0.036351380,0.008077920
1640793410702089984,0.075443370,0.208273710,9.245304110,-0.143417720,0.006344910,0.010237100
1640793410702699776,-0.085863060,-0.371546750,10.654999730,-0.075361130,-0.025983150,0.016413630
1640793410707589888,0.029332530,0.046074260,9.596636770,0.063301630,0.054791580,-0.014460090
1640793410708259840,0.013913390,0.037881080,9.779472350,0.026406350,-0.074723370,-0.014084580
1640793410712489728,-0.318615970,0.112021510,10.533187870,-0.078631940,-0.000877680,0.026051700
1640793410713430016,-0.010634130,-0.067659100,9.015980720,-0.087065990,0.027379400,-0.015230480
1640793410718099712,-0.121756000,-0.173479380,10.111544610,0.012080370,-0.052809720,-0.024211400
1640793410718959872,-0.104869140,0.427072670,9.815915110,0.050632660,0.086432700,-0.012682380
1640793410722319872,0.015136470,0.412969950,9.632631300,-0.030756000,0.006945430,-0.019957130
1640793410722939904,-0.412106420,0.137421920,10.895071980,-0.062100590,-0.053153940,0.019364060
1640793410727039744,-0.262018050,0.016242280,9.399582860,0.013276940,-0.011318920,0.005984310
1640793410727779840,-0.164256270,-0.136516170,9.414133070,0.045143070,-0.055629020,-0.012454390
1640793410734700032,-0.396069320,0.141334460,10.375823020,0.017955900,0.076991320,0.011126700
1640793410735209984,-0.208677920,0.126094580,10.030381200,-0.044459110,0.029203300,-0.009119510
1640793410736999936,-0.154440920,-0.003715800,10.396835330,-0.020697710,-0.100237150,-0.002305210
1640793410739219968,-0.181383770,0.183082710,9.938332560,0.045230980,-0.025479500,-0.004714730
1640793410741999872,-0.040197660,0.447100670,9.560366630,0.023560230,0.011555850,-0.025130810
1640793410742419968,-0.295246450,0.597752930,10.428420070,-0.033549970,-0.024412570,0.000338260
1640793410747119872,-0.207127260,0.477941190,10.243513110,-0.038112700,-0.041492280,0.022661690
1640793410747969792,0.174635590,0.391413450,9.410044670,-0.007562340,-0.009889900,0.011904540
1640793410752049920,-0.028884330,0.466764060,10.163179400,0.007720290,0.002524260,0.009065860
1640793410752529920,-0.079380550,0.389659430,10.357149120,-0.038619340,0.031685830,0.023224950
1640793410757019904,0.056198680,0.070234310,9.687292100,-0.049221530,-0.025781990,0.027498610
1640793410757489920,-0.166715340,-0.209913120,10.327897070,-0.001390280,-0.065703690,0.020551680
1640793410762279936,-0.017621120,0.034298320,9.468422890,-0.000189240,0.050221390,0.007849930
1640793410763059968,0.103039010,0.149502580,9.440348630,-0.053212050,0.008037690,-0.001569090
1640793410767010048,-0.153961880,-0.054911280,10.732913970,-0.048506260,0.059586770,0.012099740
1640793410767510016,0.024550550,0.131727520,9.603876110,0.005735460,0.024460260,-0.010351840
1640793410772270080,-0.193705350,0.229620770,10.068346980,0.037251420,-0.110313300,0.008133050
1640793410772829952,-0.286185890,0.343801770,9.674118040,-0.030517570,0.047534710,0.026659670
1640793410777019904,-0.055001280,0.191839430,9.213664050,-0.065173220,0.047947470,0.007544460
1640793410777580032,-0.419382270,-0.023626630,10.942018510,0.007037820,0.011903050,0.004602970
1640793410782779904,-0.075807010,0.207821740,9.651920320,0.039163230,0.034268200,0.004856290
1640793410783279872,0.034701290,0.237752450,9.746471410,0.008153920,-0.049230460,0.006599720
1640793410787149824,-0.222249420,0.029005620,10.409709930,-0.045333800,0.064031790,0.024440880
1640793410788359936,-0.054581940,-0.032707900,9.609301570,-0.016044080,0.026105350,0.008322300
1640793410792019968,-0.203104450,0.113118540,10.273155210,0.047284370,-0.056512660,0.004668530
1640793410792460032,-0.126677990,0.349885820,9.667881970,0.007988510,0.061653560,0.013394650
1640793410797159936,-0.061707950,0.667590260,9.849986080,-0.061310840,0.033587220,0.013861060
1640793410797920000,-0.259866540,0.560852230,10.663980480,-0.069209930,0.011575220,0.027161840
1640793410804059904,-0.121282290,0.398044050,9.860567090,-0.005106630,-0.015345220,0.016424060
1640793410804729856,-0.025310700,0.569714730,9.721110340,0.035095220,0.003743170,0.016044080
1640793410806989824,-0.237633530,0.546760740,10.063808440,-0.041039290,0.076043610,0.024807460
1640793410807419904,-0.128446370,0.304836600,10.178552630,-0.123508270,0.002899770,0.044013560
1640793410812079872,0.138651360,0.012857860,9.734231000,-0.065465280,0.027042630,0.043311720
1640793410813710080,0.180305500,-0.220608740,9.744578360,0.020644070,0.052240480,-0.008167320
1640793410817070080,0.040931680,0.137922120,10.209409710,0.009304290,0.074954340,0.020091230
1640793410818589952,-0.061194630,0.125994240,9.939087870,-0.071014450,0.017637010,0.014451150
1640793410822000128,-0.208398700,-0.290430690,10.086412430,-0.094737110,-0.053353610,0.018315010
1640793410822429952,-0.023789960,0.058002670,9.174087520,-0.013720990,0.087936220,0.003112850
1640793410827020032,-0.141696600,0.174448940,9.670209880,0.015930830,0.077067320,-0.015908480
1640793410827559936,-0.318178120,0.217527660,10.770637510,-0.019952660,0.072596970,0.016722080
1640793410832120064,-0.135074090,0.288539710,9.745895390,-0.023342670,0.031416120,0.006194410
1640793410832800000,-0.367133920,-0.116794860,10.101561550,-0.008353590,-0.072133550,0.009508430
1640793410837149952,-0.240359590,0.085079410,9.381541250,0.008578600,0.082448120,0.021915140
1640793410838650112,-0.112959290,0.033543240,9.432487490,0.006680190,0.083206590,-0.017151240
1640793410842020096,-0.376312260,-0.111441140,11.008541110,-0.005124510,0.050340600,0.005961960
1640793410842399744,0.061018650,0.176555510,9.605239870,0.013993680,0.035138430,0.010715430
1640793410847089920,-0.037002450,0.092621610,9.871935840,0.021114950,-0.054162740,-0.006362800
1640793410847919872,-0.160612540,0.257472810,10.146394730,-0.013087690,0.104254470,0.021874900
1640793410852150016,-0.153205780,0.450338510,9.793848990,-0.009699170,0.055989630,0.001759830
1640793410852800000,-0.453261460,0.261881350,10.581609730,0.009852650,-0.065520410,0.014051800
1640793410857029888,-0.067543050,0.472778590,9.383351330,0.007024410,0.052084030,0.015851860
1640793410857539840,-0.009519780,0.662270840,9.717152600,-0.025363270,0.072672960,-0.003467500
1640793410862399744,-0.391557010,0.458408390,11.081427570,-0.065653030,0.065028650,0.020158290
1640793410863510016,-0.035343920,0.364179020,10.010844230,-0.037440670,-0.016213960,0.020878020
1640793410867280128,-0.046090680,0.195609120,9.676900860,0.012467800,-0.031679860,0.008362530
1640793410868249856,-0.065782480,0.278305530,9.749775890,-0.025045880,0.100503880,0.013054910
1640793410872049920,0.148545340,0.420629170,9.912635800,-0.103086250,0.085273390,0.024351480
1640793410873430016,0.165168000,-0.030163200,10.141445160,-0.085712950,0.059300660,0.013709070
1640793410877019904,0.141046810,-0.122637300,10.195706370,0.001266600,0.028450790,-0.007696450
1640793410877699840,0.060588970,0.276088120,9.710176470,0.024060910,0.038616360,0.003606080
1640793410882210048,-0.287639320,0.226745780,9.736573220,-0.084620720,0.026403370,0.010026990
1640793410883059968,-0.287729800,0.006543910,10.119684220,-0.134038900,0.057983390,0.015088910
1640793410887019776,-0.200615610,-0.077017620,9.531582830,-0.020414590,0.120069090,-0.009547170
1640793410887719936,-0.211971000,-0.016277640,10.200220110,0.049828000,0.048851970,-0.023846330
1640793410891969792,-0.133056480,0.262929890,10.202095030,-0.002421440,0.103881960,0.012211500
1640793410892389888,-0.232405040,0.037350580,9.738581660,-0.065346050,0.011989480,-0.007157030
1640793410898989824,-0.276444200,-0.336288010,10.122854230,-0.038504600,-0.013951960,0.006206330
1640793410900120064,-0.009279660,-0.029807480,8.953296660,0.039713080,0.112339850,0.000020860
1640793410905489920,-0.116678530,-0.025604340,9.954206470,0.039763750,0.091207050,-0.035366420
1640793410906050048,-0.246988940,0.146150890,10.952940940,-0.017668310,0.093163550,0.002092120
1640793410906980096,-0.104386240,0.274084240,9.741547580,-0.015221540,-0.014233590,-0.002282860
1640793410907419904,-0.309887350,-0.034576740,10.008038520,0.015717740,-0.046792630,-0.007621940
1640793410912369920,-0.295715180,0.312539820,9.517719270,0.039184100,0.108411910,-0.007571280
1640793410913719808,-0.439199810,0.416247400,10.004191400,0.024399160,0.060077010,-0.025241070
1640793410917159936,-0.450054730,0.318985130,10.710099220,-0.029151140,0.007744130,-0.006477530
1640793410920280064,0.000648190,0.453882190,9.557435990,-0.009280440,0.024510920,0.000022350
1640793410921979904,-0.074173940,0.383172040,10.080790520,0.012442470,0.036440790,-0.032643970
1640793410922349824,-0.100797700,0.453028440,10.376938820,-0.019632280,0.053554780,0.000247360
1640793410927019776,-0.095656370,0.333046500,9.923071860,-0.012369460,-0.010591750,0.010307130
1640793410927619840,-0.030794740,0.032366700,9.695906640,0.004027780,-0.015160440,-0.011388960
1640793410932179968,0.039026290,0.157037730,9.592721940,-0.011818110,0.062640010,-0.006751720
1640793410933849856,-0.082065650,0.330948230,10.087664600,-0.039681800,0.068661560,-0.005887450
1640793410937180160,-0.000465730,-0.009857360,10.126827240,-0.059986110,0.043597820,-0.011955200
1640793410937769984,-0.166500330,-0.028749820,10.342345240,0.025121870,-0.005027650,-0.005660950
1640793410941999872,-0.189661070,0.256797020,9.646931650,0.049376490,0.016547740,-0.017587840
1640793410942409984,-0.289294750,0.243587510,9.640364650,-0.048287210,0.001557170,-0.012752420
1640793410947299840,-0.354302410,0.205200370,10.052148820,-0.074519220,0.065158310,0.007411840
1640793410948279808,-0.078779370,-0.096813660,9.444554330,0.002197920,0.086753060,-0.041203190
1640793410952160000,-0.246976410,-0.032379270,10.609189030,0.079095360,-0.014589730,-0.022184850
1640793410952899840,-0.093671750,0.401465590,9.773934360,0.039628150,0.056540970,0.007589160
1640793410957029888,-0.102264600,-0.089516060,9.686083790,-0.063700980,-0.033576790,-0.011792780
1640793410957489920,-0.398912010,-0.186140700,10.613554000,-0.014613570,0.017730890,0.004947190
1640793410962319872,-0.117841320,-0.002323550,9.111506460,0.084985800,0.056661660,-0.032827250
1640793410964519936,-0.251427770,0.105988070,10.246807100,0.065824390,-0.037023430,-0.038374960
1640793410967360000,-0.232095520,0.761175100,10.192797660,-0.023885080,0.083319840,-0.009280440
1640793410968539904,-0.059612770,0.471361550,9.596821780,-0.078484420,0.004825000,-0.029987100
1640793410972049920,-0.394092320,0.267063350,10.903707500,0.012114640,-0.060063600,-0.003674630
1640793410972709888,-0.027751810,0.582349840,9.355516430,0.099687290,0.041376060,-0.006650390
1640793410977149952,-0.164300960,0.463638540,9.877681730,0.021605190,-0.016689300,-0.027120120
1640793410978589952,-0.301806210,0.605805870,10.590401650,-0.103899860,0.038379430,0.022763010
1640793410982169856,0.128812130,0.132443860,9.378805160,-0.082248440,0.012196600,0.001190600
1640793410983039744,-0.024748200,-0.257627930,10.289504050,0.037404900,-0.027491150,-0.021208820
1640793410986990080,-0.067590530,0.232724280,10.004975320,0.073464220,0.060196220,-0.022669140
1640793410987459840,-0.165255200,0.236576330,9.716590880,-0.037343800,-0.040987140,-0.012704730
1640793410991979776,-0.212438730,-0.055821210,10.057828900,-0.112797310,-0.037655230,0.006687640
1640793410992559872,-0.006920420,0.002134970,9.406874660,-0.021991130,0.071229030,-0.017720460
1640793410997059840,-0.054395650,0.210550260,9.823460580,0.058802960,0.026921930,-0.035779180
1640793410999290112,-0.015629370,0.395059500,10.260601040,0.010247530,0.027479230,-0.017590820
1640793411002139904,-0.071370440,0.287792650,10.118211750,-0.041325390,0.024478140,-0.000739100
1640793411003160064,-0.094957480,-0.056647570,9.785223010,-0.027137990,-0.041294100,-0.012616810
1640793411007010048,-0.172252920,-0.163197960,9.691745760,0.035092230,-0.023399290,-0.023828440
1640793411007520000,-0.179893910,0.041440290,9.388133050,0.036522750,0.080673400,-0.030487780
1640793411011979776,-0.183300230,-0.118788520,9.976547240,-0.007720290,0.035771730,-0.040452170
1640793411012389888,-0.323894290,-0.085610470,10.690301900,0.005917250,-0.020654510,-0.026372080
1640793411017099776,-0.096235310,0.069466720,9.330686570,0.029751660,-0.008434060,-0.021168590
1640793411018199808,-0.205204680,-0.019990400,9.979735370,0.033019480,-0.028230250,-0.023731590
1640793411022019840,-0.412362990,0.244414340,10.310596470,0.038902470,0.076133010,-0.007615980
1640793411022429952,-0.220353740,0.298638370,9.517422680,0.040161620,-0.037984550,-0.022813680
1640793411027249920,-0.234611290,0.285201340,10.283532140,0.032545620,-0.064082440,-0.005394220
1640793411027940096,0.002441320,0.686764300,9.397625920,0.007587670,0.082428760,-0.019128620
1640793411032189952,-0.022394630,0.501530230,10.198148730,-0.025920570,-0.005094710,-0.033192330
1640793411033939712,-0.318323080,0.376523790,11.058563230,0.009201470,-0.018496810,-0.003482400
1640793411037019904,-0.053903710,0.378022250,9.275555610,0.053234410,-0.059871390,-0.021912160
1640793411037590016,-0.132241370,0.212914470,9.867085460,0.015179810,-0.063233060,-0.012485680
1640793411042309888,-0.174022440,0.497994100,9.787161830,-0.061696780,0.078307100,0.011153520
1640793411042779904,0.093839350,0.063845130,9.653631210,-0.071083010,0.013631580,-0.006400050
1640793411047489792,-0.144121530,-0.326593400,10.852135660,0.034993890,-0.023099780,-0.009284910
1640793411048859904,-0.040199800,0.094238930,9.584483150,0.101004530,-0.022499270,-0.021907680
1640793411052059904,-0.066033710,0.262731910,9.523696900,-0.010085110,-0.077304240,-0.021885340
1640793411052470016,-0.107989170,0.247879820,9.833648680,-0.138615090,0.040420890,0.001293420
1640793411057179904,0.053998780,0.001914700,9.614551540,-0.053116680,0.080713610,-0.018826130
1640793411058789888,-0.027079380,-0.055527660,10.251007080,0.105437640,-0.009800490,-0.029152630
1640793411062000128,-0.118394850,0.320447390,9.942625050,0.107193020,-0.025407970,-0.017321110
1640793411062429952,-0.152729960,0.335964080,9.451713560,-0.046621270,-0.013023610,0.003798310
1640793411067379968,-0.194967090,-0.238183650,9.773921010,-0.106921800,0.006431340,-0.003190340
1640793411068470016,-0.365391370,-0.408841310,10.109068870,0.044171520,0.027453900,-0.022754070
1640793411072049920,-0.099363600,-0.110564360,9.476724620,0.141632570,0.019685920,-0.038187210
1640793411072549888,-0.180658000,0.023304150,10.109514240,0.072519480,-0.009629130,-0.022591660
1640793411076999936,-0.350653200,0.166924330,10.349236490,-0.038711720,0.026489790,0.001989310
1640793411077459712,-0.025896880,-0.060195360,9.402588840,-0.028885900,-0.033418840,-0.017088650
1640793411082139904,-0.245372070,-0.071195210,10.205839160,0.106871140,-0.055947910,-0.029568380
1640793411082860032,-0.098261070,0.567865070,9.521803860,0.120583180,0.085632500,-0.039888920
1640793411087009792,-0.033263880,0.645371740,9.926518440,-0.000509620,-0.015458470,-0.033675140
1640793411087520000,-0.303056690,0.519694150,10.824525830,-0.041410330,-0.023381410,0.001688300
1640793411092109824,0.175004990,0.400903250,9.030529980,0.004744530,0.016562640,-0.019626320
1640793411092589824,-0.126733120,0.137061210,10.338468550,0.082942840,-0.039073820,-0.030173360
1640793411097100032,-0.354114230,0.467772600,10.312387470,0.056813650,0.057220460,-0.010247530
1640793411097889792,0.045874410,0.249488000,9.273433690,-0.040940940,-0.061850260,-0.020232800
1640793411102089984,-0.124219140,-0.044448350,10.485859870,-0.039529800,-0.021456180,-0.006525220
1640793411102779904,0.127078800,0.226506470,9.404232980,0.006620590,0.113971540,-0.043855610
1640793411107019776,0.062519640,0.134542790,10.205133440,0.031194090,-0.037670150,-0.038884590
1640793411107539968,-0.281548590,0.299581830,10.650739670,0.010523200,0.000776350,-0.004380940
1640793411112359936,0.130987410,0.277233390,8.949428560,-0.030796240,-0.009733440,-0.030031810
1640793411113809920,-0.095807820,0.166374950,10.052392960,-0.027371940,-0.018973650,-0.012616810
1640793411117440000,-0.089495820,0.312238840,9.738802910,-0.005164740,0.120608490,-0.024820860
1640793411117990144,0.193413050,0.089861750,9.677025790,0.000719730,0.030331320,-0.041559340
1640793411122469888,-0.211463240,0.035860540,10.738994600,0.034578150,-0.008380410,-0.026467450
1640793411123579904,-0.055572020,0.112723020,9.345996860,0.016964970,0.008922820,-0.030954180
1640793411127099904,-0.119618210,-0.047070290,9.550933840,-0.031219430,-0.024712090,-0.020286440
1640793411127830016,-0.344339190,-0.235419140,10.128966330,-0.006763640,0.075466920,-0.021123890
1640793411132199936,-0.114345690,-0.225409750,9.627154350,0.057497620,0.061739980,-0.055640940
1640793411133169920,-0.193092790,0.022610830,9.958891870,0.082926460,-0.041618940,-0.048291680
1640793411137260032,-0.165719300,0.231918990,9.730507850,0.019881130,0.025840100,-0.037296120
1640793411138559744,-0.060796070,0.316212060,9.642426490,-0.052759060,0.050289940,-0.041379040
1640793411141989888,-0.248807040,0.121626150,10.396107670,0.026138130,0.011168420,-0.043062870
1640793411142629888,-0.245484950,0.243641530,10.111771580,0.112211710,-0.010146200,-0.054842230
1640793411147159808,0.013824960,0.643273000,9.228584290,0.065088280,-0.002379720,-0.062219800
1640793411150679808,-0.253130170,0.570457580,10.165816310,-0.045049190,0.025527180,-0.047387180
1640793411151990016,-0.227471230,0.426530510,10.136003490,-0.066751240,0.049906970,-0.034399330
1640793411152299776,-0.039637270,0.198946400,9.618268970,0.034807610,-0.036861010,-0.044852500
1640793411157039872,-0.272960280,0.127701600,10.357175830,0.104820730,-0.020360940,-0.048731270
1640793411157559808,-0.111292120,0.488062860,9.496594430,0.009168680,0.063320990,-0.046417120
1640793411162370048,-0.243967190,0.319891780,10.257199290,-0.092628610,-0.048065190,-0.034773350
1640793411163719936,-0.226130620,0.035905260,10.324658390,-0.069028140,0.018489360,-0.022928420
1640793411167310080,0.265861570,0.174103750,8.965335850,0.033530590,0.010588760,-0.068801630
1640793411168029952,-0.167616950,0.346117970,10.565264700,0.059323020,0.002565980,-0.055813800
1640793411172019968,-0.100183220,0.505731760,9.786889080,-0.041924420,0.059165070,-0.028669840
1640793411172570112,-0.011937280,0.252471720,9.644884110,-0.100879390,-0.094090420,-0.031687320
1640793411176979968,-0.269523200,-0.013789060,10.236775400,-0.029800840,-0.000776350,-0.030668090
1640793411177510144,0.161438450,0.219209460,8.797064780,0.022003050,0.069822370,-0.059801340
1640793411182040064,-0.140214260,0.150141520,10.524140360,0.013485550,0.007222590,-0.050355500
1640793411182669824,-0.235636070,0.008795870,10.406922340,-0.036051870,0.054299840,-0.039902330
1640793411188009984,-0.014687400,-0.173608440,9.389678960,-0.023928280,-0.080530340,-0.064769370
1640793411188920064,-0.396869510,-0.173446860,10.056861880,0.017365810,-0.049327320,-0.058811910
1640793411191969792,-0.135289120,0.035788620,9.007016180,-0.002101060,0.080139940,-0.066156690
1640793411192339968,-0.190775810,-0.090848720,10.117591860,-0.003762540,0.019484760,-0.074061750
1640793411197079808,-0.392299800,-0.004647470,10.661478040,0.040200360,0.010985140,-0.063732270
1640793411197719808,-0.033523870,0.186052490,9.350301740,0.037276740,-0.078979130,-0.052835050
1640793411203059968,-0.231979500,0.316900340,9.912437440,-0.002327560,-0.028736890,-0.054016710
1640793411203789824,-0.282659860,0.297728660,9.858136180,-0.013042990,0.066639470,-0.063361210
1640793411207049728,-0.241905050,0.311373230,10.106404300,0.023779280,-0.041542950,-0.069196530
1640793411207589888,-0.176200150,0.401800870,9.980789180,0.058047480,-0.045354670,-0.067462030
1640793411212309760,-0.017867910,0.395867470,9.548977850,0.013984740,0.014504790,-0.064134610
1640793411212920064,-0.208117160,0.504621330,10.258942600,-0.042265650,0.011566280,-0.054292380
1640793411217020160,-0.354530930,0.215861780,10.334065440,-0.029158600,-0.051786020,-0.053831940
1640793411218070016,-0.262771490,0.088231190,9.717969890,0.030353670,-0.099504000,-0.063058720
1640793411222019840,-0.101260980,0.448613200,9.305257800,0.033535070,-0.013543670,-0.072513530
1640793411222439936,-0.191649260,0.566810070,10.151617050,-0.066049400,0.024692720,-0.072540340
1640793411227429888,-0.028284940,0.590646680,10.258526800,-0.117228930,0.000329320,-0.044323500
1640793411228799744,0.125776720,0.271678360,9.961068150,-0.033402450,-0.056177380,-0.069008770
1640793411232409856,-0.115701060,0.257031350,10.267582890,0.046005840,-0.052970640,-0.070084640
1640793411233019904,-0.035443600,0.725301270,9.266773220,-0.022618470,-0.044617060,-0.048846010
1640793411237019904,-0.121626770,0.331088540,9.835349080,-0.154778380,-0.044125330,-0.040201850
1640793411237759744,0.041499540,0.023071840,9.836557390,-0.133490580,0.074218220,-0.031581520
1640793411241989888,0.152424860,-0.083332440,9.816236500,0.019997360,0.007525090,-0.075055660
1640793411242439936,-0.274400770,-0.025384600,10.712607380,0.047525770,-0.068858270,-0.072498620
1640793411247099904,-0.059823140,0.356303810,9.129092220,-0.080984830,-0.050811470,-0.041472910
1640793411249199872,-0.198124230,-0.210062070,9.600993160,-0.152204920,-0.046534840,-0.055806330
1640793411252100096,-0.293531330,-0.295506270,9.976506230,-0.050114110,0.063680110,-0.073468690
1640793411252600064,0.114885060,0.119283860,9.278352740,0.062902280,0.006848570,-0.077098620
1640793411256999936,-0.127279390,0.086411350,10.703915600,0.021652870,-0.016176700,-0.070914610
1640793411257429760,-0.021031500,0.299572680,9.802714350,-0.076527890,0.015041230,-0.044889740
1640793411262080000,-0.098404090,-0.102632980,9.627442360,-0.058835740,-0.108245020,-0.056892630
1640793411262919936,-0.256413250,-0.173716780,9.779976840,0.021429360,-0.021636490,-0.071907050
1640793411267589888,0.011893640,0.201261340,8.927360530,0.043711070,0.061577570,-0.071336340
1640793411268280064,-0.293980780,0.028194890,10.698843000,0.022262330,0.006859000,-0.085860500
1640793411272039936,-0.310777190,0.130203080,10.220607760,-0.023958090,-0.024616720,-0.060121720
1640793411272489984,-0.080402530,0.108326720,9.307043080,-0.000225010,-0.110213460,-0.055903200
1640793411277509888,-0.399373050,0.019532510,10.113200190,0.021389130,0.002372270,-0.075918450
1640793411278689792,-0.305137070,0.283482610,9.661436080,0.015480820,0.040447720,-0.072330240
1640793411282369792,-0.218034030,0.330232170,10.138489720,0.021231180,-0.079903020,-0.070962330
1640793411283910144,-0.050887100,0.370047900,9.911826130,-0.007933380,-0.008146470,-0.059947380
1640793411287030016,0.213213550,0.548937200,9.537339210,-0.025630000,0.001019240,-0.054802000
1640793411287749888,-0.153760970,0.424655710,10.689648630,-0.024159250,-0.033009060,-0.066226720
1640793411291999744,-0.083950060,0.266113190,9.827942850,-0.007934870,-0.064893070,-0.053565210
1640793411292579840,0.098094870,0.342062710,9.442308430,0.020396710,-0.063367190,-0.044448670
1640793411297199872,-0.115201600,0.387441430,10.080989840,-0.034870210,0.047665840,-0.055807830
1640793411299579904,0.002143720,0.436394180,10.066758160,-0.097869340,0.009839240,-0.047943000
1640793411302459904,-0.012580900,0.328274040,10.252055170,-0.067091010,-0.055995590,-0.047129400
1640793411302979840,-0.016425030,0.129372400,9.756115910,-0.008408730,-0.019364060,-0.071817640
1640793411307069952,-0.022653620,0.450487080,9.694281580,-0.001989310,-0.016129020,-0.075300040
1640793411307669760,-0.205781970,0.696405590,9.958137510,-0.098972020,-0.002394620,-0.059740250
1640793411312150016,0.105668420,0.189511730,9.748878480,-0.153554960,0.003606080,-0.037771460
1640793411312909824,0.205436320,-0.028506890,9.934785840,-0.036098070,0.057359050,-0.043448820
1640793411317459712,0.012462300,-0.015260180,10.133733750,0.045517090,0.018009550,-0.056447100
1640793411318159872,-0.041806160,-0.032838830,10.016695020,-0.014230610,-0.041793280,-0.036816300
1640793411321949952,-0.081210250,0.045716050,9.477083210,-0.110921260,-0.022107360,-0.035384290
1640793411322399744,-0.024673640,-0.458340850,9.538150790,-0.102522950,0.033083550,-0.066782530
1640793411327639808,-0.001505880,-0.142076020,9.936677930,0.016464290,0.082913050,-0.082358720
1640793411328879872,-0.001091280,0.381882730,9.918621060,0.040216740,0.035317240,-0.094768430
1640793411336299776,-0.064260590,0.272107930,10.328848840,-0.052224100,-0.008012360,-0.059857960
1640793411336889856,-0.167574990,0.305238600,9.723786350,-0.073680280,-0.002203880,-0.042104720
1640793411337219840,-0.254627320,-0.106783360,9.463408470,0.003966690,-0.039832290,-0.056275720
1640793411338589952,-0.147088710,0.005059740,9.493955610,0.049199180,0.055322050,-0.049352650
1640793411342000128,-0.051315040,0.250772390,9.629621510,0.005172190,0.103715080,-0.060242420
1640793411342379776,-0.210662530,-0.161458630,10.890518190,-0.054465230,0.017182530,-0.062005230
1640793411347219968,-0.077581470,0.067265390,9.938987730,-0.014652310,-0.031526390,-0.050705670
1640793411348079872,-0.055567360,0.032060000,9.333228110,0.029245020,-0.053723160,-0.072434540
1640793411352219904,-0.208825620,0.119826010,10.044307710,0.008003410,0.084288430,-0.060249870
1640793411352809984,-0.256497560,0.546125410,9.854541780,-0.020265580,0.064852830,-0.061488150
1640793411357039872,-0.258462490,0.269136370,10.438481330,-0.026598580,-0.068151970,-0.054793070
1640793411357659904,0.061229300,0.515389560,9.495985980,-0.008779770,0.045219070,-0.038501620
1640793411362899968,0.010179870,0.643732670,9.703058240,-0.017897790,0.034648180,-0.059576340
1640793411363819776,-0.281817050,0.364644290,10.825352670,-0.046141440,0.028219820,-0.045172860
1640793411369550080,-0.038630490,0.529211760,9.405751230,-0.035837300,-0.015559790,-0.038281090
1640793411370279936,-0.079465160,0.217386010,9.805487630,-0.020620230,-0.056910530,-0.055842110
1640793411371990016,-0.048715700,0.393834350,9.847759250,-0.062596810,0.119541590,-0.050629690
1640793411372349952,0.065681620,0.566322980,9.715230940,-0.093540560,0.034485760,-0.050121550
1640793411377469952,-0.149563690,0.040295460,10.797378540,-0.084984300,-0.016145410,-0.042536850
1640793411379969792,0.147829930,0.217116860,9.281304360,-0.028981270,0.045436620,-0.047954920
1640793411382059776,-0.048126910,0.279901330,9.717618940,-0.020664930,-0.028255580,-0.055506830
1640793411382619904,-0.172873710,0.272434950,10.113050460,-0.111085190,0.086268790,-0.038926310
1640793411387040000,0.223875840,0.318129180,9.164137840,-0.131708350,0.059929490,-0.026173890
1640793411387660032,-0.053815600,-0.186641900,10.482358930,-0.043252110,0.029969220,-0.051319600
1640793411392060160,0.117477540,0.109516670,9.681601520,0.020098690,0.110442940,-0.044830140
1640793411392580096,0.025322130,0.277786170,9.667095180,-0.031726070,-0.019997360,-0.040583310
1640793411397199872,-0.245182680,-0.055504180,10.289565090,-0.121401250,0.062683230,-0.030414760
1640793411398080000,0.021835850,-0.043438710,9.113622670,-0.085097540,0.089325000,-0.050276510
1640793411402419968,-0.257347460,-0.160976280,10.039533620,0.022941830,0.021009150,-0.055110450
1640793411402929920,-0.180699440,0.018576560,9.782973290,0.027868160,0.118918720,-0.049501660
1640793411406970112,-0.062393720,0.197373510,9.639299390,-0.035622720,0.040343410,-0.046038640
1640793411407510016,-0.414018600,-0.123175940,10.548194890,-0.054572530,0.039397180,-0.029128790
1640793411412489984,-0.128877850,0.006477110,9.372505190,-0.007811190,0.064353640,-0.048638880
1640793411413760000,-0.157556350,0.216229840,9.737378120,0.044380130,0.030411790,-0.059299170
1640793411417059840,-0.326818050,0.382347550,10.317623140,-0.003114340,0.119303190,-0.060394410
1640793411417579776,-0.075259160,0.608470320,9.771718980,-0.049088900,0.036281350,-0.045765940
1640793411421949952,-0.274582030,0.341096640,10.240588190,-0.028572980,-0.013664370,-0.041247910
1640793411422289920,-0.087575900,0.338337390,9.593750950,-0.003358720,0.090308490,-0.052154070
1640793411427340032,-0.153910980,0.480850130,10.018585210,0.009408590,0.067278740,-0.050902370
1640793411428039936,-0.485903440,0.353321730,10.743837360,-0.049652160,0.017571450,-0.032885370
1640793411432109824,0.033810380,0.313753340,9.332291600,-0.071364640,0.020886960,-0.028826300
1640793411432920064,-0.064276040,0.230633300,9.840324400,-0.046473750,0.042127070,-0.050094720
1640793411436999936,-0.162478480,0.309682370,10.206549640,-0.044198330,0.113813590,-0.054852660
1640793411437459968,-0.020550100,0.319873900,9.959014890,-0.034153450,0.015662610,-0.046969950
1640793411442779904,-0.229992370,0.101172590,10.168560030,-0.043351950,-0.025679170,-0.043088200
1640793411443529728,0.000739210,0.309424370,9.349152570,-0.064833470,0.061291460,-0.043344500
1640793411447089920,0.012501270,0.385108710,9.738610270,-0.076301380,0.082051750,-0.033849480
1640793411448179968,-0.083787220,0.167933420,10.323039050,-0.083437570,0.096018620,-0.034156440
1640793411452009984,0.153102040,0.123639690,9.932650570,-0.014613570,0.069127980,-0.033704940
1640793411452469760,-0.162399520,0.117506100,10.112498280,0.012521450,-0.003053250,-0.041945280
1640793411457069824,-0.211128920,0.277014200,9.503400800,-0.064648690,0.027561190,-0.023105740
1640793411458659840,-0.032154740,0.150665880,9.302767750,-0.116106880,0.067305570,-0.032234190
1640793411462390016,-0.143099580,-0.279341850,9.984272960,-0.060305000,0.130747260,-0.054821380
1640793411463179776,-0.037725590,-0.088863650,10.228626250,0.054092720,0.091730060,-0.059548020
1640793411467039744,-0.028085000,0.128871380,9.975229260,0.035984810,0.017553570,-0.045272710
1640793411468039936,-0.197606530,0.004703200,9.789987560,-0.085586300,0.031605360,-0.042271610
1640793411472029952,-0.113056390,-0.057203010,9.680626870,-0.081087650,0.072808570,-0.038844350
1640793411472469760,-0.285345880,-0.216631770,9.679457660,0.033088030,0.072053070,-0.059625510
1640793411477419776,-0.137138350,0.124661480,9.882159230,0.088690220,0.074158620,-0.050526860
1640793411478839808,-0.105569530,0.547462280,10.018577580,0.013650950,0.101880740,-0.032736360
1640793411481999872,-0.349474220,0.290401790,10.373315810,-0.090836000,0.030910970,-0.037190320
1640793411482419968,-0.290087730,0.296855030,10.085632320,-0.026156010,0.000761450,-0.027462840
1640793411486969856,-0.239742590,0.313978640,9.370992660,0.052881250,0.032643980,-0.059545050
1640793411487539968,-0.241165470,0.392740490,9.926582340,0.034615400,0.091198090,-0.061655050
1640793411492009984,-0.099972550,0.763652680,10.195049290,-0.042310360,0.114998220,-0.033901640
1640793411493719808,-0.066139380,0.294038410,10.101474760,-0.100654380,0.010739270,-0.039120030
1640793411498040064,0.066839490,0.162560780,10.138209340,-0.022788350,0.024831300,-0.038108230
1640793411498899968,0.006809920,0.398757400,9.706536290,0.028793520,0.075581680,-0.052510200
1640793411502009856,-0.318561580,0.248654470,10.155375480,-0.036232180,0.025719400,-0.040264430
1640793411502660096,-0.113330770,0.376644610,9.857739450,-0.085119910,0.048808750,-0.012265150
1640793411507089920,0.028249780,0.059800360,9.480849270,-0.065550210,0.062976790,-0.041075040
1640793411507920128,-0.022279400,0.108995210,10.159354210,-0.014148650,0.089894220,-0.039543210
1640793411512059904,-0.068116420,0.532714130,10.046318050,-0.013887880,0.092080240,-0.031481690
1640793411512759808,-0.226873860,0.009182930,10.122229580,-0.069338090,-0.022144620,-0.031274560
1640793411517069824,-0.118175130,0.003752570,9.736650470,-0.034172830,0.022886690,-0.017514820
1640793411517599744,-0.051232850,0.053493380,9.225780490,-0.015583630,0.104759630,-0.047585370
1640793411522189824,-0.118596250,-0.001701630,10.151033400,-0.039131940,0.100095580,-0.038103760
1640793411523030016,-0.059445390,0.179630740,10.293653490,-0.030691920,0.107215350,-0.018332900
1640793411527399936,-0.187754750,-0.253802690,10.058531760,-0.005824870,-0.014299160,-0.043769190
1640793411528600064,-0.300265850,-0.156676460,9.796942710,0.044555970,-0.026206670,-0.016131990
1640793411531999744,-0.210487750,0.150160980,8.933671950,0.014905630,0.074067720,-0.022976100
1640793411532379904,-0.252552600,-0.137582940,9.976725580,-0.052085530,0.115253050,-0.034527480
1640793411537009920,-0.337292520,0.217469600,10.875329970,-0.001099710,0.102649640,-0.011636310
1640793411538089984,-0.216591760,0.189557550,10.040368080,0.057178730,-0.041273240,-0.036375220
1640793411541959936,-0.150349690,0.256721080,9.730499270,0.050945580,-0.021481510,-0.020144880
1640793411542330112,-0.164489050,0.694169580,9.445755960,-0.007480380,0.108355280,-0.015097860
1640793411547109888,-0.377855390,0.176486310,10.257248880,-0.043550140,0.046643610,-0.026214120
1640793411549229824,-0.213468160,0.274732140,10.297324180,0.034445530,-0.003577770,-0.004099310
1640793411551929856,0.058702310,0.475902500,9.456768990,0.059844550,0.021891290,-0.032885370
1640793411552300032,0.000238250,0.386743250,10.228431700,-0.024071340,0.059691070,-0.030474360
1640793411556989952,-0.103081230,0.621510740,10.276998520,-0.060883170,0.064010920,-0.008587540
1640793411557479936,-0.198830290,0.060446780,10.051099780,-0.025603180,-0.037160520,-0.033222140
1640793411562139904,-0.173610050,0.126901110,9.765118600,0.047054880,-0.005854670,-0.017231700
1640793411562969856,-0.191180500,0.628269790,9.327054020,0.015421210,0.049255800,-0.026853390
1640793411568140032,-0.277224330,0.318635700,10.109384540,-0.108243530,0.045178830,-0.007170440
1640793411568859904,-0.073871080,0.198554830,10.094255450,-0.071871280,0.069022180,0.008599460
1640793411571990016,-0.077947790,0.062735200,9.994784360,0.046834340,0.007532540,-0.034186240
1640793411572470016,-0.032837150,0.234156150,9.988101960,0.046321750,0.008104740,-0.012314320
1640793411577400064,0.042832590,0.506807510,9.373270030,-0.050812960,0.050205000,0.002314150
1640793411578480128,-0.135582580,-0.111147760,9.927535060,-0.107739870,0.032830240,-0.015564260
1640793411582029824,-0.014081430,-0.119111460,9.847496030,0.002059340,0.051875410,-0.015841430
1640793411582399744,-0.013725430,0.062564160,9.425209050,0.086195770,0.013081730,-0.039894880
1640793411587030016,-0.162174960,0.020185440,10.081516270,0.009755790,0.047825280,-0.025045870
1640793411587579904,-0.251294110,0.125547500,10.022183420,-0.049923370,0.059776010,0.002232190
1640793411591980032,-0.493589970,-0.303767920,9.967573170,-0.007361170,-0.049427150,-0.029075140
1640793411592539904,-0.306571330,-0.102892500,9.532000540,0.070628530,-0.001139940,-0.030106310
1640793411597829888,-0.151939090,0.281445120,9.230997090,0.071950260,0.093907120,-0.030286610
1640793411599289856,-0.224789900,0.153416660,10.500749590,0.002942980,0.079123680,-0.031089780
1640793411602319872,-0.086915480,0.333589550,10.330477710,0.007222590,0.011770430,-0.007131700
1640793411604229888,-0.062810440,0.120525150,9.627924920,0.049890590,-0.085055840,-0.026232010
1640793411606999808,-0.060965280,0.141940360,9.701903340,0.066679720,0.029402970,-0.027503080
1640793411607650048,-0.190955130,0.469604820,9.717285160,0.039882960,0.089852520,-0.024102630
1640793411612049920,-0.435003820,0.272922990,10.476893420,-0.000059600,-0.054135930,-0.021098560
1640793411612779776,-0.098690670,0.417630640,9.693089490,0.008130070,-0.022995470,-0.005915760
1640793411617209856,-0.127290800,0.440107020,9.402999880,0.029291210,0.018152600,-0.033931430
1640793411619170048,-0.459943060,0.316959590,10.700324060,0.029696530,0.034172840,-0.017058850
1640793411621979904,-0.408709880,0.515141370,10.015541080,0.029759110,-0.026346740,-0.003774460
1640793411622390016,-0.429705620,0.303279340,9.784905430,0.002273920,-0.133726000,-0.019368530
1640793411627460096,-0.073247020,0.536971630,9.428237920,-0.028321150,0.049556790,-0.003722310
1640793411628699904,0.051111080,0.528335570,9.553268430,-0.040999060,0.079604990,-0.013577940
1640793411632049920,-0.078152460,0.172914730,10.856051450,0.002132360,-0.015187260,-0.013217330
1640793411633070080,0.226315950,0.352380570,9.743171690,0.048816200,-0.018294160,-0.001628700
1640793411637019904,-0.085838500,0.246569140,9.534908290,0.001990800,-0.118316730,-0.014364720
1640793411637639936,-0.110240030,0.253421160,9.542014120,-0.085325540,-0.004655120,0.010907650
1640793411641959936,0.060905200,0.055394810,9.191871640,-0.078201300,0.083422660,-0.007630890
1640793411642309888,-0.258954700,-0.343433950,10.685106280,0.039039550,0.003094970,-0.024102630
1640793411647239936,-0.121716390,0.135285500,10.041189190,0.094035250,-0.004361570,-0.017605720
1640793411649159936,-0.299404290,0.201340480,9.461710930,-0.001756850,-0.105690980,-0.013485550
1640793411652079872,-0.417548980,-0.086357910,9.758567810,-0.088943540,-0.024148830,0.026218600
1640793411652619776,-0.257406320,-0.144219880,9.329314230,-0.003261860,0.051826240,-0.002913180
1640793411656989696,-0.306881640,-0.152383520,10.101227760,0.112459070,-0.051739810,-0.024627150
1640793411657590016,0.048395570,0.369502040,9.843007090,0.096444790,0.024147330,0.000786780
1640793411662099712,0.034028530,0.463619650,9.878285410,-0.033004580,-0.016893450,-0.015176830
1640793411662919936,-0.197928370,0.011471100,10.515645030,-0.044585770,-0.074832150,0.014136730
1640793411670219776,-0.082553960,0.139067660,9.335005760,0.075280670,-0.040318070,-0.002031030
1640793411670820096,-0.306325140,0.171801610,9.463020320,0.114484150,-0.067850950,-0.029990080
1640793411671959808,-0.312273440,0.497040900,9.945345880,0.022943320,0.031466770,0.007067620
1640793411672339968,-0.336896570,0.525651510,9.994395260,-0.056982040,0.002077220,0.003829600
1640793411677389824,-0.441301610,0.079552260,10.560147290,-0.018289690,-0.124983510,0.008957090
1640793411678779904,-0.143994090,0.347116650,9.508834840,0.081272450,-0.041352220,0.006031990
1640793411682550016,-0.295109780,0.403903190,9.797094350,0.067359210,-0.040642920,-0.024911760
1640793411684269824,-0.360704240,0.454133510,10.401771550,-0.030343240,-0.032813850,0.035202500
1640793411687039744,-0.021920090,0.366709980,9.562892910,-0.061704210,-0.068287540,0.022841990
1640793411687599872,0.035930690,-0.000014010,9.914628980,0.002299250,-0.092862550,-0.006043910
1640793411691949824,0.216373100,0.410550560,9.623397830,0.049446530,0.030422210,0.006854540
1640793411692449792,0.037453950,0.516241310,10.024927140,-0.006720420,-0.042366970,-0.011140110
1640793411698749952,-0.130170520,0.180789530,10.418178560,-0.064268710,-0.085411970,0.023403760
1640793411701809920,0.049334550,0.185448830,9.231355670,-0.010982160,-0.066044930,0.015978520
1640793411702999808,-0.176913660,0.056862120,9.661704060,0.027571620,-0.063686070,-0.011390450
1640793411703589888,-0.124416900,0.203779370,9.721893310,-0.005143880,0.029215220,0.028499960
1640793411706980096,-0.110096530,0.047177290,9.763247490,-0.016385310,-0.017535680,0.002883370
1640793411707719936,-0.257070780,-0.271572800,10.431363110,0.012119120,-0.073216860,0.005747380
1640793411712059904,-0.044340720,0.026751310,9.366634370,0.051115460,-0.051335990,0.016489630
1640793411712679936,-0.307293560,0.002621560,9.703964230,0.024047500,-0.084689260,-0.000403820
1640793411717370112,-0.134048910,-0.011239140,9.816199300,-0.018401450,0.018377600,0.002644960
1640793411718190080,-0.050939370,0.110746200,9.705962180,0.037130710,-0.001683830,-0.001393260
1640793411721979904,-0.116280960,0.087490000,10.267133710,0.080357510,-0.086626430,0.006876890
1640793411722359808,0.180853930,0.478222640,9.400469780,0.049237910,-0.014145680,0.022380060
1640793411727200000,-0.142207340,0.377369730,9.906653400,0.003920500,-0.053508590,0.014105440
1640793411728109824,-0.317646290,0.059133440,10.267867090,0.020726030,-0.043533740,0.012619790
1640793411734919936,-0.208759440,0.326814680,9.315114020,0.086855890,-0.074964750,0.000627340
1640793411735469824,-0.423174740,0.397906270,10.033455850,0.065450380,-0.075051190,-0.004732610
1640793411736969984,-0.241635580,0.644534470,9.893886570,-0.027851760,0.036334990,0.015002490
1640793411737509888,-0.237256990,0.562981310,10.108548160,-0.040316580,-0.074206290,0.005343560
1640793411741969920,-0.236078350,0.241853040,10.421553610,0.026546420,-0.082913050,0.021784010
1640793411743569920,0.160650700,0.449506280,9.142308240,0.076802070,-0.024333600,0.012794140
1640793411747160064,-0.165778170,0.476145480,10.205669400,0.016216930,-0.078848010,0.007624930
1640793411749909760,-0.025085310,0.427346590,9.962184910,-0.074101980,-0.002914670,0.045673550
1640793411751979776,0.292450790,0.119444530,9.359960560,-0.053812570,-0.056949270,0.010389090
1640793411752409856,-0.032787630,0.011795350,10.496796610,0.052678590,-0.040236120,0.000363590
1640793411756999936,0.151516870,0.510225420,9.417442320,0.037117300,0.009272990,-0.000272690
1640793411757479936,-0.278286990,0.386487070,10.140356060,-0.056016450,-0.124795730,0.008650130
1640793411762140160,-0.360148010,0.070450730,10.007171630,-0.074531140,-0.037239490,0.029756130
1640793411763469824,-0.063366800,0.059840870,8.980302810,0.012677910,-0.036618110,-0.004482270
1640793411769260032,-0.408754830,0.167624770,10.303452490,0.052434210,-0.042076410,0.006823240
1640793411769809920,0.004151390,0.355160830,9.537640570,-0.030709800,0.047773120,0.024124980
1640793411771960064,-0.045876420,-0.108726780,10.119770050,-0.037105380,-0.073647500,0.008501110
1640793411772339712,-0.264374700,-0.247004490,10.377043720,0.024244190,-0.067567830,0.026965140
1640793411777179904,0.138731990,-0.005865630,8.705795290,0.062292830,-0.054331130,0.009500980
1640793411777880064,-0.115654550,-0.084083130,9.951283450,0.018996000,-0.030024350,-0.001963970
1640793411782949888,-0.073150080,0.219475110,10.014779090,-0.029176470,0.086577220,0.012168290
1640793411783360000,-0.014554180,0.145089180,9.971065520,0.008119640,-0.102698790,-0.004751980
1640793411787010048,-0.285319180,0.239257750,10.339420320,0.066101560,-0.105056180,0.017796460
1640793411787579904,0.019617580,0.707482930,8.874339100,0.033861400,0.006158650,0.010815260
1640793411792329984,-0.438920500,0.469660580,10.418870930,-0.028823320,-0.036451230,0.010441250
1640793411793890048,-0.520147500,0.507083950,10.367681500,-0.027549270,-0.020140410,0.038325790
1640793411797060096,-0.055849370,0.464294580,9.176775930,0.020405650,-0.115513820,0.007264320
1640793411799749888,-0.270410600,0.381997320,10.240695950,0.017298760,-0.040490930,0.010664760
1640793411802059776,0.054200530,0.695379730,9.570541380,-0.055354830,0.052364170,0.018967690
1640793411802660096,0.041964080,0.282518540,10.354976650,-0.068156420,-0.084674370,0.013870000
1640793411806949888,-0.092214600,0.169744160,10.409588810,-0.019015370,-0.049117210,0.035181640
1640793411807539968,0.235465410,0.504797040,9.076617240,-0.007943810,-0.071099400,0.008776780
1640793411812259840,-0.317923780,0.420499830,10.340133670,-0.074668230,-0.054407120,0.029864910
1640793411813159936,-0.099516970,0.474999610,9.451946260,-0.118978310,0.007969140,0.057138500
1640793411816979968,0.067310640,0.173406230,9.563358310,-0.050747400,-0.049862270,0.025285780
1640793411817469952,-0.287287830,0.220393520,10.462159160,-0.004240870,0.004236400,0.029136250
1640793411821969920,0.006590660,0.642782090,9.319407460,-0.063443180,-0.043064360,0.031112130
1640793411822279936,-0.239932660,0.171037580,10.286084180,-0.130398590,-0.102953610,0.038738550
1640793411827829760,-0.048438580,0.004575840,9.485219000,-0.108344860,0.027079880,0.036501890
1640793411829739776,0.228283510,0.051930860,9.344672200,-0.007610020,-0.003694000,0.006480520
1640793411833169920,-0.137604480,0.043395320,10.494523050,-0.013382730,0.007419290,0.024858120
1640793411833699840,0.109447250,0.211425100,9.383320810,-0.090689960,-0.022520130,0.040036440
1640793411836979968,-0.133274700,-0.243603900,10.054154400,-0.086285180,-0.093109920,0.033804780
1640793411837499904,-0.285459730,-0.284604670,9.566277500,-0.026331840,-0.001172720,0.032675260
1640793411842340096,-0.091645690,0.032282080,9.023587230,0.020726030,-0.025153160,0.015306470
1640793411842989824,-0.436796990,0.087555980,10.458212850,-0.032751270,0.022752580,0.011578200
1640793411847099904,-0.256335110,0.302673190,9.798100470,-0.081487020,0.009359420,0.028012700
1640793411848859904,-0.270596270,0.201654360,9.920697210,-0.027640160,-0.128810110,0.017574430
1640793411851929856,-0.288876060,0.263414770,9.652967450,0.006897750,-0.015844410,0.022546940
1640793411852300032,-0.010725930,0.460186180,9.172389980,-0.009024140,0.007781390,0.033277280
1640793411856989952,-0.366665150,0.189153120,10.632642750,-0.026473400,-0.015896560,0.023970010
1640793411859180032,-0.168918040,0.255497810,9.776660920,-0.043372810,-0.052388020,0.031942130
1640793411862329856,0.105987880,0.351533030,9.322314260,-0.016288460,-0.099390750,0.041994450
1640793411863040000,-0.200805770,0.293148700,10.213640210,-0.035913300,0.035390260,0.024326150
1640793411868359936,-0.092000770,0.560825940,9.793994900,-0.070415440,-0.001522900,0.032162670
1640793411869009920,-0.393075730,0.312171130,10.481089590,-0.029334430,-0.135667620,0.033707920
1640793411871959808,-0.279928480,0.386449220,9.443993570,-0.030951200,-0.053933260,0.025652350
1640793411872429824,-0.138415680,0.733289840,9.251894000,-0.065921240,-0.032249090,0.024567540
1640793411877379840,-0.473679330,0.639021100,10.635850910,-0.123892720,-0.007274750,0.038464370
1640793411878269952,0.033874780,0.450476350,9.508543010,-0.121589000,-0.022038810,0.049330290
1640793411882069760,0.128162150,0.217730150,9.960906030,-0.018560890,-0.076030190,0.026167930
1640793411882540032,-0.116159350,0.318390940,10.160349850,-0.032617160,0.007843970,0.023327770
1640793411886960128,0.092325350,0.375263510,9.400646210,-0.128845870,-0.089664760,0.057496130
1640793411887470080,-0.146877830,-0.159315900,10.020955090,-0.145412950,-0.065100180,0.055059790
1640793411892049920,0.053201560,-0.303895530,9.280182840,-0.077466660,0.044301140,0.030069050
1640793411892519936,0.120058450,-0.065272980,9.833156590,0.008767840,-0.025966760,0.022932890
1640793411897539840,-0.238931760,0.133859400,10.407306670,-0.056704890,0.000002980,0.033952300
1640793411898289920,0.009027550,0.100147770,9.536893840,-0.131705400,-0.053407250,0.045478350
1640793411901999872,-0.275532720,-0.152760850,10.021522520,-0.068569180,-0.067469460,0.036236640
1640793411902400000,-0.176077750,0.106190680,9.273916240,-0.010341410,0.006991630,0.027991840
1640793411906970112,0.052157100,0.278006580,9.372546200,-0.005164740,0.028340520,0.042176250
1640793411907519744,-0.254437980,0.121794830,10.393358230,-0.050726530,0.041635330,0.036761170
1640793411912119808,0.009861140,0.042294000,9.803217890,-0.061787680,-0.058986250,0.049154470
1640793411912900096,-0.024075510,-0.239659470,9.540240290,0.018809740,-0.070743270,0.052443150
1640793411916940032,-0.154330970,-0.216410470,9.497561450,0.034448510,0.027976930,0.032873450
1640793411917399808,-0.117161660,-0.046209180,9.873241420,0.011383000,0.023898480,0.025451180
1640793411922390016,-0.302017420,0.020005100,10.122573850,-0.021126870,-0.022788350,0.015749040
1640793411923099904,-0.106546840,0.228438080,9.628398900,-0.021214780,-0.047740340,0.027211010
1640793411927239936,-0.124272240,0.493197500,9.714318280,0.029596690,-0.004363060,0.042577090
1640793411928220160,-0.399459420,0.566204010,10.092403410,0.014354290,-0.010304150,0.038769840
1640793411931979776,-0.265675310,0.617241320,9.998559950,-0.008262690,-0.051711500,0.058764220
1640793411932389888,-0.196031390,0.520767030,9.610056880,-0.008814040,-0.024014710,0.057652600
1640793411937069824,-0.109150400,0.396361590,9.854950900,-0.028939550,0.009413070,0.045143080
1640793411938259968,-0.052334730,0.594511510,10.112036710,-0.030320880,0.016866620,0.048993530
1640793411941979904,-0.102585700,0.422792790,9.981998440,-0.056327880,-0.056619930,0.038979940
1640793411942319872,0.051892650,0.207694590,9.753290180,-0.042985380,-0.058165190,0.036622580
1640793411947069952,0.097795640,0.376919540,9.413096430,-0.019060080,0.035211440,0.027851760
1640793411950229760,-0.240417450,0.321774510,10.278070450,-0.063154100,0.005751850,0.040221220
1640793411951959808,-0.224700610,0.407834440,10.394114490,-0.076991320,-0.040812790,0.073258580
1640793411952389888,-0.082255680,0.323051690,9.493244170,-0.072969500,-0.061640150,0.046747930
1640793411957009920,-0.022643900,0.313452040,9.689731600,-0.069122020,-0.004142520,0.046643620
1640793411957520128,0.121695530,0.489376310,9.632440570,-0.062425440,0.111897290,0.059361770
1640793411962080000,-0.008958550,0.127233130,10.216562270,-0.069063900,-0.004716220,0.033406910
1640793411962880000,0.011850200,0.101795220,10.266642570,-0.043724480,-0.048142660,0.065778200
1640793411967020032,0.148057770,0.166722150,8.822073940,-0.061352550,-0.014317040,0.042670970
1640793411967579904,-0.041503690,-0.178438190,9.709294320,-0.094963610,0.030663610,0.044246020
1640793411972059904,-0.060061620,-0.051689500,9.998581890,-0.038458410,0.131529570,0.049893560
1640793411972519936,-0.174733070,-0.161287200,9.842464450,-0.004425640,-0.023323290,0.024086230
1640793411977389824,-0.358707850,-0.020336290,10.304117200,-0.002884860,-0.059521210,0.050441920
1640793411978679808,-0.212215450,0.333190680,8.890968320,-0.047309700,0.041832030,0.051139300
1640793411982050048,-0.345843880,-0.146644220,9.919913290,-0.076113640,0.015363100,0.033587220
1640793411982439936,-0.331737490,0.161036510,10.410510060,0.015765430,0.095508990,0.040420890
1640793411987399936,0.041217780,0.357361050,9.209540370,0.034576650,-0.015617910,0.019156930
1640793411988219904,0.042578680,0.249564250,10.257164000,-0.007446110,-0.008930260,0.058224790
1640793411991959808,0.126058950,0.557095290,9.590788840,-0.057189170,0.132173270,0.072123100
1640793411992379904,-0.076488910,0.041001960,10.099383350,-0.040526690,-0.051085650,0.051234670
1640793411997049856,-0.170761440,0.133665760,10.239551540,0.044129800,-0.018207730,0.067827110
1640793411998769920,0.069375720,0.468364210,8.630676270,0.017964840,0.055368240,0.019080930
1640793412002319872,-0.306551640,0.332257720,10.528154370,-0.072167830,0.037699940,0.033274290
1640793412004009984,-0.303501370,0.701528910,10.310158730,-0.093606120,0.093634430,0.053679940
1640793412007030016,-0.116029260,0.394721180,9.450325010,-0.048728290,-0.070363290,0.027860700
1640793412007559936,-0.281871410,0.423458130,10.293868060,0.004322830,0.014688080,0.057657060
1640793412012049920,-0.052682790,0.809648930,9.059147830,-0.024573510,0.108578800,0.043734910
1640793412012669952,-0.209576730,0.326572810,10.338017460,-0.109343240,-0.028269000,0.067478420
1640793412017019904,-0.006518910,0.257990570,10.197443010,-0.095525390,0.070193410,0.087688870
1640793412018109952,0.347130890,0.087599360,8.980125430,-0.039675840,0.037187340,0.026254360
1640793412021949952,0.035600580,0.071673160,10.523208620,-0.030046700,0.036579360,0.040958820
1640793412022339840,0.147645100,0.414252880,9.482860570,-0.073742870,0.118988770,0.057448450
1640793412027350016,-0.016341270,-0.127153170,9.769335750,-0.105443620,-0.046753880,0.041435670
1640793412028819968,-0.245188760,0.063241970,10.121083260,-0.055286300,0.034722690,0.057832910
1640793412032919808,0.081952740,0.353439720,8.524272920,-0.044308600,0.094786290,0.035583970
1640793412033440000,-0.146110680,0.013210340,10.388391490,-0.066907710,0.087346140,0.047017630
1640793412037070080,-0.224927740,0.230002910,10.470303540,-0.043672320,0.155228390,0.062893330
1640793412037629952,-0.045452190,-0.090391180,9.515626910,-0.019286570,-0.046616790,0.044073160
1640793412042080000,-0.233732330,-0.135695950,10.013021470,-0.009807950,-0.008665030,0.073304790
1640793412042449920,0.085465800,0.103599240,8.554279330,-0.045357640,0.164394070,0.059901180
1640793412047119872,0.000651200,-0.360435370,10.042070390,-0.045822560,0.089575350,0.036169590
1640793412050119936,-0.196350620,-0.108289960,10.693864820,0.029477480,0.100345910,0.045749550
1640793412052019712,0.214883770,0.091137540,8.980666160,0.041322410,0.003573300,0.025627020
1640793412052809984,-0.142207030,0.038662990,10.212656970,-0.012493130,0.030401350,0.051915650
1640793412056989952,-0.268313880,0.242567900,9.775596620,-0.032915170,0.161498800,0.054693220
1640793412057529856,-0.299843310,-0.050920750,9.688392640,0.025048850,-0.007712840,0.032806400
1640793412062080000,-0.466472390,0.200107620,10.165591240,0.069481120,0.020277500,0.052359690
1640793412062799872,0.010451340,0.627972660,8.789047240,0.026473400,0.132687400,0.051595270
1640793412067639808,-0.206555710,0.474423680,10.408112530,-0.052639850,0.077341500,0.056853900
1640793412068529920,-0.312122970,0.536574360,10.673852920,-0.026014450,0.072337690,0.059068200
1640793412071960064,0.062335640,0.338688760,9.262416840,0.040334460,-0.023913380,0.044292210
1640793412072439808,-0.102513280,0.295759020,9.934125900,0.043940560,0.040990110,0.047780570
1640793412077379840,-0.092857960,0.546953920,9.648814200,-0.021238630,0.170914830,0.068455940
1640793412078879744,0.006134610,0.230498730,9.974014280,-0.081165140,0.034992400,0.068001450
1640793412083469824,-0.044789660,0.047629860,10.286240580,-0.025115910,0.034742070,0.071151550
1640793412084309760,0.109009240,0.196069810,9.243724820,0.044564900,0.092686720,0.037454070
1640793412086999808,-0.254978390,0.378463630,10.042437550,0.005601350,0.053493680,0.038097800
1640793412087610112,-0.412292540,0.518463370,10.250053410,-0.069610780,0.043974820,0.063602630
1640793412091980032,-0.035858140,0.322945650,9.201416020,-0.084592410,0.064514580,0.051425400
1640793412092329984,-0.061287700,0.311890720,9.861463550,-0.026479370,0.085620580,0.044065710
1640793412097420032,-0.023397700,0.378278370,10.054077150,0.013798470,0.158029760,0.043678280
1640793412098660096,0.053376480,0.199740780,9.828601840,-0.017978260,0.054430970,0.041422260
1640793412102020096,-0.077340230,-0.183151540,10.094552040,-0.027543310,0.001670420,0.058230770
1640793412102520064,-0.000472590,-0.272245500,9.115847590,-0.005543230,0.106734050,0.054249170
1640793412106999808,0.061370780,-0.242591370,9.280313490,-0.010591750,0.097206260,0.032648450
1640793412107579904,-0.148886840,-0.270757170,10.504811290,0.016933680,0.160636010,0.046633190
1640793412112089856,-0.123868970,-0.143004780,9.942754750,0.037233540,0.107668340,0.029245020
1640793412112789760,-0.348638590,-0.137054380,10.002348900,0.067290660,-0.045444080,0.025852030
1640793412117590016,-0.448505850,0.141633960,9.376947400,0.058287390,0.057114660,0.047867000
1640793412118459904,-0.291567980,0.250346480,8.955181120,-0.002735850,0.131015490,0.020119550
1640793412121979904,-0.522500100,0.003747370,10.638233180,0.046722580,0.111608200,0.010193880
1640793412122370048,-0.233272700,0.202322470,9.984591480,0.113973020,0.089116400,0.018303100
1640793412127490048,0.120129740,0.358223380,9.421292300,0.109337270,0.004290040,0.022605060
1640793412128599808,-0.087788170,0.262677820,10.210261340,0.039294370,0.105713330,0.048239540
1640793412135649792,-0.004248690,0.154619220,9.576149940,0.019857290,0.121840860,0.039619210
1640793412136539904,-0.181775080,-0.186516690,10.219214440,0.112958270,-0.023746490,0.020028650
1640793412137009920,-0.228569090,0.074881250,9.759583470,0.145080670,0.063078110,0.022035840
1640793412137479936,-0.025920940,0.463699970,9.080330850,0.058518350,0.087739530,0.006957350
1640793412141999872,-0.539107800,0.350311880,10.877935410,-0.005562600,0.070905690,0.021973250
1640793412142560000,-0.329689440,0.482818630,9.851837160,0.020825860,0.071096420,0.025063750
1640793412147339776,-0.142941340,0.393310930,9.613616940,0.120061640,-0.020335610,0.008638200
1640793412148409856,-0.318421480,0.615003650,10.180016520,0.111147770,0.103966880,0.021965800
1640793412152009984,-0.016714550,0.889094470,9.289456370,0.000776350,0.098069030,0.039869550
1640793412152519936,-0.064179630,0.305966110,10.407073970,-0.041118270,0.002449750,0.039975350
1640793412156979968,0.112544720,0.063955280,9.681471820,0.032544140,0.110282010,0.025911630
1640793412157499904,0.307434380,0.086782190,9.253767010,0.117126110,0.054305790,-0.008016830
1640793412162299904,-0.184499340,0.127600210,10.489344600,0.070486970,0.076895950,0.008502600
1640793412163599872,-0.081920070,0.110312880,9.421449660,-0.032037500,0.071188810,0.030289590
1640793412169489920,-0.205653290,-0.306139620,9.893812180,-0.002978740,-0.018930430,0.019125640
1640793412170310144,-0.401052770,-0.220065430,9.784594540,0.100690130,0.099390750,0.017379230
1640793412171969792,-0.122740260,0.157280090,9.033792500,0.121405740,0.078560430,0.004118680
1640793412172309760,-0.361686260,0.150176930,10.448254590,0.055977700,0.086210680,0.014546510
1640793412177359872,-0.277047600,0.021520500,9.896385190,0.031483180,0.076873600,0.024686760
1640793412179689984,-0.124531040,-0.082908770,9.557845120,0.114934150,-0.028553610,0.008825960
1640793412183689728,-0.301979570,0.002952180,9.681558610,0.145761670,0.052890190,0.003103910
1640793412184419840,-0.048672700,0.184270530,9.177298550,0.096832210,0.103113040,-0.013232230
1640793412186990080,-0.198930920,0.114599560,10.342851640,0.069400650,0.071977090,-0.017461180
1640793412187559936,-0.235678840,-0.011222910,10.021718980,0.103478160,0.018888710,-0.008653100
1640793412192059904,-0.024864800,0.084987910,9.373679160,0.156310190,-0.003865360,0.005182620
1640793412193979904,-0.397804650,0.122566850,9.971099850,0.139914450,0.064703830,0.000941750
1640793412197079808,-0.463257220,0.090582420,9.898715020,0.101375580,0.031387810,0.017076730
1640793412197739776,-0.296510910,0.087612980,9.732012750,0.115212800,-0.008140500,0.013911730
1640793412202099968,-0.230052690,0.132128220,9.599283220,0.142653290,0.045928360,-0.009499490
1640793412202649856,-0.201194940,0.465592920,10.045183180,0.128988920,0.065930200,-0.010964280
1640793412207069952,-0.278578430,0.715030250,10.241566660,0.094124680,0.009252130,-0.009883940
1640793412207739904,-0.181858730,0.437815220,9.757635120,0.079108770,-0.051435830,-0.007320940
1640793412212420096,0.041362720,0.572298770,9.437504770,0.121708240,0.043210390,-0.001849230
1640793412213250048,-0.142726050,0.691864430,9.906030650,0.110164280,0.067088020,-0.002452730
1640793412216969984,-0.197402390,0.526826560,10.477967260,0.051908210,0.004813080,0.020526350
1640793412217489920,0.061341240,0.475292180,9.600477220,0.041273230,-0.004276630,0.015725200
1640793412221949696,-0.024839100,0.061851380,9.633153920,0.079956660,0.000745060,-0.011670590
1640793412222329856,-0.182597710,0.220166730,9.966319080,0.113299500,0.073418040,-0.009948020
1640793412227670016,-0.301798370,0.469901800,9.727544780,0.049138070,-0.015644730,-0.016194580
1640793412229169920,-0.326663140,0.137622730,9.973721500,-0.008107720,-0.060226030,0.001321730
1640793412232049920,0.054926090,0.247102510,9.135223390,0.037281220,0.083671510,-0.003245470
1640793412233690112,-0.015118300,0.212613980,9.848419190,0.089532120,0.059707460,-0.020238760
1640793412236979968,-0.049858020,0.255993810,10.535188670,0.089479990,0.052279240,0.011457500
1640793412237569792,0.107689400,0.268244980,9.468553540,0.046953560,0.001706180,0.009435420
1640793412242269952,-0.197622810,-0.210966750,9.874543190,0.049418220,-0.072298950,0.011748080
1640793412245719808,-0.075492010,-0.013989150,8.991292000,0.079523030,0.066141780,0.003552440
1640793412247040000,-0.096831540,-0.040335190,9.176874160,0.076869130,0.073541720,-0.024741890
1640793412247959808,-0.424397350,-0.176504550,10.884370800,0.081883380,0.071768470,-0.007686020
1640793412251979776,-0.152198200,0.079712930,9.643496510,0.110426550,0.002492960,-0.016306340
1640793412252430080,-0.361823890,-0.118251640,9.758311270,0.118783130,-0.093868380,-0.016450880
1640793412257009920,-0.324421110,0.059234580,9.464110370,0.090591610,0.084866590,0.002253060
1640793412257540096,-0.199545350,0.041033400,9.286351200,0.099983820,0.061751910,-0.038050120
1640793412262369792,-0.450720130,-0.152034860,10.573458670,0.147160900,-0.035639110,-0.025634470
1640793412263360000,0.139145930,0.316832540,9.038749690,0.160111490,0.033934420,-0.011596080
1640793412269420032,0.024184020,0.236616890,9.662755010,0.116090480,-0.006091590,-0.023137030
1640793412270159872,-0.273808810,0.156192760,10.728388790,0.088162710,0.064249330,0.009422000
1640793412271950080,-0.152128740,0.193784680,9.558681490,0.138662770,-0.029833610,-0.019587580
1640793412272310016,-0.435662600,0.080971090,9.996409420,0.184473400,-0.132602470,-0.031395260
1640793412278289920,-0.132397800,0.570329900,8.976352690,0.127333400,0.098189720,-0.016690790
1640793412279279872,-0.254000900,0.579682710,9.809937480,0.062152740,0.033995510,-0.038714710
1640793412282039808,-0.539858160,0.287417290,11.130374910,0.073917210,-0.030013920,-0.010848050
1640793412282609920,0.081361390,0.440408200,9.118827820,0.158563260,-0.036449730,-0.023019320
1640793412286979840,-0.131225500,0.378179610,9.875874520,0.161469000,-0.060653690,-0.033144660
1640793412287459840,-0.180768650,0.624004840,10.062356000,0.053954140,0.089487460,-0.001019240
1640793412292019968,0.146073310,0.447610680,9.508002280,0.010024010,-0.031599400,-0.010545550
1640793412292519680,-0.017439650,-0.069382030,10.345811840,0.089825690,-0.057728590,-0.020553170
1640793412297099776,0.362421870,0.309987310,8.916481970,0.159651060,0.079803170,-0.040538610
1640793412297949952,-0.051822370,0.512724280,9.983370780,0.101476920,-0.021037460,-0.048676130
1640793412301979904,-0.380271020,0.255690570,10.531022070,-0.002206860,-0.000554320,-0.003105400
1640793412302479872,-0.025051320,0.103384430,9.044451710,0.027753420,-0.042204570,-0.023528940
1640793412307099904,-0.321333290,-0.062607510,9.888015750,0.130116950,-0.025154650,-0.032886870
1640793412307680000,-0.093814370,0.180707780,9.452362060,0.129343580,0.127723830,-0.027447940
1640793412312089856,-0.077833240,0.199046490,9.989581110,0.074121360,0.005118550,-0.033731760
1640793412312769792,-0.291740750,-0.248436290,10.441342350,0.055791440,-0.046193600,-0.016558170
1640793412316949760,0.122953810,-0.158280160,8.842190740,0.113882110,-0.026448070,-0.031992790
1640793412317449728,-0.063952390,-0.107208620,9.378925320,0.148862650,0.004197660,-0.045533490
1640793412322309888,-0.102436790,-0.062617830,9.963829040,0.105383990,0.109417740,-0.045841930
1640793412322880000,-0.115564180,0.133682730,10.208611490,0.099565090,-0.006055830,-0.042897470
1640793412327399936,-0.284649370,-0.030170390,10.026109700,0.134247560,-0.087840860,-0.027497110
1640793412328640000,-0.067710190,0.098932680,9.027823450,0.161866810,-0.005073850,-0.026983020
1640793412332659968,-0.385899360,0.370369170,9.774958610,0.151196090,0.034649670,-0.020143390
1640793412333189888,-0.512842770,0.087737120,10.325917240,0.104856500,0.013165180,-0.019943710
1640793412336969728,-0.207810980,0.212601620,9.845015530,0.145070250,-0.052678590,-0.027456880
1640793412337750016,-0.142246650,0.355928240,9.659539220,0.170466320,-0.021825730,-0.030040740
1640793412342010112,-0.075402050,0.422555300,9.874348640,0.113065540,0.033403940,-0.039741400
1640793412342469888,-0.173664420,0.622998420,10.175313950,0.088043520,-0.018741190,-0.026980040
1640793412347110144,-0.174414920,0.304571720,9.838156700,0.109481830,-0.067292160,-0.028646000
1640793412349710080,-0.021686870,0.301717970,9.520752910,0.149539130,-0.036643450,-0.030070540
1640793412352000000,-0.186327060,0.658340750,9.728913310,0.130756200,0.014416870,-0.016918780
1640793412352550144,-0.235098420,0.459706220,10.168177600,0.033144660,-0.016158820,-0.004579130
1640793412357029888,-0.043399490,0.361208710,9.927104000,0.040271880,-0.041803720,0.004716220
1640793412357559808,-0.036444680,0.115140710,9.571954730,0.116799770,-0.017236170,-0.033566360
1640793412362079744,-0.119971730,0.231644630,10.055399890,0.141905260,0.002169610,-0.039061910
1640793412362779904,-0.181111990,0.680088880,9.842057230,0.065924230,-0.039440390,-0.015310940
1640793412367009792,-0.096333340,0.155636000,9.612807270,-0.029166050,-0.059670210,-0.025029480
1640793412369779712,0.065416710,0.057048100,9.625802990,0.053624810,0.033783910,-0.021089620
1640793412371980032,0.034895110,0.190375980,9.564888000,0.151877120,0.020179150,-0.033091010
1640793412372499968,-0.069681330,0.116373290,10.234896660,0.105300560,-0.026042760,-0.028671330
1640793412376940032,-0.112880580,0.225665380,9.770735740,0.028380750,-0.023341180,0.001318750
1640793412377399808,-0.251428010,-0.372485580,9.545008660,0.038889060,-0.062903770,-0.022675100
1640793412382059776,-0.302228660,-0.267421660,9.742245670,0.128906940,-0.017938020,-0.036677710
1640793412382680064,-0.209210890,0.169839780,9.149994850,0.140851740,0.027987370,-0.047604740
1640793412387660032,-0.319466800,-0.129235820,10.236642840,0.078915060,0.003373620,-0.052215160
1640793412388320000,-0.308889000,0.099126500,10.267922400,0.094611950,-0.009889900,-0.013864040
1640793412391959808,-0.251654680,-0.014877950,9.537664410,0.143604000,-0.119017060,-0.033675140
1640793412392419840,-0.215768990,0.039715560,9.804105760,0.142318000,-0.048714870,-0.022755560
1640793412397250048,-0.151144520,0.471883030,9.387782100,0.120620450,0.059257460,-0.017787520
1640793412398069760,-0.255613300,0.149781390,10.256705280,0.095810020,-0.061260170,-0.037430230
1640793412405139968,-0.063818840,0.409100770,9.990042690,0.128647700,-0.049397350,-0.011758510
1640793412405959936,0.036067780,0.521853330,9.212765690,0.139473380,-0.059223190,-0.035189100
1640793412406989824,-0.332794130,0.300680520,10.470912930,0.091622790,-0.037688020,-0.032688680
1640793412407480064,-0.359545920,0.582933780,9.839680670,0.086124250,-0.030149530,-0.009097160
1640793412412250112,-0.396536380,0.152434290,9.801069260,0.096698110,-0.148442390,-0.031586000
1640793412413489920,-0.243999720,0.379064200,9.834442140,0.104750690,-0.011204180,-0.016258660
1640793412417100032,-0.101128920,0.744256850,9.440007210,0.065454850,0.003360210,-0.013831260
1640793412417609984,-0.268867760,0.287428860,10.783234600,0.015462940,-0.082017490,-0.012193620
1640793412421959936,0.056929900,0.444314630,9.625504490,0.059385610,-0.050348050,0.005292890
1640793412422409984,0.056624570,0.333283360,9.506619450,0.108149660,-0.114776220,-0.018876790
1640793412426970112,-0.072332350,0.478891020,10.139654160,0.042189650,-0.010250510,0.005234780
1640793412427939840,0.184064920,0.599489150,9.238997460,-0.020584460,-0.008927280,0.021372730
1640793412432059904,-0.018957910,-0.060967680,10.338867190,0.010937450,-0.072422620,-0.013026600
1640793412433590016,0.030798430,0.192975400,9.750490190,0.090165440,0.006338950,-0.011904540
1640793412437520128,-0.123306970,0.329876660,9.409689900,0.077888380,-0.097270310,-0.024476650
1640793412438329856,-0.477431980,0.099730400,10.351017000,-0.021436820,-0.052790350,0.000256300
1640793412441979904,-0.242223720,0.110873150,9.182095530,-0.030876690,-0.014656780,0.003364680
1640793412442359808,-0.339883510,-0.210702550,9.897479060,0.064478820,-0.075812620,-0.025843080
1640793412451699968,-0.153916120,0.074689980,9.873707770,0.096024560,0.043094150,-0.011973080
1640793412453080064,-0.011203500,0.224946620,9.609853740,0.067189340,-0.037252900,-0.008395320
1640793412453449984,-0.253931580,-0.212513910,10.562689780,0.017881390,-0.089852520,0.008052590
1640793412453920000,0.001694360,-0.036705500,9.110909460,0.061455370,-0.056384510,0.012829900
1640793412456989952,-0.044478760,0.004951590,9.220094680,0.100848080,-0.079831490,-0.013643500
1640793412457469952,-0.118534550,0.060508520,10.110757830,0.064873700,0.056017940,-0.009484590
1640793412462439936,-0.155708760,0.313244610,9.927417760,0.074221200,-0.016824900,-0.020258130
1640793412463369728,-0.423476520,0.135014680,10.539315220,0.076393780,-0.163187100,-0.016736990
1640793412468789760,-0.192464490,0.441640350,9.234419820,0.080268090,-0.067299600,0.000827010
1640793412469809920,-0.306842210,0.541216970,9.378915790,0.055314600,-0.035330650,-0.011284650
1640793412472069888,-0.494991420,0.302021770,10.671138760,0.031113630,0.000029800,0.002825260
1640793412472460032,-0.174835350,0.432468120,9.752005580,0.083364550,-0.068014860,0.001619760
1640793412476969984,-0.062422000,0.297095890,9.872616770,0.090733180,-0.136844810,-0.010746720
1640793412477900032,0.122233990,0.551989970,9.653512950,0.006912650,0.024080280,0.008475780
1640793412482329856,0.178642540,0.579023720,9.707794190,-0.036256010,-0.029040870,0.004118680
1640793412484209920,-0.047087050,0.145958990,10.554453850,0.001993780,-0.075225540,0.001481180
1640793412487010048,0.167174470,0.216988130,9.369060520,0.091044600,-0.048337880,0.002996620
1640793412487549952,-0.150016640,0.460980090,9.719942090,0.077381740,-0.104726860,-0.013330580
1640793412491969792,-0.245297520,0.472717910,9.786021230,-0.080946090,-0.008463860,0.020959970
1640793412492460032,-0.063791380,0.280273350,9.375844000,-0.079730150,-0.007607040,0.022621450
1640793412497129984,-0.285599830,-0.098132730,10.374753000,0.049570200,-0.039774180,-0.005358460
1640793412498669824,-0.143178540,0.250683460,9.784854890,0.115299230,-0.025211280,-0.008080900
1640793412502169856,-0.140825260,0.541457410,9.562500950,0.006335970,-0.098326800,0.017949940
1640793412502969856,-0.105952990,0.053970660,9.788392070,-0.127321480,0.006631020,0.011217600
1640793412506959872,0.071240890,-0.047440420,9.474817280,-0.033576790,0.009544190,-0.008440020
1640793412507510016,-0.113415430,0.013288660,9.915315630,0.096462670,-0.070963800,-0.014606120
1640793412512159744,0.047172600,0.204157010,9.460265160,0.063420830,-0.020964450,-0.010967250
1640793412513329920,-0.114526230,0.374655340,9.727985380,-0.043089690,-0.028158730,0.011394920
1640793412517699840,-0.354230340,-0.209111720,10.130545620,-0.070992120,-0.038810080,0.010240080
1640793412518579968,-0.259212140,-0.177279340,9.683751110,0.049823520,-0.074306130,-0.008280580
1640793412521979904,-0.311975750,0.174380450,9.489572530,0.110065940,-0.039745870,-0.014473500
1640793412522310144,-0.347735320,0.274196270,9.757915500,-0.008782740,0.003786380,-0.024381280
1640793412526949888,-0.395876650,0.446375940,10.120086670,-0.051687660,-0.065721580,0.005054470
1640793412527639808,-0.301791130,0.165941030,9.751860620,-0.003999470,-0.090470920,-0.002802910
1640793412532110080,-0.103803930,0.229452520,9.606078150,0.063012540,-0.059291720,-0.003142650
1640793412533069824,-0.204850820,0.628049140,10.006682400,0.052680090,-0.005856160,0.000597540
1640793412537609728,-0.237103180,0.435729060,10.162633900,-0.047287340,-0.063408910,0.007687510
1640793412538159872,-0.038688370,0.356312930,9.842059140,-0.044824190,-0.113923870,0.025951860
1640793412541929984,0.022578640,0.320058910,9.357447620,0.001780690,-0.052691990,0.001955030
1640793412542289920,-0.025632980,0.297531720,9.885040280,0.005204980,-0.019763410,-0.003537540
1640793412547389952,-0.245741100,0.579962430,10.368176460,-0.003667180,-0.043216360,0.014592710
1640793412548839680,-0.276702610,0.267003860,9.994873050,-0.067093970,-0.120672570,-0.007806720
1640793412552179712,-0.175390350,0.272718010,9.767026900,-0.054439910,-0.094726670,0.020301340
1640793412552589824,-0.173945190,0.540127160,9.425881390,-0.033535070,-0.013944510,0.011965630
1640793412556969984,-0.074935880,0.220509200,9.986901280,-0.056819630,-0.022423270,0.009915230
1640793412557420032,-0.009011870,0.328805740,10.190672870,-0.029878320,-0.024917720,0.040230150
1640793412562389760,-0.000788350,0.133542480,9.696104050,-0.021219250,-0.097674150,0.009119510
1640793412565159936,0.013235470,0.177099810,9.798054700,-0.060942770,-0.096271930,0.025545060
1640793412571280128,-0.003464820,0.412894930,9.355100630,-0.099849700,-0.007700920,0.043091170
1640793412572019712,0.002291180,-0.223833740,9.802490230,-0.086361170,-0.020760300,-0.000432130
1640793412572429824,-0.035621160,-0.009757670,10.244221690,0.017613170,-0.006477540,0.017005210
1640793412572809984,-0.008779420,0.184610520,9.411631580,0.018608570,-0.050944090,0.012350080
1640793412577779968,-0.173409790,-0.096881260,10.001754760,-0.074449170,-0.081382680,0.018307560
1640793412579239936,-0.257446970,0.072411740,9.613273620,-0.086431210,0.010076170,0.038656600
1640793412582139904,-0.211092590,-0.388389740,9.375957490,-0.012846290,-0.063744190,-0.005288420
1640793412582799872,-0.186356990,-0.119358320,9.951503750,0.059178480,-0.015841420,0.012636180
1640793412586979840,-0.018987710,0.387062940,9.361995700,0.021466610,0.042665010,0.011859830
1640793412587479808,-0.198856170,-0.047332280,10.553177830,-0.073869530,-0.059172510,0.023064020
1640793412591949824,-0.286248090,0.146983550,10.121522900,-0.021564960,-0.052957230,0.044010580
1640793412592399872,-0.115674240,0.014050440,8.930187230,0.047880410,-0.103612250,-0.001385810
1640793412597440000,-0.227315220,0.129815650,9.943984030,0.053356590,-0.005693730,0.020068880
1640793412599639808,-0.171189380,0.631693600,9.562851910,-0.004434590,0.081759680,0.019326810
1640793412602099968,-0.154586460,0.154750590,10.439172740,-0.069488590,-0.092406570,0.001424550
1640793412602819840,-0.104818640,0.286185260,10.296970370,0.001007320,-0.047720970,0.035393240
1640793412606939904,0.051982840,0.331168890,9.044790270,0.050783150,-0.044272830,-0.012138480
1640793412607549952,-0.391205400,0.269161880,10.462781910,0.004343690,-0.037072600,0.017111010
1640793412612009984,-0.357399230,0.649447800,9.613960270,-0.048233580,-0.004526970,0.051736840
1640793412614029824,-0.133049090,0.057739820,9.600173000,-0.064888600,-0.114102660,0.025114420
1640793412618809856,-0.100167380,0.185464490,10.129217150,0.000959630,0.032824280,0.040583320
1640793412619330048,0.014552230,0.510030030,9.451510430,0.018383560,0.026080020,0.003959240
1640793412621919744,-0.262951760,0.136507360,10.799606320,-0.051176550,-0.101113330,0.017550590
1640793412622229760,-0.092169270,0.331845820,9.681733130,-0.060594090,-0.043095650,0.039863600
1640793412627059968,0.080411390,0.010488610,9.075878140,-0.032438340,-0.074820230,-0.005383790
1640793412627699968,-0.061323940,0.116788740,10.073060990,-0.022217630,0.028383730,0.029958780
1640793412632099840,0.151946560,0.382725750,9.392034530,-0.027780240,0.068084900,0.028684740
1640793412632769792,-0.027929690,-0.329687680,10.512578010,-0.042776760,-0.065432490,0.016921760
1640793412636999936,-0.161234620,-0.254565210,10.024982450,0.027881560,-0.029094520,0.056260840
1640793412637619968,-0.061565740,-0.198219540,8.706129070,0.050061940,-0.079548360,0.017969310
1640793412642079744,-0.328250890,-0.204295490,9.939265250,-0.034260750,0.007835030,0.019867720
1640793412642639872,-0.295566590,0.127551590,9.727958680,-0.041469930,0.102110230,0.014685100
1640793412647109888,-0.306908100,-0.262544360,10.099556920,0.031808020,-0.077039010,-0.018364190
1640793412647899904,-0.379511860,0.154393730,10.050737380,0.105157480,-0.062005210,0.016751880
1640793412652009984,-0.147109180,0.572352050,8.848147390,0.043983760,-0.020836290,0.024378300
1640793412652489984,-0.359333810,0.061465650,10.279252050,-0.067156560,-0.003741680,0.024986270
1640793412657110016,-0.320122270,0.156571270,10.135602950,0.014843050,0.029316550,0.046208500
1640793412659739904,0.076966350,-0.042565550,9.377180100,0.111067300,-0.075232990,0.004664060
1640793412662749952,-0.111348640,0.146893190,10.166809080,0.086167450,-0.015781820,0.024531780
1640793412664209920,-0.087128220,0.506681980,9.583113670,-0.011959670,0.022082030,0.033248960
1640793412667249920,-0.285921660,-0.001898920,10.108563420,-0.064457980,-0.095123050,0.005848710
1640793412668779776,-0.353737150,0.096300960,9.945829390,0.039918710,-0.052477410,0.020828840
1640793412671990016,-0.098493660,0.398629340,9.249297140,0.113174320,-0.005708640,-0.003841520
1640793412672539904,-0.366400690,0.595952690,10.487306590,0.005759300,0.009460750,0.019133090
1640793412677009920,-0.219180930,0.782379510,10.131517410,-0.083836920,-0.020943580,0.062522300
1640793412677549824,0.032962840,0.127084520,9.662471770,-0.048930940,-0.072164830,0.033284730
1640793412682119936,-0.022565130,0.144553420,9.897138600,0.064496700,-0.012592970,0.031909350
1640793412682909952,0.017159790,0.515301470,9.659407620,0.071445110,0.028918690,0.028260060
1640793412686959872,-0.064762010,0.313367960,9.928555490,-0.083877150,-0.052417810,0.026172400
1640793412687510016,0.063837420,0.106944480,9.821391110,-0.108659270,-0.028960410,0.040625040
1640793412692009984,0.120294700,-0.094854250,9.449388500,0.001153350,0.044485930,-0.010402500
1640793412692499968,-0.194971960,0.014944270,10.182149890,0.058951970,-0.019006430,-0.006528200
1640793412697139968,-0.281245200,0.238093150,10.005920410,0.026804210,-0.030159950,0.033122300
1640793412698069760,-0.166715100,-0.130687100,9.287169460,-0.064313410,-0.028885900,0.012335180
1640793412703109888,-0.362299800,-0.277581360,10.038286210,-0.030347710,-0.016982860,0.028593840
1640793412703650048,-0.198760970,-0.047557470,9.446616170,0.059609120,0.049294540,0.011996930
1640793412707109888,-0.100743520,-0.121667920,9.659513470,0.053864720,-0.019046670,-0.017023090
1640793412707799808,-0.244794040,0.106222540,10.520286560,0.037454070,0.009493530,0.028459730
1640793412712329984,-0.001228770,0.010985140,9.306454660,0.017163160,-0.017370280,0.009554620
1640793412713039872,-0.195840920,-0.149436790,10.004519460,0.041769450,-0.098280610,0.016874070
1640793412716979968,-0.111699620,0.206664620,9.604634280,0.075078000,0.070288780,0.024026630
1640793412717489920,-0.110840740,0.000046100,9.594303130,0.056457520,-0.000001490,-0.009857120
1640793412722189824,-0.487697390,0.045573960,10.844900130,0.084967900,-0.062976760,0.027087330
1640793412723379968,-0.083503720,0.276278320,8.971219060,0.074756150,-0.012415650,0.014573340
1640793412726959872,-0.300169050,0.173702760,9.866312030,0.035692740,-0.072039670,-0.001725550
1640793412727539968,-0.491116110,0.432168540,10.448236470,0.032694640,0.058048970,0.031925740
1640793412732049920,-0.250987890,0.213689730,9.515939710,0.061319780,-0.048527120,-0.005240740
1640793412733700096,-0.456538470,0.153680950,10.564641000,0.109888640,-0.134216280,0.012792650
1640793412737059840,0.048981980,0.668708680,8.964815140,0.062821810,0.042594970,0.024895370
1640793412739040000,0.019879390,0.358222540,9.840404510,-0.041708350,-0.021246080,0.010092560
1640793412741939968,-0.123637710,0.292118850,11.024064060,0.001293420,0.015722210,0.046788150
1640793412742309888,0.170319480,0.104317880,9.234839440,0.096957390,-0.066845130,-0.001141430
1640793412747099904,-0.201620610,0.061388490,10.164228440,0.110378860,-0.159212960,-0.003314020
1640793412748039936,-0.068274950,0.606723670,9.175881390,0.000377000,0.054183610,0.031031670
1640793412751989760,0.055628240,0.170699430,9.282958980,-0.100763140,-0.007109340,0.002630050
1640793412752480000,-0.187916190,-0.098506480,11.046944620,0.006660820,0.007407370,0.018939380
1640793412756950016,0.083820890,0.106456840,9.304979320,0.142449140,-0.002177060,-0.015541910
1640793412757409792,-0.236297320,0.147607360,10.015321730,0.100494930,-0.153863440,-0.007434190
1640793412762240000,-0.229863850,0.323888300,9.616693500,-0.052092980,0.036245580,0.047348440
1640793412762889984,0.047212260,-0.178623290,8.866151810,-0.076688830,0.012837350,-0.008602440
1640793412767030016,-0.312055830,-0.249112050,10.755432130,0.078018010,-0.020995740,-0.000093880
1640793412767599872,0.101279640,0.180993470,9.193471910,0.152032090,0.051696600,-0.009958450
1640793412771960064,-0.064934700,0.029285960,9.816095350,0.058311230,-0.082355750,-0.025624040
1640793412772429824,-0.356676340,-0.006949520,10.355790140,-0.015313920,0.018019970,0.030638270
1640793412776949760,-0.049315360,-0.244060990,8.763138770,0.041510160,-0.019103290,-0.010141730
1640793412777380096,-0.297248420,-0.226564530,10.140101430,0.123761610,-0.064662100,-0.020679830
1640793412782089984,-0.128279020,0.287960950,9.558864590,0.123049330,0.105382520,-0.009496510
1640793412782779904,-0.175657200,0.162983030,9.932732580,0.057120620,-0.051206350,-0.039944050
1640793412787010048,-0.413260880,0.293388810,10.630400660,0.036354370,-0.073130430,0.002206860
1640793412787770112,-0.081852320,0.354781180,8.910030360,0.076967460,-0.014841550,-0.006774070
1640793412792029952,-0.335482000,0.200784700,10.057661060,0.095729530,-0.032404070,-0.026664140
1640793412792499968,-0.503765400,0.557147800,10.317442890,0.088961430,0.035956500,-0.005196030
1640793412803340032,-0.159552560,0.387346630,9.380718230,0.045010450,-0.097799300,-0.001698730
1640793412804359936,-0.067513250,0.192126510,9.925383570,0.031359500,-0.050048540,-0.002427400
1640793412804859904,0.097541370,0.329885210,9.605550770,0.049419700,0.068201110,-0.010851020
1640793412805129984,0.052141920,0.213205370,10.199824330,0.054582960,-0.031942130,-0.018954280
1640793412806949888,-0.119119570,0.144597250,10.402671810,0.057564680,-0.063665200,0.004445020
1640793412807389952,0.053703330,0.261765450,9.198080060,0.047922130,-0.049577660,-0.003154580
1640793412812320000,-0.157260890,0.341614400,9.561983110,-0.005133450,-0.040160120,-0.000458960
1640793412813099776,-0.195330010,0.371521120,9.816180230,-0.009280440,0.032339990,0.001366440
1640793412816959744,-0.054520950,0.270227070,9.608777050,0.022810700,0.011993950,-0.015532970
1640793412818060032,-0.186252490,0.178335850,10.248163220,0.066599260,-0.045464940,-0.018903610
1640793412821959936,-0.183743580,0.380344120,9.831487660,0.051781540,-0.030002000,-0.004878640
1640793412822469888,-0.110427730,0.306030540,9.306353570,-0.037033860,-0.045706330,-0.000818070
1640793412826969856,-0.130723040,-0.091454710,9.947165490,-0.032241650,-0.012531880,-0.000680980
1640793412827489792,0.025633220,-0.105857410,9.382763860,0.059418390,0.065666440,-0.021602220
1640793412835689984,0.104401830,-0.087900310,9.609942440,0.097362700,-0.040830680,-0.030651690
1640793412836419840,-0.067496460,-0.043155710,10.106104850,0.058640550,0.001405180,0.003826620
1640793412837219840,-0.021072710,-0.105566090,9.237828250,-0.014689570,-0.006949900,-0.014893710
1640793412837740032,-0.288319980,-0.432815460,10.152025220,0.034506620,-0.074788930,-0.019142030
1640793412841929984,-0.365467190,-0.139197500,9.523781780,0.126865510,0.030410300,-0.021164120
1640793412842299904,-0.227769350,0.090488830,9.292253490,0.098037730,-0.022794310,-0.058466200
1640793412847129856,-0.503782390,0.230369480,10.645900730,0.048509230,-0.002177060,-0.014282760
1640793412848199936,-0.232738180,0.297809390,9.283060070,0.033888220,-0.002840160,-0.008365510
1640793412852089856,-0.221239860,0.048332310,9.931241040,0.089587260,-0.115378190,-0.025215740
1640793412852720128,-0.236739800,0.285104690,9.827185630,0.136353090,0.034713750,0.006178020
1640793412856940032,-0.030515490,0.309617250,9.285076140,0.083604460,-0.008407230,-0.033919520
1640793412857469952,-0.333159480,0.166628170,10.822273250,0.037154550,-0.061939660,-0.000600520
