timestamp,accel_x,accel_y,accel_z,gyro_x,gyro_y,gyro_z
1640792902566799872,-0.053569500,0.002714670,9.322471620,-0.208270580,0.152565580,0.037361690
1640792902571239936,0.070602190,0.276998760,9.834631920,-0.147734600,0.138781960,0.030347710
1640792902572099840,-0.293695240,0.230743970,10.799757000,-0.103440880,0.076267120,0.016169250
1640792902576189952,0.301545200,0.345264260,9.142130850,-0.096388150,0.047287340,0.029006600
1640792902576859904,0.253604950,0.250476570,9.549271580,-0.098788740,0.080755360,0.012378400
1640792902581250048,0.036322070,0.197464320,9.755099300,-0.140678870,0.219997760,0.023555760
1640792902582190080,0.267596810,0.311983970,9.550858500,-0.149883340,0.102795670,0.038646160
1640792902586759936,-0.195764170,0.045617650,10.589600560,-0.132334220,0.077067300,0.026310980
1640792902587479808,-0.162935580,0.069522800,9.118048670,-0.117695350,0.112316030,0.016289950
1640792902591329792,-0.411003650,-0.177238460,9.715269090,-0.064879660,0.038059050,-0.001743440
1640792902592049920,-0.778526130,-0.241992010,9.910362240,-0.067761540,0.160180030,-0.017987190
1640792902598769920,-0.350497810,-0.105750000,9.321856500,-0.099737950,0.105467440,-0.013267990
1640792902599729920,-0.432625980,-0.105898020,10.525935170,-0.088855620,0.083351140,0.014066700
1640792902601280000,-0.147917370,0.035622380,9.329867360,-0.092798480,0.118717570,0.009551650
1640792902603299840,0.096024190,0.020854160,9.764033320,-0.045655670,0.037573280,0.006861980
1640792902606329856,-0.118570050,0.143647860,10.146008490,-0.020992760,0.109106320,0.009134410
1640792902607659776,0.118108140,0.086429390,9.203429220,-0.026625400,0.066208850,-0.004513560
1640792902611289856,0.001750460,0.191809700,10.133115770,-0.020861630,0.062337520,0.007708370
1640792902611840000,-0.237064810,0.427610100,9.819537160,-0.064183780,0.125488650,-0.005806980
1640792902616299776,-0.240481570,0.530344130,9.938478470,-0.104556980,0.031837820,-0.001779200
1640792902617679872,-0.463424350,0.729329590,10.058483120,-0.087217990,0.052605570,0.000752510
1640792902621340160,-0.510466810,0.366531790,9.555431370,-0.055660310,0.047591330,-0.028496980
1640792902622059776,-0.357238200,0.403762790,9.892472270,-0.003816190,0.055997080,-0.013490020
1640792902626159872,-0.418464570,0.521273550,9.985103610,-0.038525470,0.074581800,0.003013020
1640792902626819840,-0.146098510,0.232544380,9.919095990,-0.153356810,0.046165290,0.008115170
1640792902633689856,0.178429220,0.343104840,9.711686130,-0.151222930,0.065933170,0.020921230
1640792902634639872,-0.038118560,0.207034080,10.168207170,-0.091289000,0.059469050,-0.006954370
1640792902636109824,0.118975560,0.228660480,9.845453260,-0.047521290,0.048196320,-0.001946090
1640792902637039872,0.042956330,0.283689260,9.665981290,-0.048136710,-0.013807420,-0.017628070
1640792902641209856,-0.058549140,0.089014460,9.663048740,-0.118985760,0.069324670,-0.024934110
1640792902641779968,0.234099610,0.354594920,9.262401580,-0.136554240,0.130784510,-0.016808510
1640792902646289920,-0.240824940,0.320435050,10.614302640,-0.127886250,0.065131490,-0.005659460
1640792902647130112,-0.201987520,0.363450740,9.944813730,-0.122885410,0.056332350,-0.005999210
1640792902651219968,-0.010702150,0.305530760,9.325948720,-0.071673100,-0.036574900,-0.020138920
1640792902652109824,-0.477600930,0.060822050,9.801317210,-0.070858010,0.092332070,-0.022287670
1640792902656149760,-0.108769500,-0.043166440,9.110507010,-0.090229520,0.129807000,-0.029741230
1640792902656750080,-0.279949310,-0.258121790,10.556988720,-0.071346760,0.030066080,-0.031828880
1640792902661440000,-0.157348170,-0.140982580,9.721350670,-0.080491610,0.078777950,-0.026735670
1640792902661989888,0.206566890,-0.044639550,9.303119660,-0.076542800,0.021868950,-0.027644630
1640792902666240000,-0.275519550,-0.005025780,10.388935090,-0.067287690,0.076319280,-0.025910140
1640792902667029760,-0.072126300,0.050104700,9.372856140,-0.056321930,0.062774140,-0.047154730
1640792902671200000,-0.131644590,0.006256800,10.034108160,0.000703330,-0.001142920,-0.040623550
1640792902671670016,-0.342859510,0.194304780,9.682580950,0.003507730,0.092540690,-0.030116740
1640792902676559872,-0.070523590,0.398895650,9.523104670,-0.053405770,0.037948790,-0.037693980
1640792902678210048,-0.488633190,0.622114060,10.518600460,-0.096027550,0.043264040,-0.004500150
1640792902681329920,-0.352310510,0.595429120,9.580628400,-0.111651430,0.022362170,-0.040067730
1640792902681839872,-0.070161720,0.457783790,9.849649430,-0.031061470,-0.003932420,-0.043869020
1640792902686159872,-0.317532060,0.552866460,9.998694420,0.025865440,0.086565320,-0.051775570
1640792902686779904,-0.139339910,0.499846220,9.823571210,-0.054538260,0.013485550,-0.051422420
1640792902691190016,0.025046720,0.527294460,9.857936860,-0.137801470,0.004230440,-0.010664760
1640792902691709952,-0.018890630,0.322837080,9.564543720,-0.165937860,0.044645380,-0.030982500
1640792902697459968,0.052212730,0.151417480,10.044956210,-0.090684000,0.050584970,-0.031819940
1640792902699059968,-0.180717330,0.300782860,10.185782430,-0.010858480,0.021059810,-0.034594540
1640792902701359872,-0.264579710,0.050231310,9.979002000,-0.062161690,-0.048722330,-0.048622490
1640792902702779904,0.054473180,0.126032650,9.333539010,-0.114175680,0.047563020,-0.032132870
1640792902706679808,-0.186727510,0.224967510,9.782478330,-0.128200650,0.069314250,-0.034514070
1640792902707559936,-0.178128540,0.153738870,10.189567570,-0.123034410,0.055266910,-0.027848780
1640792902711660032,0.076026190,0.373038290,9.645192150,-0.063686080,-0.006769600,-0.033865870
1640792902712610048,-0.208870350,0.182194770,9.947066310,-0.040929020,-0.018878280,-0.057363500
1640792902716310016,0.070925550,0.161019000,9.194098470,-0.065398220,0.075939290,-0.056354700
1640792902717259776,-0.176473100,0.127983480,9.893762590,-0.079840430,0.032022600,-0.062535700
1640792902721120000,-0.208363220,-0.013277950,10.074827190,-0.102604950,0.042310360,-0.046953560
1640792902721529856,0.081682170,0.051160060,9.380616190,-0.075018410,0.016805530,-0.040587790
1640792902726599936,-0.361184180,-0.053547210,10.225978850,-0.035673380,-0.001251700,-0.044389070
1640792902727919872,-0.098763970,0.013323430,9.392393110,-0.049032280,0.054191060,-0.061675910
1640792902731249920,-0.145330490,-0.082992370,9.890241620,-0.031006340,-0.004148480,-0.068627300
1640792902732630016,-0.322347400,-0.070288810,10.140667920,-0.025489930,0.047652430,-0.059941420
1640792902736130048,0.117904690,0.067362870,9.282864570,-0.017786020,0.015214090,-0.057846310
1640792902736559872,-0.257354350,0.185906840,10.425684930,-0.007428230,0.008895990,-0.051200390
1640792902741199872,-0.223485720,0.507485630,9.734669690,-0.069247190,0.035654010,-0.056771930
1640792902741580032,-0.130398330,0.454290630,9.731367110,-0.067852460,-0.047223280,-0.067874800
1640792902746259968,-0.435508370,0.468746300,10.124528880,-0.004999340,0.022126730,-0.072258710
1640792902747119872,-0.216937780,0.552151140,9.529668810,0.003883240,0.032867490,-0.098222490
1640792902754649856,-0.332759470,0.667649030,10.412099840,-0.040103510,-0.037360190,-0.063978140
1640792902755149824,-0.176829900,0.738270880,9.641766550,-0.130780060,0.019329780,-0.051456690
1640792902756120064,0.155115950,0.399762210,9.707752230,-0.138568860,0.008013840,-0.048886240
1640792902756630016,-0.120160290,0.418918490,10.516448020,-0.041657690,0.040394070,-0.047609210
1640792902761289728,-0.014925470,0.312584580,9.878283500,-0.028383730,-0.036744770,-0.063391020
1640792902761959936,0.130583420,0.081713690,9.726413730,-0.058110060,-0.047492980,-0.042986870
1640792902767299840,0.072294280,0.246589760,9.358904840,-0.104229160,0.066770610,-0.066670780
1640792902768899840,-0.003211450,0.198650730,10.010456090,-0.155015260,0.051988670,-0.065474220
1640792902771109888,-0.196554560,0.366226940,10.367425920,-0.116492820,0.007435680,-0.045679510
1640792902771559936,-0.270573850,0.302909490,9.810990330,-0.085467110,-0.072148450,-0.083602960
1640792902776529920,-0.180368630,0.208484460,9.695966720,-0.054106120,-0.005912780,-0.067059700
1640792902777829888,-0.194224660,0.347011950,9.353262900,-0.058016180,0.075374530,-0.067168470
1640792902783369984,-0.188668550,0.083432630,10.128014560,-0.122696160,0.041672590,-0.064797700
1640792902783949824,0.088045460,0.157843440,10.061586380,-0.130254050,0.038589540,-0.038416680
1640792902786149888,0.117485460,0.059091020,9.612014770,-0.082598630,-0.032801930,-0.057607890
1640792902786769920,0.078228450,-0.180427490,9.802579880,-0.045877700,0.013580920,-0.058245650
1640792902791179776,0.075986000,-0.044245090,9.482176780,-0.013947490,0.046022240,-0.074060260
1640792902791899904,-0.184811410,-0.272818510,10.080951690,-0.035412610,-0.000955160,-0.085349390
1640792902796839936,-0.041230520,-0.072347250,9.747573850,-0.055442750,0.044861440,-0.069178640
1640792902798099968,-0.120045740,0.110831170,9.673082350,-0.047856570,0.025416910,-0.068721180
1640792902801349888,-0.286289390,0.236750100,10.287875180,-0.060191750,0.033274290,-0.068394850
1640792902802809856,-0.235432510,0.530618610,9.765453340,-0.030787290,-0.004264710,-0.069530320
1640792902806159872,-0.377886060,0.347066940,9.833852770,-0.018331410,-0.032116480,-0.077047940
1640792902806669824,-0.191746790,0.390198620,9.569563870,-0.007098910,0.047694150,-0.075380500
1640792902811300096,-0.189673140,0.519746720,9.980007170,-0.013355910,0.032542650,-0.076344620
1640792902812160000,-0.206919480,0.572691080,10.366675380,-0.100226700,0.008189680,-0.052826110
1640792902816619776,0.161682810,0.545774700,9.631458280,-0.134745240,-0.004674490,-0.060994920
1640792902817479936,0.030930200,0.289059940,10.095644000,-0.072202100,0.020310290,-0.072130580
1640792902821129984,-0.014927830,0.265361430,9.977186200,-0.012254720,0.048965230,-0.076936200
1640792902821519872,-0.095736710,0.203088330,10.139146800,-0.007733700,-0.043834760,-0.062999130
1640792902826459904,-0.103855070,0.175261570,9.657902720,-0.087277590,0.002923610,-0.056055190
1640792902828239872,0.109046920,0.358645860,9.240571020,-0.151264640,0.043062860,-0.066553050
1640792902831279872,-0.144904090,0.462184790,10.381429670,-0.145760190,0.071734190,-0.059221690
1640792902831949824,-0.129319160,0.536975800,10.046812060,-0.101156540,0.028678770,-0.076653060
1640792902836219904,-0.149578140,0.307635960,10.185694690,-0.023789700,-0.066342960,-0.088889900
1640792902836989952,-0.210849760,0.283226520,9.588876720,-0.018502770,0.029641390,-0.079996880
1640792902841159936,-0.003528380,0.203045200,9.145683290,-0.107035060,0.050716110,-0.063255430
1640792902842579968,-0.090335220,0.064459750,10.377241130,-0.148220380,0.077371310,-0.035054980
1640792902846459904,0.183340640,0.061796360,9.631306650,-0.137859600,0.072851780,-0.046759850
1640792902847879936,0.163828390,-0.198093730,10.110427860,-0.049348180,-0.038537380,-0.053352120
1640792902851359744,0.017890280,-0.109980190,9.759801860,0.009982290,0.067079070,-0.066752730
1640792902852009984,-0.012292260,-0.190654370,9.327282910,-0.030428170,0.034664570,-0.091625760
1640792902856219904,-0.371063350,-0.189900550,10.485050200,-0.053416200,0.027123100,-0.077895840
1640792902856999936,-0.071694790,0.181455450,9.170980450,-0.071626900,0.074207790,-0.077748310
1640792902861789952,-0.115346040,0.201485140,9.957887650,-0.061586500,0.020894410,-0.065803530
1640792902867650048,-0.320539950,0.501025380,10.417056080,-0.028765200,0.111320620,-0.053730610
1640792902868179968,-0.117971210,0.449988480,9.683808330,-0.016884510,0.015866760,-0.078584250
1640792902868710144,-0.340612050,0.223076000,10.423363690,0.008502600,-0.028550630,-0.064551830
1640792902871119872,-0.029666780,0.463361380,9.132568360,-0.004437570,0.091186180,-0.071887680
1640792902871500032,-0.016930970,0.371265140,9.821301460,-0.073927660,0.048547990,-0.074054320
1640792902876399872,-0.182965800,0.642439780,10.529993060,-0.117756430,0.093859430,-0.044550010
1640792902877509888,0.185166510,0.526648040,9.530845640,-0.109608480,0.045786800,-0.077582900
1640792902881239808,-0.051165870,0.248313870,10.511499400,-0.029307610,0.004820530,-0.076271600
1640792902881889792,-0.194895850,0.558116910,9.907595630,0.010924040,0.082588200,-0.085023040
1640792902886129920,-0.202384460,0.353379070,9.736934660,-0.082641840,-0.014041370,-0.086271780
1640792902886579968,-0.186814770,0.352198240,9.901512150,-0.158536450,0.043004750,-0.045244400
1640792902891160064,0.132335720,0.376953840,9.205647470,-0.145144780,0.132361050,-0.067295140
1640792902892769792,-0.020949230,0.226469310,10.455530170,-0.082136700,0.096753250,-0.067058210
1640792902898739712,-0.151243360,0.557914140,10.324520110,-0.047685210,0.036290290,-0.048118830
1640792902900499712,0.024178830,0.127784460,9.694902420,-0.090499230,-0.028571490,-0.067466500
1640792902902069760,0.002315280,0.000668550,9.654165270,-0.102219000,0.074215240,-0.055420410
1640792902902579968,-0.054840110,0.089907460,9.504003520,-0.089500870,0.134837670,-0.056275730
1640792902906169856,0.012921780,-0.118293070,10.229797360,-0.102712210,0.094753530,-0.070807340
1640792902906839808,0.025405760,0.138115580,9.898564340,-0.080402200,0.071440640,-0.068841870
1640792902911799808,0.014569530,0.041964130,9.626332280,-0.068132590,0.028778620,-0.080432020
1640792902912439808,-0.153079170,-0.100638720,9.824655530,-0.056670610,0.075051180,-0.091674920
1640792902916199936,-0.346056700,0.089859550,9.669736860,-0.029785930,0.071802740,-0.091603400
1640792902916750080,-0.282424630,0.122459890,10.115924840,-0.066114950,0.067538020,-0.085689130
1640792902921169920,-0.189431980,0.335723550,9.852558140,-0.088797500,0.119420870,-0.063106430
1640792902921659904,-0.102995960,0.402696520,9.909610750,-0.084771220,0.060002510,-0.055873400
1640792902926220032,-0.005400670,0.366373300,10.242476460,-0.073936590,0.086155530,-0.071124740
1640792902926889984,-0.106202730,0.392769690,9.825881960,-0.032368300,0.065945100,-0.085408990
1640792902931299840,-0.107567360,0.292379650,9.997171400,-0.029841070,0.016616290,-0.082518160
1640792902932559872,-0.056157150,0.364869390,9.686140060,-0.058817870,0.094656650,-0.091628720
1640792902936159744,-0.046364100,0.617874210,9.710597990,-0.115239620,0.088295350,-0.080809000
1640792902936669952,0.012860260,0.728119080,10.272850990,-0.175525260,0.102421660,-0.065627690
1640792902941179904,-0.006751470,0.544153270,10.106344220,-0.142025950,0.086668140,-0.080062450
1640792902941619968,-0.116332430,0.402541640,10.138403890,-0.044834620,0.013929610,-0.083442050
1640792902946220032,-0.176548910,0.375602480,9.900036810,-0.022837520,0.066746780,-0.075060130
1640792902947079936,-0.212004690,0.294101830,9.517810820,-0.121372960,0.069481130,-0.049315390
1640792902951089920,0.060002410,0.198466090,9.612722400,-0.210562390,0.101651270,-0.040620570
1640792902951490048,0.142641230,0.090831000,9.963523860,-0.182898330,0.162968050,-0.069952000
1640792902956509952,0.096793430,0.211984410,10.234654430,-0.098520540,0.110238810,-0.073029110
1640792902957249792,0.010176980,0.258384140,10.279762270,-0.071592630,0.031816960,-0.077264020
1640792902961309952,-0.042930890,0.028670960,9.647454260,-0.097923000,0.048561400,-0.088460770
1640792902962040064,0.029517880,0.111602430,9.113211630,-0.127439200,0.116530080,-0.069655490
1640792902966629888,-0.144054030,0.154446540,9.896471020,-0.153675690,0.161808730,-0.055009130
1640792902968209920,-0.074553130,0.122409130,10.083053590,-0.147509570,0.164261480,-0.043302780
1640792902971159808,-0.048642180,0.278101270,10.128023150,-0.107185540,0.055286290,-0.050750370
1640792902971920128,-0.331237200,0.000542170,10.157637600,-0.064173350,0.045381480,-0.062251090
1640792902976159744,-0.150118860,-0.005247000,9.070323940,-0.056256360,0.110644120,-0.084567080
1640792902976919808,-0.314525160,0.040140730,9.934447290,-0.072579090,0.108952820,-0.091943140
1640792902981220096,-0.282665280,0.097403500,10.196762080,-0.117895010,0.152561070,-0.069488590
1640792902982369792,0.158881160,0.368068340,9.478898050,-0.136800110,0.076225400,-0.052312030
1640792902986139904,-0.095195140,0.307756160,10.478382110,-0.100286300,0.078600640,-0.059019020
1640792902986660096,0.001508310,0.471669520,9.807622910,-0.080965470,0.149372220,-0.063006580
1640792902991180032,-0.220553090,0.444001440,10.164072040,-0.064037740,0.006964800,-0.074884300
1640792902991629824,-0.411938880,0.278788000,10.186687470,-0.076028710,0.061130530,-0.065504010
1640792902996239872,0.085819360,0.510866820,8.964945790,-0.117304940,0.144769270,-0.063072140
1640792902996989952,-0.292645450,0.640422700,10.580602650,-0.160044420,0.101877750,-0.054384770
1640792903001220096,-0.142731220,0.775205140,10.206739430,-0.205062340,0.136104230,-0.038845840
1640792903001750016,0.143744130,0.598209260,9.548003200,-0.165966170,0.025244060,-0.058151780
1640792903006149888,-0.335860160,0.235541400,10.530756950,-0.066950920,0.055773560,-0.056868800
1640792903006830080,-0.046000990,0.349865530,9.299724580,-0.070820760,0.127254430,-0.056566300
1640792903011459840,-0.161314560,0.098421920,9.932662960,-0.154143590,0.046235320,-0.035111600
1640792903012399872,-0.103183550,0.015959860,10.066136360,-0.225271280,0.149711970,-0.029970710
1640792903016300032,0.300216650,0.195080760,9.352317810,-0.208386820,0.129345060,-0.043816870
1640792903016999936,-0.184767320,-0.031437070,10.713474270,-0.118377810,0.058829780,-0.043106080
1640792903021209856,-0.043597370,0.088274760,9.702052120,-0.080783650,0.090400880,-0.068233890
1640792903021719808,-0.030301700,-0.018309650,9.601216320,-0.086872290,0.027157370,-0.080434980
1640792903026129920,-0.328120860,-0.088823150,9.963462830,-0.124932840,0.128836940,-0.050802530
1640792903026769920,0.084028590,0.262367960,9.238997460,-0.178594890,0.164601220,-0.058583920
1640792903031299840,-0.165188100,0.181771470,10.520133020,-0.170651080,0.096954410,-0.040960310
1640792903034979840,-0.149918940,0.306227120,9.936052320,-0.109314920,0.095024700,-0.032663350
1640792903036249856,-0.058587130,0.178021970,9.480571750,-0.057214500,0.012102720,-0.055544080
1640792903038029824,-0.411694410,-0.169755030,10.023529050,-0.042872130,0.108121340,-0.051879890
1640792903041139968,-0.218315660,0.024648190,9.561640740,-0.080922250,0.151245310,-0.068105760
1640792903041570048,-0.430854230,0.047123230,10.591936110,-0.123450180,0.045479850,-0.064243390
1640792903046200064,-0.206438170,0.242078210,9.724092480,-0.163459780,0.088176140,-0.038635730
1640792903046929920,0.076529460,0.539986850,9.502038960,-0.136838850,0.082708920,-0.065402690
1640792903051360000,-0.391947060,0.385427090,10.697385790,-0.086000560,0.111372780,-0.056140120
1640792903052229888,-0.133888930,0.458980440,9.608623500,-0.051839650,0.064435590,-0.052653260
1640792903056369920,-0.224095630,0.299577300,10.190171240,-0.059469040,-0.006274880,-0.054214890
1640792903058039808,-0.201605660,0.274855020,9.732537270,-0.124217580,0.124980530,-0.022697450
1640792903061189888,0.130171720,0.596336720,9.437911990,-0.205238180,0.096905230,-0.020752850
1640792903063059712,-0.268061820,0.433081720,10.851924900,-0.210584700,0.075292590,-0.030680000
1640792903067919872,0.103645480,0.410965350,9.483471870,-0.142677130,0.092263530,-0.047273930
1640792903070839808,-0.118902360,0.431782420,10.135729790,-0.056329370,-0.020483140,-0.069366400
1640792903071239936,-0.402007340,0.291070070,10.063941000,-0.098413250,0.099305820,-0.036440790
1640792903072079872,0.104816000,0.271277760,8.859574320,-0.206708890,0.074343380,-0.022095440
1640792903076099840,-0.190843920,0.056792440,10.508716580,-0.222209130,0.078015050,-0.017367310
1640792903076609792,0.093860590,0.121419130,9.567772870,-0.183282810,0.184018880,-0.006501380
1640792903081240064,0.126368090,0.127519740,10.016683580,-0.107957430,0.012400750,-0.034311420
1640792903081920000,-0.409802140,-0.037319280,10.711618420,-0.093710420,0.048524150,-0.041456520
1640792903086159872,0.106484570,0.007402400,8.565836910,-0.126503420,0.039426970,-0.053830450
1640792903086860032,-0.272028300,-0.137089400,9.960294720,-0.135676580,0.044465070,-0.052472950
1640792903091140096,-0.179955680,-0.027580620,9.838975910,-0.153964760,0.229191820,-0.025305160
1640792903091589888,0.096950840,0.155064760,10.036399840,-0.139126150,0.039528300,-0.029644370
1640792903096259840,-0.411150370,0.104994000,10.882225040,-0.108262910,0.001782180,-0.010311600
1640792903097689856,0.120434640,0.145228420,8.672220230,-0.108227140,0.072927770,-0.018718840
1640792903102030080,-0.299524460,-0.096110520,10.020536420,-0.066339970,0.026509170,-0.038617850
1640792903102870016,-0.538515930,-0.062548350,10.321485520,-0.057658560,0.135266810,-0.023359070
1640792903106139904,-0.012736330,0.266020120,9.314675330,-0.091907400,0.025706000,-0.030097370
1640792903106729984,-0.452862740,0.274527670,10.638797760,-0.149762630,0.016622250,-0.013798480
1640792903111599872,-0.049322820,0.524925110,9.538858410,-0.175142270,0.132958590,-0.022843480
1640792903112439808,-0.158273040,0.439645860,10.345133780,-0.105564300,0.016020240,-0.039450820
1640792903117379840,-0.417376310,0.275432050,10.607933040,-0.038193160,0.020450360,-0.018517670
1640792903118160128,0.291913930,0.386727090,8.942803380,-0.053077940,0.038966540,-0.017324090
1640792903121129984,-0.055138420,0.308090240,10.246699330,-0.133338590,0.059531630,0.001215930
1640792903121619968,-0.047119660,0.450879100,10.109160420,-0.228440810,0.142923010,0.029589240
1640792903126129920,0.053699930,0.368250010,10.119544980,-0.208023210,-0.010991100,-0.001913310
1640792903126859776,-0.372477800,0.140792530,10.487428670,-0.085033480,-0.022804740,-0.012116130
1640792903131320064,-0.029806390,0.321358050,9.049886700,-0.042365500,0.058718030,-0.020755830
1640792903133659904,-0.375894610,0.189568620,10.108140950,-0.111360860,0.044897200,-0.028757750
1640792903137039872,-0.243275000,0.075653610,10.019458770,-0.203663100,0.112298130,0.004519520
1640792903138159872,0.157999440,0.200672360,9.742017750,-0.188893080,0.052861880,-0.001086290
1640792903141169920,-0.247382860,0.049330120,10.563334470,-0.131194260,0.031386310,0.004722180
1640792903141880064,0.126678530,0.151444630,9.298462870,-0.103223320,0.028756260,0.004407760
1640792903146279936,-0.005474950,-0.031965520,9.801941870,-0.082913050,0.010660290,-0.021778050
1640792903147229952,-0.172267240,-0.168602840,9.775723460,-0.100782520,0.118106600,-0.008812550
1640792903151129856,0.113679300,0.023316870,9.563130380,-0.117278110,0.062556560,0.013910240
1640792903151559936,-0.406271310,-0.104211670,10.785285000,-0.135442610,0.037980080,0.005173680
1640792903156149760,-0.052151530,0.066500730,9.524892810,-0.124977550,0.037775940,0.011986500
1640792903156709888,-0.310204120,0.044670350,9.954063420,-0.051133340,-0.013302270,-0.008256730
1640792903161639936,-0.574365970,-0.154699430,9.990793230,-0.031109160,0.083571670,-0.024515400
1640792903162819840,-0.158637540,0.009865230,9.484661100,-0.023394820,0.045727190,-0.012387340
1640792903169099776,-0.578270080,0.054180480,10.815782550,-0.054916740,0.012660030,-0.007815660
1640792903169760000,-0.146836440,0.235611410,9.516009330,-0.124923880,0.044879310,0.010590250
1640792903171170048,-0.038898540,0.363981280,9.910651210,-0.092658390,-0.009639560,0.005473200
1640792903171629824,-0.433955100,0.385765250,10.644568440,-0.052163010,0.067731740,-0.013430420
1640792903176159744,0.102715800,0.492700850,9.512922290,-0.037764020,-0.006175040,-0.003793840
1640792903176770048,-0.201492940,0.294258210,10.477402690,-0.014236570,-0.044429300,-0.001192090
1640792903181280000,-0.006585380,0.242414730,9.716306690,-0.077918170,0.072638700,-0.008013840
1640792903182040064,0.161564190,0.441515770,9.773402210,-0.105921920,0.020250680,0.010697540
1640792903186149888,-0.451631100,0.299890820,10.931778910,-0.133104610,0.024116040,0.019223990
1640792903186749952,-0.036425150,0.199210360,9.527999880,-0.105626880,-0.008876620,0.004754960
1640792903191129856,-0.259214580,0.088931140,9.980515480,0.002446770,-0.070001210,-0.000666080
1640792903191599872,-0.389766100,0.078275580,9.842868800,-0.021991130,0.063450630,0.001539290
1640792903196460032,0.100352950,0.174887480,9.412993430,-0.104756650,0.066508360,0.027300420
1640792903197759744,-0.270984800,-0.016705410,10.888234140,-0.126951930,0.013694170,0.027014320
1640792903202169856,0.095419060,0.140358920,9.834134100,-0.098578650,0.025194880,0.026685000
1640792903202989824,0.161413610,0.189603280,9.592694280,-0.025680660,-0.045958170,0.022585690
1640792903206129920,-0.192002420,-0.006554280,10.025951390,-0.018918510,0.031071900,-0.000859800
1640792903206669824,0.203306560,0.095038810,9.247757910,-0.036764150,0.056357680,-0.005444880
1640792903211489792,-0.138015300,0.013303280,10.212692260,-0.035955020,0.011490280,0.016139450
1640792903212630016,-0.147090240,0.002406610,10.074628830,-0.078380110,0.048203760,0.031983860
1640792903217159936,-0.083332490,0.176298480,9.950718880,-0.055809320,-0.013467670,0.025855010
1640792903218349824,-0.522297740,-0.024091460,10.313217160,-0.020423530,-0.022257860,0.029513240
1640792903221120000,-0.262820480,-0.048564100,9.462610240,0.008212030,0.015325840,0.006379190
1640792903221570048,-0.387768810,-0.042685410,9.942955020,0.042027230,0.011482830,-0.004257260
1640792903226169856,-0.381693930,0.015372510,10.226231580,-0.002790990,0.037689510,0.006571410
1640792903226899968,-0.037133530,0.349694010,9.900827410,-0.040826200,-0.019927330,0.029110910
1640792903231239936,-0.115531060,0.336490270,10.061496730,-0.054450330,-0.025308130,0.030434130
1640792903232029952,0.070383240,0.440501930,9.798823360,-0.032906240,0.021822760,0.027236350
1640792903236179712,-0.075172100,0.514087560,10.303100590,0.042274590,-0.012072920,0.028058890
1640792903236610048,-0.248760600,0.266351760,10.350550650,0.023187690,-0.027173760,0.026254350
1640792903241099776,-0.011150330,0.264452670,9.694033620,-0.016562640,-0.037647790,0.028926130
1640792903241550080,-0.172031180,0.246161920,9.859213830,-0.039820380,0.007157030,0.024689730
1640792903246969856,-0.068115410,0.281955780,9.748734470,-0.091578070,0.049200650,0.027836860
1640792903247990016,-0.083795280,0.260774050,10.253635410,-0.036594270,-0.011242920,0.028595320
1640792903251149824,-0.213985850,-0.106460890,10.262885090,0.032757220,-0.031954050,0.009149310
1640792903251559936,-0.057115960,-0.120526470,9.577343940,0.072136520,-0.044569370,0.009891390
1640792903256120064,-0.340783750,-0.021068930,9.973530770,0.024054950,-0.017245120,0.018130240
1640792903256679936,-0.172269750,-0.268020360,9.709880830,-0.077101590,0.039900840,0.022892660
1640792903261289728,-0.008967340,0.000676440,9.955490110,-0.024579470,-0.007787350,0.032337010
1640792903262810112,-0.161345750,0.049601480,10.204524040,0.048337870,0.000908970,0.027447940
1640792903266219776,0.098957120,0.131746680,9.658313750,0.062711540,-0.009487570,0.014880300
1640792903267360000,-0.200808120,0.271433380,10.302947040,0.062453750,-0.045248880,0.012783710
1640792903271129856,-0.191705020,0.029433680,9.855889320,0.014261900,-0.001500550,0.002422930
1640792903271610112,-0.042267350,0.137022030,9.590573310,0.037130720,-0.011517110,0.006771090
1640792903276609792,-0.297096730,0.313582690,10.378763200,0.058607760,-0.001160800,0.010541080
1640792903277479936,-0.052744380,0.481095430,9.874732970,-0.002370780,0.015488270,0.010450180
1640792903281250048,-0.208414910,0.677141670,10.103326800,-0.008648630,-0.062701100,0.024904310
1640792903281929984,-0.291870060,0.366437940,10.112498280,-0.005142390,-0.023327770,0.015488270
1640792903286099968,-0.112488510,0.205313590,9.691448210,0.066338490,0.002925100,0.005277990
1640792903286700032,-0.449844390,0.382120040,10.485603330,0.088135910,-0.049233450,0.013162200
1640792903291249920,-0.109838240,0.329052450,9.797850610,-0.046312810,-0.021590290,0.025144220
1640792903292110080,0.228146880,0.198189590,9.399994850,-0.077983740,-0.001037120,0.019285080
1640792903296569856,-0.134992150,0.184229400,10.621835710,-0.013239680,0.030455000,0.009727480
1640792903297550080,0.034886400,0.218683720,10.151185040,0.041587650,0.000524520,0.002184510
1640792903301169920,-0.132119630,0.162388290,9.955090520,0.061750410,-0.131607070,0.007143620
1640792903301740032,-0.120544200,0.014870270,9.497086520,0.009851160,-0.013548140,0.011405350
1640792903306190080,0.029542570,0.084085270,9.251190190,-0.010244550,0.066955390,0.006267430
1640792903307069952,-0.340952580,0.134802030,10.579297070,-0.013630090,0.001293420,0.024542210
1640792903311190016,-0.143755510,0.112149530,10.259029390,-0.009192530,-0.016257170,0.018586220
1640792903311839744,-0.125843500,0.033692870,9.728728290,0.063999000,-0.085483500,0.010840590
1640792903316279808,-0.327238860,-0.086784730,9.751522060,0.086124230,-0.043113530,-0.002312660
1640792903317939968,-0.153811070,-0.039048060,9.462184910,0.048524140,0.041426710,-0.011752540
1640792903321139712,-0.271493460,-0.040854280,10.157287600,0.037015970,-0.011764460,0.009568030
1640792903321609984,-0.128803450,0.071033730,10.111000060,0.010907650,-0.031289470,0.022609540
1640792903326159872,0.040145620,0.149992180,9.630716320,0.040066250,-0.031703710,0.019983950
1640792903326809856,-0.167826890,0.100029920,10.081930160,0.078380110,-0.021249060,0.011225050
1640792903333199872,-0.258740600,0.100219380,10.203656200,0.095041100,-0.022855400,-0.006698070
1640792903334980096,-0.313284720,0.150290430,9.957175250,0.098319370,-0.076870620,-0.008042160
1640792903336129792,-0.266956120,0.181759270,9.768751140,0.048749160,-0.046597420,0.003588200
1640792903336619776,-0.170005560,0.415930810,9.770401950,0.036188960,0.002671780,0.004297490
1640792903341149696,-0.291005910,0.704956650,10.144145970,0.012303890,-0.024084750,0.006200370
1640792903341670144,-0.211491300,0.731061700,10.099307060,-0.022396450,-0.076453390,0.018894680
1640792903346139904,-0.089545360,0.459784540,9.975220680,0.054390740,-0.047875940,0.012835860
1640792903348039936,-0.133107570,0.344926540,10.090822220,0.103735920,-0.035253170,0.000318880
1640792903352009984,-0.076595660,0.496132080,9.870684620,0.051036490,-0.052630900,0.026395920
1640792903352489984,0.052138780,0.268530250,9.764938350,-0.057680900,-0.032955410,0.039498510
1640792903356519936,0.335835100,0.036883850,9.602722170,-0.089371210,0.028193000,0.020988290
1640792903357260032,0.121746930,-0.004883900,10.330141070,0.042241810,-0.019332770,0.007985530
1640792903361129984,-0.087840400,0.011852390,10.144138340,0.102862710,-0.070472050,-0.004160400
1640792903361510144,0.028062760,0.020990170,9.295652390,0.037558370,-0.089833130,-0.011503690
1640792903366909952,-0.162936960,-0.013687850,9.766375540,-0.011925400,0.001770260,0.005985800
1640792903368120064,-0.105112670,0.076162430,9.647830010,-0.038091840,0.070686650,0.001773240
1640792903371179776,-0.169281590,0.178455700,10.195168500,0.023821000,-0.030677020,0.014495850
1640792903371929856,-0.290069250,0.319172290,10.279739380,0.046426060,-0.051790480,0.008615850
1640792903376189952,-0.103993010,0.195346000,9.310631750,0.041115280,-0.050127510,0.001335140
1640792903376709888,-0.310747390,-0.075012430,9.826797490,0.069034110,-0.028231740,0.003589690
1640792903381760000,-0.170870330,-0.073539500,9.826215740,0.068892560,0.051593790,-0.011418760
1640792903382479872,-0.054791540,-0.026332110,10.054630280,0.046803060,-0.018832090,-0.007556380
1640792903386179840,-0.125368430,0.260699960,10.331912040,0.013582410,-0.031606860,0.006397070
1640792903386939904,0.122080330,0.357052950,9.498469350,-0.017794970,-0.017310680,-0.008577110
1640792903391140096,-0.157899900,0.197121710,9.999882700,0.050911310,-0.046737500,-0.014981630
1640792903391609856,-0.273812950,0.304546300,10.074542050,0.111255060,-0.007084010,-0.032427910
1640792903396620032,-0.302715990,0.338003250,9.805592540,0.077311700,-0.042428080,-0.026993460
1640792903397789952,-0.349317430,0.367177100,10.061144830,0.018076600,-0.046294930,0.012351570
1640792903402390016,-0.047498270,0.512597260,9.622366910,-0.040738280,0.025168060,-0.001446900
1640792903402880000,-0.037293640,0.553125620,10.095275880,-0.035646560,0.005929170,0.001166760
1640792903406189824,-0.164351000,0.503169660,10.452677730,0.017663840,-0.015327340,0.006066260
1640792903406880000,-0.019073480,0.263652440,9.904655460,0.056277220,-0.087231410,-0.030696390
1640792903411160064,-0.091271890,0.090833050,9.674320220,0.075106330,-0.063486400,-0.013025110
1640792903411759872,-0.035928200,0.177686690,9.357732770,-0.006638470,0.031702220,-0.004336240
1640792903417959936,-0.028363530,0.017137070,9.997447010,-0.077202920,0.020393730,-0.012436510
1640792903418649856,0.075300690,0.055313400,9.992959020,-0.044150640,0.011110300,-0.003154580
1640792903421219840,0.059772850,0.113121200,9.901120190,0.037534540,-0.034572180,-0.028614700
1640792903421939968,-0.264881190,0.037989250,10.133786200,0.078156600,-0.048625470,-0.023885070
1640792903426159872,-0.210281540,0.046875460,9.390148160,0.036233670,-0.035578020,-0.026139620
1640792903426669824,-0.303058420,-0.054247470,9.810076710,-0.002235170,-0.014421340,-0.039458270
1640792903431279872,-0.178361270,0.039332240,9.659179690,-0.001859660,0.061687830,-0.008207560
1640792903432090112,0.062687080,0.218425740,9.725663190,0.008699300,0.008064510,-0.010441240
1640792903436120064,-0.146440860,0.152055550,10.610636710,0.033463530,-0.009110570,-0.003884730
1640792903436969984,0.027139180,0.158443540,9.535934450,0.052849950,-0.020346050,-0.002695620
1640792903441179904,-0.180193070,-0.040116830,9.882185940,0.070849060,-0.087368500,-0.028263030
1640792903441629952,-0.283579530,-0.076238140,9.911756520,0.078348820,0.031605370,-0.019839410
1640792903446669824,-0.081354530,0.220795260,9.422187810,0.038830940,0.017678740,-0.034186250
1640792903448240128,-0.376623360,0.424168850,10.661236760,-0.008007880,-0.051878390,-0.021885340
1640792903451479808,-0.034461600,0.638840080,9.455310820,-0.038608900,0.020158290,-0.021450220
1640792903451969792,-0.079426890,0.605470240,9.862635610,0.018940870,-0.047938530,-0.039105120
1640792903456130048,-0.500582340,0.533233280,10.808408740,0.078579770,-0.007024410,-0.007294120
1640792903456719872,-0.119638030,0.396222620,9.360059740,0.050057470,-0.036010150,-0.007829070
1640792903461099776,-0.181562830,0.055642590,10.062399860,0.011482830,-0.086925930,-0.002427400
1640792903461529856,0.053646160,0.152392720,9.496800420,-0.032983720,0.072723630,0.015729670
1640792903466279936,0.312391610,0.077917030,9.402084350,-0.057402250,0.031244760,-0.005145370
1640792903467569920,-0.167520060,-0.140748350,10.884698870,0.006091600,-0.044554480,-0.006590780
1640792903472049920,0.112873130,-0.072351640,9.488907810,0.070315610,-0.036171080,-0.033001610
1640792903472489728,-0.165783060,-0.171703580,9.759037020,0.093197830,-0.102004430,-0.050842770
1640792903476089856,-0.486432370,0.084403250,9.827945710,0.018878280,0.022332370,-0.021094080
1640792903476599808,-0.146150340,0.173677580,9.253544810,-0.061248250,0.037756560,-0.032994150
1640792903481279744,-0.418900700,0.185323190,10.588173870,-0.009933120,-0.023174290,-0.010323530
1640792903481900032,-0.145041120,0.446981940,9.582052230,0.061759360,-0.002592800,-0.001515450
1640792903486389760,-0.043577420,0.253317480,9.689932820,0.078044830,-0.070418420,-0.030957160
1640792903487399936,-0.328625170,0.131168930,10.265395160,0.055590270,-0.004453960,-0.006206330
1640792903491159808,-0.051149340,0.027845990,9.505224230,0.030668080,-0.015757980,-0.022526090
1640792903491699968,-0.157730400,-0.079356200,10.227882390,0.018009540,-0.066952410,-0.030361120
1640792903496290048,0.059783850,0.236764680,9.499779700,0.025437780,0.042238840,-0.006380680
1640792903498249984,0.097655420,0.381506380,9.869655610,0.005245210,-0.017511840,-0.035198030
1640792903501859840,-0.326514480,0.388902540,10.540935520,0.002677740,-0.036217280,-0.013250110
1640792903502869760,-0.118252410,0.433989940,9.337852480,0.028152760,-0.073170660,-0.016717610
1640792903506170112,-0.434295920,0.213038000,10.182426450,0.076980900,-0.079874680,-0.032475590
1640792903506769920,-0.495990280,0.431469170,9.766175270,0.032976270,0.032193960,-0.002694130
1640792903511169792,-0.142513450,0.477732570,9.568283080,-0.054536770,-0.041587650,0.001560150
1640792903511770112,-0.194460870,0.209147200,10.425511360,-0.054268530,0.001703200,-0.007592140
1640792903516339968,0.215882300,0.380597770,9.263837810,0.007261340,0.023955110,-0.005525350
1640792903517449728,-0.039174070,0.102538060,10.393898010,0.042723120,-0.101441150,-0.012946130
1640792903521119744,-0.092710640,-0.129982010,9.809001920,0.028853120,-0.025190410,-0.001783670
1640792903521709824,0.242973360,-0.264459910,8.872753140,0.022466480,-0.054724510,-0.013600290
1640792903526129920,-0.315853150,-0.309840320,10.499854090,0.015531480,-0.009244680,-0.022496280
1640792903526659840,-0.007166600,0.050186750,9.187104230,-0.028298800,0.055338450,-0.005587940
1640792903531599872,-0.137961950,0.015005970,10.237842560,-0.004673000,-0.089651340,-0.023123620
1640792903532480000,-0.548792960,0.032894140,10.500398640,0.063841040,-0.027051570,-0.023648140
1640792903536279808,-0.111323720,0.092357450,8.714784620,0.096988670,-0.070638940,-0.032055380
1640792903537999872,-0.573634980,-0.067085270,10.454257010,0.089187930,-0.069570530,-0.033663210
1640792903541139968,-0.243966190,0.212087440,9.513491630,0.022540990,0.088554630,-0.015506150
1640792903541789952,0.061601190,0.198973220,9.823285100,0.001923740,-0.077606750,-0.009447340
1640792903546599936,-0.144206150,0.257250520,10.603967670,0.021560490,-0.030168890,0.009681280
1640792903548369920,0.438572790,0.362697180,8.903032300,0.050875540,0.015433130,-0.013646480
1640792903551249920,-0.172234090,0.146993940,10.686092380,0.098685940,-0.097374620,-0.025032460
1640792903554050048,-0.352112530,0.219522700,10.031420710,0.066566470,-0.027981400,-0.015431650
1640792903556119808,0.048591430,0.124683670,8.986237530,0.028669830,-0.091883530,-0.019732110
1640792903556699904,-0.493413870,0.245592880,10.549592020,0.015726690,-0.021320580,-0.014179940
1640792903561159936,-0.105941960,0.743387460,9.418240550,-0.039476160,0.060677530,-0.007744130
1640792903561600000,-0.040999000,0.458001290,10.322405820,-0.030913950,-0.074531130,-0.016508990
1640792903570889984,-0.337973740,0.409960660,10.524256710,0.052501260,-0.015981500,-0.012411180
1640792903572120064,0.129004340,0.462184910,9.042588230,0.092771660,-0.081372260,-0.016993280
1640792903572489984,-0.197407360,0.225839440,9.959729190,0.021627550,-0.074516240,0.002710520
1640792903572859904,0.130897630,0.241636810,9.029525760,-0.081591310,0.084224340,0.019189720
1640792903576129792,0.346527400,-0.040465550,9.898130420,-0.054545710,0.004701320,-0.010031460
1640792903576759808,-0.055364240,-0.053615320,10.668268200,0.029695040,0.014215710,-0.001351540
1640792903581689856,0.214772630,0.059710520,9.321480750,0.058640540,-0.061270610,-0.027783220
1640792903583079936,-0.332794100,-0.241871760,10.364864350,0.040698060,-0.089217710,-0.044821200
1640792903586659840,-0.376132640,-0.104133520,9.118390080,-0.000256300,0.019131600,-0.036309660
1640792903587299840,-0.240511400,-0.092649710,9.370358470,0.008414690,-0.029335920,-0.040715940
1640792903591099904,-0.553053380,0.071232170,10.547884940,0.024968390,0.076450410,-0.024570530
1640792903591589888,-0.043359450,0.550135250,9.420191760,0.009240210,-0.002869960,-0.008012350
1640792903596249856,-0.307920900,0.361819680,10.726346020,0.020651520,-0.102695820,0.002790990
1640792903597900032,-0.186648010,0.256312700,9.435266490,0.031659010,0.020752850,-0.001969930
1640792903601309952,0.028567090,0.130604510,9.452182770,0.079607970,-0.052629410,-0.016331670
1640792903602289920,-0.471114870,0.081054520,10.887959480,0.075098880,0.010637940,-0.011466440
1640792903606159872,0.155017900,0.399424490,8.840147020,-0.028145310,-0.003735720,0.004984440
1640792903606950144,0.089195680,0.230169250,10.148254390,-0.042764840,-0.071093450,-0.000575180
1640792903611229952,-0.131572860,0.371881630,10.124434470,-0.014729800,0.091183190,-0.019560750
1640792903612649984,0.097213990,0.412626420,9.515460970,0.034418710,-0.062254080,-0.021171570
1640792903616279808,-0.588320490,0.098525290,11.012722970,0.075179330,-0.091058020,-0.009924170
1640792903617139712,-0.137508330,0.108705000,8.843257900,0.046777730,0.007121270,-0.014431780
1640792903621120000,-0.025926550,0.101989820,9.410497670,0.001050530,-0.048291680,-0.008501110
1640792903621590016,-0.326537820,0.283451440,10.359301570,-0.064477330,0.110489150,0.017783050
1640792903626149888,0.277251570,0.256108760,9.298136710,-0.061379370,0.024501980,0.006023050
1640792903626819840,-0.124008040,-0.040834670,10.861132620,0.063510250,-0.104011620,-0.004565720
1640792903631650048,-0.026375930,0.043282600,9.265232090,0.112897180,0.000247360,-0.010567900
1640792903633049856,0.190008680,-0.035316710,8.877813340,0.061443450,-0.036783520,-0.013150270
1640792903636289792,-0.331452820,-0.118698430,10.432073590,-0.027029220,0.073261570,-0.000171360
1640792903638010112,0.175714300,0.093412210,9.254838940,-0.051617630,0.072094800,-0.004537400
1640792903641100032,-0.045013280,-0.041892910,10.432563780,0.041021410,-0.057375430,0.001940130
1640792903641569792,-0.353957620,0.132678050,9.894474980,0.100770590,0.025856490,-0.016964970
1640792903646159872,-0.156633110,0.222565860,9.186783790,0.082425770,-0.068636250,-0.033886730
1640792903646729984,-0.630872730,-0.036348690,10.178316120,0.043433910,-0.005087260,-0.025399030
1640792903651310080,-0.189487460,0.158374130,9.105825420,0.014315550,0.075396900,-0.011460480
1640792903652369920,-0.147035720,0.234981160,10.398875240,0.041197240,-0.013095140,-0.006283820
1640792903656129792,-0.244261150,0.543091000,10.280172350,0.011877720,0.045159470,-0.006589290
1640792903656659968,0.136479270,0.696160260,9.385021210,-0.011192260,-0.071477890,-0.006648900
1640792903661190144,-0.251694530,0.232768600,10.406271930,0.035513940,-0.039064880,-0.008687380
1640792903661679872,-0.094513420,0.174751120,9.176609040,0.081236660,0.038532910,-0.033037370
1640792903666289920,-0.121266930,0.297155620,10.104644780,0.079600520,-0.054509940,-0.018008060
1640792903670269952,-0.281279860,0.327785610,10.137466430,-0.042878090,0.062711540,0.005193060
1640792903671229952,0.186983440,0.376257900,9.159392360,-0.110693280,-0.016751890,-0.010977690
1640792903671689984,-0.298132180,0.269710660,10.767848970,-0.020985300,-0.030529500,-0.010278820
1640792903676559872,-0.195862430,0.295685920,9.390757560,0.044715400,0.044390560,-0.027598440
1640792903677270016,-0.111317250,0.252511950,9.690237050,0.075368580,-0.108985600,-0.018000600
1640792903681519872,-0.307710530,0.086914660,10.043434140,0.004491210,0.047771640,-0.000467900
1640792903682629888,0.278652070,0.189991590,8.712160110,-0.074842580,0.070986160,-0.006732350
1640792903686169856,-0.129015710,0.190697130,10.832488060,-0.063239050,-0.014808770,0.018368660
1640792903686749952,-0.028269400,0.157500980,9.838871960,-0.039680300,0.066395100,0.002673270
1640792903691099904,0.180312400,-0.055927600,9.470574380,0.044311580,-0.106188660,-0.025123360
1640792903691910144,-0.455612600,-0.209599820,10.344520570,0.102067010,-0.013515360,-0.025428840
1640792903696139776,-0.082010250,-0.164200560,8.571670530,0.034523010,0.053645670,-0.040990110
1640792903696919808,-0.378356580,-0.162066520,10.317828180,-0.017663830,-0.041154020,-0.017672770
1640792903701339904,-0.507977130,0.067624330,10.246433260,-0.056058180,0.067557400,-0.002823770
1640792903702220032,-0.017486900,0.180876810,9.333959580,0.000563260,-0.071601570,-0.014914580
1640792903706159872,-0.466711970,0.265646010,10.636014940,0.084657970,-0.054420520,-0.018639860
1640792903707729920,-0.185667440,0.449836490,9.297699930,0.057791180,0.052352260,-0.030082470
1640792903711139840,-0.167973800,0.359334980,10.173377040,0.035983330,-0.068920850,-0.016032160
1640792903711609856,-0.345418100,0.342168270,10.296789170,-0.007043780,-0.002716480,0.005081300
1640792903716219904,0.300348940,0.387528180,8.864614490,-0.014182930,-0.013366340,-0.009292360
1640792903717039872,-0.090734270,0.488655840,10.379841800,-0.010526180,-0.006447730,-0.008559230
1640792903721129984,-0.127269790,0.546237890,9.890595440,-0.036846100,0.037026410,-0.011883680
1640792903721570048,0.011515420,0.137483540,9.979529380,0.003540520,-0.109459460,-0.020812450
1640792903726259968,-0.397386790,-0.060689830,10.260992050,0.071498750,-0.035545230,-0.022628900
1640792903726799872,-0.124930470,0.153888420,8.973053930,0.025722380,-0.005614760,-0.030852860
1640792903731469824,-0.286356960,0.252923490,10.130346300,-0.076694780,-0.024223320,0.003281240
1640792903732290048,-0.097089980,0.210455730,9.586861610,-0.128799650,0.066937510,0.013044480
1640792903736989952,0.190338160,0.138349790,9.814186100,-0.008426610,-0.039693710,0.000868740
1640792903737499904,-0.265974160,0.075309760,10.509096150,0.102980440,-0.036287310,-0.000354650
1640792903741369856,0.010429530,0.067787070,8.969470980,0.048573310,-0.054250660,-0.010968740
1640792903741989888,-0.216244730,-0.044927170,10.052490230,-0.016008320,-0.069527330,-0.000348690
1640792903746179840,-0.259876160,-0.064415900,9.578325270,-0.067210200,0.073497000,-0.010877850
1640792903746860032,0.051348910,0.190183740,9.499679570,-0.019273160,-0.040194380,-0.015470380
1640792903752029952,-0.349601270,0.338592140,10.747308730,0.023512540,-0.016470250,-0.011301040
1640792903752489984,0.042789440,0.431448460,9.183788300,-0.005294380,-0.004728140,-0.023962560
1640792903756379904,-0.259578590,0.257859110,10.395275120,0.021095570,-0.100532180,-0.003649290
1640792903757179904,-0.515512590,0.108173930,10.051319120,0.016614790,0.012467800,-0.002188980
1640792903761099776,-0.013667620,0.187036020,9.028499600,0.007267300,-0.067870320,-0.013504920
1640792903761609984,-0.368189630,0.382368420,10.630395890,-0.026421250,-0.033944850,0.016677380
1640792903767510016,0.209361490,0.434638080,9.245983120,-0.103227800,0.066787000,0.005671380
1640792903768450048,0.289986970,0.324236810,10.073765750,-0.039927650,-0.065186610,-0.005054470
1640792903771119872,-0.193370540,0.378303590,10.685383800,0.030620400,0.004097820,-0.005199020
1640792903771579904,0.173144500,0.276403610,9.083784100,0.002962350,-0.064329810,0.006307660
1640792903776109824,-0.271832590,0.021729770,10.177076340,-0.017264490,-0.106327240,0.020475690
1640792903776649984,-0.170916330,-0.078643310,9.264107700,-0.054287910,0.068621340,0.011028350
1640792903781449984,0.122260850,-0.081254900,9.313117030,-0.020113590,0.010634960,0.014436250
1640792903782219776,-0.369839700,-0.025126160,10.754726410,-0.008399780,0.027188660,0.015616420
1640792903786149888,0.066389350,0.023209110,9.457299230,-0.020220870,-0.024530290,-0.001887980
1640792903787849984,-0.177656190,-0.169127050,10.046418190,0.036440790,-0.117196140,0.008444490
1640792903791169792,-0.422536310,-0.137641040,9.550900460,0.043042000,0.001268090,-0.004285570
1640792903791649792,-0.077235120,-0.001409650,9.169086460,0.019806620,-0.013282900,-0.020690260
1640792903796519936,-0.386033770,0.091689420,10.492886540,0.008264180,0.015591090,-0.002713500
1640792903797999872,0.016165380,0.409757610,9.533935550,-0.022765990,0.005796550,0.007444620
1640792903802219776,0.077225610,0.406415490,10.079029080,0.009602310,-0.056356200,0.012110170
1640792903802860032,-0.190523590,0.316378150,10.116105080,0.023609400,0.012414160,0.015969570
1640792903806180096,-0.055666870,0.190911100,9.645171170,0.053767860,-0.061666970,0.002209840
1640792903807059968,-0.361171930,0.032473140,10.255540850,0.056645270,-0.052392490,0.002835690
1640792903811159808,-0.121642020,0.081391920,9.267134670,-0.003816190,0.018069150,0.002615150
1640792903811589888,-0.118537020,0.256853310,10.086396220,-0.017787510,-0.032290820,0.001654030
1640792903816279808,-0.296585920,0.485181540,10.281660080,-0.057098280,0.012013320,0.009530780
1640792903817090048,0.031143700,0.444923820,9.448914530,-0.045718250,-0.068926820,-0.000649690
1640792903821250048,-0.257414670,0.312329740,10.495778080,0.056086490,-0.051926080,0.003013020
1640792903821920000,-0.187005590,0.331719280,9.544256210,0.055764630,0.021772090,0.013126430
1640792903826129920,-0.081737460,0.286620860,9.706968310,-0.006707010,-0.091668970,0.037501750
1640792903826729984,-0.116244080,0.182485880,9.946702000,-0.094957660,0.034520030,0.045394900
1640792903831259904,0.331630410,0.033076830,9.060161590,-0.080011790,0.033687060,0.025686620
1640792903832049920,-0.014611450,0.083615970,10.499721530,0.036169590,-0.037877260,0.022883720
1640792903836189952,-0.100437620,0.087038010,9.889164920,0.024224820,0.010776520,0.001768770
1640792903836879872,0.049142210,-0.118372250,9.412347790,0.014285740,-0.094890600,-0.001661480
1640792903841090048,-0.337212440,-0.145553960,10.146125790,0.014978650,-0.003360210,0.002513830
1640792903841559808,-0.040476400,-0.014382110,9.007105830,-0.020879500,0.075922910,-0.002257530
1640792903846419712,-0.221812680,0.092418510,10.183994290,-0.011485810,-0.024455790,0.014078620
1640792903847579904,-0.304366500,0.274131570,10.216903690,-0.008311870,0.014996530,0.017727910
1640792903851150080,-0.006275540,0.118009410,9.273754120,0.029730800,-0.054323680,0.016963480
1640792903851619840,-0.397270350,-0.007684690,10.123053550,0.076897440,-0.037008520,0.013326110
1640792903856139776,-0.208411540,0.027507050,9.632767680,0.046306850,0.048172490,-0.002017620
1640792903856849920,-0.120195020,-0.037840930,10.056256290,0.041382010,-0.022730230,0.015848880
1640792903861129984,-0.174419250,0.136387150,10.174144740,-0.005000830,-0.012487180,0.017838180
1640792903861649920,0.170308560,0.243118640,9.355682370,-0.017881390,-0.011622900,0.004152950
1640792903866279936,-0.113119650,0.260527370,10.108667370,0.037586690,-0.020979350,-0.002554060
1640792903868140032,-0.283683480,0.327946870,10.083033560,0.053349140,-0.004993380,-0.002221760
1640792903871310080,-0.305592450,0.180976900,9.926535610,0.061349580,-0.069132450,0.003542010
1640792903871919872,-0.445142950,0.195744230,9.970377920,0.055520230,-0.050316750,0.012059510
1640792903876080128,-0.187603760,0.471482520,9.382906910,-0.016514960,0.008338690,0.020866100
1640792903876639744,-0.105937480,0.457135980,9.855381970,-0.051224230,0.022390480,0.032261010
1640792903881319936,0.112913900,0.231347200,9.986342430,-0.035418570,0.035402180,0.021551550
1640792903882069760,0.175450250,0.013097890,10.097024920,0.089274330,-0.047846130,0.008399780
1640792903886249984,-0.014351830,-0.059505120,9.946975710,0.132478770,-0.066420440,-0.002045930
1640792903887019776,0.018053440,-0.074925530,9.143392560,0.001733000,-0.026892120,0.008486210
1640792903891089920,-0.128712070,-0.199917290,9.688979150,-0.058288870,0.004135070,0.005936620
1640792903891619840,-0.091576720,-0.108583480,9.769997600,-0.023250280,0.062236190,-0.000226500
1640792903896620032,-0.097110820,0.045574680,9.932250980,0.067923970,-0.010661780,0.004854800
1640792903898159872,-0.379727270,0.150079310,10.367506030,0.106449430,-0.040760640,0.001485650
1640792903901440000,-0.281548680,0.124362280,9.492477420,0.054070350,-0.044924020,0.002104040
1640792903902469888,-0.439676730,0.029261490,9.612846370,0.048047300,-0.062796470,0.024575000
1640792903906129920,-0.320796520,0.095174880,9.664103510,0.036285820,0.037302080,0.012004380
1640792903906889984,0.007378020,0.249238650,9.742695810,0.047314170,0.031401220,0.010962780
1640792903911119872,-0.136326920,0.491312000,10.512519840,0.051558030,-0.029712920,0.020051000
1640792903911680000,0.136498450,0.577799620,9.768234250,-0.009195510,-0.024384260,0.011275710
1640792903916420096,0.037749820,0.320930810,9.721872330,0.027574600,-0.052669640,0.011907520
1640792903917609984,-0.312668030,0.191534430,10.213897710,0.087384870,-0.029210750,-0.001636150
1640792903921159936,-0.215438410,0.216760080,9.545454980,0.070630010,-0.021706520,0.005829330
1640792903921649920,-0.209804760,0.145728300,9.641502380,0.021147730,-0.045692920,0.029827650
1640792903926169856,-0.046710340,0.227457030,9.795889850,-0.038059060,0.052899130,0.017274920
1640792903926769920,-0.011418550,0.303090070,9.913114550,-0.021886830,0.033137200,0.016227360
1640792903931360000,-0.272027610,0.259353580,10.425968170,0.028947000,-0.081354390,0.023794170
1640792903933369856,-0.138672470,0.066207210,9.680022240,0.068782270,-0.069801510,0.007940830
1640792903937639936,-0.071442220,-0.125802440,9.198016170,0.110873580,-0.033484400,0.003673140
1640792903938299904,-0.180588560,0.061176850,9.681580540,0.042416160,0.017708540,0.007016960
1640792903941120000,0.032775940,0.179322290,9.729873660,-0.058405100,0.043877960,0.025908650
1640792903941589760,0.156825910,-0.008660320,10.028712270,-0.037831070,-0.002880400,0.027836860
1640792903946729984,0.045607010,-0.035829990,10.277351380,0.083936750,-0.041447580,0.005064900
1640792903948259840,-0.151970970,-0.045966070,9.583525660,0.168074670,-0.054574020,-0.006598230
1640792903953179904,-0.297718440,-0.057188220,9.351174350,0.094150030,-0.075970590,-0.006894770
1640792903953670144,-0.341646520,0.003833940,9.649981500,0.001960990,0.018474460,0.002035500
1640792903956089856,-0.204602540,0.062001310,9.641216280,-0.010527670,0.039768220,0.007776920
1640792903956640000,-0.090900030,0.274049550,10.211830140,0.041656200,-0.014737250,0.012080370
1640792903961159936,-0.129470150,0.448448120,10.218010900,0.108261420,-0.019386420,0.002284350
1640792903961720064,-0.052635590,0.512162510,9.765974040,0.079032780,-0.062362850,-0.005760790
1640792903966490112,-0.226377900,0.305644150,9.887502670,0.033232570,-0.052499770,0.018464030
1640792903967759872,-0.195691290,0.041419280,9.610448840,0.057749460,-0.008235870,0.014846030
1640792903972169984,-0.079711650,0.170250950,9.797236440,0.067022450,-0.008928780,-0.001238290
1640792903972679936,-0.130110130,0.503240700,9.922536850,0.017175080,-0.018298630,0.023631750
1640792903976130048,0.008883290,0.439892530,9.707015990,-0.054095700,-0.015878680,0.009310250
1640792903976599808,-0.051828590,0.238000840,10.021883010,-0.005713110,-0.022582720,-0.003200770
1640792903981479936,-0.340151190,0.156781630,10.095362660,0.115440800,-0.057673470,-0.001557170
1640792903983660032,-0.266217860,0.134994150,9.770016670,0.091522930,-0.062339020,-0.007039310
1640792903986209792,-0.169723150,0.092455620,9.418006900,-0.001014770,-0.018827610,0.020854170
1640792903986860032,-0.045609970,0.009615510,9.524665830,-0.037352740,0.019820040,0.022900110
1640792903991119872,0.081294830,0.041336160,9.847829820,-0.011312960,0.042392310,0.006285310
1640792903991629824,0.029223920,0.029105020,9.958195690,0.058446830,-0.025343900,0.008839370
1640792903996589824,-0.027533390,-0.002362930,10.128502850,0.099018220,-0.077833240,-0.007003550
1640792903998919936,-0.133796540,-0.089959770,9.600068090,0.094306470,-0.043547150,-0.008416180
1640792904001369856,-0.256519290,-0.032932690,9.309206960,0.044405460,-0.028203430,-0.005313750
1640792904002169856,-0.268890860,0.152029050,10.018335340,-0.005714600,0.032122430,-0.006626550
1640792904006099968,-0.222935110,0.302664100,9.962781910,0.011359160,0.021417440,0.001543760
1640792904006819840,-0.100835870,0.380272510,9.934590340,0.059561440,-0.072892020,-0.001154840
1640792904011180032,-0.211226760,0.340071170,10.033956530,0.094218560,-0.022122260,-0.000521540
1640792904012399872,-0.264262650,0.209718990,9.629305840,0.098127130,-0.027564170,-0.002789500
1640792904016199936,-0.326967060,0.178381800,10.236278530,0.048454110,-0.073316690,0.003410880
1640792904016839936,-0.238942180,0.208402190,9.775691030,0.004389880,-0.003708900,0.010851020
1640792904021080064,0.049049660,0.242029290,9.441249850,0.006571410,-0.019937760,0.011968610
1640792904021590016,-0.071697260,0.500200570,10.353268620,0.024600330,-0.013789530,-0.003270810
1640792904026139904,0.022737300,0.544738890,9.718375210,0.018651780,-0.007429720,0.001756850
1640792904026769920,0.067194940,0.247738180,9.901475910,0.016258660,-0.081294770,-0.001694260
1640792904034149888,-0.205031870,0.094918070,10.231333730,0.061957550,-0.028775640,-0.003135200
1640792904034979840,-0.059483960,0.128128330,9.407887460,0.053024300,-0.017727910,0.005503000
1640792904036150016,-0.096168090,0.257356610,9.899414060,-0.035376840,-0.027830900,0.028815860
1640792904036890112,-0.079797450,0.085304890,9.737036710,-0.064201660,0.046978880,0.029633940
1640792904041100032,0.121557380,-0.098887120,9.607363700,0.013162200,-0.008286530,0.010691580
1640792904041590016,-0.260482190,-0.021265730,10.327497480,0.117847310,-0.049516550,0.015777350
1640792904046119936,-0.268201470,-0.104610750,9.501556400,0.087055570,-0.049875680,0.011467930
1640792904046779904,-0.187321990,-0.174160080,9.658641820,0.000853840,-0.052303080,0.004129110
1640792904051249920,-0.363402160,-0.070983260,9.853498460,-0.000590090,0.034140050,0.022485850
1640792904052659968,0.020832060,-0.041601300,9.605151180,0.039850180,0.019557770,0.009547170
1640792904056119808,-0.102045160,0.220035810,10.328886990,0.085365760,-0.013515350,0.001229350
1640792904056619776,-0.121605190,0.295577590,9.769832610,0.079219040,-0.051604220,0.020833320
1640792904061189888,0.019768460,0.032765170,9.596996310,0.064389420,-0.061219930,0.012673440
1640792904061709824,-0.353766350,0.071775490,9.812028880,0.073143850,0.004015860,0.012856720
1640792904066319872,-0.213079450,0.097538550,9.791985510,0.074690590,-0.018255410,0.005543230
1640792904067409920,-0.260255340,0.293619990,10.251651760,0.043137370,-0.028030580,0.007091460
1640792904071139840,-0.238570940,0.392495450,9.645089150,0.013646480,-0.028128920,0.016051530
1640792904071689728,-0.073160460,0.311314170,9.953817370,0.036114450,-0.035297870,0.002637510
1640792904076209920,-0.384262000,0.353782860,10.257868770,0.083388390,-0.007513170,-0.005355480
1640792904077619968,-0.286487640,0.369549600,9.713556290,0.077557560,-0.085385150,0.009559100
1640792904081509888,-0.193087890,0.343300880,9.989323620,0.016388290,-0.069759780,0.020481640
1640792904082739712,-0.101944970,0.288864280,9.496389390,-0.001877550,0.010535120,0.020091240
1640792904086459904,0.142576550,0.396889180,9.833246230,-0.000271200,-0.016199050,0.015394390
1640792904087179776,0.002029740,0.508520130,10.414375310,-0.001250210,0.009840730,0.011809170
1640792904091279872,0.049026570,0.278940020,9.716129300,-0.000594560,-0.056219100,0.010144710
1640792904092339968,-0.046755730,0.190959530,10.138900760,0.043609740,-0.099876540,0.011993950
1640792904096119808,-0.234356780,0.148989130,9.460273740,0.035192070,-0.008431080,0.016121560
1640792904096699904,-0.047203010,0.033427440,9.203932760,-0.022928410,-0.017134850,0.035552680
1640792904101359872,-0.245031920,0.042907410,10.393144610,-0.032199930,0.010988120,0.019815560
1640792904101889792,-0.065638330,-0.009264490,9.618142130,-0.003151600,0.014185910,0.014218690
1640792904106099968,-0.069993530,-0.018195630,10.070073130,0.051255530,-0.088368360,0.026530030
1640792904106739968,-0.433324190,-0.055705090,10.183049200,0.057925300,-0.042058530,0.015574690
1640792904111099904,-0.085799260,-0.230342240,9.063866620,0.031867620,-0.067031390,-0.004565720
1640792904115039744,-0.211275650,-0.125913280,9.889022830,0.037886200,-0.029870870,0.001327690
1640792904116139776,-0.155186980,0.017169230,9.611604690,0.030104820,0.064262750,0.002369280
1640792904116659968,0.132755940,0.097284890,9.934249880,0.034868720,-0.053355100,0.010706480
1640792904121149952,-0.299110800,0.259011780,10.488850590,0.045688450,-0.064292560,0.015616420
1640792904121669888,-0.075034910,0.134082480,9.188977240,0.049249840,-0.070928040,0.015431640
1640792904126139904,-0.278986390,-0.003163080,9.932894710,0.093069680,-0.068858270,0.013470650
1640792904126809856,-0.583999690,0.110820160,10.089237210,0.095859160,0.014534590,-0.008636710
1640792904131859968,-0.178897100,0.260793150,9.715623860,0.038938220,-0.072102260,0.002083180
1640792904132640000,-0.314420460,0.372583780,10.140557290,0.002563000,-0.065711130,0.009712580
1640792904137309952,-0.101436140,0.417292860,9.496739390,0.008156900,-0.021165610,-0.008398290
1640792904137949952,-0.057629640,0.528338020,10.142655370,0.055338440,-0.060282650,-0.000448520
1640792904141189888,-0.406663390,0.396273670,10.345992090,0.066578400,-0.072470310,0.010390580
1640792904141749760,0.043476990,0.233040790,9.442617420,0.056314480,-0.113798700,0.015655160
1640792904146419968,0.057010880,0.188763220,9.774417880,0.038735570,-0.028751790,0.024899840
1640792904147990016,-0.042097810,0.285837200,9.697003360,-0.021114950,0.018835070,0.023056570
1640792904151160064,0.126943840,0.242997300,10.061631200,-0.042921310,-0.073073800,0.031915310
1640792904152029952,-0.155182180,-0.003036590,10.078832630,0.019989910,-0.067359210,0.000604990
1640792904156450048,-0.041158540,-0.109819370,9.398771290,0.101107350,-0.093395990,-0.012105700
1640792904157169920,-0.241704150,-0.036632610,9.945201870,0.098638240,-0.053870680,-0.003774460
1640792904161149952,-0.336647120,-0.042857120,9.471290590,-0.004164880,0.000749530,0.002223250
1640792904161589760,-0.004216700,0.069852900,9.793878560,-0.031323720,-0.062294300,0.022383030
1640792904166159872,-0.134346540,0.129572170,10.010760310,0.015662610,0.006052850,0.014843050
1640792904167029760,0.027423270,0.109091680,9.414440160,0.071305040,-0.061486670,0.001519920
1640792904171959808,-0.162689830,0.109320980,10.298169140,0.118653470,-0.096040950,0.007456540
1640792904173349888,-0.282226770,-0.106028120,9.484858510,0.080862650,-0.029498340,-0.019031760
1640792904176100096,-0.035410280,-0.104116090,9.469916340,0.044646860,-0.088572500,-0.007624930
1640792904176610048,-0.276810410,0.000823080,10.249492650,0.042060030,0.012812020,0.002372270
1640792904181700096,-0.029184590,0.137369540,9.519376750,0.029039380,-0.007861850,-0.013087690
1640792904182429952,-0.119894270,0.469968230,10.477551460,0.054605310,-0.124841940,0.012424590
1640792904186119936,-0.293904960,0.393643290,9.741544720,0.049725170,-0.034016370,-0.006397070
1640792904186880000,-0.065258290,0.224308060,9.395620350,0.082238020,-0.082205240,-0.015799700
1640792904191139840,-0.533787910,0.406850040,10.625521660,0.106254240,-0.056898600,-0.001950560
1640792904191619840,-0.251873110,0.392890070,9.435924530,0.013469160,-0.034517050,0.006647410
1640792904196139776,0.078805820,0.416141570,9.782001500,-0.025609140,-0.093427300,0.029203300
1640792904196760064,-0.128608540,0.462205980,10.192997930,-0.005888940,0.017215310,0.008602440
1640792904204099840,0.178722310,0.364585580,9.605643270,0.031201550,-0.035446890,0.005336110
1640792904206119936,-0.116387090,0.266563560,10.476965900,0.073938080,-0.135663170,0.020919740
1640792904207219712,-0.091945300,-0.003025450,9.363015170,0.038488210,-0.058859590,0.006835160
1640792904207749888,0.277856410,-0.070664540,9.126995090,0.020198520,-0.034038730,0.024615230
1640792904211099904,-0.231963070,0.010102790,10.246544840,-0.002507870,0.019559260,0.028236210
1640792904211609856,0.034043890,-0.001312220,9.828374860,-0.034663080,-0.008884070,0.018423800
1640792904216219904,-0.006645510,0.090790140,10.326767920,0.029544530,-0.100667770,0.027413670
1640792904217020160,-0.372124520,0.028820990,9.711590770,0.073185560,-0.065493590,0.007997450
1640792904221189888,-0.010544480,0.051448260,9.062962530,0.072495640,-0.059424350,0.001950560
1640792904222289920,-0.324189720,0.136350660,9.870659830,0.046393270,0.032788510,0.013078750
1640792904226129920,-0.156076220,0.061106900,9.674501420,0.004151460,-0.000810620,0.018182400
1640792904226660096,0.037813120,0.162017780,10.107792850,0.036481030,-0.075809660,0.038267670
1640792904231420160,-0.147570860,0.067230420,9.702387810,0.048790880,-0.014470520,0.029689080
1640792904232539904,-0.008229020,-0.070566830,9.826956750,0.079765920,-0.065024200,0.020393730
1640792904238859776,-0.349459620,-0.066522820,10.235678670,0.108158600,-0.040245060,0.013491510
1640792904239529728,-0.201638790,-0.125799670,9.107887270,0.078740720,-0.055222220,0.006161630
1640792904241129984,-0.094953960,0.029459170,9.918258670,0.081552570,-0.040389600,0.029169020
1640792904241709824,-0.282904770,0.282234040,9.968532560,0.040820240,0.033696000,0.002910200
1640792904246099968,-0.082837690,0.470269410,9.865058900,0.020451850,-0.094114240,0.013825300
1640792904246870016,-0.248635470,0.544832590,10.446173670,0.072065000,-0.072246790,0.019034740
1640792904251209984,-0.181173980,0.380183160,9.344885830,0.094893580,-0.036917630,-0.010374190
1640792904255650048,-0.179811690,0.584365960,10.100065230,0.110505520,-0.078481440,0.029167530
1640792904256079872,-0.320296410,0.586300970,10.089510920,0.025248520,0.005489590,0.038301940
1640792904256609792,0.122739900,0.319640580,9.219419480,-0.036850580,-0.059956320,0.033462050
1640792904261090048,-0.043616380,0.531102780,10.464840890,0.012661520,-0.044496360,0.036278370
1640792904261619968,-0.164262950,0.390390370,9.775877000,0.018002090,0.000169870,0.011882190
1640792904266209792,-0.025246040,0.255079450,9.854464530,0.034339730,-0.149913150,0.026072560
1640792904268319744,-0.268206000,0.217405530,10.075720790,0.045293570,-0.047737360,0.019332770
1640792904271159808,0.047339740,0.028441940,8.999896050,-0.007729230,-0.003246960,0.002896790
1640792904271819776,-0.018960680,0.254609700,10.272879600,-0.017856060,-0.032761700,0.044572350
1640792904276160000,-0.189814480,0.172041180,10.274730680,-0.046320270,0.018939380,0.041945290
1640792904276800000,0.149241630,-0.000530290,9.628450390,0.002290310,-0.112071640,0.035740440
1640792904281119744,-0.182085770,0.078730790,9.973168370,0.090993950,-0.082030890,0.028710070
1640792904281769984,-0.140370340,-0.065978720,9.018525120,0.042466830,0.011697410,-0.000482800
1640792904286219776,-0.165884520,0.018181440,9.939464570,0.005814430,-0.048686560,0.030079490
1640792904287069952,-0.405266610,0.109782670,10.176412580,-0.020155310,-0.016644600,0.032366810
1640792904291159808,-0.012262420,0.038740790,9.493920330,0.001873080,-0.079159450,0.030231480
1640792904291640064,-0.161334080,0.357231650,10.164934160,0.058908770,-0.039504470,0.034819540
1640792904296059904,-0.310748930,0.364039090,9.974466320,0.023216010,-0.002443790,0.011502210
1640792904296669952,-0.178453560,0.205525460,10.117192270,0.027190150,-0.102296480,0.027509030
1640792904301709824,-0.259385500,0.269745050,9.752239230,0.048916050,-0.062738370,0.024025150
1640792904304909824,-0.032917190,0.211981430,9.328516010,0.027675920,-0.048191850,0.020875030
1640792904306459904,-0.064096880,0.566530410,10.124710080,-0.001910330,-0.003111360,0.042571130
1640792904307819776,-0.127179650,0.621144350,9.931278230,-0.078544040,-0.030133130,0.035558640
1640792904311120128,-0.017362450,0.324797150,10.266104700,-0.035855170,-0.111828770,0.040599710
1640792904311679744,-0.148956060,0.383701410,9.983608250,0.055961310,-0.039640060,0.033175950
1640792904316699904,-0.176004660,0.181386020,9.630299570,0.033193830,-0.062342000,0.032995640
1640792904318799872,-0.135566820,0.216274310,10.040328980,-0.018604100,-0.050733990,0.055161120
1640792904321169920,-0.007249900,0.158784430,9.237621310,-0.084279480,-0.013530260,0.048433240
1640792904322880000,0.114304320,-0.014376700,9.834982870,-0.053456440,-0.053182260,0.052399930
1640792904326089984,-0.094013120,0.216763470,10.281433110,0.010691580,-0.003746150,0.044710940
1640792904326669824,-0.067983150,-0.007045150,9.739510540,0.003044310,-0.094094880,0.020132960
1640792904331620096,-0.131735500,-0.063906520,10.113440510,0.028434400,-0.112035880,0.029504300
1640792904333509888,-0.056682630,0.078550200,9.142738340,0.001600390,0.038418180,0.016905370
1640792904336580096,-0.073942150,-0.125341030,9.841008190,-0.026877220,-0.017830730,0.038729610
1640792904337280000,-0.286197990,0.197742580,10.523502350,-0.003233550,-0.037343800,0.049650680
1640792904341120000,0.001309450,0.161301790,9.166434290,-0.006514790,-0.087128590,0.040003660
1640792904341859840,-0.147758920,-0.034761570,9.836018560,0.037284200,-0.073425470,0.050695250
1640792904346159872,-0.266758530,0.142341360,9.923444750,0.050438950,0.046299400,0.017753250
1640792904346849792,-0.188333620,-0.003485200,10.070590970,0.032432380,-0.071708870,0.016231830
1640792904351219968,-0.273138970,0.253666040,10.414822580,0.026994950,-0.087474270,0.044962760
1640792904351909888,0.061922750,0.455720630,9.150307660,-0.038622330,-0.020325190,0.020426520
1640792904356109824,-0.012861930,0.347043070,10.047178270,-0.031574070,-0.041632350,0.039002290
1640792904356779776,-0.256497320,0.478657420,10.264686580,0.033386040,-0.021851060,0.033956760
1640792904361139968,-0.019800770,0.323607740,9.588217740,0.036381190,-0.103707610,0.006736820
1640792904361779968,-0.036661760,0.261326940,9.967498780,0.030554830,-0.062358380,0.040920080
1640792904366179840,0.081692520,0.430306520,9.613225940,-0.030526520,0.033971670,0.042657550
1640792904366959872,0.087520760,0.234552760,10.272418980,-0.087447460,-0.019653140,0.049282610
1640792904371209984,0.056345320,0.307051930,10.116507530,-0.045971580,-0.032927100,0.050066420
1640792904371899904,0.109650400,0.185959430,9.528709410,0.017245110,-0.079913440,0.024320190
1640792904376129792,-0.108772970,0.019600790,9.898746490,0.054237250,-0.035291910,0.049839910
1640792904376760064,-0.133002580,0.087744200,9.398315430,0.008402770,0.001113120,0.034259260
1640792904381159936,-0.033155850,-0.081885550,9.800526620,-0.056329370,-0.033430760,0.030839450
1640792904381639936,0.079226320,0.026417640,9.719488140,-0.039282440,0.062209380,0.051125880
1640792904386210048,0.169348670,0.223288120,9.733620640,-0.011456010,0.006674230,0.023885070
1640792904387079936,-0.157310340,0.097480450,10.676106450,0.012511020,-0.044256450,0.037458540
1640792904391099904,0.024907430,0.067580240,9.143755910,0.036868450,-0.032049410,0.030496710
1640792904391629824,-0.128212110,-0.144023490,9.475773810,0.046859680,-0.058193500,0.011655690
1640792904396479744,-0.230825720,-0.134223400,9.820695880,0.020557640,0.099818420,0.034952160
1640792904397270016,0.039701360,0.064565750,9.576087000,-0.005283950,0.036332000,0.026233490
1640792904402839808,-0.252994750,0.103837640,10.901105880,-0.000812110,-0.064425180,0.044885280
1640792904403299840,0.024900590,0.171019840,9.205434800,0.008520480,0.028225780,0.050304830
1640792904406159872,-0.084754300,-0.007759220,9.750747680,0.062710050,-0.048820680,0.020933150
1640792904406849792,-0.543752130,-0.079995290,10.586525920,0.124421700,0.025299190,0.033107400
1640792904411079936,-0.085897200,0.196910690,8.913033490,0.074668240,-0.024765730,0.027444960
1640792904411759872,-0.319179890,0.265138780,10.313253400,-0.004933770,-0.069196530,0.046554210
1640792904416590080,-0.087241170,0.466104270,9.694952010,-0.054046520,0.120018440,0.058215860
1640792904417739776,0.024249640,0.531707580,9.995910640,0.005242230,-0.028844180,0.024591390
1640792904421089792,-0.486513170,0.506975470,11.141693120,0.085809830,-0.080049050,0.021426380
1640792904421619968,0.070959750,0.611661490,8.797772410,0.058639050,-0.025966760,0.020492080
1640792904426089984,-0.185246970,0.467495110,9.943617820,0.012777750,-0.061681870,0.043158230
1640792904426679808,-0.305905640,0.493278350,10.178524020,-0.066180530,0.076331200,0.069576500
1640792904431209984,0.375801380,0.342119430,9.154335020,-0.085370250,0.001141430,0.051364310
1640792904431939840,-0.047455270,0.135928660,10.857089040,0.008347630,-0.036321580,0.051379210
1640792904436209920,0.082840850,0.208287690,9.719999310,0.043047980,0.060011450,0.046448420
1640792904437600000,0.000736080,-0.043302050,9.930248260,0.024756790,-0.112847990,0.028589370
1640792904441099776,-0.403765590,-0.132062150,10.209218980,-0.018744170,-0.021862980,0.040772560
1640792904441659904,0.222537410,0.006769740,8.555610660,-0.051258510,0.053083900,0.024423000
1640792904446129920,-0.078942250,0.042049640,10.346426960,-0.022010510,0.032261020,0.038711730
1640792904446729984,-0.083749330,0.250472160,10.176898960,-0.023329260,0.092156250,0.052899130
1640792904451249920,0.206972290,0.158969640,9.843463900,0.024046010,-0.073434420,0.030073530
1640792904451920128,-0.334619550,-0.098191410,10.361072540,0.073899330,-0.052982570,0.050251190
1640792904456089856,0.001109420,-0.178502170,8.733102800,0.045409790,0.048847500,0.039237740
1640792904456640000,-0.113723920,-0.327874120,10.048434260,0.034512590,0.028398640,0.029189890
1640792904461259776,-0.256297680,-0.181005250,10.081503870,0.013527280,0.086072090,0.048184400
1640792904461779712,0.274973270,-0.007523350,9.263892170,0.022791320,-0.024442380,0.032682710
1640792904466889984,-0.241220830,-0.035697270,10.457076070,0.051313640,0.005629660,0.028961900
1640792904468430080,-0.099950050,0.037644590,9.460789680,0.081832710,0.039111080,0.023706260
1640792904472309760,-0.196927410,-0.092550170,10.075990680,0.138844550,-0.053116690,0.010590260
1640792904472819968,-0.370088070,0.058257550,9.908258440,0.109104820,0.060403350,0.023071460
1640792904476470016,0.104311340,0.307968680,9.304523470,0.045444080,0.041432680,0.040598220
1640792904477239808,-0.292925480,0.391409610,10.844838140,0.024028120,0.025692580,0.043442840
1640792904481119744,-0.109847240,0.591006520,9.606072430,0.011274220,0.016668440,0.043779620
1640792904481629952,-0.007620460,0.410468940,9.758542060,0.100214790,-0.076083850,0.023794170
1640792904486240000,-0.350701210,0.314671810,10.158536910,0.140964980,0.051960350,0.003711880
1640792904487079936,-0.042458780,0.425337170,9.415602680,0.081618140,0.024424490,0.022786860
1640792904491139840,-0.256476910,0.273261100,10.670041080,0.017848610,-0.026892130,0.034633280
1640792904492009984,-0.007168280,0.370138470,9.578571320,-0.044098500,0.068959600,0.034798680
1640792904496150016,0.174295340,0.442119840,9.710514070,0.006671250,-0.022798780,0.038018820
1640792904496800000,-0.255868170,0.397123160,10.604771610,0.056235500,0.030872230,0.028650460
1640792904501560064,-0.018279810,0.293763490,9.249166490,0.060369080,-0.012604890,0.018358230
1640792904502679808,-0.193922400,0.146484810,10.217513080,0.085766610,-0.079417230,0.030785800
1640792904506319872,-0.156397860,0.195088670,9.496354100,-0.010886790,0.094018870,0.027807060
1640792904507190016,0.198340820,0.165267900,9.511599540,-0.063219670,0.037549440,0.041243430
1640792904511169792,-0.218441580,0.160458590,11.076820370,-0.013209880,0.042243310,0.042194120
1640792904511739904,0.095103820,0.154520970,9.228810310,0.040079660,0.001953540,0.020685790
1640792904516429824,0.008294510,0.044649150,9.691935540,0.085838150,-0.092309710,0.018581750
1640792904517609728,-0.215761180,-0.063071180,9.689740180,0.042343140,0.107185540,0.003598630
1640792904521109760,0.025585340,-0.189499740,9.242062570,0.018124290,0.028692190,0.003378090
1640792904521639936,-0.335881770,0.016586960,10.680805210,0.050802540,-0.014774500,0.030101840
1640792904526089984,-0.015239730,0.199977130,9.287975310,-0.000903010,0.074271860,0.018301610
1640792904526739712,-0.055144540,0.179959300,10.053831100,0.024276970,-0.035510960,0.033651300
1640792904531100160,-0.438646790,0.154531880,10.475139620,0.085651870,0.025276840,0.020821390
1640792904531639808,-0.054223530,0.030243440,8.923602100,0.098124150,-0.011739140,-0.011177360
1640792904536160000,-0.310124310,0.045870100,10.200935360,0.114972890,-0.016246740,0.013871490
1640792904536800000,-0.211774650,0.276427330,9.817600250,0.027902430,0.098541390,-0.001007320
1640792904541289984,0.025822140,0.318197040,9.850263600,-0.025464600,-0.036031010,0.017765170
1640792904542230016,-0.188008870,0.429905470,10.493023870,0.013352930,-0.008888540,0.017882880
1640792904546080000,0.077259370,0.356375720,9.479103090,0.059691070,0.048106910,-0.018525120
1640792904546680064,-0.233436090,0.332185980,10.490118030,0.130288350,-0.037841500,0.003065170
1640792904551229952,-0.326134860,0.452009020,10.013816830,0.071628400,-0.001649560,0.019633770
1640792904551980032,0.103710840,0.197214800,9.065721510,-0.021770600,-0.026234990,0.024561580
1640792904556239872,-0.058751650,0.326628210,10.044487000,-0.018478930,0.050404660,0.039845700
1640792904557869824,0.021359380,0.388676760,9.956478120,-0.011429190,0.110106180,0.014217200
1640792904561120000,-0.060132700,0.127687110,10.522346500,0.051018590,-0.055973220,0.007024410
1640792904561799936,-0.213221420,0.230526270,10.121542930,0.095091780,-0.069296370,0.002130870
1640792904566329856,-0.037141380,0.113252510,8.930733680,0.033849480,-0.007273260,-0.011263790
1640792904568610048,-0.141996820,0.120069920,9.701107030,-0.021161140,0.057111680,0.025197860
1640792904571209984,-0.062787470,0.171638210,9.892028810,-0.049699840,0.101201240,0.012387340
1640792904573979904,0.133438080,-0.023534100,10.204503060,0.027288500,-0.014305120,0.002928080
1640792904576079872,0.054576030,0.120240760,10.009935380,0.106072430,-0.009217860,0.012764330
1640792904576669952,0.003582760,0.001721440,9.482604030,0.056518610,-0.000526010,-0.012029710
1640792904581129984,-0.165736930,-0.301338020,10.018033030,0.036193430,0.007240470,-0.002980230
1640792904581660160,-0.149357390,-0.088709630,9.436936380,0.043310220,0.042007860,-0.006957350
1640792904587539968,-0.154738460,-0.035776590,9.771868710,0.048764050,0.019481780,-0.002776090
1640792904588689920,-0.217926990,0.201851840,9.984776500,0.049814590,0.057183210,0.016516450
1640792904591099904,-0.139674040,0.283980850,9.852196690,0.040881340,-0.002256040,-0.014612080
1640792904591729920,-0.310780640,0.065366010,10.378137590,0.081488490,-0.020650030,-0.008539860
1640792904596099840,-0.140505480,0.104047050,9.412303920,0.126080230,0.037111340,-0.009265540
1640792904596740096,-0.247139990,0.073942870,10.093351360,0.120547410,0.000330810,-0.026813150
1640792904601569792,-0.325343490,0.417252060,10.203419690,0.051327050,0.038878620,0.004616380
1640792904602749952,0.043276380,0.612918910,9.297299390,-0.036734340,-0.023955110,0.000615420
1640792904606139904,-0.168927250,0.232007440,10.400340080,0.015750530,-0.000722710,-0.004549320
1640792904606950144,-0.110988010,0.238199610,9.882584570,0.134214770,0.061377890,-0.023022300
1640792904611089920,-0.246183780,0.261833760,10.205459590,0.168272870,-0.072006880,-0.027686360
1640792904611619840,-0.385592010,0.118481540,10.232144360,0.064064550,-0.032269950,0.018273300
1640792904616499968,0.124351170,0.226651850,8.726790430,-0.041855880,0.029784440,0.017689170
1640792904617600000,-0.155565220,0.180500110,10.312265400,-0.019867720,0.023691350,0.012664500
1640792904623100160,-0.163177000,0.303165640,10.233116150,0.050568590,0.080584000,0.010374190
1640792904623649792,0.026589120,0.294716180,9.801329610,0.109195690,-0.100240100,-0.025786460
1640792904626060032,-0.291338860,0.110524810,10.368432040,0.125265140,-0.067627430,-0.014442210
1640792904626669824,0.138786410,0.237161250,8.691893580,0.037238000,0.075981030,-0.005079810
1640792904631160064,0.006617880,0.096245240,10.074244500,-0.016970930,0.024840240,0.006344910
1640792904631689984,-0.065767990,0.005949940,10.505305290,0.009390710,0.084678830,0.031560660
1640792904636379904,0.327923240,0.047804070,9.294512750,0.083503130,-0.036036970,-0.004827980
1640792904637679872,-0.217287570,-0.151726620,10.420426370,0.141452240,-0.070327510,0.002853570
1640792904641319936,-0.105110470,-0.188143000,9.140803340,0.103034090,0.087104740,-0.004263220
1640792904641889792,-0.212470900,-0.346555170,9.860531810,0.085844080,-0.026315450,-0.037452570
1640792904646099968,-0.503389840,-0.237390730,10.454807280,0.105530030,0.038179760,-0.006225710
1640792904646710016,0.166098390,0.089145090,8.913126950,0.098182260,0.043007740,-0.014510750
1640792904651170048,-0.281591860,0.150287900,10.636302950,0.108575810,-0.019693370,-0.002156200
1640792904651699968,-0.237353710,0.218810720,9.929098130,0.108096010,0.050064930,0.001725550
1640792904656559872,0.046053630,0.129330080,9.322389600,0.146955220,-0.074827680,-0.019922850
1640792904657129984,-0.447823940,-0.033157220,10.411892890,0.194081680,-0.000092390,-0.012911860
1640792904661120000,-0.014515060,0.228664070,9.236411090,0.154766440,0.077831750,-0.017848610
1640792904661659904,-0.331979990,0.389752810,10.527023320,0.085771090,-0.061427060,-0.007480380
1640792904666889984,-0.335574330,0.464798600,10.096204760,0.028796500,0.016444920,0.023667520
1640792904668439808,0.137744410,0.394508240,9.193009380,0.091308360,-0.017865000,-0.007304550
1640792904671129856,-0.494606140,0.244693640,10.864753720,0.195075590,-0.019949670,-0.010497870
1640792904671830016,-0.256411580,0.366905690,9.670108800,0.165387990,0.023764380,-0.002229210
1640792904676100096,-0.060057680,0.229996410,9.800162320,0.095170720,-0.106975430,-0.007605550
1640792904676669952,-0.191787960,0.131649930,10.044467930,0.035049020,0.024458770,0.006610160
1640792904681069824,0.314400290,0.393083130,9.112846370,0.041358180,0.058534740,-0.010004640
1640792904681639936,-0.196587010,0.290636030,10.887410160,0.091069930,-0.039312240,-0.002886350
1640792904686300160,-0.069219370,0.273316170,9.868569370,0.110544270,-0.023391840,0.009594860
1640792904687299840,0.145095200,0.097793770,9.327467920,0.143855830,-0.089749710,-0.004558270
1640792904691119872,-0.355324120,-0.056647990,10.061347960,0.117361560,0.025601690,0.018639860
1640792904691689984,0.115658600,0.025297750,9.141892430,0.052763510,0.073526800,0.021654370
1640792904696089856,-0.118971120,-0.122435700,10.612570760,0.071811680,-0.022692980,0.001044570
1640792904696679936,-0.135097610,-0.000162110,9.914143560,0.099375840,0.014334920,0.010038910
1640792904701529856,0.094596310,0.047467890,9.314981460,0.148288910,-0.060363120,-0.010854010
1640792904703369728,-0.450600830,-0.087502700,10.308561330,0.148670390,-0.001539290,-0.028176600
1640792904706759936,-0.156042050,0.066440250,9.215602870,0.123861440,0.028491020,-0.014348330
1640792904707459840,-0.225192550,0.032444760,10.148972510,0.137773130,-0.043453270,-0.001506510
1640792904711069696,-0.253126680,0.153987910,9.928981780,0.116911530,0.043275960,0.009498000
1640792904711699968,0.131301760,0.381342320,9.513802530,0.109775360,-0.017437340,0.007553400
1640792904716589824,-0.353920040,0.358620200,10.752929690,0.116257390,-0.024148820,0.007729230
1640792904717710080,-0.131012890,0.297095300,9.368154530,0.120058680,-0.023579600,-0.007772450
1640792904721149952,-0.178826150,0.235120330,9.919168470,0.175537170,-0.073573000,-0.021964310
1640792904721839872,-0.401540370,0.338480620,10.137900350,0.149299220,0.042709720,-0.019101800
1640792904726119936,0.058584280,0.601502420,9.373867030,0.051003700,-0.012207030,0.007204710
1640792904726650112,-0.200328800,0.456070330,10.730294230,0.023250290,-0.037002560,0.015044210
1640792904731309824,-0.021740990,0.418287780,9.667953490,0.058966880,0.019292540,-0.007426740
1640792904732780032,-0.016619410,0.352339680,10.015046120,0.161598640,-0.092171140,-0.003078580
1640792904736729856,-0.445027830,0.276708810,10.395995140,0.149112940,-0.031866140,0.015236440
1640792904737919744,0.133454050,0.203338550,8.751767160,0.057326260,-0.023573640,0.015775860
1640792904741119744,-0.124917530,0.166797210,10.247959140,0.042052570,-0.021579860,0.022356210
1640792904741679872,-0.108247760,0.371622410,9.855122570,0.001603370,0.076422100,0.005993250
1640792904746099968,0.086301650,0.314631190,9.788598060,0.043289370,-0.082722310,0.010529160
1640792904746830080,-0.329388110,0.114956830,10.704751010,0.122511390,-0.058646490,0.010795890
1640792904751520000,0.041885400,0.007116050,8.956619260,0.127656760,-0.004591050,-0.017605720
1640792904752310016,-0.138945800,-0.050302480,9.965669630,0.120408820,-0.057390320,0.005890430
1640792904756099840,-0.271446680,-0.045884730,10.034531590,0.034143030,0.085297240,0.009863080
1640792904756689920,0.177034780,-0.007555760,9.381445880,0.015479330,-0.034697350,0.007495290
1640792904761070080,-0.270352330,0.093671980,10.652865410,0.097203250,-0.072209520,0.019657610
1640792904761629696,0.063730370,0.054243550,9.073828700,0.118878480,0.018844000,-0.004620850
1640792904766139904,-0.088543460,-0.039829480,9.991972920,0.158722700,-0.057660050,-0.012688340
1640792904767010048,-0.436238110,0.098038360,10.592132570,0.142987040,0.026918950,-0.000752510
1640792904771200000,0.001628960,0.111885570,9.256954190,0.080174200,-0.042463830,0.009067360
1640792904771919872,-0.287688230,0.270860580,10.317279820,0.085987160,-0.073580450,0.031037630
1640792904776089856,-0.143115250,0.591207860,9.544816970,0.040201840,0.043688710,0.004638730
1640792904776669952,-0.054629290,0.573978130,9.803838730,0.071072580,-0.055581330,0.013199450
1640792904781240064,-0.387471620,0.451773550,10.736556050,0.129723560,-0.047129390,-0.000941750
1640792904781969920,0.089374840,0.396514620,9.360566140,0.130963340,-0.019818550,-0.025351350
1640792904786180096,-0.130841870,0.499492410,10.201455120,0.106161860,-0.064215060,0.012484200
1640792904787079936,-0.120326050,0.602871240,9.949300770,-0.022859870,0.022380050,0.027798120
1640792904791119872,0.325198560,0.332008990,9.339995380,-0.048954790,-0.019614400,0.024607780
1640792904791659776,-0.076260790,0.249480800,10.565961840,0.072030720,-0.021940470,0.022341310
1640792904796179968,-0.129294780,0.221679520,9.831031800,0.122359410,-0.012792650,0.002013150
1640792904797400064,-0.120503210,0.122741570,9.761045460,0.089907650,-0.124907510,0.010418890
1640792904801509888,-0.251296490,0.057400320,9.740431790,0.010183450,0.004251300,0.033897160
1640792904802670080,0.105181460,-0.066361430,9.302074430,-0.014975670,0.058117510,0.026379530
1640792904806139904,-0.071635690,0.126261790,10.534932140,0.050067910,0.007964670,0.032626100
1640792904806809856,-0.049071610,0.285687980,10.114043240,0.054703650,-0.018312040,0.020658970
1640792904811079936,0.092814030,0.053635470,9.672072410,0.077061350,-0.099971890,0.002130870
1640792904812160000,-0.216977910,0.041506770,9.648197170,0.095626730,-0.026986000,-0.003261860
1640792904816169984,-0.122033840,-0.043025290,9.205420490,0.072011360,0.021252040,-0.009477140
1640792904817570048,-0.192887950,-0.084452090,10.211247440,0.070719420,0.006081170,0.005024670
1640792904821649920,-0.146195930,0.215829670,10.038939480,0.035671890,0.003108380,0.016407670
1640792904822219776,-0.054536670,0.072879750,9.883342740,0.050289930,-0.058455770,0.031192600
1640792904826099968,-0.217083420,0.038249360,9.939685820,0.108739720,-0.017060340,0.020214910
1640792904826979840,-0.265870420,0.035720400,9.772515300,0.129456830,-0.024716560,0.002333520
1640792904831169792,-0.358859150,-0.005344170,10.122900010,0.142274810,-0.050742930,0.008752940
1640792904832099840,-0.184894900,0.315720350,9.555376050,0.077095630,-0.016370420,0.001318750
1640792904836199936,-0.054949460,0.414164930,9.796468730,0.025603180,-0.005598370,0.005795060
1640792904838459904,-0.131456350,0.560720560,10.357882500,0.047732900,0.007456540,-0.001370910
1640792904841110016,-0.083756390,0.693368550,9.970284460,0.060352680,-0.046096740,-0.012943150
1640792904841639936,-0.156078350,0.465757490,10.194506650,0.106136510,-0.094585130,0.004909930
1640792904846089728,-0.035756580,0.438929170,9.569051740,0.100378700,-0.003068150,0.014851990
1640792904846690048,-0.069249860,0.500207600,9.813518520,0.024555620,-0.016950070,0.028769670
1640792904851500032,-0.057377440,0.402462630,10.305590630,-0.036172570,-0.009715560,0.057208540
1640792904852359936,0.264316440,0.323159720,9.500636100,-0.041748590,0.004526970,0.021956860
1640792904856109824,-0.012965100,0.263640640,10.378892900,0.054344540,-0.046670440,-0.003169480
1640792904856699904,-0.222479460,0.408410970,10.117907520,0.087876630,-0.014615060,0.000675020
1640792904861199872,-0.140708420,0.288675130,9.412923810,0.014024970,-0.106006860,-0.012193620
1640792904861829888,-0.191163240,0.170465500,9.888405800,-0.018055740,-0.012540820,0.015601520
1640792904866159872,0.095103470,0.347889390,9.248937610,-0.037528580,0.094147030,0.006404520
1640792904866880000,0.000481490,0.239800040,10.381587980,-0.014290210,-0.014311070,0.034420200
1640792904871140096,-0.041417000,0.226650710,10.395641330,0.031660500,-0.010766090,0.036235150
1640792904873019904,0.092097320,-0.055145420,9.378889080,0.043861560,-0.090146050,0.010724360
1640792904876519936,-0.281148310,-0.351602080,9.905463220,0.075821580,-0.057968510,0.024996700
1640792904877240064,-0.110900690,-0.251158450,9.217375760,0.034865750,0.082373620,-0.003933910
1640792904881090048,-0.149805400,-0.216893610,10.135396960,0.008541350,0.002743300,-0.016306340
1640792904881709824,-0.237500500,0.167467910,10.484169010,0.017443300,0.000113250,0.007523600
1640792904886189824,0.079701160,0.384570720,9.271394730,0.007501250,-0.026243930,-0.002601740
1640792904887079936,-0.287682620,0.203292250,10.297571180,0.066304210,-0.044263900,0.019897520
1640792904891099904,-0.316046480,0.275147650,9.848695760,0.119856000,0.023643670,0.007608530
1640792904891980032,-0.267938610,0.136413590,9.735202790,0.097237530,-0.065922740,0.003194810
1640792904896080128,-0.302183300,0.172267880,10.110636710,0.052912530,-0.017011170,0.026567280
1640792904896709888,0.136768740,0.385754970,9.407883640,-0.014932450,0.060157480,0.002262000
1640792904901739776,-0.084053790,0.365145000,10.650098800,-0.006704030,-0.026112790,0.003062190
1640792904902909952,-0.095412720,0.457805480,10.166345600,0.048415360,-0.024510920,-0.011029840
1640792904906589952,0.063060310,0.398365500,9.410956380,0.080752380,-0.078910590,-0.034281620
1640792904907650048,-0.317254600,0.357203540,10.171170230,0.085628050,-0.030431160,0.011336810
1640792904911109888,-0.145960840,0.550153790,9.465279580,-0.005574520,0.047676270,0.026492780
1640792904911849984,-0.128509850,0.327651740,10.138309480,-0.063875330,-0.042545800,0.026901070
1640792904916059904,-0.066061720,0.304904730,10.104475980,-0.018230080,0.020749870,0.028316680
1640792904916709888,0.144137990,0.376533810,9.618403430,0.040255490,-0.005114080,-0.008195640
1640792904922230016,-0.282128900,0.234420780,10.618448260,0.049559780,-0.049211090,0.004661080
1640792904922720000,-0.147619380,0.165540830,9.546474460,0.009357930,-0.036947430,-0.005258620
1640792904926169856,0.011031750,-0.012376530,9.419803620,-0.013549630,-0.062695150,-0.022426250
1640792904926949888,-0.042039390,0.102443290,9.686747550,-0.017532710,0.071120260,0.021307170
1640792904931160064,0.251548680,0.208141820,9.611959460,-0.020289420,0.071181360,-0.001876060
1640792904931799808,-0.068302330,0.068003010,10.929541590,0.014793870,-0.041137640,0.006680190
1640792904936219904,-0.015722370,0.059033520,9.703226090,0.054301330,-0.053951140,0.026658180
1640792904937319936,-0.103835930,-0.156867330,9.404547690,0.065000360,-0.066083680,-0.008338690
1640792904941609984,-0.522039830,-0.245349990,10.030838970,0.043831770,0.036579370,-0.001437960
1640792904942129920,-0.229369340,0.058984180,9.324717520,0.030036270,0.034680960,-0.005939600
1640792904946119936,-0.295505520,0.213008820,10.372988700,0.016498570,-0.042225420,-0.014732780
1640792904946720000,-0.091718050,0.443692650,9.701849940,0.005014240,0.045453010,0.022706390
1640792904952209920,0.075534920,0.410262110,9.865652080,0.042819980,-0.029659270,-0.012062490
1640792904953149952,-0.396029380,0.229550530,10.808588980,0.096091630,-0.032453240,-0.008645650
1640792904957520128,-0.059771650,0.324838460,9.157381060,0.082191820,-0.033095480,0.006355350
1640792904958839808,-0.178151090,0.202051090,9.998653410,0.044535100,-0.060197720,-0.002914670
1640792904961120000,-0.260061170,0.370995400,9.841834070,-0.023829930,0.074018550,0.009781120
1640792904961659904,0.064952920,0.612348440,9.521816250,-0.044251980,-0.027759380,0.009454790
1640792904966159872,-0.295791630,0.395019080,10.910506250,-0.001396240,-0.040997560,0.004763900
1640792904966749952,0.016636650,0.409768190,9.388861660,0.048908600,0.009568040,-0.012549760
1640792904971209984,-0.153835850,0.370892940,10.201272010,0.080212960,-0.095278020,-0.026072560
1640792904972849920,-0.318338540,0.385875110,10.108530040,-0.013117490,0.022508200,0.012895470
1640792904976079872,0.327890690,0.334308210,8.833759310,-0.094713270,-0.003071130,0.025235120
1640792904976709888,0.002814080,0.129734950,10.616975780,-0.038416680,0.013357400,0.011086460
1640792904981119744,0.184475120,0.337680430,9.551235200,0.013069810,0.078880790,0.012673440
1640792904981669888,0.141668660,0.254904090,9.970986370,0.023578110,-0.109140570,-0.003537540
1640792904986150144,-0.294631480,0.014356030,10.418430330,-0.008329750,-0.028157240,-0.000464920
1640792904990609920,0.194450440,-0.047100580,8.545836450,-0.015884640,0.033427780,-0.009433930
1640792904991269888,-0.275749390,-0.028364640,10.352671620,0.008118150,-0.009170170,-0.009062880
1640792904991680000,-0.164578270,0.179290220,9.764194490,-0.022625920,0.109705330,0.008392330
1640792904996150016,0.124920930,0.166082320,9.643029210,-0.023961070,-0.054672350,0.001838800
1640792904996669952,-0.452949370,0.007047840,10.731517790,0.025732820,-0.021258000,0.003178420
1640792905001489920,-0.037766430,-0.094991870,8.727936740,0.053347650,0.018268830,-0.018040840
1640792905003079936,-0.284845500,-0.179171770,10.108231540,0.093770030,-0.047461690,-0.021632020
1640792905006219776,-0.372711720,-0.004019290,10.129933360,0.034953650,0.098063040,-0.005373360
1640792905008270080,0.212707330,0.149297130,9.197679520,-0.022083520,-0.021369760,-0.001093750
1640792905011119872,-0.234256450,0.161340210,10.746395110,0.004754960,-0.023433570,0.009770690
1640792905011639808,0.162622020,0.317014070,9.236027720,0.032144780,0.066694600,-0.008931760
1640792905016130048,-0.022305110,0.316970290,10.232647900,0.093430290,-0.068415700,-0.021220740
1640792905016719872,-0.523030760,0.316371530,10.544332500,0.069850680,0.005663930,-0.007246440
1640792905021289728,0.118817270,0.313596990,8.745196340,0.026412310,-0.042836370,0.000812110
1640792905024039936,-0.319742890,0.301709530,10.410979270,0.019693370,-0.014793870,0.003498790
1640792905026739712,-0.224657100,0.597997610,9.807497980,-0.049458440,0.108273330,0.008670990
1640792905027539968,0.106988560,0.476913150,9.902042390,-0.025536120,-0.070510800,0.004264710
1640792905031129856,-0.277758330,0.271020920,10.767768860,0.057744980,-0.020352010,-0.000245870
1640792905032620032,0.182186280,0.323597910,8.986256600,0.073806950,0.024278460,-0.019983950
1640792905036399872,-0.059917720,0.199857680,10.136250500,0.033511230,-0.054851170,0.003325940
1640792905037169920,-0.127040550,0.165744900,9.762614250,-0.059315560,0.081454220,0.023905930
1640792905041369856,0.497289480,0.154933070,9.043147090,-0.064608460,0.019894540,0.011928380
1640792905042099968,-0.141080320,0.114978950,10.843482970,0.016991790,0.026418270,0.016698240
1640792905046219776,-0.028733110,0.249217870,9.588077550,0.029805300,0.035873060,-0.003375110
1640792905047139840,-0.020285010,0.062399610,9.756334300,0.032502410,-0.107520830,-0.009503960
1640792905051219968,-0.364251520,-0.054219150,9.747576710,0.015346710,0.074428310,-0.001363460
1640792905052379904,0.073527010,0.035619480,8.969155310,0.002813340,0.082945820,-0.011961160
1640792905056489984,-0.381182460,0.055696030,10.837331770,0.015531480,0.014057760,0.004035230
1640792905057319936,-0.194551500,0.235826570,9.743545530,-0.018495320,0.025007130,0.008836390
1640792905061149952,0.040657110,0.082562960,9.499467850,0.015735630,-0.072351090,-0.004139540
1640792905061699840,-0.383546080,0.004589690,10.057470320,0.053377450,0.046069920,-0.007137660
1640792905067639808,0.014893740,0.006916790,9.188302040,0.070407970,0.064404320,-0.015762440
1640792905068699904,-0.190208360,0.019724370,10.625827790,0.075075030,-0.007487830,-0.004936750
1640792905071219968,-0.208221990,0.300093590,9.876282690,-0.007353720,0.032114980,0.009343030
1640792905071889920,0.134749040,0.312623440,9.392348290,-0.028975310,-0.058722500,0.006142260
1640792905076099840,-0.326485040,0.321129020,10.303624150,0.011050700,0.030745570,-0.009135900
1640792905076689920,-0.208572860,0.456793190,9.635379790,0.054697690,0.035288930,-0.021438300
1640792905081090048,-0.320641100,0.325400110,10.438941960,0.080148880,-0.072444980,-0.006215280
1640792905081729792,-0.318058520,0.335976480,9.839159010,0.024105610,0.018754600,0.000198190
1640792905086269952,0.030071560,0.403352350,9.328864100,-0.033640870,0.008651610,0.006045400
1640792905087110144,-0.295876000,0.407470200,10.571586610,-0.046004350,0.031819940,0.025361770
1640792905091079936,-0.048346780,0.331925930,9.616307260,-0.041489310,0.007474420,0.013658410
1640792905091679744,0.124029830,0.031753640,9.889519690,0.067117820,-0.078772020,0.000520050
1640792905096079872,-0.098064910,0.074221170,9.893318180,0.084061920,0.050157310,-0.014060740
1640792905096740096,0.163546460,0.164951700,9.281603810,0.000424680,0.011509660,0.005096200
1640792905103219968,-0.010894180,0.019130800,10.404714580,-0.056260840,0.005041060,0.031168760
1640792905104019968,0.004876190,0.004442490,9.610970500,-0.051760680,0.059270860,0.008136030
1640792905106989824,-0.046913280,0.024517380,9.899954800,0.061228880,-0.070132320,0.004556770
1640792905107699968,-0.400344010,0.034720730,9.953029630,0.086200250,0.009445850,-0.010015070
1640792905111069952,-0.182322950,0.034325000,9.084561350,0.026971100,0.013212860,-0.026041270
1640792905111680000,-0.376507280,-0.036173270,10.442323680,0.021065770,-0.005353990,-0.007171930
1640792905116410112,-0.216838480,0.031449030,9.588209150,0.020222370,0.046114620,-0.000603500
1640792905117709824,0.060891580,0.157005490,9.650223730,0.059661270,-0.047199420,0.013218820
1640792905121499904,-0.175612870,0.301128000,10.376860620,0.049743060,0.047639020,0.018991530
1640792905122249728,-0.022793650,0.184666600,9.509753230,0.027552250,-0.005948540,0.001730020
1640792905126089728,-0.224248350,-0.029318540,10.321805950,0.090692940,-0.090649720,0.005620720
1640792905126720000,-0.191397250,0.085421690,9.545019150,0.108802320,0.032870480,-0.015050170
1640792905131140096,-0.145711210,0.260106500,9.630414010,0.059945880,-0.030852850,-0.008367000
1640792905132529920,-0.428415750,0.584671080,10.555909160,-0.008815530,-0.008356570,0.003145640
1640792905136320000,-0.037100360,0.694170890,9.310473440,-0.069506470,0.004270670,-0.002501900
1640792905137319936,-0.110574860,0.558377030,10.274127010,0.040358310,-0.062568490,0.004248320
1640792905141089792,-0.272132310,0.606297670,10.263686180,0.105051700,0.030983980,-0.003339350
1640792905141739776,-0.039131840,0.488333970,9.456272130,0.052610050,-0.060179840,0.010164080
1640792905146119936,-0.171285360,0.210221830,10.260880470,-0.004100800,-0.052140650,0.041823090
1640792905146800128,0.130800080,0.021824030,9.122332570,-0.058540710,0.069646520,0.009939070
1640792905151889920,0.119055670,0.039843920,9.904899600,-0.018340350,-0.018018480,0.022189320
1640792905152519936,-0.240041880,0.103926350,10.652777670,0.029799340,0.003159050,0.017884380
1640792905156139776,0.066120890,-0.055119640,9.175353050,0.026303530,-0.068612400,-0.008445980
1640792905156809728,-0.257000450,-0.050897120,10.024787900,0.060769920,-0.092600290,-0.005882980
1640792905161069824,-0.260898980,0.039864220,9.313641550,0.022263830,0.081737320,-0.017113990
1640792905161710080,-0.103088590,0.125910130,9.726117130,-0.004865230,-0.014102460,0.001405180
1640792905166759936,-0.379502860,0.321850720,10.747441290,0.006052850,-0.021114950,0.020779670
1640792905167340032,0.063612770,0.284928920,9.142853740,0.007906560,-0.027546290,0.006836650
1640792905171200000,-0.167093770,0.083937320,9.994078640,0.079737600,-0.086304550,0.015625360
1640792905172039936,-0.357239280,0.056823520,9.926404000,0.084222860,0.032533710,-0.015050170
1640792905176120064,-0.118282810,-0.037581200,9.524881360,0.049974020,-0.066132850,-0.014550990
1640792905176780032,-0.300270740,0.028544680,10.333429340,0.040310620,-0.065901860,0.026057660
1640792905181149952,0.032190200,0.169286370,9.326771740,-0.002451240,0.031876580,-0.009587410
1640792905181730048,-0.079543670,0.413842500,10.228979110,0.016333160,-0.052428250,0.004911420
1640792905186169856,-0.399214030,0.559026960,10.538916590,0.045017900,-0.037863850,0.006923080
1640792905187079936,-0.092914740,0.385657310,9.337650300,0.042630730,-0.098842390,-0.010050830
1640792905191089920,-0.336349100,0.392557110,10.077941890,0.090135630,-0.099234280,0.015303490
1640792905191740160,-0.289554150,0.508245110,9.599619870,0.019045170,0.024981800,-0.002530220
1640792905196280064,-0.081382390,0.528616490,9.827672000,-0.057612370,-0.055877870,0.017885860
1640792905197629952,-0.164907840,0.484529940,10.466690060,-0.062413510,-0.048807260,0.023524460
1640792905202489856,0.159355180,0.217202440,9.549548150,-0.006064770,-0.032074750,-0.012157860
1640792905203140096,-0.006125640,0.185203520,10.082943920,0.086539990,-0.097902130,0.003229080
1640792905206269952,-0.167194590,0.173142950,9.709781650,0.024802980,-0.039000810,0.007881220
1640792905207119872,0.196740490,-0.126482520,9.185772900,-0.056208680,-0.049318380,0.008283560
1640792905211119872,-0.007620140,-0.061728890,10.065526960,-0.033979120,-0.000488760,0.019879640
1640792905211819776,0.028741280,0.069501830,9.733787540,-0.014127790,0.009220840,-0.012573600
1640792905216169728,-0.049213530,0.131059600,10.152743340,0.022388990,-0.087551770,-0.008890030
1640792905218019840,-0.262739510,0.268825980,9.925250050,0.018781420,-0.051730870,-0.024198000
1640792905221210112,-0.134424950,0.093538700,9.292372700,0.012284520,-0.051161660,-0.029841070
1640792905221829888,-0.281043770,0.104309570,9.859284400,0.039106610,-0.010272860,0.004433100
1640792905226070016,-0.216082200,0.204904200,9.740736960,0.013385710,0.013984740,-0.005154310
1640792905226769920,-0.053197930,0.223680330,10.146048550,-0.010369720,-0.064611440,0.020362440
1640792905231099904,-0.096322550,0.187713120,9.964773180,-0.006844100,-0.047735870,0.015792250
1640792905231739904,0.013621590,-0.028656630,9.674989700,0.022445620,-0.052003560,-0.024165210
1640792905236219904,-0.106982700,0.013842270,10.236312870,0.090573730,-0.040374700,-0.011619930
1640792905236979968,-0.132217330,0.215496290,9.762744900,0.053933270,-0.026656690,-0.028197470
1640792905241089792,-0.019802780,0.340431960,9.937032700,-0.026848910,-0.066262490,-0.010702010
1640792905241920000,-0.018841030,0.517727320,9.795262340,-0.047439340,-0.006167590,0.016839800
1640792905246129920,-0.033303370,0.578726290,9.750841140,-0.025804340,-0.031305850,-0.022289150
1640792905246739968,-0.244483890,0.623826860,10.432479860,0.028854610,-0.051340460,-0.004737080
1640792905251249920,-0.276682620,0.508008120,9.799035070,0.031290940,-0.068411220,-0.008504090
1640792905252039936,-0.181352390,0.172479540,9.810279850,0.014519690,-0.089330990,-0.006289780
1640792905256140032,-0.111103500,0.235260840,9.694379810,-0.016815960,0.015330320,0.012770300
1640792905256719872,0.121589740,0.190285620,9.433888440,-0.088144840,0.016316770,0.011657180
1640792905261149952,0.064058680,-0.008657520,10.500576020,-0.056482860,-0.020968910,0.027132040
1640792905261760000,0.145665390,-0.073273210,9.755222320,0.023651130,-0.033137210,-0.000399350
1640792905266170112,0.023233440,-0.229120820,9.649306300,0.075022880,-0.114928190,-0.028887390
1640792905268359936,-0.113449800,0.049616220,9.621331210,0.023849310,-0.000567730,-0.000506640
1640792905271249920,-0.036901760,0.085350360,9.301706310,-0.077281900,0.027145450,-0.005064910
1640792905272450048,-0.217044070,0.094989170,10.580137250,-0.049506130,-0.017692150,0.013470650
1640792905276300032,-0.084684500,0.387150940,9.800688740,0.019189710,0.003868340,0.007405880
1640792905276989952,-0.092298570,0.341771220,9.637421610,0.053797660,-0.093679140,-0.019596520
1640792905281070080,-0.294198040,0.346222760,10.109705920,0.036439300,-0.019747020,0.000184770
1640792905281730048,-0.066667630,0.187256540,9.225395200,-0.019371510,0.003169480,-0.021737810
1640792905286170112,-0.179831090,-0.051632460,10.282473560,0.000607970,-0.050853200,-0.001452860
1640792905287020032,-0.055898260,0.236003560,9.832228660,0.020542750,0.030224030,0.004766880
1640792905291200000,0.041855960,0.293267010,9.671622280,-0.033089520,-0.056736170,-0.015346710
1640792905292709888,-0.189948960,0.360402910,10.410629270,-0.035999720,-0.042024250,0.022140150
1640792905296099840,-0.051267600,0.254714340,9.392900470,-0.009594860,-0.006562470,-0.010569390
1640792905296759808,-0.243487250,0.109476930,10.136744500,0.058189030,-0.079640750,-0.021618610
1640792905301590016,-0.291927010,0.558425010,9.977771760,0.031970450,0.010500850,0.003078580
1640792905302739968,0.021793130,0.588719840,9.342044830,-0.101892670,-0.022301080,-0.004455450
1640792905306239744,-0.053877390,0.490463580,10.339370730,-0.115555530,-0.025030970,0.011266770
1640792905307030016,0.135306580,0.611293440,9.769792560,-0.048810250,0.047263500,-0.018119810
1640792905311179776,0.018103580,0.313892510,10.120895390,0.008085370,-0.064125660,-0.014720860
1640792905311679744,-0.181967320,0.263220010,10.148080830,0.008457900,-0.056979070,0.012876100
1640792905316119808,0.128323580,-0.029066430,8.899005890,-0.066135830,-0.013946000,-0.005859140
1640792905316740096,-0.010037390,-0.234567880,9.847445490,-0.070215760,0.010348860,0.012749440
1640792905322089984,-0.035336380,0.051684970,9.856762890,-0.063078110,0.078268360,0.005400180
1640792905322579968,0.072472100,-0.054307190,9.938282970,-0.063209240,-0.044769050,-0.008207560
1640792905326109952,-0.138210710,-0.093055240,10.319837570,-0.000508130,-0.041162970,0.002065300
1640792905326720000,-0.055154720,-0.124980860,9.238434790,0.041399900,0.003117320,-0.031419100
1640792905331169792,-0.249980850,-0.151984960,9.809628490,0.030174850,-0.024876000,-0.028538710
1640792905332540160,-0.249616760,0.221790450,9.655846600,-0.025409460,0.048121810,0.001604860
1640792905336249856,0.042126170,0.146246610,9.554030420,-0.067155060,0.001910330,-0.012090800
1640792905337199872,-0.113218370,0.233715640,10.319261550,-0.007811190,-0.002193450,0.016485150
1640792905341609984,0.051512460,0.308472390,9.578135490,0.052990010,0.013561550,-0.008995830
1640792905342149888,-0.105972540,0.010817370,10.205622670,0.064718730,-0.036646430,-0.026392940
1640792905346279936,-0.283014540,0.191579600,9.962754250,0.035288930,0.012314320,-0.006213780
1640792905346969856,-0.082953500,0.171536450,9.408150670,-0.024940080,-0.028088690,-0.015626850
1640792905351429888,-0.253477040,0.181316720,10.058863640,-0.031554700,-0.007960200,0.000269710
1640792905352409856,-0.033357390,0.621328650,9.431555750,-0.038969520,0.046443940,-0.014242530
1640792905356410112,-0.126393800,0.451871480,10.324129100,-0.025071210,-0.014820690,-0.018639860
1640792905357839872,-0.290580150,0.383264570,10.418028830,0.027817490,-0.013799970,-0.003503260
1640792905361100032,-0.078493860,0.371650430,9.556540490,0.035324700,-0.057283050,-0.030125680
1640792905361690112,-0.264777240,0.375414040,10.066461560,-0.024376810,-0.019241870,-0.009468200
1640792905366159872,0.050921400,0.697329520,9.195818900,-0.123474020,0.054864600,0.012977420
1640792905366849792,0.265359010,0.361519990,9.811824800,-0.132744030,0.024242700,-0.002482530
1640792905371269888,0.090113130,0.263628070,10.455222130,-0.022527580,0.068373990,-0.006221230
1640792905372150016,0.075751180,0.367319050,9.752552990,0.042621790,-0.051754710,-0.017978250
1640792905376099840,-0.277842520,0.045847660,10.146493910,-0.019338730,-0.099603820,-0.006307660
1640792905376729856,-0.141338930,0.059706290,8.850164410,-0.106689330,0.041811170,0.018367170
1640792905381100032,-0.063692460,-0.168070110,9.503300670,-0.100892790,0.054115060,-0.012564660
1640792905381739776,-0.303374080,-0.002645390,10.582971570,-0.028005240,0.086222600,-0.004039700
1640792905390679808,0.060022610,0.398164720,9.501674650,-0.017929080,-0.016257170,-0.015959150
1640792905391340032,-0.140841870,0.069458540,10.320332530,-0.042870650,-0.070057820,-0.020499530
1640792905391719936,-0.067841920,0.046535730,9.324055670,-0.030942260,0.057679410,-0.020997220
1640792905392019968,0.018196370,-0.027820740,9.331852910,0.010800360,-0.006276370,-0.023704770
1640792905396059904,-0.157849240,-0.130963560,10.346296310,0.022739170,0.056989500,-0.010901690
1640792905396739840,0.234803650,0.308622840,9.189719200,-0.046326210,0.070732820,0.001162290
1640792905401389824,-0.122566690,0.087730530,10.515581130,-0.066126880,-0.045672060,0.007666650
1640792905402220032,-0.243792500,0.038186120,9.857556340,-0.007621940,0.025300680,0.000801680
1640792905406139904,-0.206776100,0.173036260,9.227334980,0.042529420,-0.058393190,-0.045171390
1640792905407079936,-0.682174800,0.223658700,10.565665250,0.037668660,0.007125740,-0.025258960
1640792905411129856,-0.209161130,0.536441330,9.187936780,-0.044626000,0.069171200,-0.012654070
1640792905411799808,-0.145997390,0.449798350,10.202900890,-0.079801690,-0.029054290,-0.013920660
1640792905416409856,-0.172522680,0.637325350,10.352782250,-0.059276830,0.074602660,-0.002084670
1640792905417329920,0.151033030,0.678495530,9.398913380,-0.039857630,-0.019700830,-0.012379880
1640792905421159936,-0.251549390,0.266480480,10.640782360,-0.000634790,-0.083841390,-0.001522900
1640792905421700096,0.128709350,0.246540000,9.074165340,0.001960990,0.046239800,-0.001622740
1640792905426959872,0.177489710,0.134247450,9.529738430,-0.038379430,-0.005786120,-0.005237760
1640792905427569920,-0.142583890,0.190834520,10.555017470,-0.104147220,0.088475640,0.013355910
1640792905431170048,0.282041610,0.315936060,9.320676800,-0.137278440,0.050473220,0.000400840
1640792905431939840,-0.187741070,-0.005925370,10.632763860,-0.042213500,-0.072930760,-0.010763110
1640792905436139776,-0.297370050,0.106246850,9.650139810,0.040179500,0.020399690,-0.018973650
1640792905437539840,-0.154761900,0.141385640,8.913211820,0.002850590,-0.047120450,-0.031964480
1640792905441259776,-0.476987750,-0.020252680,10.186117170,-0.074954330,0.048041350,0.001992290
1640792905441999872,0.124929460,0.186718580,9.244220730,-0.117813050,0.128528480,0.000402330
1640792905446060032,-0.063666370,0.081749990,10.603178980,-0.041070590,-0.026875740,0.000967090
1640792905446720000,-0.142953310,0.259792540,10.166026120,0.013187530,0.006543100,0.012050570
1640792905451119872,0.157355680,0.281911880,8.962553020,-0.011774900,-0.054509940,-0.033925470
1640792905451899904,-0.392557860,-0.069966340,10.184253690,-0.026261810,-0.000351670,-0.007432700
1640792905456079872,-0.094197610,-0.004626680,9.236135480,-0.021560490,0.093127790,-0.018019970
1640792905456770048,-0.121737390,0.028978390,10.122052190,-0.001263620,-0.029458110,-0.016973910
1640792905461089792,-0.327275840,0.284980450,10.335646630,-0.037562860,0.028187040,0.011831520
1640792905461699840,0.091754790,0.498212780,9.245227810,-0.094918900,-0.002461670,-0.007854400
1640792905466789888,-0.427904370,0.155258040,10.606310840,-0.032547120,-0.036558510,-0.001293420
1640792905468829952,-0.251251880,0.247336550,9.639156340,0.058183080,0.027474760,-0.028949980
1640792905471119872,-0.148235290,0.460844160,9.738425250,0.050024690,-0.052633880,-0.040112440
1640792905471739904,-0.316641090,0.643769440,10.181855200,-0.081405060,0.031159820,0.009278950
1640792905477139968,0.270362910,0.760845240,9.217501640,-0.183522670,0.056436660,-0.001358990
1640792905477880064,-0.025448470,0.482148200,10.595841410,-0.113390410,-0.011689960,-0.002448260
1640792905481079808,-0.098850350,0.442666290,10.111949920,0.013014670,0.019752980,-0.003016000
1640792905481730048,0.001039730,0.266923280,9.579650880,0.029690570,-0.083306430,-0.020453340
1640792905486119936,-0.278002290,-0.157550890,9.945018770,-0.043229760,-0.008367000,0.014299150
1640792905486820096,0.102947550,-0.155527950,8.982454300,-0.104215750,0.086882710,0.014406440
1640792905491200000,-0.104551970,-0.138752590,10.315334320,-0.107495490,0.019544360,0.006085630
1640792905491859968,-0.145980030,0.083215880,10.137658120,-0.082778940,0.034837430,0.021088120
1640792905496089856,0.125339660,0.240662860,9.546978950,-0.034610930,-0.062350930,-0.021447240
1640792905496759808,-0.289955230,0.055815580,10.140949250,0.005501510,-0.017866490,-0.017257040
1640792905501709824,-0.063103740,0.224564840,8.986988070,0.002066790,0.054070350,-0.002513830
1640792905503340032,-0.197482850,0.192329210,10.083773610,-0.046990800,-0.007949770,-0.009222330
1640792905506089984,-0.207860400,0.151787210,9.981896400,-0.085133300,0.060065090,0.035658480
1640792905506739968,0.123159980,0.225680280,9.473030090,-0.059440730,-0.017127390,0.018598140
1640792905511209984,-0.340622430,-0.054716130,10.426794050,0.005538760,-0.024701650,-0.000460450
1640792905511729920,-0.106771800,-0.039529110,9.266766550,0.026133660,0.024057930,-0.010284780
1640792905516880128,-0.335701970,-0.049482170,10.046016690,0.030110780,-0.045096880,-0.025571880
1640792905518029824,-0.447420510,-0.053688060,9.997601510,-0.023014840,0.027559700,0.006107990
1640792905521119744,0.111501380,0.289740000,9.208258630,-0.048963730,-0.008882580,0.012525920
1640792905521719808,-0.272300990,0.438343550,10.666431430,-0.052702430,0.013084710,0.005510450
1640792905526819840,-0.001050810,0.680065570,9.696648600,-0.051617630,0.034630310,0.029934950
1640792905527579904,-0.038751640,0.596673490,10.120563510,-0.004239380,-0.102370980,0.011996930
1640792905531139840,-0.268934190,0.396391180,10.111134530,0.017541650,-0.007271770,0.009001790
1640792905532599808,0.134284450,0.618802960,8.994322780,-0.016145410,0.012521450,0.020906330
1640792905536559872,-0.258588110,0.500328720,10.426701550,-0.104321550,-0.021809350,0.022523110
1640792905537299968,0.127396700,0.400209100,9.431791310,-0.163370400,0.066964350,0.032784060
1640792905541199872,0.253109010,0.246181160,9.798957820,-0.069867070,-0.018776950,0.014223160
1640792905546720000,-0.411891190,0.016510660,10.810865400,0.019158420,-0.008186700,0.000911950
1640792905547299840,0.037551570,0.094445830,8.944365500,-0.012895470,-0.062504420,0.015626850
1640792905548419840,-0.249566350,-0.272018850,9.837171550,-0.074087080,-0.057016320,0.004716220
1640792905551369984,-0.110782660,-0.173591660,9.461687090,-0.097890210,0.130842630,0.013746320
1640792905552169984,0.188058110,0.157153740,9.545112610,-0.059968230,0.014406440,0.024008750
1640792905556059904,-0.302643300,0.198750380,10.855577470,-0.043889880,-0.014893710,0.012737510
1640792905556730112,0.242627500,0.397949670,9.083917620,-0.065051020,-0.013916200,0.012637680
1640792905561149952,-0.185837720,0.113865050,9.949625970,-0.011512640,-0.059416890,-0.007332860
1640792905561750016,-0.375304550,-0.034135800,9.746296880,0.013734400,0.063568360,-0.013886390
1640792905566099968,0.034273930,0.205859630,9.195763590,-0.001680850,-0.003427270,-0.000077490
1640792905566989824,-0.501147270,0.103928220,10.669216160,-0.052951270,-0.009825820,0.010557470
1640792905571130112,-0.009006160,0.320174250,9.286993030,-0.110334150,0.031496580,0.027470290
1640792905571719936,-0.146508100,0.158344340,9.959366800,-0.045299530,-0.070846090,0.016151370
1640792905576220160,-0.492776600,0.017362820,10.346698760,0.037351250,0.022609530,-0.010146200
1640792905577349888,-0.058798550,0.327823880,9.377795220,0.049015880,-0.026103860,-0.003166500
1640792905581179904,-0.476606550,0.202430070,10.461605070,-0.012548270,-0.064210600,0.010956820
1640792905581750016,0.042490790,0.354607490,9.272927280,-0.094941260,0.047357380,0.026543440
1640792905586059776,0.252616760,0.601203380,9.620087620,-0.089201340,0.003482400,0.008371470
1640792905586789888,-0.155480240,0.605574790,10.619027140,-0.066034500,0.040836640,0.026066610
1640792905591310080,0.288209440,0.559620080,9.464953420,-0.033938890,-0.017751750,0.021499400
1640792905592069888,-0.137718720,0.114198630,10.154473300,0.021161140,-0.100597720,0.003793840
1640792905596150016,-0.212077140,0.057265680,9.369295120,-0.003437700,0.012707710,0.012332200
1640792905597499904,-0.009440900,0.137276800,9.099521640,-0.075425210,0.014744700,0.023390350
1640792905601500160,-0.400744890,-0.159637120,10.421101570,-0.127874330,0.044558940,0.031366950
1640792905602259968,0.041004220,0.006950940,9.677785870,-0.076441470,0.041815640,0.030928860
1640792905606079744,-0.197344970,-0.089869180,10.186229710,0.045274200,-0.084607300,0.012308360
1640792905606799872,-0.363095280,-0.086168650,9.673584940,0.050747390,-0.035996740,0.009162720
1640792905611209984,0.018723580,0.142849580,8.936214450,-0.016205010,-0.007651750,0.010263920
1640792905611789824,-0.311247320,-0.049280330,10.175588610,-0.061990310,0.025391580,0.013069810
1640792905616099840,0.219893220,0.228043810,9.528461460,-0.044107440,0.057671970,0.035959480
1640792905617839872,0.144936440,0.326032730,10.155278210,0.012779240,-0.021262470,0.020018220
1640792905621100032,-0.077884670,0.318267430,10.174300190,0.006978210,-0.005044040,0.019449000
1640792905621749760,0.047348220,0.426901610,9.372084620,0.000886620,-0.045579680,0.014199320
1640792905627120128,-0.491341020,0.007319620,9.907335280,0.004217030,-0.053343190,-0.002397600
1640792905627849728,-0.218990530,0.099488080,9.264822010,0.009335580,0.036025040,0.011487300
1640792905631119872,-0.276947620,0.418905350,10.024753570,-0.010964280,0.013260540,0.015112760
1640792905632279808,-0.412151960,0.348248060,10.435231210,-0.076834860,0.005345050,0.032527740
1640792905636109824,0.081609170,0.490827680,9.547912600,-0.064349170,-0.036758190,0.031732020
1640792905636740096,-0.252448020,0.300782170,10.166602130,0.020483140,-0.040480490,0.005008280
1640792905641159936,-0.136182130,0.227861850,9.599595070,0.040216740,0.006248060,0.016616280
1640792905641789952,0.047438790,0.397742690,9.599373820,-0.003057720,-0.043301290,0.027364490
1640792905646370048,-0.022913480,0.074486780,9.816321370,-0.085115440,0.023579600,0.026482350
1640792905646989824,0.402050850,0.347443970,9.263096810,-0.084322700,0.050057470,0.023467840
1640792905651449856,-0.026784890,0.374392900,10.365352630,-0.041975090,-0.006808340,0.016789140
1640792905652320000,-0.100808610,0.122943560,9.834906580,-0.030875210,-0.020620230,0.020517410
1640792905656109824,-0.080566940,0.048027940,9.458020210,0.037139650,-0.092227740,0.012221930
1640792905656950016,-0.469744120,-0.291151290,9.683190350,0.026401880,0.012294950,0.008602440
1640792905661989888,-0.091971870,-0.134156780,9.128352170,-0.018225610,0.068126620,0.026366120
1640792905662999808,-0.353727250,0.010126530,10.506508830,-0.053472820,0.009688740,0.024215880
1640792905666159872,-0.205548610,-0.023186060,9.960443500,-0.064985460,-0.008122620,0.029161570
1640792905666769920,0.078320140,0.105199610,9.364069940,0.035206980,-0.091144440,0.021915140
1640792905671109888,-0.357780430,0.019007160,9.948633190,0.083683430,0.004667040,-0.015448030
1640792905671729920,0.038751020,0.147068920,9.226252560,0.055076180,0.035633150,0.003810230
1640792905678229760,-0.221602710,0.308267920,10.307395940,0.013260550,-0.039054460,0.026266280
1640792905679620096,-0.122839710,0.270910890,9.854947090,-0.051236160,-0.000315900,0.040496890
1640792905681089792,0.239049140,0.457183210,9.286323550,-0.015932320,-0.024519860,0.043153770
1640792905681730048,-0.424506340,0.451687460,10.575012210,0.018012530,-0.000403820,0.015103820
1640792905686109952,-0.207078200,0.365893240,9.605865480,0.012180210,-0.018657740,0.018720330
1640792905686759936,-0.353333500,0.223710730,9.896254540,0.048457090,-0.112360720,0.022229550
1640792905691239936,-0.446876050,0.094797800,9.763707160,0.025346880,-0.006909670,0.008700790
1640792905692209920,0.095729280,0.489887510,8.987148280,-0.039140870,0.029776990,0.024084750
