# timestamp,accel_x,accel_y,accel_z,gyro_x,gyro_y,gyro_z
1640790341.741750,-0.140221920,0.167871730,10.181383130,-0.077132880,0.149363290,-0.007003550
1640790341.745430,0.106117140,0.262169180,9.601688390,-0.091777730,0.018316510,-0.006639960
1640790341.747200,-0.431820570,0.008359890,10.339769360,-0.061623760,0.042754420,-0.012117620
1640790341.750390,-0.107488290,-0.024114920,8.927841190,0.007195770,0.127574770,-0.017020100
1640790341.751740,-0.348574430,-0.143103270,10.149211880,0.032918160,0.066971760,-0.033411380
1640790341.755150,-0.313762370,0.031848300,10.181669240,-0.013031070,0.140143950,-0.008338690
1640790341.756660,0.062886610,0.271916330,9.522335050,-0.056090950,0.048650800,-0.000590090
1640790341.760380,-0.132793860,0.190997970,10.143758770,-0.082536030,0.061239290,0.005415080
1640790341.766050,-0.040352710,0.463736240,9.792554860,-0.016799570,0.078029920,0.002215800
1640790341.766720,-0.416563870,0.386913420,10.092396740,0.026839980,0.036840140,-0.036191940
1640790341.767130,-0.265038280,0.340949360,9.611729620,0.037504740,0.009915230,-0.021485980
1640790341.770330,-0.492551090,0.436024610,10.000772480,0.012221930,0.036780540,-0.016850230
1640790341.771960,-0.226109550,0.286322620,9.619801520,-0.054292380,0.110700730,-0.010228160
1640790341.775270,-0.268934610,0.524895550,10.513615610,-0.051973760,-0.004583600,0.009270010
1640790341.776920,-0.322497220,0.546810030,10.300414090,-0.056871780,0.031502550,0.008895990
1640790341.780770,0.199489430,0.631955270,9.254966740,-0.030797730,-0.006459650,-0.012446940
1640790341.784330,-0.270990880,0.694213270,10.454085350,-0.033515690,0.019876660,-0.012257700
1640790341.785200,-0.020841780,0.602307200,9.794323920,-0.056634850,0.046183180,0.004154440
1640790341.786720,-0.055910420,0.408863280,9.884567260,-0.049501660,-0.031593450,0.004693870
1640790341.790240,-0.149853450,0.234635640,9.994671820,-0.066770620,0.014458600,0.003765520
1640790341.791740,-0.128709640,0.362161670,9.858221050,-0.053937740,0.023165350,0.012417140
1640790341.795370,-0.409547330,0.324292570,10.153656010,-0.103099670,-0.016222890,0.001949070
1640790341.796730,-0.226930530,0.189176810,9.927921300,-0.083401800,-0.053262710,0.019842380
1640790341.800690,-0.301548210,0.268143270,9.770733830,-0.033937400,-0.002792480,-0.007453560
1640790341.802660,0.082441290,0.305131050,9.340993880,-0.042633710,0.036677720,-0.015203660
1640790341.806070,0.013774690,0.515052020,10.146899220,-0.064969070,0.015026330,0.018303100
1640790341.809300,0.187202380,0.393995400,9.928231240,-0.133267060,0.034078960,0.007578730
1640790341.810680,0.273940680,0.145857650,9.910367010,-0.070314110,-0.049336260,0.025062260
1640790341.812450,-0.149300660,0.027386630,10.104275700,-0.007620460,-0.032873450,0.016072390
1640790341.815200,-0.045695090,-0.217870250,9.365120890,0.014591220,-0.013294820,0.006408990
1640790341.816710,-0.246152040,-0.262792740,9.714584350,-0.001567600,0.008679930,0.000821050
1640790341.820230,-0.224170540,-0.146448570,9.958977700,-0.047338000,0.007838010,-0.002752240
1640790341.821760,-0.200953470,-0.020328830,9.918787960,-0.032325090,0.004161890,0.010296700
1640790341.825470,-0.100226580,0.306223330,9.863506320,-0.027783210,-0.029182430,-0.007466970
1640790341.827010,-0.298779790,0.489055370,10.399209980,-0.009809430,-0.031010810,-0.010664760
1640790341.830320,-0.118036800,0.640996280,9.465502740,0.006778540,-0.013318660,-0.011764470
1640790341.831730,-0.202171330,0.414286140,10.101422310,0.012853740,-0.055912140,-0.020781160
1640790341.835320,-0.232955720,0.581968720,9.920615200,0.023628780,0.013354420,0.008563700
1640790341.836750,-0.071054630,0.572211920,9.855805400,-0.029462570,-0.059215730,0.000932810
1640790341.840310,-0.113131870,0.435170050,10.222535130,-0.077718500,-0.031282010,0.013646480
1640790341.841860,0.141439240,0.609748900,9.616503720,-0.075228520,-0.010639430,-0.005263090
1640790341.845390,-0.118377270,0.389256540,10.480484010,-0.032189490,-0.023470820,-0.021922590
1640790341.846820,-0.080878300,0.457757120,9.863858220,-0.006508830,-0.046136980,-0.005228820
1640790341.850220,-0.181607080,0.328270490,9.790022850,-0.039879980,-0.117243850,-0.007580220
1640790341.851760,-0.115519990,0.060132950,9.355035780,-0.060063610,0.001579520,0.006400050
1640790341.855290,-0.031489730,0.158872340,9.624245640,-0.044512750,-0.030891600,0.003005560
1640790341.856940,-0.377234850,0.172807280,10.575810430,-0.053788730,0.002333520,0.011679530
1640790341.860240,0.046565990,0.253644760,9.730238910,-0.053931780,-0.086846960,0.019128620
1640790341.861850,-0.262332890,0.056209850,10.342057230,-0.030277670,-0.103303810,-0.010989610
1640790341.865670,-0.026398860,0.216130700,9.159785270,0.002813340,-0.012426080,-0.008086860
1640790341.866740,-0.077267280,0.211077300,9.782235150,0.000129640,-0.056648260,-0.019484760
1640790341.871240,-0.156794190,0.157581640,10.092136380,-0.042511530,0.019715730,-0.003641840
1640790341.872710,0.037356250,0.322393390,9.861610410,-0.023257730,-0.106103730,0.010839110
1640790341.875430,-0.163115590,0.011946220,10.178250310,-0.019152460,-0.087295460,0.014615060
1640790341.876710,0.071924270,0.087013060,9.380853650,0.017736850,-0.038728130,0.013978780
1640790341.880360,-0.416315080,0.113358660,10.418169020,0.032198430,-0.064137590,-0.007250910
1640790341.881740,-0.136345910,-0.002893060,9.878124240,0.017195940,-0.057911880,-0.010786950
1640790341.885200,-0.129862740,0.232324000,9.869033810,0.026997930,-0.105778870,-0.022761530
1640790341.886670,-0.173298360,0.381104290,9.865422250,-0.017046930,-0.034375490,-0.024288890
1640790341.890300,0.020433410,0.682141360,10.025941850,-0.011825560,-0.063334390,-0.007602570
1640790341.891780,-0.369240130,0.784834680,10.477110860,-0.045694410,-0.073832270,-0.005036590
1640790341.895380,-0.026274910,0.639274720,9.755343440,-0.017967820,-0.130519270,0.002823770
1640790341.897070,-0.164017040,0.478646340,10.113975520,0.042074920,-0.084714600,0.000704820
1640790341.900240,0.023558930,0.400199170,9.641430850,0.018396980,-0.030550360,0.011855360
1640790341.901750,0.073313540,0.345022740,10.037325860,-0.021348900,-0.071404870,0.030110780
1640790341.905680,0.171280770,0.218207150,10.078422550,-0.110575560,-0.019925830,0.020785630
1640790341.906750,0.282882390,0.236746640,9.861749650,-0.050246720,-0.093208250,0.022591650
1640790341.910670,-0.064157230,0.340172590,10.062965390,-0.003245470,-0.104784970,0.006574390
1640790341.912050,0.115879800,0.349765060,9.526515960,-0.012947620,-0.078362230,0.008794670
1640790341.915350,-0.078470550,0.354284050,9.645913120,-0.024375320,-0.031402700,0.018672640
1640790341.916700,-0.006256980,0.183464630,10.076239590,-0.044193860,-0.024451320,0.011852380
1640790341.920260,-0.064696020,0.242304430,10.220343590,-0.001241270,-0.035023690,0.045973070
1640790341.921750,-0.025251100,0.297993870,9.676239010,-0.028413540,-0.082081580,0.035487120
1640790341.925210,-0.040784290,0.040132050,10.074584010,-0.026904050,-0.089414430,0.041377550
1640790341.927030,0.082870790,0.072253610,9.383546830,-0.005044040,-0.004963580,0.028879940
1640790341.930250,0.050748740,-0.053079870,9.764204980,0.032989680,-0.043386210,0.020414590
1640790341.931760,-0.116140720,0.104304150,10.327586170,0.039739910,-0.026492780,0.024397680
1640790341.935250,0.019571110,0.295109030,9.910422330,-0.019654630,-0.062544650,0.028313700
1640790341.937030,-0.230067150,0.220366480,10.123329160,-0.027950100,-0.084134920,0.031334170
1640790341.940190,-0.185228710,0.381476700,9.865455630,0.007610020,-0.062915670,0.021535160
1640790341.941670,-0.330740150,0.391976590,10.110223770,0.054195520,-0.036525720,0.006809830
1640790341.945330,-0.177451670,0.690091010,9.666769980,0.049665570,-0.042425100,0.022599100
1640790341.946710,-0.218725650,0.690674600,10.460886000,-0.016516450,-0.094191730,0.026406350
1640790341.950220,0.097064210,0.664772270,9.588937760,-0.064146530,-0.002674760,0.042678420
1640790341.951810,0.160077330,0.735158260,9.845564840,-0.039212410,-0.081926580,0.029821690
1640790341.955170,-0.270898910,0.578194500,10.873730660,-0.031894450,-0.039593880,0.021125380
1640790341.956710,0.095295350,0.552232680,9.423958780,-0.030665100,-0.081187490,0.038820510
1640790341.960370,-0.238755480,0.164734470,10.251604080,-0.021751220,-0.143454980,0.023655590
1640790341.961770,0.101434650,0.111048260,9.408720970,-0.023898480,0.031712650,0.044089550
1640790341.965260,0.138970790,0.214246150,9.710207940,-0.042352080,-0.005742910,0.033749640
1640790341.966680,-0.127172560,0.204712270,10.489794730,-0.086072090,-0.038322810,0.050681830
1640790341.970230,0.128158200,0.315975460,9.942133900,-0.056026880,-0.095251200,0.046536330
1640790341.971720,-0.226898790,0.279640260,9.763515470,-0.030809640,-0.087228440,0.021164120
1640790341.975440,-0.085255530,0.300968380,9.437912940,-0.001963970,-0.077654430,0.024534760
1640790341.976720,-0.276466610,0.178237810,10.227998730,-0.004377960,0.015029310,0.001060960
1640790341.980290,0.073556400,0.124863680,9.659992220,-0.023841860,0.014944380,0.024141370
1640790341.981720,-0.004015490,0.153302180,10.464021680,0.007684530,-0.110077870,0.049626830
1640790341.985380,0.102777760,0.193713990,9.725634570,-0.039479140,-0.013284390,0.049783290
1640790341.986670,0.305913030,0.275397150,9.193512920,-0.039002300,-0.054171690,0.067412850
1640790341.990170,-0.239800010,0.114542100,10.450911520,-0.015796720,-0.041797760,0.041821600
1640790341.991770,0.044992360,0.080755640,9.731120110,0.048294670,-0.021424900,0.030328340
1640790341.995320,-0.105640040,0.161983850,9.791966440,0.083550820,-0.067123770,0.027592480
1640790341.996800,-0.270032610,0.211332530,10.406665800,0.008071960,-0.030775370,0.030702360
1640790342.000310,-0.326924830,0.535140810,10.093931200,-0.043052430,-0.028656420,0.043600800
1640790342.001820,-0.309829350,0.575600800,9.646150590,-0.070284310,-0.087638200,0.031796100
1640790342.005190,-0.246657460,0.663678880,10.060463910,0.011044740,-0.083991870,0.040720400
1640790342.006680,-0.096923020,0.966893670,9.477445600,0.037384040,0.031299890,0.030682980
1640790342.010310,0.074802670,0.706801470,10.031389240,-0.015644730,-0.057497630,0.050200520
1640790342.011820,-0.024414850,0.621393080,10.711009980,-0.045271220,-0.049945710,0.078526140
1640790342.015340,0.428430560,0.402679530,9.392886160,-0.073196000,-0.025895240,0.051401560
1640790342.016740,0.126091270,0.277864840,10.095508580,-0.030118230,-0.062316660,0.066283330
1640790342.020170,-0.100041180,0.360447320,10.167828560,-0.046260660,-0.038117170,0.054915250
1640790342.021710,0.071666460,0.175072610,9.414598460,-0.061874100,-0.070717940,0.045952200
1640790342.025480,-0.105694850,0.063873250,9.607535360,-0.032445790,-0.044718380,0.042611360
1640790342.026890,-0.090418100,0.203393770,9.987348560,-0.022241480,-0.000271200,0.026027860
1640790342.030270,-0.096875070,0.311473850,9.832830430,-0.038643180,0.022658710,0.049756470
1640790342.032020,0.019849460,0.364352820,10.034824370,-0.065883990,-0.090901560,0.056090950
1640790342.035280,-0.167096750,0.232250710,10.425848960,-0.041925900,-0.046083330,0.064501170
1640790342.036700,0.164273710,0.275685040,8.846666340,0.004126130,-0.017185510,0.058689710
1640790342.040170,-0.119296830,0.103085500,10.109985350,0.001432000,-0.078475460,0.035732980
1640790342.041970,-0.052731120,0.159556120,9.881051060,-0.018166010,0.049945720,0.062386700
1640790342.045310,0.210210640,0.153790100,9.497671130,-0.020276020,-0.063049810,0.051563990
1640790342.046780,-0.151367520,0.054315740,10.485264780,-0.012256210,-0.049221530,0.055976220
1640790342.050220,0.144823360,0.482738490,9.465390210,-0.007115300,-0.007665160,0.043931610
1640790342.051710,-0.205135910,0.363781930,10.078966140,-0.033353270,-0.021882360,0.028797990
1640790342.055210,-0.214293420,0.505610940,10.058486940,-0.020998720,-0.051207830,0.044745210
1640790342.056690,-0.282873570,0.492185290,9.966642380,0.002822280,-0.055773560,0.026839970
1640790342.060270,-0.091352890,0.370170470,9.358589170,0.010705000,-0.013341010,0.033254930
1640790342.061800,-0.179660870,0.556770500,10.246858600,-0.010249020,-0.041578710,0.047992170
1640790342.065280,-0.159246710,0.447283000,10.173908230,-0.070044410,0.024624170,0.052750110
1640790342.067040,0.363434520,0.397931280,9.419648170,-0.058227790,-0.070603210,0.073322650
1640790342.070160,-0.071416790,0.359857230,10.653217320,-0.012667480,-0.040084120,0.053930290
1640790342.071760,0.310965450,0.502552810,9.128586770,-0.026035310,0.017206370,0.053213530
1640790342.075320,0.193351480,0.372553110,9.729996680,-0.044681140,-0.082096440,0.057215980
1640790342.076970,0.013531400,0.107602070,10.137353900,-0.075264280,0.036816300,0.060001020
1640790342.081490,0.229716300,0.189256250,9.499093060,-0.004664060,0.000175830,0.046598920
1640790342.083560,-0.350505380,0.085252880,10.380157470,-0.004026290,-0.069217380,0.044701990
1640790342.085200,-0.188933220,0.105705400,9.708453180,-0.033926960,-0.045467920,0.070151690
1640790342.086720,-0.264420270,0.103250930,9.472945210,-0.040639940,-0.014857950,0.036978720
1640790342.090230,-0.162701900,0.007685060,9.728973390,-0.022698940,0.016650560,0.028824810
1640790342.091830,-0.196056020,0.314550430,10.154102330,0.030739610,0.003044310,0.047227740
1640790342.096230,-0.076909940,0.283565010,9.880089760,-0.015205140,-0.005978350,0.041016940
1640790342.096740,0.041278250,0.258645680,9.982800480,-0.013408060,-0.090962650,0.078031430
1640790342.100250,-0.186415850,0.242145230,9.972499850,0.003781910,-0.015921890,0.069074340
1640790342.101760,0.115351380,0.065990600,9.324810980,0.015239420,-0.017508870,0.045926870
1640790342.105360,-0.180610190,0.288517530,10.370227810,0.038385390,-0.029398500,0.056001560
1640790342.106790,-0.075423590,0.406296730,9.874855040,-0.023409730,0.004497170,0.038984430
1640790342.110660,-0.004179440,0.448828940,9.804955480,-0.033092500,-0.075720250,0.044624500
1640790342.112150,-0.154712920,0.538805660,10.029022220,-0.023940210,-0.036259000,0.035186120
1640790342.115440,-0.134843350,0.611071110,9.840800290,-0.009152290,-0.019685920,0.026474900
1640790342.116890,-0.327408130,0.628638390,10.138818740,-0.007635360,-0.046916310,0.039874020
1640790342.120150,-0.302962150,0.420590550,10.159097670,-0.036957860,-0.079761450,0.053900490
1640790342.121700,-0.279358270,0.259920840,9.954810140,-0.003924970,-0.055105980,0.058482590
1640790342.125260,0.138464440,0.338811700,9.240386010,-0.015735630,-0.030972070,0.066369770
1640790342.126850,0.064166580,0.186176910,10.240599630,-0.044365230,0.003692510,0.079467900
1640790342.130350,0.283929530,0.298971180,9.850776670,-0.053231420,0.001694260,0.067360690
1640790342.133240,0.334938470,0.110167000,10.082981110,-0.022035840,-0.117066500,0.048971180
1640790342.135600,0.020523890,0.194444970,9.901742940,0.022368130,-0.040695070,0.053130100
1640790342.136700,0.062395250,0.235181020,9.367360120,-0.005987290,-0.052104900,0.024998190
1640790342.140200,-0.247654600,0.041964550,10.180072780,-0.023423130,-0.021512810,0.033621490
1640790342.141800,-0.132700890,0.336876930,9.480055810,-0.013279920,-0.007157030,0.042644140
1640790342.145820,-0.313135180,0.274106890,10.056835170,-0.005672870,-0.055685640,0.041265780
1640790342.147600,-0.288868780,0.281728890,9.818174360,-0.004193190,-0.022231040,0.070324530
1640790342.150290,-0.259634170,0.246890380,9.940773010,0.012366480,-0.104846080,0.052779920
1640790342.151740,-0.199682440,-0.031277100,9.786216740,0.026227540,-0.029835100,0.046715140
1640790342.155240,0.223670560,-0.004476600,9.505538940,0.058747830,-0.015497210,0.045564770
1640790342.157970,-0.071260910,0.070462920,10.564480780,0.040344890,0.001923740,0.031614300
1640790342.160530,0.248799060,0.160203320,9.798866270,0.007045270,-0.063207750,0.041341790
1640790342.162030,-0.007078830,0.308127700,10.104518890,0.001917780,-0.135160980,0.035120550
1640790342.165320,-0.059765690,0.381508200,9.327801700,0.008310380,-0.031703700,0.037148590
1640790342.166750,-0.112325280,0.463867250,9.863972660,0.071041290,-0.056678060,0.022925440
1640790342.170180,-0.488028730,0.602198840,10.584421160,0.047980250,-0.005847210,0.025440750
1640790342.171760,-0.140837000,0.731453600,9.778390880,0.012040140,-0.112916530,0.053329770
1640790342.175190,-0.292264610,0.577268540,10.294830320,-0.013254580,-0.104600190,0.047352910
1640790342.176990,0.011431760,0.628551660,9.346395490,-0.030447540,-0.009503960,0.036676220
1640790342.180330,-0.138522450,0.677759890,10.149360660,-0.004665550,-0.082357230,0.035877530
1640790342.181810,-0.127267840,0.310118790,10.350545880,-0.018307570,-0.057055060,0.033070150
1640790342.185270,0.325352700,0.217498960,9.536433220,0.034517050,-0.114734470,0.035198040
1640790342.186700,-0.017853280,0.192212700,10.112580300,0.023965540,-0.058647990,0.036770110
1640790342.190200,0.309168280,0.256566050,9.554783820,-0.050982840,-0.022199750,0.054325170
1640790342.191920,0.137842430,0.377964760,9.928351400,-0.072187190,-0.061146910,0.059726840
1640790342.196040,0.106256640,0.300677780,10.037045480,-0.060854860,-0.042700770,0.032782560
1640790342.197060,-0.031570210,0.456940110,9.989213940,0.025878850,-0.096319600,0.030484790
1640790342.200250,-0.291091290,0.429935160,9.550730710,0.015355650,-0.086151080,0.021499400
1640790342.201870,-0.213100900,0.124302740,9.792322160,-0.017654890,-0.066567940,0.022876260
1640790342.205860,-0.310498630,0.159550650,9.992302890,-0.018014020,0.015848880,0.035794080
1640790342.206720,-0.025848300,0.106068400,9.783116340,-0.019484760,-0.060017400,0.024740400
1640790342.210240,-0.110629860,0.229238380,10.387946130,0.001619760,-0.091744950,0.058855110
1640790342.212450,0.202461500,0.287380750,9.383700370,-0.049784780,-0.015582140,0.041988480
1640790342.215640,0.043966810,0.130523410,9.986589430,-0.015105310,-0.096160180,0.029611590
1640790342.216700,-0.126546550,0.137572180,10.111466410,0.048400470,-0.061395780,0.028353930
1640790342.220210,0.132069680,0.100356700,9.356927870,0.064055620,-0.061500080,0.005984310
1640790342.221740,-0.258794990,0.272771780,10.274252890,0.020915270,-0.055451700,0.012671950
1640790342.225520,-0.219254900,0.561158780,10.210788730,-0.070808840,-0.067552920,0.033213200
1640790342.226960,-0.159120780,0.464777710,9.751243590,-0.063912570,-0.085258480,0.032064320
1640790342.231280,-0.083087400,0.619134840,9.691308980,0.006432830,-0.072805590,0.012736020
1640790342.232340,-0.170005980,0.762091040,10.421738620,0.026787820,-0.030355160,-0.006125870
1640790342.235210,-0.011049720,0.766338530,9.715199470,-0.018130240,-0.039118520,0.030362610
1640790342.236720,0.102299060,0.552738070,10.036436080,-0.063452110,-0.140140920,0.043080740
1640790342.240570,0.025320790,0.302545520,10.029027940,-0.062732390,-0.012670460,0.037927920
1640790342.241800,0.285328840,0.384610560,9.146481510,-0.051155690,-0.051897770,0.031834840
1640790342.247260,-0.240227910,0.189568360,10.843234060,-0.049234930,-0.107939560,0.031699240
1640790342.248210,0.025420650,0.165003170,9.540322300,-0.053931770,-0.021293760,0.024028120
1640790342.250140,0.114899890,0.095926490,9.570477490,-0.025500360,-0.128829480,-0.003331900
1640790342.251790,-0.052580600,0.127112730,10.299499510,-0.028072300,0.015547870,0.011312960
1640790342.255270,0.396479310,0.509219530,9.348711010,-0.057120610,0.025913120,0.013062360
1640790342.257020,0.049316130,0.340063010,10.467137340,-0.092601780,-0.052021450,0.017373260
1640790342.260560,0.177557100,0.397393910,9.910082820,-0.064133120,-0.064200160,0.037637360
1640790342.261740,0.030226730,0.248389180,9.456814770,-0.000499190,-0.071151560,0.019037730
1640790342.265230,-0.107540280,-0.136398020,9.435359950,0.007928910,-0.028246640,0.018331410
1640790342.266750,-0.187836930,-0.121196670,10.064956670,0.021630530,-0.017768150,0.015985970
1640790342.270240,-0.056063450,-0.265402970,9.805891040,-0.023406750,0.042232870,0.001680850
1640790342.275470,0.225708070,-0.066199710,9.976927760,-0.010739270,-0.053355100,0.026795270
1640790342.276290,-0.134683980,0.319675770,10.639408110,-0.041671100,0.001740460,0.011499230
1640790342.277750,0.194116770,0.465880160,9.180567740,-0.059707460,-0.025574860,0.004665550
1640790342.281180,-0.191536430,0.453340860,10.239639280,0.018709900,-0.096958880,-0.004740060
1640790342.281800,-0.201127810,0.421488880,9.703765870,0.053735080,0.033710900,-0.030845400
1640790342.285220,0.009571580,0.380607900,9.570270540,0.068847840,-0.030387940,-0.013402110
1640790342.286730,-0.346899690,0.366324250,10.678084370,-0.007988510,-0.014303630,0.005400180
1640790342.290210,0.123377790,0.454787340,9.776581760,-0.093936920,-0.013189020,0.022357700
1640790342.291780,0.100052020,0.383405270,9.846189500,-0.067846480,-0.033845010,0.025871400
1640790342.295330,0.081222900,0.439947840,10.050098420,-0.016178190,-0.004990400,-0.005921720
1640790342.296790,-0.006208150,0.646452370,9.893361090,0.035114590,-0.019580130,-0.002969800
1640790342.300180,0.023566470,0.469036670,9.470047000,-0.033174460,-0.038783260,-0.006347890
1640790342.301770,0.010066380,0.162200700,9.929640770,-0.051184000,-0.046755370,0.016586480
1640790342.305560,-0.092989100,0.120678630,9.737377170,-0.014293190,0.051379200,-0.002817810
1640790342.306750,0.041975290,0.075428930,9.930637360,-0.001491610,-0.036118930,-0.004985930
1640790342.310500,-0.247602730,0.168218580,10.416219710,-0.014890730,-0.026279690,0.033169990
1640790342.311840,0.092061880,0.077358050,9.323541640,-0.046011800,-0.020153820,-0.011971590
1640790342.315330,0.086138410,-0.031409370,9.769708630,0.009584430,-0.029183930,-0.003008550
1640790342.316810,0.072929750,0.251670270,9.525012020,0.038985920,0.061741480,-0.016663970
1640790342.320240,0.208265200,0.312465070,9.778557780,0.005902350,-0.006143750,-0.031225390
1640790342.321750,0.025652590,0.415878180,10.104683880,-0.032314660,-0.003893670,0.024557120
1640790342.325200,0.014935470,0.388712730,9.771195410,-0.023114680,-0.037665660,0.014646350
1640790342.326990,-0.240133990,0.148457740,10.011514660,0.022189320,-0.018490850,0.008907920
1640790342.332160,-0.170352560,0.207079530,9.683502200,0.052903600,0.004872680,0.004296010
1640790342.332680,-0.405732630,0.120874740,10.210229870,0.048598650,-0.016686320,-0.021761660
1640790342.335250,-0.122298900,0.178816840,9.641398430,0.018861890,0.006973740,-0.015383960
1640790342.336970,0.056058700,0.386473830,9.775214200,-0.003863870,-0.039222840,-0.016810000
1640790342.340150,-0.027213990,0.538567900,10.029906270,-0.028745830,0.045391920,-0.034475330
1640790342.341750,0.295776400,0.887893500,9.810548780,-0.024759770,-0.017763670,-0.021608170
1640790342.345330,-0.110900920,0.675513630,10.566375730,-0.013469160,-0.039146840,0.001482670
1640790342.346750,0.153534860,0.566947040,9.455804820,0.027675930,-0.025334950,-0.002546610
1640790342.350200,-0.113491650,0.469332460,10.143056870,0.040376190,-0.051617620,0.003370640
1640790342.351910,-0.177141460,0.378906280,9.511086460,-0.050215420,0.034902990,0.030326840
1640790342.355190,0.082246250,0.331389780,9.448516850,-0.081473600,-0.037339330,0.033406920
1640790342.356740,-0.145673330,0.015006580,10.422323230,-0.067718330,0.044609600,0.011728700
1640790342.360540,0.182686950,0.253745970,9.517602920,0.015179810,-0.006932020,0.001071390
1640790342.361840,-0.174048780,0.266784790,10.379951480,0.023335220,-0.087694820,-0.020879510
1640790342.365310,0.233094720,0.294172290,9.345972060,-0.067329410,0.046458850,-0.008703770
1640790342.366760,0.289246530,0.272865920,9.595375060,-0.044369700,0.023505090,0.001014770
1640790342.370240,-0.056672380,0.168892860,10.426595690,-0.019277640,0.033503780,-0.007428230
1640790342.371800,0.238402980,0.452831980,9.446782110,0.018438700,-0.034503640,0.024625660
1640790342.375200,-0.102946350,0.321750610,9.578961370,-0.033211700,-0.036498900,0.028331580
1640790342.377030,-0.033173200,0.059764610,9.728600500,-0.059159100,0.022293620,0.016942620
1640790342.380270,-0.108802070,0.124731300,9.809994700,0.014327470,0.025157630,0.010707970
1640790342.381890,0.002175510,0.079925100,9.771759990,0.022494790,0.016269090,-0.009869040
1640790342.385490,-0.002854310,0.358682220,10.336215020,0.012429060,0.011216100,0.005003810
1640790342.386750,-0.071720940,0.521807010,9.847303390,-0.084304810,0.037273760,-0.003771480
1640790342.390140,-0.026817630,0.374026750,9.761609080,-0.072006890,-0.081200900,0.008192660
1640790342.391760,-0.259860520,0.314741670,9.936716080,0.021354850,-0.001674890,-0.010208790
1640790342.395340,0.075310810,0.336535390,9.138794900,0.052429740,0.053010880,-0.040788950
1640790342.396810,-0.222005980,0.492439600,10.488182070,0.019991400,-0.010953840,-0.002942980
1640790342.400470,0.034168120,0.462815910,10.050415040,-0.084488100,0.029045340,0.014890730
1640790342.402100,0.383363570,0.421908770,9.482439040,-0.087718670,-0.014305120,0.016044080
1640790342.408500,0.032332000,0.620560350,10.257326130,-0.055807830,0.017358360,0.011855360
1640790342.408970,0.043606650,0.731968340,10.007885930,-0.055731840,0.024703150,0.008706750
1640790342.410430,-0.175405250,0.536157970,9.797533040,-0.046882030,-0.024269520,0.014002620
1640790342.411900,-0.124211840,0.358771680,9.727057460,-0.044915080,-0.051303200,0.002677740
1640790342.415420,-0.144560770,0.226152780,9.754639630,-0.042608390,0.067949300,0.007762020
1640790342.416750,0.142821010,0.316379190,9.251510620,-0.086306020,0.075680020,0.007928910
1640790342.420290,0.137308000,0.204949800,10.711929320,-0.106845800,0.019621850,0.018729270
1640790342.421770,0.252326700,0.258989900,9.917819980,-0.087398290,0.082640360,0.010710960
1640790342.425240,0.361672100,0.221142580,9.500041960,-0.045982000,-0.077700640,-0.011780860
1640790342.427100,-0.139035690,0.097236630,10.144907000,-0.012801590,0.007537010,0.018389520
1640790342.430300,0.234377850,0.235267160,8.783557890,-0.066909200,0.088799000,0.002199410
1640790342.432630,-0.084734060,-0.023640800,10.288010600,-0.078770520,0.043532260,0.017999110
1640790342.435400,-0.104715620,0.172392310,10.269156460,-0.055241580,0.079396350,0.035975870
1640790342.436780,-0.003537190,0.268270310,9.743021010,-0.033701960,-0.015777350,0.009614230
1640790342.440160,-0.201530840,0.123853970,9.848062520,-0.058695670,0.014843050,0.020064410
1640790342.441740,-0.109764610,0.294242770,9.735157970,-0.040134790,0.052690520,0.013792520
1640790342.445310,-0.149290950,0.029402270,9.855933190,-0.007861850,0.076137490,-0.009916720
1640790342.446790,0.159910190,0.267774700,9.704681400,0.021731850,0.027775760,0.004766880
1640790342.450640,-0.089154980,0.545821490,10.480827330,-0.042678420,0.048071150,0.006958840
1640790342.451770,0.063599900,0.501645800,9.599812510,-0.127544970,0.058500470,0.008727610
1640790342.455160,-0.179464340,0.618000860,10.318236350,-0.075694920,-0.079417250,0.012254720
1640790342.460270,-0.299379170,0.439591710,9.852134700,-0.016313790,0.064125660,-0.002749260
1640790342.461830,0.049090510,0.599751470,9.353104590,0.021219260,0.045566260,-0.016793610
1640790342.462490,-0.483612150,0.642679930,11.040812490,-0.050950050,0.023239850,0.018402930
1640790342.466460,0.143131510,0.576696990,9.475587840,-0.151099260,0.056543960,0.046195090
1640790342.467230,0.242461350,0.483754190,9.879417420,-0.129856180,-0.001069900,0.033609570
1640790342.470220,0.013881930,0.486184980,10.303096770,-0.094531480,0.095434480,0.026480850
1640790342.471880,0.200509120,0.615848120,9.659506800,-0.042426590,-0.007869300,0.023078920
1640790342.475360,-0.065381040,0.210786520,10.083558080,-0.079718230,-0.010173020,0.009657440
1640790342.477020,0.201760600,0.052855000,9.521176340,-0.088545680,0.062017140,0.021171570
1640790342.480420,-0.117862700,0.080743160,10.194968220,-0.054673850,0.062264510,0.004962090
1640790342.482240,0.023245350,0.136410790,9.791389470,-0.104954850,0.058269510,0.003878770
1640790342.485170,0.016645360,0.465426330,9.796610830,-0.126107040,0.004865230,0.033800300
1640790342.486760,-0.076845770,0.277189170,9.765700340,-0.146082060,0.072149950,-0.000461940
1640790342.490180,0.078808490,0.232385710,9.792826650,-0.042513010,0.017699600,0.016069410
1640790342.491790,-0.319824040,0.205171720,10.152903560,0.006853040,0.029240550,-0.000607970
1640790342.495390,0.159100000,-0.004813790,9.366305350,-0.053788730,0.064775350,-0.010277330
1640790342.497400,0.026225570,0.038369600,10.240318300,-0.077165670,0.078086550,0.018784400
1640790342.500560,0.058614240,0.066529740,9.957063670,-0.093862410,0.088679780,0.006659330
1640790342.501770,0.195574670,0.223826330,9.772798540,-0.057901450,-0.012446940,0.010202830
1640790342.505190,-0.058914990,0.413123130,9.742299080,-0.073739890,0.054673850,-0.005109610
1640790342.506770,-0.021751560,0.323304530,9.687465670,-0.054967410,0.061750420,-0.017674270
1640790342.510540,-0.434201210,0.208107410,10.578896520,0.001463290,0.040696550,-0.037735700
1640790342.511830,-0.287398760,0.365103900,9.886746410,-0.012373930,0.018781420,-0.036711990
1640790342.516240,-0.283795740,0.602998670,9.932121280,-0.069394720,0.009067360,-0.012826920
1640790342.517300,-0.073629160,0.708937470,9.698644640,-0.161121830,0.105416800,0.013066830
1640790342.520180,0.129805850,0.629247610,9.965448380,-0.147630270,0.071673100,0.012800100
1640790342.521770,0.055094170,0.610475540,10.204180720,-0.040930510,0.043258070,0.001591440
1640790342.525230,0.294124160,0.578973830,9.725975990,-0.027778740,0.002752240,-0.016170740
1640790342.527020,0.035965880,0.337383390,9.956569670,-0.081036980,0.042952600,0.003141170
1640790342.530430,0.230576870,0.064585360,9.564339640,-0.146575270,0.061182680,-0.006420910
1640790342.531830,0.162999380,-0.278774170,10.148140910,-0.102838900,0.083456930,-0.017102060
1640790342.535220,0.100206440,0.088470930,9.629099850,-0.063157070,0.110736490,-0.024300820
1640790342.536800,-0.045716070,0.124432500,10.046937940,-0.083854790,0.000232460,-0.017184020
1640790342.540240,-0.383645710,-0.071678510,9.994733810,-0.096321110,0.043991210,-0.011634830
1640790342.541830,-0.190991770,0.079284620,9.129360200,-0.040096050,-0.003403430,-0.033897160
1640790342.545420,-0.441169170,-0.139088850,10.223542210,0.012290480,0.081190470,-0.021348890
1640790342.547630,-0.069139460,0.157217460,9.660647390,-0.018632410,0.157660250,-0.027883060
1640790342.550700,-0.069157740,0.292000710,10.432571410,-0.070309640,0.022745130,-0.026185810
1640790342.552110,0.105509150,0.270768670,9.996545790,-0.079983470,0.040307640,0.004418190
1640790342.555180,0.341334340,0.367809150,9.221523280,-0.031103190,0.021454690,-0.016947090
1640790342.556730,-0.081255200,0.155342270,10.001098630,0.012159350,0.066185010,-0.026561320
1640790342.560630,0.039245640,0.211132110,9.840338710,0.034768880,0.052954260,-0.035239760
1640790342.563890,-0.218677220,0.159992680,10.096549030,-0.014047330,0.033736230,-0.045822560
1640790342.565220,-0.086348620,0.202358010,9.648317340,-0.069400670,0.056405370,-0.030881170
1640790342.567240,-0.218675730,0.463715050,10.408555030,-0.056307020,0.035455830,-0.040584800
1640790342.570190,-0.293241800,0.688779470,9.735671040,-0.072026270,0.075350710,-0.031532350
1640790342.571880,-0.112000570,0.838178400,9.639115330,-0.047360370,-0.032256550,-0.011338300
1640790342.575240,-0.372367560,0.473431560,10.370150570,-0.042627750,0.075903540,-0.018939380
1640790342.577450,0.086746310,0.471879270,9.264704700,-0.007842480,0.056034330,-0.018383560
1640790342.580260,-0.245539590,0.277983100,10.738827710,-0.014536080,-0.035570560,-0.016495580
1640790342.583130,0.202344190,0.136511950,9.529816630,-0.098909450,0.086587670,-0.003010040
1640790342.585140,0.500482020,0.172735560,9.239888190,-0.089280290,0.020971890,-0.010579820
1640790342.586730,0.157069120,0.180024000,10.375540730,-0.066882370,0.091180210,-0.031290950
1640790342.590130,0.513296430,0.457528830,9.440208440,-0.047837210,0.078159580,-0.013946000
1640790342.591770,-0.037453060,0.348645330,10.199623110,-0.058105590,-0.022555890,-0.027805570
1640790342.595570,-0.147299330,0.091653060,9.970526700,-0.061379380,0.026971100,-0.024043030
1640790342.596830,-0.356780920,0.045628380,9.612648010,0.000001490,0.034978990,-0.045718260
1640790342.600180,-0.548928500,-0.045839210,9.634070400,-0.023862720,0.055168580,-0.052697960
1640790342.601810,-0.292411090,0.074504710,9.958488460,-0.017856060,0.044298160,-0.013069810
1640790342.605230,-0.261248440,0.035489510,9.969391820,-0.057451430,0.104202350,-0.033161040
1640790342.606740,0.123887530,0.053846440,9.653997420,-0.020429490,-0.011155010,-0.012673440
1640790342.612050,-0.090144370,0.126084730,10.430773740,0.036647930,0.012470780,-0.021941970
1640790342.613190,0.274623750,0.239398050,9.196355820,0.012540820,0.083865230,-0.042842330
1640790342.615170,0.039329080,0.362231370,10.227237700,0.018595160,-0.026960670,-0.035084780
1640790342.616740,-0.110664100,0.372676820,10.229285240,-0.025923550,0.059115880,-0.042942160
1640790342.620150,0.200289230,0.393521640,9.269603730,0.007297100,0.008985400,-0.030939280
1640790342.621770,-0.388691660,0.454984750,10.508256910,0.040659300,0.007553400,-0.033313040
1640790342.625390,-0.370480360,0.582359430,10.077463150,-0.007824600,0.026649240,-0.027211010
1640790342.626990,-0.346444400,0.505572380,9.694884300,-0.008393830,-0.041818620,-0.013083220
1640790342.630260,-0.256044480,0.410158280,9.868625640,-0.010992590,0.002741810,-0.021979210
1640790342.632120,0.033416870,0.646544160,9.851368900,0.003157560,0.079947710,-0.004571680
1640790342.635440,0.092555550,0.771953050,9.893391610,-0.053742530,0.054188080,-0.005857650
1640790342.636760,0.232907920,0.551203490,10.391673090,-0.091773270,-0.047755230,0.014348330
1640790342.640270,0.068021330,0.364282310,9.992744450,-0.034253300,0.002618130,0.000377000
1640790342.641800,0.150080490,0.088570150,9.155910490,0.016655030,-0.040179490,-0.026223070
1640790342.645300,-0.206782340,-0.042125230,10.264764790,0.049830980,-0.008568170,0.011740630
1640790342.647810,-0.049634420,0.009252940,9.530415530,-0.036169590,0.090126690,-0.001513960
1640790342.650170,0.084582170,-0.028664450,9.829716680,-0.063142180,-0.015391410,-0.006526710
1640790342.651760,-0.196433770,0.352115040,10.405373570,-0.047987710,0.011931360,0.006419420
1640790342.655160,0.065614800,0.509064200,9.333263400,-0.034594540,0.012004380,-0.007823110
1640790342.657080,-0.280227450,0.467862040,9.928898810,0.003278260,-0.055232650,-0.012151900
1640790342.660550,-0.293243200,0.337261380,9.903437610,0.020569560,-0.000920890,-0.027424100
1640790342.661910,-0.123047810,0.051333910,9.581042290,0.061506030,0.030776860,-0.014890730
1640790342.665140,-0.137442010,0.043155070,9.941032410,0.039522350,0.013688210,0.007441640
1640790342.666750,-0.133490700,0.094855310,10.397407530,-0.029103460,-0.023449960,0.017812850
1640790342.670260,0.005375620,0.180068540,9.428826330,-0.047907230,-0.007109350,0.023278590
1640790342.671890,0.156358750,0.239918960,9.500921250,-0.007003550,-0.071671590,-0.009600820
1640790342.675160,-0.170655530,0.289134830,10.349235530,0.071245430,0.053381930,-0.020918250
1640790342.677020,0.044793300,0.617162350,9.558229450,0.055900220,0.019580120,-0.028753280
1640790342.681180,-0.358682160,0.538310350,10.855891230,-0.004847350,-0.114583980,-0.016005340
1640790342.681770,-0.236640780,0.636998360,9.772953030,-0.043112030,-0.008717180,0.013192000
1640790342.685130,-0.018396240,0.482847210,9.308414460,-0.021418930,-0.056098410,-0.006899240
1640790342.686740,-0.438442740,0.481269030,10.416475300,0.016410650,0.006502870,0.004579130
1640790342.690210,-0.059735770,0.767958520,9.570266720,-0.002282860,-0.017975270,0.008831920
1640790342.691810,-0.019025080,0.391355100,9.966695790,-0.044646870,-0.086253900,0.015525520
1640790342.695350,0.205784370,0.377073200,9.682504650,-0.038661060,-0.004661080,0.018663700
1640790342.696790,0.105205830,0.410145700,10.102937700,-0.026203690,-0.019785760,-0.001339610
1640790342.700210,0.105765750,0.336319630,9.818136220,-0.048646330,-0.022006030,0.013622640
1640790342.701810,0.170369360,0.286764560,9.884692190,-0.056889660,-0.082606080,0.014530120
1640790342.705740,-0.162589010,-0.023197130,10.164186480,-0.031402710,0.004199150,0.000630320
1640790342.707140,0.057024930,0.019990840,9.216095920,0.024519860,-0.065253670,-0.005267560
1640790342.710520,-0.363722260,0.007163450,10.241888050,0.003957750,-0.076720100,-0.014209750
1640790342.711880,0.048952900,0.212399660,9.042308810,-0.062270470,0.054170190,0.004266200
1640790342.715430,0.091369540,0.225106670,9.953201290,-0.057293480,-0.040192900,0.004996360
1640790342.716830,-0.181909350,0.393759850,10.634240150,-0.020110610,-0.000959630,0.008431080
1640790342.720350,0.208806430,0.620557010,9.222743030,0.011301040,-0.099092720,0.006091600
1640790342.722060,-0.295035840,0.205020640,10.154251100,-0.015464430,-0.090976070,-0.003120300
1640790342.725210,-0.208375890,0.094721420,9.460146900,0.002293290,-0.002543630,0.005930660
1640790342.726940,-0.340784400,-0.199538870,9.828248980,0.067834560,-0.082647810,-0.025790930
1640790342.731890,-0.177307100,-0.141204120,9.651884080,0.062540180,-0.036747750,-0.017419460
1640790342.733370,-0.067048030,0.318616510,9.874590870,-0.007231530,-0.053001950,-0.002327560
1640790342.735780,-0.199318020,0.292447570,10.225250240,-0.102429090,-0.034426160,-0.013540690
1640790342.737310,0.060776360,0.432034670,9.835318570,-0.029033420,-0.107556580,-0.006139280
1640790342.740190,-0.349045190,0.529396470,10.368802070,0.086891660,-0.100435320,-0.040011110
1640790342.741800,-0.105150770,0.592230020,9.384329800,0.098118190,-0.062726440,-0.033375620
1640790342.745340,-0.400964410,0.638701320,10.207605360,0.023201110,-0.138922050,0.005792080
1640790342.746800,-0.296652670,0.367373850,9.737574580,-0.083236400,-0.047047440,0.024530300
1640790342.750160,0.165737110,0.273357270,9.503788950,-0.030840940,-0.091032680,0.019171840
1640790342.751920,-0.263110940,0.366563500,10.614958760,0.016070900,-0.062862050,-0.003653770
1640790342.755190,0.131794690,0.600950540,9.574590680,0.001676380,-0.123418880,-0.000619890
1640790342.756740,-0.037897120,0.365781220,9.993220330,-0.028854610,-0.171594320,-0.008544330
1640790342.760720,0.116686460,0.199895980,9.471671100,-0.048507750,-0.046294930,-0.014002620
1640790342.761880,0.083766970,0.288517830,9.792939190,0.017781560,-0.092402110,-0.006397070
1640790342.765840,-0.161883990,0.190029840,10.230369570,-0.007706880,-0.083111230,-0.003130730
1640790342.766760,0.053254470,0.263692320,9.572585110,-0.032426420,-0.138160590,0.026193260
1640790342.770350,-0.309490830,0.123087880,9.990870480,-0.027818980,-0.141878440,0.009934600
1640790342.771880,0.011303930,-0.099760090,9.340102200,0.011233990,-0.079961130,-0.005599860
1640790342.775200,-0.088435870,0.146933210,9.814192770,0.065544260,-0.088851150,-0.013391680
1640790342.777120,0.008615950,0.181626260,9.957571030,-0.005088750,-0.051341960,-0.025101010
1640790342.780590,0.230388430,0.237565860,9.931712150,-0.026206670,-0.121444460,-0.001218910
1640790342.781800,-0.082895550,0.353856680,9.885904310,-0.015568730,-0.117217000,-0.004035230
1640790342.785460,0.040425170,0.179545180,9.533298490,0.030411780,-0.146953750,-0.005111100
1640790342.786750,-0.297387150,0.065102640,9.957133290,0.074340400,-0.095523890,-0.008440020
1640790342.790190,-0.215887990,-0.049590650,9.678818700,0.075110790,-0.098861760,-0.031305850
1640790342.791790,-0.261282740,0.060576110,10.185817720,0.080327690,-0.143839430,-0.019854310
1640790342.795290,-0.101406060,0.400092600,9.676827430,0.000824030,-0.078493360,-0.022052230
1640790342.797960,-0.008737070,0.696827290,9.786190990,-0.050847240,-0.135451570,-0.016450880
1640790342.800450,-0.177005280,0.861519100,10.306331630,-0.046542290,-0.132232900,-0.011529030
1640790342.802740,0.091577080,0.806126300,9.554385190,0.004640220,-0.143966080,-0.026164950
1640790342.805200,-0.194226130,0.692196130,10.072829250,0.092366360,-0.162427130,-0.024083260
1640790342.806860,-0.141377780,0.551657740,10.033176420,0.039339080,-0.133194040,-0.011976060
1640790342.810400,-0.065854180,0.294045210,9.853606220,-0.032190980,-0.141957420,0.022707880
1640790342.811850,0.074599640,0.206901250,9.603029250,-0.074748700,-0.141982730,0.021398070
1640790342.815170,0.231344600,0.137554080,9.914662360,-0.052237520,-0.110274560,0.010572370
1640790342.817230,0.199307830,0.505881370,9.586599350,-0.011201200,-0.071862340,0.001657010
1640790342.820170,0.094416270,0.566292230,10.009978290,-0.055305660,-0.194156140,-0.007320940
1640790342.821790,-0.050457090,0.337906000,10.182916640,-0.047194960,-0.151255740,-0.009241700
1640790342.825690,0.181140180,0.235215830,8.916219710,-0.001095240,-0.123244530,-0.036703050
1640790342.827040,-0.213175920,0.060297790,10.230258940,0.034771860,-0.139659630,-0.010086590
1640790342.830730,-0.179394950,0.208280580,9.830087660,-0.026191770,-0.061745930,0.022181870
1640790342.831840,0.101199410,-0.016814460,9.489278790,-0.079391880,-0.182810410,0.024315710
1640790342.835250,-0.053188310,-0.174169050,10.033567430,-0.023189190,-0.135737660,0.037780400
1640790342.837450,0.247590290,-0.071132120,9.305715560,0.047557060,-0.081713500,0.005893410
1640790342.840170,0.089820400,-0.064380090,9.692871090,0.061529880,-0.122709590,-0.017917160
1640790342.842000,0.099005910,0.124803430,9.936104770,0.017288330,-0.124791260,-0.012077390
1640790342.845260,0.059308860,0.102642040,9.919461250,-0.008915360,-0.115945960,-0.023657090
1640790342.847530,0.034966800,0.184084970,9.358938220,0.023779270,-0.126460180,0.000612440
1640790342.850360,-0.217186420,0.229607570,10.226560590,0.066301230,-0.169688450,-0.017623600
1640790342.851860,-0.264699070,0.310125230,9.682804110,0.063972180,-0.065380330,-0.012789670
1640790342.855170,-0.010035570,0.399697990,9.396050450,0.048525640,-0.184755030,-0.004833940
1640790342.856760,-0.226604370,0.313350320,10.494707110,0.035019220,-0.120325410,0.003339350
1640790342.860320,0.413399370,0.623370830,8.987547870,0.025521220,-0.035282970,-0.000360610
1640790342.861950,0.136088610,0.693061770,10.409189220,-0.009636580,-0.169445540,-0.009991230
1640790342.865840,0.112394680,0.668944120,10.176189420,-0.038497150,-0.092735890,0.010280310
1640790342.866760,0.419559480,0.485550370,9.125196460,0.019972030,-0.153420870,-0.013752280
1640790342.870270,-0.169495200,0.085482410,10.313820840,0.072140990,-0.121630740,-0.020985300
1640790342.871800,0.048178590,0.333704140,9.567162510,0.068409750,-0.103482600,0.012707710
1640790342.875250,-0.000950560,0.075666100,9.615522380,-0.024631620,-0.113408270,0.004452470
1640790342.877170,0.336280610,0.103377860,9.437020300,-0.058095160,-0.045031310,0.029285250
1640790342.882940,0.151259320,0.455094040,10.234000210,-0.010429320,-0.057938690,0.017827750
1640790342.883800,0.187853900,0.475880410,9.677227020,-0.002498920,-0.080378360,-0.007988510
1640790342.885220,0.243424650,0.602405490,9.533677100,0.013288860,-0.186365840,0.002597270
1640790342.886800,-0.104541870,0.225864750,9.825629230,0.009162720,-0.040476030,-0.021363790
1640790342.890180,0.275496450,0.051198740,9.019975660,0.042313340,-0.028580430,-0.022883720
1640790342.891900,-0.244149570,-0.022737750,10.541275020,0.058016180,-0.086733700,-0.002619620
1640790342.895410,0.057772680,-0.043731590,9.561902050,-0.019116700,-0.026394430,0.011375550
1640790342.897060,0.199277300,-0.013884030,9.562819480,-0.019486250,-0.107523800,0.014403460
1640790342.900150,-0.027619600,-0.018163770,9.957161900,0.000151990,-0.043146310,-0.000850860
1640790342.901820,0.294734480,0.210239620,9.309114460,0.074066220,-0.033494830,-0.017505890
1640790342.905270,0.039301730,0.300279170,10.061005590,0.077702110,-0.038686400,-0.035975870
1640790342.906750,0.105954190,0.429876300,9.964841840,0.032183530,-0.048393010,-0.017201900
1640790342.910290,-0.103071640,0.461826860,9.976955410,0.027175250,-0.082826620,-0.000783800
1640790342.912000,-0.119733130,0.255946900,9.606733320,0.014589730,-0.057400770,-0.020277500
1640790342.916020,-0.236285660,0.516666110,9.764199260,0.061628230,-0.061112650,-0.002020600
1640790342.917710,-0.249352130,0.529760660,9.751723290,0.023818020,-0.018209220,-0.012691320
1640790342.920150,0.201657330,0.462258700,9.773423190,0.012479720,-0.040045380,0.012029710
1640790342.921860,0.133057650,0.637777980,10.124362950,0.022552910,-0.012375410,0.006811320
1640790342.925640,0.469452410,0.584963500,9.707116130,-0.013093650,-0.027303400,-0.004571680
1640790342.927680,0.247046020,0.620776000,10.079237940,-0.018054250,-0.040103490,0.026516610
1640790342.930370,0.093625790,0.421918750,9.685871120,-0.041514640,-0.047077240,0.003083050
1640790342.932960,0.027323040,0.069335610,9.807904240,0.027382380,-0.095263150,0.005470220
1640790342.935210,-0.122934810,0.090541300,9.583948140,0.055371240,0.004686420,-0.005292890
1640790342.937510,0.059926040,0.063079340,9.549650190,-0.000767410,0.021731860,-0.001245740
1640790342.940270,-0.113389220,0.174256620,10.555191040,-0.038753450,0.009952490,0.020553170
1640790342.942080,0.223792790,0.354131250,9.687949180,-0.057725610,-0.004796680,0.011450050
1640790342.945410,0.156831460,0.516272720,9.579840660,-0.005578990,-0.071339320,0.006029010
1640790342.946780,0.090537900,0.622432470,9.537163730,-0.007972120,0.010265410,0.006896260
1640790342.950160,0.090690050,0.365588580,9.677344320,-0.001794100,0.018294160,0.003406410
1640790342.951770,-0.128566190,0.154041920,9.958039280,0.040009620,-0.006791950,-0.003014500
1640790342.955290,-0.095742930,0.020035390,10.109623910,0.032804910,-0.041729210,0.006915630
1640790342.956870,-0.152315410,0.019111810,9.668972020,0.013211370,0.026264790,0.029045350
1640790342.960300,-0.057731540,0.173239380,9.624390600,-0.055123860,-0.030830500,0.010991100
1640790342.962100,-0.160506020,0.251588640,10.293326380,-0.038363050,0.021152200,0.017781560
1640790342.965370,0.221260590,0.513313170,9.068946840,0.007243460,0.036031010,-0.011989480
1640790342.966790,0.022535650,0.617328880,10.299155240,0.038963550,-0.051867950,-0.031708180
1640790342.970270,-0.048385370,0.832451340,10.166159630,0.001467760,0.047367810,-0.004985930
1640790342.971820,0.149106200,0.746671560,9.413174630,-0.067394980,-0.056919460,0.003649290
1640790342.975700,-0.207071750,0.357364390,10.385928150,-0.045514110,-0.032791500,0.035174190
1640790342.977840,0.077062010,0.297691080,9.374468800,0.001320240,0.063745680,0.028066340
1640790342.980700,-0.057899330,0.148999660,9.901951790,0.016957520,0.004181270,0.023551290
1640790342.981870,-0.136071100,0.229109820,10.175971980,-0.032570960,-0.010131300,0.039635590
1640790342.985160,0.193042830,0.249963340,9.551043510,-0.080879030,-0.026902560,0.013706090
1640790342.986840,0.232281250,0.205460610,9.314986230,-0.057165330,0.044725840,0.000853840
1640790342.990240,0.209904970,0.487230720,9.968790050,-0.017800930,0.031180690,-0.002011660
1640790342.992210,-0.041266060,0.376827960,10.428509710,-0.015057620,0.048057730,0.005759300
1640790342.995350,0.217821630,0.234026160,9.344412800,-0.012807550,-0.033563380,0.018946830
1640790342.997380,-0.212913470,-0.008935760,10.358381270,0.014582280,-0.045138600,0.016452370
1640790343.000160,-0.042176920,0.069385090,8.957165720,-0.002262000,0.114393230,0.022405390
1640790343.001800,0.071750900,0.109296950,9.443703650,-0.023442510,-0.012764340,0.005331640
1640790343.005200,-0.203175630,0.169492920,10.501135830,-0.043606760,0.090199720,0.014908610
1640790343.006890,0.328298900,0.466758670,9.062826160,-0.016279520,0.041574240,0.007388000
1640790343.010530,-0.181317360,0.279689250,10.448352810,-0.001680850,-0.046975920,-0.007395450
1640790343.012260,-0.133505180,0.359234570,9.724269870,0.006428360,0.041526560,0.006082650
1640790343.015240,-0.265933420,0.076235080,9.718420980,0.023444000,-0.003059210,-0.021858520
1640790343.016880,-0.394797980,-0.183477420,9.952598570,0.040166080,0.012601910,-0.006484980
1640790343.021090,-0.103869800,0.091986130,9.557367320,0.051556540,-0.002370770,0.000891090
1640790343.021810,-0.024612460,0.176784840,9.632624630,-0.012208520,0.078096990,-0.010193880
1640790343.025260,0.257551730,0.626922730,9.673288350,-0.052604070,0.025343890,0.022184850
1640790343.027770,-0.034313000,0.785173120,10.542686460,-0.055159630,-0.005218390,0.006550550
1640790343.030250,0.293256340,0.765789390,9.193566320,-0.009560580,0.028821830,-0.008125600
1640790343.032010,-0.083821410,0.859539750,10.284922600,0.053362550,-0.055533650,-0.009609760
1640790343.035160,-0.362267910,0.628700550,9.929692270,-0.018283720,0.058947510,0.003930930
1640790343.036890,0.071396720,0.347681460,8.981232640,-0.060588130,-0.034758440,0.016750400
1640790343.040260,-0.319798110,-0.111983900,10.343153950,-0.059342390,0.037638840,0.019860270
1640790343.041910,0.046647600,-0.001232790,9.355621340,-0.015404820,0.094500190,0.018948320
1640790343.045320,-0.131419550,0.113377740,10.196568490,-0.011920930,-0.068727140,0.011037290
1640790343.048290,0.096221340,0.063903850,9.602544780,-0.074683140,0.016723580,0.022730230
1640790343.050190,0.454272810,0.238134470,9.130022050,-0.038073950,0.025211280,-0.011183320
1640790343.051880,0.173857140,0.231579290,10.081234930,-0.018663700,0.104926510,-0.020003320
1640790343.055180,0.299080220,0.457883360,9.736749650,0.012645130,0.040043890,0.004522500
1640790343.057160,-0.187877860,0.412261660,10.231111530,-0.026354200,-0.041767960,-0.011031330
1640790343.060540,-0.103173150,0.164429380,9.270179750,-0.051136330,-0.014305110,0.011521580
1640790343.061920,-0.408418740,0.112021860,9.377304080,0.000979010,-0.021123890,0.013415520
1640790343.065350,-0.383500130,-0.124232550,9.510423660,0.016364460,0.095674400,-0.018976630
1640790343.066780,-0.006591250,0.147037550,9.886381150,0.037336350,0.060418250,-0.004792210
1640790343.070550,-0.178890790,0.322487890,10.403810500,-0.044511250,0.028966370,-0.003664200
1640790343.072000,0.345707450,0.370476960,9.458700180,-0.070692580,-0.016684830,0.005705650
1640790343.075210,0.033290500,0.387138960,9.935750960,-0.026664140,0.006183980,-0.018523640
1640790343.077300,0.008621370,0.396379230,9.536849980,0.007560850,0.039608780,-0.036919120
1640790343.081360,-0.219667700,0.383467820,10.125098230,0.053453450,-0.045143070,-0.030116740
1640790343.081950,-0.272411670,0.245332230,9.887739180,-0.003351270,0.034269690,-0.019122660
1640790343.085250,-0.016693150,0.422889170,9.398932460,-0.024086240,0.006663800,-0.002111490
1640790343.086850,-0.305825110,0.566691700,10.360407830,-0.075398390,0.031137470,0.005756320
1640790343.090190,0.130726770,0.764619470,9.483127590,-0.117807090,0.032687190,0.010350350
1640790343.091950,0.021259110,0.759130060,9.862957950,-0.068902980,-0.028762220,0.008480250
1640790343.095360,0.125428360,0.549969140,9.889804840,-0.035883490,0.033919520,-0.025606160
1640790343.097430,0.223063260,0.550087570,9.749891280,-0.001381340,0.031214950,-0.011022390
1640790343.100180,-0.021437200,0.254603480,10.002573970,-0.078780950,0.003641840,-0.012001390
1640790343.101880,0.087481770,-0.095649060,9.994133000,-0.102888050,0.006927550,-0.001119080
1640790343.105720,-0.069419230,-0.012646320,9.529015540,-0.062482060,0.045189270,0.000914930
1640790343.106980,0.026830220,0.063869320,9.417245860,-0.061924760,0.005929170,-0.007975100
1640790343.110600,-0.115840160,0.370081780,9.941920280,-0.060832510,0.040103500,0.022347270
1640790343.111880,0.119250720,0.400820940,9.289536480,-0.121888520,0.058873000,-0.009863080
1640790343.115360,0.133142010,0.363023820,9.929718020,-0.066135820,0.004194680,-0.013151760
1640790343.116790,-0.048407410,0.497758300,10.108003620,-0.036205350,0.084713120,-0.025202340
1640790343.120380,0.202267440,0.392349120,9.406350140,-0.053632260,0.022447110,-0.021798910
1640790343.121880,-0.321652980,0.156348420,10.343962670,-0.060738630,-0.030280650,0.003200770
1640790343.125140,-0.226963640,-0.123592240,9.460991860,-0.077821310,0.032006200,-0.016035140
1640790343.127550,-0.199734960,-0.252843050,9.192626000,-0.013636050,0.009544190,-0.017288330
1640790343.130900,-0.255413440,-0.085369670,9.904869080,-0.013373790,0.039066380,-0.028933580
1640790343.131790,-0.000157610,0.252126190,10.026194570,-0.058321650,0.079998380,-0.028535730
1640790343.136340,0.107084680,0.590710640,9.902596470,-0.097265840,0.017538670,-0.017434360
1640790343.138310,0.161016430,0.697911680,10.293333050,-0.098951150,-0.034968550,-0.020095700
1640790343.140150,0.019625700,0.813417430,9.844979290,-0.050000850,0.061935200,-0.031067430
1640790343.142290,-0.074588220,0.801359950,9.476990700,-0.044244530,-0.010673700,-0.039412080
1640790343.147810,-0.480898860,0.471655460,10.542262080,-0.030532480,-0.030283640,-0.001709160
1640790343.148280,-0.086645390,0.391857590,9.088008880,-0.070799900,0.051991650,-0.009126960
1640790343.150140,0.057358740,0.099319310,9.643256190,-0.103646520,0.016911330,-0.009503960
1640790343.151980,-0.085214920,0.342653190,10.441206930,-0.117540370,0.109471380,0.011901560
1640790343.155190,0.353975180,0.396173180,9.673645020,-0.148779150,0.030811140,-0.016796590
1640790343.156790,0.180879490,0.293588370,10.162323950,-0.101596120,-0.047431890,-0.013177100
1640790343.160280,0.146172700,0.407552960,9.620067600,-0.064389400,0.023329250,-0.030121210
1640790343.161940,0.088351050,0.283269440,9.370209690,-0.066052380,0.037638840,-0.035488600
1640790343.165190,-0.024713440,0.174578200,9.590794560,-0.094611950,0.062367330,-0.004680460
1640790343.166910,-0.047193310,0.035982600,10.240611080,-0.108695030,0.052738190,-0.012905900
1640790343.170240,-0.049464780,0.052377550,9.883512500,-0.072003900,0.068941700,-0.000828500
1640790343.171820,0.109680220,0.216890310,9.519217490,-0.068898500,-0.032751270,-0.005240740
1640790343.175590,-0.144637200,0.235579450,10.000242230,-0.094816110,0.069390240,-0.010499360
1640790343.176990,0.316357050,0.424219910,8.905184750,-0.112465030,0.099304330,-0.017814340
1640790343.180290,-0.090283420,0.174181240,10.577414510,-0.064343220,0.029645860,-0.020729010
1640790343.181890,-0.079316380,0.336054830,9.920729640,-0.019928810,0.075031820,-0.013251600
1640790343.185200,-0.014076950,0.292648760,9.579916000,-0.048175450,-0.031253700,-0.018702440
1640790343.186810,-0.500556470,0.024611020,10.320562360,-0.093221660,0.037764020,0.002761190
1640790343.190140,-0.194169420,0.211855470,9.362753870,-0.069482640,0.034241390,-0.008511550
1640790343.192180,-0.332564500,0.057674240,10.053483010,-0.030472880,0.024025140,-0.031362470
1640790343.195270,0.089351770,0.615468440,9.486939430,-0.021898740,0.070144240,-0.016072390
1640790343.197150,0.069326520,0.956310150,10.174517630,-0.109331330,0.040008140,-0.027896470
1640790343.200410,0.248671070,1.014858010,9.854622840,-0.190900270,0.066794460,0.000381470
1640790343.201920,0.245934650,0.932764830,10.016106610,-0.140048560,-0.027917330,-0.003281240
1640790343.205240,-0.208154230,0.599151790,10.304303170,-0.062873960,0.041395430,-0.026141110
1640790343.206850,-0.030102580,0.502646150,9.305742260,-0.034804630,-0.010684130,-0.009834770
1640790343.210290,-0.518265600,-0.043283920,10.346977230,-0.099340100,-0.007043780,0.005906820
1640790343.212950,-0.037459130,-0.183773340,9.157283780,-0.144056990,0.103193540,0.016342100
1640790343.215520,0.100953440,-0.153563450,9.917151450,-0.128333290,0.027412180,-0.003169480
1640790343.216970,-0.003130660,0.086129170,10.248973850,-0.129786150,0.112786910,-0.010810790
1640790343.220150,0.261962090,0.477999510,9.632379530,-0.114738950,-0.017775600,-0.014241040
1640790343.221870,-0.108025510,0.236389200,10.301451680,-0.110615790,-0.022837520,-0.033602120
1640790343.225540,0.136707930,0.355166700,9.054924010,-0.049456950,0.029024480,-0.033397970
1640790343.226880,-0.253161430,0.167782100,10.042302130,-0.034382940,0.034450000,-0.047262010
1640790343.231650,-0.112903100,0.054460440,9.860065460,-0.060366100,0.101266800,-0.008572640
1640790343.233140,-0.113911990,0.107836720,10.041594510,-0.073367360,-0.013244150,0.020973390
1640790343.235300,-0.087738000,-0.052005640,9.812212940,-0.096687670,0.023208560,0.022451580
1640790343.237220,0.337712820,0.124667010,9.152496340,-0.048254430,0.038380920,0.021888320
1640790343.240190,-0.152460990,0.177186760,10.350246430,-0.050641600,0.088307270,-0.018118320
1640790343.242290,0.154129240,0.259695050,9.947468760,-0.031861670,0.044298180,-0.023667520
1640790343.245950,-0.171538950,0.228598100,10.416076660,-0.008907920,-0.038938220,-0.037226080
1640790343.246870,-0.136391150,0.374396500,9.475996020,-0.026330360,0.031454860,-0.035730010
1640790343.250200,-0.229490760,0.526503560,9.680520060,-0.038313870,0.006908180,-0.018605590
1640790343.251880,-0.486603140,0.541097760,10.097382550,-0.098614420,0.065882500,-0.010801850
1640790343.255160,-0.005565950,0.601917090,9.494297030,-0.066071750,-0.001759830,0.016538800
1640790343.256880,-0.162426200,0.457003620,10.385964390,-0.012560190,0.026018920,-0.011725720
1640790343.260250,0.303627790,0.572779060,9.573880200,-0.015035270,0.062802430,0.001986320
1640790343.262500,0.126770330,0.563543680,10.106112480,-0.062091640,-0.006987150,0.016541780
1640790343.265400,0.317005010,0.152980510,9.714928630,-0.130201880,0.052928940,0.004455450
1640790343.266790,0.369560030,0.007742130,9.551045420,-0.053986910,0.040473040,0.005248190
1640790343.270210,-0.176261990,-0.071486150,10.147355080,-0.005064910,0.028100610,-0.024768710
1640790343.271900,-0.041437690,-0.179904820,9.741896630,0.010289250,-0.008477270,-0.003597140
1640790343.275290,-0.296492610,-0.132873550,9.776542660,-0.034141530,0.018610060,-0.019991400
1640790343.276900,-0.085986940,-0.056120370,9.489889140,-0.058680780,0.068280090,-0.024248660
1640790343.280180,-0.061581370,0.253834280,9.984557150,-0.011795760,0.061723600,-0.010801850
1640790343.282290,0.089208580,0.562366960,9.655610080,-0.031664960,0.081388640,-0.019799170
1640790343.285170,0.221811060,0.631880580,9.863142010,-0.020301340,0.002516810,0.000500680
1640790343.286850,-0.033881850,0.338826660,10.160500530,-0.011548400,0.041863330,-0.007219610
1640790343.290500,0.146391480,0.027912760,9.242257120,0.056491790,0.019967560,-0.016167760
1640790343.291930,-0.256551210,-0.172097920,10.020442010,0.093525630,0.022773440,-0.021545590
1640790343.295220,-0.057769250,-0.127605320,9.807689670,0.005844240,0.086434190,-0.027789180
1640790343.297340,-0.076036240,0.002579290,9.890429500,-0.023518500,0.037792330,0.009332600
1640790343.300150,-0.064932300,0.186293710,9.927203180,-0.034232440,0.019739570,-0.020961470
1640790343.301910,0.084794500,0.555791380,9.792298320,0.022733210,0.063483420,-0.026205180
1640790343.305300,-0.082483600,0.949942410,9.739643100,0.028854610,0.070264940,-0.028653440
1640790343.307480,-0.153643880,0.838938180,10.363312720,0.003433230,-0.009156760,-0.022640820
1640790343.310280,-0.081512580,0.693237480,9.819845200,0.025255970,0.032541150,-0.001758340
1640790343.314380,0.065219040,0.478684990,9.253637310,0.009363890,0.025798390,-0.024560100
1640790343.315210,-0.183866430,0.312546070,10.264262200,0.004905460,0.064195690,0.005370380
1640790343.316850,-0.031195300,0.186981500,9.716408730,-0.049529960,0.082591180,0.011245910
1640790343.320150,0.128212390,-0.146253030,9.794324870,-0.025516750,-0.026991960,0.006768110
1640790343.321860,0.104286500,-0.083557380,9.871335980,0.045609480,0.040595230,-0.012744960
1640790343.325320,0.379366160,0.058166450,9.269354820,0.031760330,0.098799160,-0.032791500
1640790343.326910,0.072799310,0.226442610,10.031386380,-0.006854540,0.055240110,-0.019809600
1640790343.330530,0.070813130,0.244974110,10.105402950,-0.044269860,0.025454170,-0.015942750
1640790343.331870,-0.014883640,0.155494150,9.787380220,0.028908260,0.031468270,-0.013524300
1640790343.335220,-0.259912010,0.292539270,9.467827800,0.101552910,0.015990440,-0.012286010
1640790343.336950,-0.502989830,0.118799720,10.184117320,0.073201960,0.000210110,-0.016115610
1640790343.340160,-0.302897930,0.154063190,9.231844900,0.024744870,0.091470790,-0.010246040
1640790343.342030,-0.099224810,0.060236250,9.677244190,0.015012920,0.010243060,-0.023320320
1640790343.345310,-0.011507030,0.137049330,10.261670110,0.067625950,0.110258160,-0.000020860
1640790343.348680,0.395739670,0.520052670,9.306843760,0.049874190,0.060400370,-0.028088690
1640790343.350150,-0.027051940,0.448551450,10.481669430,0.016066430,-0.032667820,-0.016914310
1640790343.351890,-0.019348260,0.331074060,9.741848950,0.027430060,0.025683640,-0.008325280
1640790343.355160,-0.166169170,0.000464650,9.500167850,0.097520670,-0.023196640,-0.037693980
1640790343.357170,-0.486007660,0.054645240,9.981513980,0.162485240,0.020085280,-0.021123890
1640790343.360420,-0.245868240,0.403200000,9.766675000,0.074967750,0.032122430,-0.013387200
1640790343.361940,-0.185563000,0.539813160,9.854778290,-0.041797760,0.050428510,0.005018710
1640790343.365100,0.180842970,0.784239350,9.674035070,-0.062203400,0.015503170,0.000970070
1640790343.366860,-0.012045180,0.817563000,10.488202100,0.019201640,0.028647480,-0.031574070
1640790343.370220,0.144392120,0.978284360,9.317398070,0.085239110,0.000807640,-0.028951470
1640790343.371880,-0.062700070,0.589105780,10.017621990,0.055257980,-0.102898480,-0.023007390
1640790343.375300,-0.049743760,0.065030380,9.587778090,0.015516580,0.105305010,-0.005306300
1640790343.377060,0.205372560,-0.236008990,9.125508310,0.024576490,0.043779610,-0.013805930
1640790343.380600,-0.326799010,-0.424387220,10.953420640,0.053200120,0.010986620,0.001680850
1640790343.381870,0.138635160,-0.015718740,9.233807560,0.023460390,0.028628110,0.000481310
1640790343.385140,0.064243320,0.009205370,9.557853700,-0.005476180,-0.049214070,-0.013402110
1640790343.386860,-0.048912310,0.232284220,9.719371800,0.027991830,0.063964730,-0.014030930
1640790343.390500,0.147385930,0.441988890,9.474991800,0.076498090,0.047953440,-0.054973370
1640790343.397250,-0.119787070,0.446145390,9.937860490,0.088694690,0.041674080,-0.038716200
1640790343.397920,-0.056308810,0.476287900,9.901446340,0.064308940,-0.031265620,-0.009509920
1640790343.398210,-0.278177500,0.060768220,9.936072350,0.040315090,0.013980270,-0.006853050
1640790343.400150,-0.016758000,-0.064565330,9.019433980,0.076054040,0.024701650,0.002871450
1640790343.401900,-0.356011480,-0.293018280,10.567469600,0.118649030,0.003977120,-0.014683610
1640790343.405320,-0.055879590,-0.186218350,9.522941590,0.111486030,0.090113280,-0.024046010
1640790343.407070,0.096382260,0.095817690,9.549613950,0.092159210,-0.069819390,-0.035095220
1640790343.410410,-0.184054910,0.282243550,10.292085650,0.062499940,0.028599800,-0.015513600
1640790343.412080,0.202561080,0.663881540,8.907571790,0.062324110,0.032757230,-0.023399300
1640790343.415210,-0.439827980,0.666429640,10.633254050,0.078548480,-0.059565890,-0.037808710
1640790343.416820,-0.247906570,0.831408020,9.822220800,0.099402670,-0.008228420,-0.013560060
1640790343.420140,-0.228048620,0.593123380,9.741995810,0.108635420,-0.040459630,-0.034390390
1640790343.421920,-0.295266150,0.511812980,9.933176990,0.083892040,0.019557770,-0.004442040
1640790343.425790,-0.027334170,0.687061850,9.808456420,0.042961540,-0.030766430,0.008736550
1640790343.426990,0.107203300,0.419921340,9.533733370,-0.019906460,0.033111870,0.006443260
1640790343.430660,0.520739140,0.500937760,9.177914620,0.002686680,-0.013931100,0.004300480
1640790343.431900,-0.062038710,0.356612740,10.675457950,0.049874190,-0.003406410,-0.024244190
1640790343.435220,0.172560010,0.274043530,9.131225590,0.054739420,-0.018201770,-0.016976890
1640790343.436880,-0.218406390,-0.066880760,10.020673750,0.058166690,-0.146992520,-0.023855270
1640790343.440220,-0.382780610,-0.295853290,9.723453520,0.055788470,0.057828430,-0.015394390
1640790343.442320,-0.004807120,-0.076294160,8.870090480,0.068269670,0.002664330,-0.012706220
1640790343.445300,-0.545363660,-0.094029190,10.737631800,0.044514240,-0.030939280,0.004549320
1640790343.446900,0.118716130,0.362078250,9.198668480,0.022366640,-0.001630190,0.013010200
1640790343.450180,0.025258710,0.343767640,9.724985120,0.031974920,-0.072768330,-0.021603710
1640790343.451890,0.146817240,0.445933880,9.507062910,0.083409240,0.002022090,-0.011216100
1640790343.455190,0.126184230,0.475088330,9.751379970,0.107719010,-0.024414060,-0.038501620
1640790343.457080,-0.088761700,0.211728080,9.849212650,0.078998500,0.007194280,-0.034189220
1640790343.460360,-0.075608010,0.097443950,9.800032620,0.089919560,-0.099104640,-0.006984170
1640790343.461940,-0.583024980,-0.139596790,10.197734830,0.073198980,-0.056353200,-0.010392070
1640790343.465180,-0.122446250,0.039043420,8.709033010,0.076839310,-0.047639020,-0.005471710
1640790343.466830,-0.581777220,0.105646370,10.370030400,0.077956920,-0.064831980,-0.022724270
1640790343.470260,-0.277050050,0.451721940,9.649747850,0.053951150,0.041605540,-0.025825210
1640790343.472040,0.046734980,0.682039980,9.651893620,0.074790430,-0.132693350,-0.029252470
1640790343.475710,-0.103896470,0.685257970,10.280318260,0.058291860,-0.046257690,-0.025753680
1640790343.477480,0.348449620,1.030273910,9.106114390,0.048293180,-0.025534640,-0.019401320
1640790343.480540,-0.070844870,0.634019610,10.181024550,0.010134280,-0.083613400,-0.014474990
1640790343.481880,0.064024080,0.279387300,9.716233250,0.043556090,-0.057429080,0.003568830
1640790343.485160,-0.167954220,0.072454950,9.857560160,0.105787810,-0.104138260,-0.020577010
1640790343.486880,-0.120276150,-0.130050970,9.295914650,0.076068950,-0.049102310,-0.010274350
1640790343.490210,-0.006348250,0.086024110,9.410492900,0.014048820,-0.082832570,-0.000087920
1640790343.492120,-0.021829170,0.003578010,9.733978270,-0.042758880,0.045876210,-0.015386940
1640790343.497020,0.336754200,0.201747160,9.494492530,0.041508670,-0.042119620,-0.008942190
1640790343.497410,-0.363484110,0.316375550,10.736630440,0.101211690,-0.119408990,-0.024609270
1640790343.500180,-0.034213500,0.387742220,8.864472390,0.084072360,-0.092089180,-0.015190240
1640790343.501910,-0.276230190,0.077137710,9.524615290,0.067496300,-0.117675980,-0.026451060
1640790343.506090,-0.371436720,-0.102919320,9.855082510,0.069959470,0.028523800,-0.026819110
1640790343.506950,0.066575910,0.123225550,9.410277370,0.115811840,-0.061286990,-0.025711960
1640790343.510350,-0.001009640,0.150835750,10.116579060,0.059400500,-0.055430830,-0.009442870
1640790343.512000,0.368522380,0.505123910,9.551016810,0.020135940,-0.045715270,0.012566150
1640790343.515180,0.015489270,0.379447880,9.958085060,0.024586920,-0.090989460,-0.014908610
1640790343.516890,0.135594670,0.206299200,9.319490430,0.100727390,-0.096532710,-0.027044120
1640790343.520480,-0.314101190,0.349619270,9.885411260,0.162710230,-0.102613850,-0.047323100
1640790343.521900,-0.372577040,0.228261370,9.678817750,0.090584140,-0.023429090,-0.043682760
1640790343.525510,-0.339439030,0.321881180,9.935743330,0.046813490,-0.129775720,-0.016649070
1640790343.526920,-0.595261040,0.287367850,10.187827110,0.008219480,-0.083091850,-0.027200580
1640790343.530720,0.027312300,0.548363510,8.940061570,0.038631260,-0.078912090,-0.024619700
1640790343.531920,-0.269247740,0.644855740,10.188831330,0.056368120,-0.073707100,-0.026886170
1640790343.535180,0.117758040,0.657649100,9.758928300,0.048203770,-0.046303870,-0.018185380
1640790343.537370,0.281430070,0.574543950,9.799866680,0.067745150,-0.150920420,-0.025817750
1640790343.540220,0.294206140,0.381264600,9.689065930,0.022959710,-0.063450630,-0.026659670
1640790343.541920,0.457030060,0.428274100,9.307688710,0.006264450,-0.057329240,-0.010509790
1640790343.545380,0.015323120,0.024605540,10.170560840,-0.020159780,-0.040788940,-0.019687410
1640790343.547520,0.140417830,-0.112334240,9.640882490,0.053173310,-0.099873570,-0.007309020
1640790343.550170,-0.314205320,-0.014117300,9.814735410,0.091883550,-0.157864390,-0.035715110
1640790343.552090,-0.068378400,-0.051884280,8.894116400,0.038443510,-0.044266880,-0.039803990
1640790343.555210,-0.121349550,0.118156730,9.609156610,0.009933110,-0.029401490,-0.031848250
1640790343.556880,-0.166038870,0.154035930,10.128417970,0.000108780,0.008794670,-0.036220250
1640790343.560540,0.203951750,0.359155830,9.841444020,0.080831340,-0.110761820,-0.031766300
1640790343.561950,-0.026338380,0.424116490,9.877455710,0.066450240,-0.095914330,-0.029364230
1640790343.565180,0.186541440,0.318352070,9.198250770,0.044788420,-0.046803060,-0.023332240
1640790343.567140,-0.166785090,-0.013392610,10.007980350,0.069732960,-0.056909020,-0.037309530
1640790343.570250,0.070619670,-0.109330320,9.487726210,0.101791340,-0.045458980,-0.045652690
1640790343.571920,0.069758440,0.070093880,9.613795280,0.124976050,-0.072012840,-0.029700990
1640790343.575140,0.059650730,0.181382430,9.865276340,0.026349720,-0.005663930,-0.035600360
1640790343.577180,0.082260990,0.413583070,9.825404170,0.000044700,-0.053581600,-0.015629830
1640790343.580290,-0.220690740,0.450142320,9.931371690,0.026789310,-0.092382730,-0.034882130
1640790343.582520,-0.002904120,0.430149640,9.442052840,0.112929940,-0.085115440,-0.051786010
1640790343.585640,-0.326895620,0.655791880,9.743947980,0.133696210,-0.043199960,-0.042085350
1640790343.586870,-0.264314950,0.580574630,9.779846190,0.031362480,-0.059413920,-0.030414760
1640790343.590190,-0.068568560,0.433249210,10.004669190,0.000518560,-0.070112940,-0.000606480
1640790343.591900,0.130749940,0.309615080,9.622599600,-0.002990660,-0.001543760,-0.015629830
1640790343.595330,0.172478300,0.481269570,9.913073540,0.068438050,-0.061821950,-0.014822190
1640790343.597050,0.076640100,0.524417040,9.949865340,0.035488610,-0.059258950,-0.014691060
1640790343.600430,0.451106100,0.362485770,9.080126760,-0.011672080,-0.064653170,-0.007791820
1640790343.601900,0.126366850,0.228289470,9.812118530,0.018160050,-0.037768480,-0.016722080
1640790343.605240,0.221685740,0.159208980,9.713887210,0.021030010,0.014424320,-0.023108720
1640790343.606900,-0.006907990,0.158261940,9.854337690,0.055393570,-0.043345980,-0.001919270
1640790343.610330,-0.196814670,0.077364950,9.935810090,0.010049340,-0.067295140,-0.014396010
1640790343.611960,-0.177432670,-0.049870080,9.755388260,0.035008790,-0.049056120,-0.000774860
1640790343.615140,-0.191610220,0.069401850,9.169801710,0.049462910,-0.022800260,-0.019133090
1640790343.617040,0.048806600,0.107232960,9.454943660,0.057531890,-0.010742250,-0.027111170
1640790343.620180,0.153206530,0.294911090,9.833122250,0.050920250,0.082574790,-0.013358890
1640790343.621890,0.398545320,0.282171700,9.797231670,0.022202730,0.001908840,-0.019855800
1640790343.625210,0.162863270,0.288618650,10.254378320,0.068385910,-0.083237890,-0.000713770
1640790343.627040,0.080310040,0.120172320,9.431118970,0.073772670,-0.032839180,-0.022260850
1640790343.631250,-0.043305370,0.049264070,9.269593240,0.093799840,-0.020620230,-0.030078000
1640790343.631990,-0.302898940,0.010166620,9.853710170,0.091427560,0.019343200,-0.017251080
1640790343.635230,-0.176393940,-0.003907900,9.960588460,0.089105960,0.024425990,-0.025735800
1640790343.636880,-0.152370540,0.353606080,9.692202570,0.103123490,-0.015667080,-0.015065070
1640790343.640180,-0.121729880,0.626342770,9.918910030,0.035975880,-0.048360240,-0.015531480
1640790343.641920,-0.056632530,0.812018450,9.801968570,0.010925530,0.028678770,0.007475910
1640790343.645340,0.089157780,0.790836100,9.374366760,0.032445790,-0.011849400,-0.019294030
1640790343.646950,-0.117732640,0.659510140,10.499295230,0.107136360,-0.040961800,-0.027699760
1640790343.650200,0.058174430,0.809346140,9.516813280,0.080530350,0.021502380,-0.012150410
1640790343.651910,0.129879060,0.436057720,9.592297550,-0.010737780,-0.047113000,0.008419160
1640790343.655160,0.057612260,0.159266740,9.983824730,-0.005951520,0.015471880,0.022751090
1640790343.656890,0.279704210,0.086467590,9.470700260,0.031282000,0.033463530,-0.013552610
1640790343.660280,0.069023480,0.272858230,9.727363590,0.068239870,-0.016333160,0.013856590
1640790343.661950,0.058857530,0.362258610,9.726294520,-0.007042290,-0.025837120,0.014816220
1640790343.665420,0.096013110,0.238568620,9.639289860,-0.028398640,0.018480420,0.000447030
1640790343.666960,0.160466850,0.243750180,9.258159640,0.021082170,0.039190060,-0.009292370
1640790343.670190,-0.051269130,0.147292910,10.349749570,0.076021250,0.018084050,-0.016753380
1640790343.671870,-0.049535130,0.286729690,9.723699570,0.081920630,0.062406070,0.007531050
1640790343.675670,0.092746040,0.088521680,9.366834640,0.014960760,-0.065901860,0.007884210
1640790343.676960,-0.149975300,-0.055285540,9.848735810,0.027593970,0.016236310,0.026082990
1640790343.681380,0.190582220,0.125455710,8.805701260,0.048568840,0.087961550,0.005097690
1640790343.682840,-0.038837420,0.099422800,10.102614400,0.076062980,0.029741230,0.004518030
1640790343.685190,0.051259060,0.445398510,10.184137340,0.054886940,0.046139960,-0.000357630
1640790343.686880,0.165811420,0.409655630,9.717605590,0.020276010,0.003197790,-0.002482530
1640790343.690170,0.015977160,0.272797110,9.634097100,0.069262090,0.024610760,0.017271940
1640790343.691900,-0.193386290,0.287204410,10.102370260,0.092214350,0.005806980,-0.010250510
1640790343.695320,-0.341580900,0.260659660,9.801526070,0.084190080,0.053758920,0.002250080
1640790343.697020,-0.121989730,0.273449150,9.297052380,0.051802390,-0.029020010,0.003100930
1640790343.700560,-0.338214580,0.328636740,10.418423650,0.038979950,0.009098650,-0.001715120
1640790343.701920,0.272877930,0.703075950,8.963279720,0.020506970,0.102296460,0.013215840
1640790343.705200,0.136937870,0.705571000,10.269680980,-0.008113680,0.001862650,-0.002075730
1640790343.706900,0.082665480,0.826419060,10.401390080,-0.003661220,0.067180400,0.026108320
1640790343.710430,0.254340650,0.600443780,9.430377010,0.021782510,-0.026629860,0.003799800
1640790343.711980,-0.236381170,0.321970880,9.935244560,0.068834430,-0.038777290,0.009131430
1640790343.715340,-0.131082670,0.340451330,9.311230660,0.030159950,0.027096270,0.026643280
1640790343.717870,-0.169620800,-0.030234920,9.696795460,-0.029979650,0.046078850,0.019086900
1640790343.720170,0.081867500,0.010669740,9.559169770,-0.024601820,0.071352730,0.036761160
1640790343.721910,0.045237300,0.101455690,10.407845500,0.014120340,0.017613170,0.010530650
1640790343.726340,0.180844040,0.381939200,9.526369090,0.017279380,0.069595860,0.016716120
1640790343.727850,0.219129640,0.432946210,9.587743760,-0.015252830,-0.069426010,0.003670160
1640790343.730440,-0.132540700,0.189422400,10.106064800,-0.007031860,0.060044230,0.011026860
1640790343.732980,0.149847480,0.138444290,8.867279050,0.053085390,0.058119000,-0.010514260
1640790343.735170,-0.282145050,-0.003361050,10.309844020,0.080870100,-0.014312570,-0.013461710
1640790343.736970,-0.141024800,0.221828830,9.683443070,0.031261150,0.084395730,0.029516220
1640790343.740210,-0.145060540,0.112548170,9.870112420,-0.033234060,-0.009681280,0.016948580
1640790343.742230,-0.204787120,0.085454980,9.919104580,0.003905600,0.013390180,0.031667950
1640790343.745480,0.027195970,0.264923190,9.621479030,0.070320050,0.014063720,0.004340710
1640790343.746920,-0.092240340,0.358809560,9.864975930,0.085458170,0.076369950,-0.009097160
1640790343.750290,0.123326200,0.692534330,9.725564960,0.024500490,0.001628700,0.018411880
1640790343.751910,-0.213528710,0.531123700,10.532939910,-0.032503910,-0.018660720,0.015196210
1640790343.755240,0.198411900,0.533685210,8.880764010,-0.001212950,0.020216400,0.023661550
1640790343.756890,-0.116708730,0.469544620,10.126313210,0.046743450,-0.032861530,-0.000263750
1640790343.760350,-0.295848130,0.519777360,10.234591480,0.030836470,0.101058190,0.030878190
1640790343.762050,0.112809050,0.413498700,9.512771610,0.002951920,-0.028762230,0.025692590
1640790343.766050,-0.219046830,0.254473450,10.541916850,-0.019979470,-0.021220740,0.020663440
1640790343.766880,0.357331190,0.691070560,8.992226600,-0.032511350,0.052052730,0.039826330
1640790343.770260,0.197874010,0.477686460,9.755380630,-0.060996420,0.037468960,0.035175680
1640790343.771900,0.364188190,0.456847760,9.703069690,-0.040659310,0.079028320,0.053504110
1640790343.775470,0.192072940,0.262742310,10.251415250,0.017499930,-0.000514090,0.029799340
1640790343.777360,0.018558520,-0.021052270,9.804888730,0.040423860,0.015352670,0.028756260
1640790343.780190,-0.016077870,-0.071973280,9.486795430,0.026530030,-0.045485790,0.046502050
1640790343.782800,-0.404874500,-0.288463000,10.044403080,-0.021995600,0.083947190,0.033067170
1640790343.785140,0.189459560,-0.054723080,8.788458820,-0.005367400,0.076046590,0.027884540
1640790343.786920,-0.019984740,0.110710080,10.263025280,0.017157200,0.029756130,0.026001040
1640790343.790240,0.397450240,0.489668220,9.400298120,0.015391410,0.135417280,0.053663560
1640790343.792340,0.305363030,0.403463660,9.996061330,0.013138350,-0.000233950,0.032119450
1640790343.795420,-0.060664600,0.130581990,10.346952440,0.037057700,0.016915800,0.047297780
1640790343.798850,0.066097300,0.054745800,9.278919220,0.110077860,-0.012798610,0.021213290
1640790343.800160,-0.325554970,-0.185358700,9.699789050,0.103771710,0.062687700,0.013117490
1640790343.801890,-0.159627140,0.104556690,9.598062520,0.047905750,0.079949210,0.042751440
1640790343.805210,-0.366413440,0.184893530,10.387420650,-0.010383130,0.043751300,0.034062560
1640790343.806900,0.104910960,0.377634820,9.345273970,0.007463990,0.042545800,0.037290160
1640790343.810560,-0.036768860,0.706756000,10.171275140,0.066725910,-0.024646520,0.020475690
1640790343.811980,-0.112223370,0.826761600,9.839868550,0.059761110,0.109530990,0.020477180
1640790343.815430,0.161016730,0.807176230,9.522030830,0.041760500,-0.018699470,0.030855830
1640790343.816890,-0.227256820,0.384426470,10.613443370,0.020217900,0.015778840,0.042651590
1640790343.820160,0.284936190,0.296716090,9.137843130,0.050166250,0.066111980,0.038166350
1640790343.821890,-0.126712350,0.178328560,10.382241250,0.034260750,0.009584430,0.025916100
1640790343.825620,-0.116951300,0.276229200,9.876052860,-0.018753110,0.049945720,0.066576900
1640790343.828210,-0.008362490,0.332237300,9.633008000,-0.017322600,-0.042821470,0.042971970
1640790343.831140,-0.054825040,0.263067930,9.692973140,0.007288160,0.051213810,0.037135180
1640790343.831880,0.337810400,0.646022560,9.391102790,0.042907890,0.043679780,0.045190760
1640790343.835110,-0.012295390,0.613202810,10.465337750,-0.009757280,0.079496200,0.039352480
1640790343.837190,0.469160740,0.517901240,9.455881120,-0.035931170,0.050009790,0.066484500
1640790343.840970,-0.042767410,0.242221560,10.440696720,0.005275010,-0.038045640,0.051324070
1640790343.841900,-0.041594200,0.117384900,9.317234040,0.036096570,0.049075480,0.049653640
1640790343.845330,-0.019153470,-0.015716530,9.301415440,0.055074690,-0.025086100,0.041808180
1640790343.846920,-0.294535130,-0.185580830,9.941000940,0.002318620,0.111429400,0.040933490
1640790343.850150,0.258132580,0.120258110,9.207221980,0.003540520,0.080204010,0.043347480
1640790343.851930,-0.021780610,0.134142000,10.537953380,0.007894640,0.037486850,0.044643880
1640790343.855270,0.255869600,0.459207530,9.629515650,0.015771390,0.061538820,0.069293390
1640790343.857270,-0.082698170,0.448344800,10.054957390,0.026071070,-0.024122000,0.052253910
1640790343.860580,-0.030402730,0.146995310,9.410720830,0.041073560,0.040192900,0.047431890
1640790343.861960,-0.038455400,0.139652590,9.416296010,0.102628770,0.030262760,0.030589100
1640790343.865520,-0.298750250,0.016031890,10.100648880,0.085055830,0.117573160,0.018948320
1640790343.866900,-0.003649210,0.275387820,9.816973690,0.035785140,0.018841030,0.046330690
1640790343.870390,-0.388979430,0.359775300,10.407599450,-0.032788530,-0.026853390,0.045384480
1640790343.872220,0.127720920,0.513695420,8.949372290,-0.016105180,0.038638710,0.051262990
1640790343.875180,-0.174848720,0.574869450,10.033323290,0.060555340,0.015723710,0.030824540
1640790343.877120,-0.217161890,0.651001390,10.096488950,0.069773200,0.089280310,0.037993490
1640790343.880480,0.139644980,0.632466610,9.742039680,0.062020120,-0.043879450,0.053761900
1640790343.882030,-0.016584950,0.253864320,10.161587720,0.003050270,0.032660370,0.053626300
1640790343.885140,0.252360370,0.415186230,9.369918820,-0.001169740,0.048848990,0.063300140
1640790343.886930,-0.231144290,0.408811390,10.412636760,-0.017116960,-0.006346400,0.050744420
1640790343.890340,0.135335370,0.417757450,9.416435240,-0.020122530,0.022067130,0.060831010
1640790343.891930,0.034417540,0.540256200,9.874774930,0.015321380,-0.022532050,0.035238270
1640790343.898120,0.068434140,0.470629840,9.690315250,0.004115700,0.097532580,0.039294350
1640790343.899090,0.362758930,0.579012220,9.569440840,-0.001083310,0.029087070,0.055991110
1640790343.901350,-0.046615220,0.370927720,10.462010380,-0.046905870,0.062265980,0.060912960
1640790343.902340,0.337587030,0.245881660,9.346771240,-0.020131470,0.027625260,0.077478570
1640790343.905660,-0.232821240,-0.031215020,10.196557040,0.032269960,-0.039957460,0.061097740
1640790343.907030,-0.053265540,-0.059311770,9.127028470,0.021402540,0.057236860,0.054563590
1640790343.910760,0.026061790,0.003879030,9.506353380,0.013847650,0.037774440,0.037898120
1640790343.912130,-0.090492530,-0.090280990,10.276699070,-0.020587440,0.136649610,0.029598180
1640790343.916780,0.260241690,0.240638410,9.729315760,0.031021240,0.020959980,0.038148460
1640790343.917390,-0.062634130,0.245941760,10.129655840,0.036822260,-0.002792480,0.027881570
1640790343.920250,0.278779030,0.356017380,9.013864520,0.026881700,0.037576270,0.049753500
1640790343.922180,-0.195904910,0.260280130,9.881879810,0.039045520,0.030706820,0.035646560
1640790343.925180,-0.056098410,0.023560700,9.614195820,0.060600050,0.089260940,0.019979480
1640790343.927280,-0.054494650,0.252642480,9.946836470,0.101760030,0.005397200,0.036339460
1640790343.930230,-0.336930930,0.248110180,10.203317640,0.028580430,0.066673760,0.026029350
1640790343.932000,-0.048767470,0.468050870,9.604271890,-0.012660030,0.005838270,0.044274330
1640790343.935150,-0.474747960,0.471947520,10.214309690,-0.012473760,-0.010842080,0.035621230
1640790343.938020,-0.014169800,0.569071710,9.117458340,0.037993480,0.030863280,0.015629830
1640790343.940250,-0.192229450,0.693439130,10.057452200,0.074712940,0.010658800,0.007621940
1640790343.943110,-0.106775320,0.659712430,9.981719970,0.008507070,0.065417590,0.039590900
1640790343.946670,0.202939090,0.583707210,9.730521200,-0.004136560,-0.040212280,0.050704180
1640790343.947330,-0.043188500,0.366368170,10.245728490,-0.035436460,0.030827530,0.036719450
1640790343.950150,0.178185140,0.539456900,9.473812100,-0.018371640,0.011332330,0.042118130
1640790343.952040,-0.333749180,0.435129550,10.337818150,-0.010596220,-0.050494080,0.039641560
1640790343.955210,0.051003960,0.285290030,9.211304660,-0.019553300,0.010359290,0.033968690
1640790343.956900,0.053975730,0.425195690,9.499086380,0.003425780,-0.010152160,0.029025980
1640790343.960580,-0.109162320,0.314983010,9.979391100,-0.044135760,0.099071880,0.024776160
1640790343.961950,0.307430090,0.443803460,9.682315830,-0.057742010,0.010189410,0.051452230
1640790343.965400,-0.182979600,0.164218890,10.515004160,-0.057883560,-0.012411180,0.034400820
1640790343.967050,0.149503260,0.073067690,9.292593960,0.001944600,-0.021956860,0.029622020
1640790343.970210,-0.275784460,-0.115660650,9.886792180,0.050757840,-0.060248380,0.016199050
1640790343.971950,-0.225214990,-0.178983240,9.252939220,0.003369150,0.059878830,0.005552170
1640790343.975170,-0.075126850,0.006017410,9.707681660,-0.010097030,0.005218390,0.021128360
1640790343.977250,-0.127510770,-0.085438580,10.346625330,-0.029197340,0.059625510,0.028072300
1640790343.980210,0.314968820,0.334824320,9.524260520,0.032792990,-0.028260050,0.036400560
1640790343.982280,-0.095230140,0.435514180,10.222395900,0.026674570,-0.028328600,0.019577150
1640790343.985480,0.198356630,0.486359360,9.310336110,-0.000509620,0.025309620,0.017409030
1640790343.986880,-0.203924120,0.524107160,10.004065510,0.020454830,-0.038427120,0.008952620
1640790343.990110,-0.140826600,0.308126480,9.754843710,0.026249890,0.023221970,-0.005976860
1640790343.991930,0.072509730,0.537415330,9.609523770,0.044068690,-0.014626980,0.009588900
1640790343.995300,-0.354477080,0.603109600,10.293730740,-0.044581290,0.024831290,0.003273780
1640790343.997030,0.080986150,0.635902110,9.573592190,-0.089013590,-0.016698240,0.026834020
1640790344.000220,-0.141750570,0.418301520,10.193271640,-0.041043760,-0.033394990,0.013813380
1640790344.001940,0.072002890,0.351405230,9.495999340,0.023360550,0.024119020,0.000976030
1640790344.005180,0.067201060,0.498542100,9.995897290,0.044994060,-0.044670700,0.005657970
1640790344.006910,0.064737090,0.291055620,9.837715150,-0.071394430,0.040142230,0.014024970
1640790344.010580,0.464105930,0.336739750,9.345150950,-0.083842870,0.000947710,0.019575650
1640790344.012110,0.012007730,0.178387540,10.511437420,-0.057502090,0.031472740,0.004267690
1640790344.015260,0.218738650,0.318529220,9.460453030,-0.023514030,0.004215540,0.014802810
1640790344.016920,-0.200124590,0.332086470,10.006334300,-0.003501770,-0.079125170,0.018510220
1640790344.020180,-0.076990820,0.032045340,9.446885110,-0.049456960,0.045941770,0.008745490
1640790344.021900,0.058129580,0.036913500,9.390529630,0.011794270,0.025573370,0.016212460
1640790344.025140,-0.221846950,0.068275960,10.132577900,-0.008755920,0.061824920,0.000196700
1640790344.027210,0.289727390,0.232323800,9.586891170,-0.027586520,0.030265750,0.029626480
1640790344.030290,-0.057484970,0.187957170,10.256438260,-0.045453010,-0.006031990,0.021162630
1640790344.032390,0.065161040,0.110697250,9.493954660,-0.008742510,-0.004959110,0.009901820
1640790344.035280,-0.121112750,0.028345070,9.726093290,0.076197090,-0.030574200,-0.006401540
1640790344.036960,-0.236299430,-0.013420080,9.572939870,0.042633710,0.066886840,-0.017198920
1640790344.040130,-0.103421260,0.166363550,9.826839450,0.028690700,-0.001437960,-0.001908840
1640790344.041960,-0.272129000,0.172667150,10.264248850,-0.015978510,0.009061400,0.004640220
1640790344.045280,0.156916750,0.437138710,9.368957520,-0.008621810,-0.003382560,0.021632020
1640790344.046950,-0.193186600,0.624650600,10.263778690,0.013488530,0.002393130,0.011335310
1640790344.050200,-0.008541450,0.630130830,9.788720130,-0.003069640,0.025148690,0.004675980
1640790344.052020,-0.112971430,0.600862920,9.981569290,0.044743720,-0.058428950,0.015568740
1640790344.055140,-0.160618830,0.307870980,9.833045010,0.035485630,-0.011143090,-0.002503400
1640790344.056920,0.124606800,0.324906650,9.499890330,0.041444610,-0.002594290,0.016275050
1640790344.060240,-0.208396290,0.441839930,10.168489460,-0.030821570,0.013627110,0.021681190
1640790344.061990,0.160792680,0.330237060,9.632353780,-0.080688300,-0.007307530,0.036071240
1640790344.065270,0.042566940,0.281525430,10.162817000,-0.010189410,-0.023137030,0.024746360
1640790344.066970,-0.013731850,0.347212850,9.783733370,0.035232310,0.000128150,0.011713800
1640790344.070230,0.066971230,0.399563370,9.705418590,0.055469580,-0.066259500,0.042931740
1640790344.071880,-0.047532860,0.127596930,9.741399770,-0.024546690,0.033056740,0.025601690
1640790344.075610,0.267768060,0.139666750,9.405337330,-0.021994110,0.022208690,0.044859950
1640790344.077010,-0.110779310,0.129873410,10.423906330,0.025452680,0.005456810,0.040079650
1640790344.082000,0.113277350,0.198444470,9.680953980,0.009822850,-0.016078350,0.030052660
1640790344.083300,-0.008333170,0.278140870,9.750054360,0.012509520,-0.063052780,0.034932800
1640790344.085130,-0.064134880,0.083602670,9.615776060,-0.005957480,0.025871400,0.008477270
1640790344.086910,0.174551440,0.101650710,9.542307850,0.061553720,0.029188390,0.016388300
1640790344.090160,-0.109673190,0.245787440,10.115873340,0.059844550,0.017662340,0.008109210
1640790344.092220,0.194766250,0.276025590,9.715720180,0.014047320,-0.012455880,0.022462010
1640790344.095300,-0.070761190,0.329385760,10.005762100,-0.002002720,-0.030937790,0.039117040
1640790344.098240,-0.070880700,0.203927680,9.538019180,0.004671510,-0.012795630,0.023423140
1640790344.100130,-0.116158720,0.161497740,9.927328110,0.085051350,-0.021100040,0.014057750
1640790344.101930,-0.214784500,0.296435120,10.034118650,0.075095910,0.032447290,0.005650520
1640790344.105190,0.068110790,0.437819690,9.868773460,0.030152500,-0.032019620,0.030280650
1640790344.107020,-0.031977320,0.362886550,10.227523800,-0.005638600,-0.000704820,0.033317510
1640790344.110390,0.261167620,0.503801470,9.540327070,-0.013530260,-0.004445020,0.018289690
1640790344.112540,0.022788290,0.699118320,10.027318000,0.034205630,-0.025859480,0.028941040
1640790344.116030,0.038455650,0.629237120,9.828972820,0.000210110,0.006182490,0.023776290
1640790344.117210,0.087224720,0.435698600,9.776600840,0.026080010,-0.049403310,0.050906840
1640790344.120160,-0.060871350,0.257756200,9.750185010,0.029028950,0.006128850,0.023594500
1640790344.121910,0.220427660,0.162185650,9.522770880,0.016878550,0.022776420,0.023505090
1640790344.125570,-0.072806550,0.245223820,10.118530270,-0.005802510,0.026036800,0.044600670
1640790344.127770,0.114176050,-0.008708350,9.764080050,-0.035203990,-0.002594290,0.017659370
1640790344.130320,0.142194600,0.035408410,9.865929600,0.037285680,-0.036033990,0.012534860
1640790344.132860,0.102894630,0.111993730,9.432409290,0.050894930,0.021752720,-0.001822410
1640790344.135160,0.194998460,0.140376850,9.589782710,0.035572060,0.020512940,-0.003038350
1640790344.136970,-0.098580820,0.152830080,10.292776110,-0.003147130,0.048981610,0.005327170
1640790344.140160,0.111125020,0.020290500,9.747427940,0.016936660,-0.017486510,0.022822620
1640790344.142240,-0.095108390,0.040284860,10.003649710,0.097872320,-0.042670970,0.025486950
1640790344.146850,0.066391920,0.145720450,9.369872090,0.074398530,0.045414270,0.019650160
1640790344.147520,-0.068122970,0.237873330,9.981749530,0.036059320,0.030593570,0.019544360
1640790344.150140,-0.178949420,0.417256440,10.055257800,-0.006192920,0.037948790,0.001801550
1640790344.151920,0.162529200,0.363926410,9.700752260,0.031462310,-0.031264120,0.004383920
1640790344.155180,0.013899060,0.608709990,9.816371920,0.098750000,0.013686720,0.000891090
1640790344.156920,0.206752170,0.711488250,9.589949610,0.039112560,0.047665830,-0.006750230
1640790344.160270,-0.025047890,0.661880970,10.370662690,-0.006711480,0.028896330,0.037291650
1640790344.162160,-0.037979930,0.383634950,9.956957820,-0.026600060,0.001317260,0.021891300
1640790344.167070,0.081634830,0.152593050,9.793957710,0.055609650,-0.031155350,0.016792120
1640790344.167640,-0.106912940,0.294263930,9.711382870,0.069552670,0.040689110,0.022108850
1640790344.170300,0.169035910,0.279183860,9.361493110,-0.010080640,0.037185850,0.030118230
1640790344.171940,0.125036020,0.233440400,10.053527830,-0.043168670,0.053235900,0.041192770
1640790344.175780,0.374339610,0.146681700,9.771879200,-0.024862590,0.074461100,0.031726070
1640790344.178160,0.219252410,0.236767350,10.191242220,0.074537100,0.000326340,0.028751790
1640790344.180180,0.086381410,0.314551590,9.809725760,0.052526600,0.023736060,0.030831990
1640790344.182840,0.150483940,0.161399470,9.454690930,-0.005917250,0.009146330,0.018954280
1640790344.185160,-0.117320800,0.204392480,9.705610280,0.003965200,0.069595870,0.025089090
1640790344.186900,0.056879120,0.150202070,9.456436160,0.016851720,0.074519220,0.004743040
1640790344.190170,-0.074127000,0.305602100,10.044726370,0.060410800,0.056168440,0.032810870
1640790344.192060,-0.067842440,0.398673710,9.866417880,0.006911160,0.054018200,0.026737150
1640790344.197830,-0.027591230,0.227049110,10.016453740,0.000500680,-0.010836120,0.036081660
1640790344.198320,-0.101365830,0.211828980,9.638594630,0.027675930,0.063008070,0.026577710
1640790344.200150,0.050768350,0.139267030,9.586176870,0.049245360,0.066937510,-0.005939600
1640790344.201970,-0.100893270,0.296869190,10.177365300,0.060181320,0.070634490,0.011570750
1640790344.205160,0.074063320,0.406796540,9.751482010,-0.014032430,0.025878850,0.015290080
1640790344.206930,0.069515780,0.441448210,9.899483680,-0.015246870,-0.003293160,0.033135710
1640790344.210690,0.118279680,0.386438040,9.643808360,0.001923740,0.075894590,0.024813420
1640790344.211980,-0.006876010,0.493021990,10.195672990,0.033043320,0.044836110,0.020004810
1640790344.215400,-0.187564920,0.565429930,10.273350720,0.036428870,0.040505830,0.043751300
1640790344.216940,0.107536960,0.384983900,9.491782190,-0.013151760,-0.005754830,0.023514030
1640790344.220130,-0.091155830,0.437442450,9.838729860,-0.007253890,0.035901360,0.042185180
1640790344.221920,0.121140170,0.466507430,9.279926300,-0.044745210,0.087207560,0.017263000
1640790344.225300,0.210023370,0.187300760,10.020955090,-0.019076470,0.053191190,0.033590200
1640790344.227120,0.078498530,0.163226980,10.233473780,0.017216800,0.064790250,0.028677290
1640790344.230220,0.317000330,-0.182488980,9.804634090,0.059837110,0.000888110,0.019855800
1640790344.232330,0.045433380,-0.201568260,9.908906940,0.073853140,0.028014180,0.024907290
1640790344.235190,0.106521840,-0.072181900,9.364927290,-0.009010730,0.071059170,0.016012790
1640790344.237000,0.112419870,-0.073035660,9.695541380,-0.009903310,0.066243120,0.022687020
1640790344.240490,0.113772400,0.163947220,9.694805150,0.033563380,0.095455350,0.014415380
1640790344.241910,0.091118150,0.457404490,10.006804470,0.080665950,0.041468440,0.021624570
1640790344.245290,-0.182607130,0.477458690,10.059584620,0.076337170,0.059273840,0.028538710
1640790344.246980,-0.174866830,0.358743700,9.889052390,0.035792590,-0.000408290,0.010120870
1640790344.250130,-0.441250950,0.249451740,10.060005190,0.069567580,0.043515870,0.019054120
1640790344.251920,-0.096589040,0.295957980,9.177004810,0.072720650,0.077863050,-0.010068720
1640790344.255160,-0.121941580,0.376099800,10.193003650,0.063066170,0.056087970,0.008837880
1640790344.257300,-0.017636090,0.679798130,9.887947080,0.002427400,0.105500230,0.023485720
1640790344.260500,0.264266700,0.482545970,9.856955530,-0.024317210,-0.001576540,0.015206640
1640790344.261980,-0.013226470,0.404255450,10.281921390,0.058354450,0.021050870,0.028069320
1640790344.265670,0.088993300,0.418402020,9.528182030,0.085628030,0.043880940,-0.000201170
1640790344.266900,-0.078285270,0.316353290,10.028043750,0.071235010,0.032986700,0.020077820
1640790344.270790,-0.083458620,0.337600710,9.884440420,-0.004750490,0.053514540,0.019988420
1640790344.272050,0.149142380,0.201473730,9.597122190,-0.021231180,0.035826870,0.013636050
1640790344.275210,-0.028525310,0.245920610,9.815585140,0.040470070,0.080612320,0.001217430
1640790344.277320,-0.023629830,0.421011920,9.878848080,0.040064750,0.013387200,0.005908310
1640790344.280260,-0.143784900,0.310217530,9.954361920,0.034870210,0.013141330,0.021295250
1640790344.282420,0.162511140,0.145348100,9.193710330,0.017891830,0.039084260,0.009194020
1640790344.285160,-0.026589810,-0.015356130,10.152463910,0.069653990,0.058472170,0.006015600
1640790344.286880,-0.086872720,0.105697790,9.670339580,0.077670810,0.103539230,0.003102420
1640790344.290170,0.103634990,0.059538360,9.642930030,0.023186200,-0.029700990,-0.002346930
1640790344.291910,-0.165686100,0.058794100,10.041639330,0.029537080,0.041095910,0.023229420
1640790344.295370,0.056351620,-0.019843100,9.227148060,0.069087740,0.037194790,-0.021056830
1640790344.297900,-0.160251140,-0.035689690,10.077631000,0.147189200,0.004468860,-0.013180080
1640790344.300150,-0.172483380,0.331405310,9.901480670,0.119735290,0.077220790,-0.023233890
1640790344.301900,0.013359830,0.327119050,9.772403720,0.043529270,0.021576880,-0.008408720
1640790344.305540,-0.162864550,0.378776190,10.069022180,0.041720260,-0.003020470,0.013265010
1640790344.306900,-0.008895850,0.414728940,9.513202670,0.076937680,0.008490680,-0.009202960
1640790344.310520,-0.171210150,0.435773880,9.728752140,0.119707000,0.032328070,-0.024054940
1640790344.311980,-0.222709610,0.488566520,9.888164520,0.090691450,0.007347760,-0.024436420
1640790344.315180,-0.302466150,0.275573550,10.344165800,0.068168350,-0.021800400,-0.017219780
1640790344.316910,-0.124711520,0.284478340,9.408673290,0.091049070,0.012008840,-0.014550980
1640790344.320660,-0.052107900,0.302485170,9.843749050,0.078481430,-0.040516260,-0.020065900
1640790344.321900,-0.187224480,0.591578420,10.111576080,0.050121560,0.058814890,-0.002481040
1640790344.325160,0.201529400,0.581171570,9.260348320,-0.004540380,-0.017008190,-0.012478230
1640790344.327110,-0.073625110,0.234297660,10.511934280,0.067324940,-0.050446400,-0.006772580
1640790344.331230,0.024689040,0.464224820,9.531309130,0.128717720,0.022788350,-0.040014090
1640790344.331900,0.089309220,0.322736230,9.438625340,0.099621720,-0.055664780,-0.020539760
1640790344.335140,-0.167481560,0.308262740,10.096771240,0.040104980,0.009609760,0.015138090
1640790344.337150,0.165768850,0.197052910,9.380795480,-0.013512370,0.047887870,-0.002205370
1640790344.340140,-0.051524610,0.171231660,10.005213740,0.073319680,-0.026902560,0.009913750
1640790344.341920,-0.236555800,0.221212210,9.960053440,0.101122280,-0.041799250,-0.011940300
1640790344.345280,-0.135484310,0.248700430,9.449111940,0.077675280,-0.052443150,-0.032152240
1640790344.346980,-0.153488080,0.122154090,9.305110930,0.062835220,0.002895300,-0.033903120
1640790344.350140,-0.036603820,0.046351620,9.816457750,0.074878330,0.014844530,-0.051495430
1640790344.352020,-0.055578830,0.236497520,10.015151020,0.124333810,0.042636700,-0.025156150
1640790344.355100,0.083258770,0.342197570,9.615884780,0.070449720,-0.064955650,-0.031265620
1640790344.356900,-0.144383730,0.243538570,10.231842040,0.058399150,-0.084930660,-0.010359290
1640790344.360470,-0.018053720,0.238014520,8.995153430,0.076980900,0.007927420,-0.030177830
1640790344.361970,-0.045870810,-0.014462500,9.627996440,0.144255160,-0.053197150,-0.048574810
1640790344.365180,-0.316525520,0.282159540,10.367898940,0.174967960,0.026316940,-0.040344900
1640790344.366970,-0.032291390,0.310317100,9.528377530,0.084890430,-0.028781590,-0.051045420
1640790344.370140,-0.272035840,0.427218620,10.217564580,0.055672240,-0.113855320,-0.027802590
1640790344.371970,-0.281903150,0.500312330,9.688983920,0.046677900,-0.030258300,-0.035618250
1640790344.375210,-0.170897250,0.494514050,9.463857650,0.109528010,-0.050352520,-0.056442630
1640790344.377200,-0.509675090,0.586860660,10.206313130,0.147649660,-0.062757740,-0.056889650
1640790344.380150,-0.156440620,0.531188550,9.829446790,0.102758420,-0.084333120,-0.045302510
1640790344.382120,0.022702780,0.467428420,9.556482320,0.080868610,-0.044369700,-0.035534800
1640790344.385230,0.140745570,0.505317030,9.730522160,0.029389560,-0.033089520,-0.037109850
1640790344.386900,0.073418480,0.624356450,10.353367810,0.037764020,-0.040788950,-0.021216270
1640790344.390110,0.106377730,0.628397880,9.566373830,0.026729700,-0.084914250,-0.032244620
1640790344.391920,0.149067890,0.382748930,9.756641390,0.056615470,-0.145900260,-0.047522790
1640790344.395280,-0.155842590,0.427350130,9.862620350,0.095839800,-0.018897650,-0.045992430
1640790344.397820,0.039294170,0.217231240,9.159511570,0.048515210,-0.031724570,-0.059548030
1640790344.400280,-0.218391540,0.186904250,10.352008820,0.039751830,-0.098550330,-0.024625660
1640790344.401940,-0.081944360,0.049625720,9.730159760,0.017881400,-0.006791950,-0.033792850
1640790344.405200,0.096087260,0.066365450,9.359775540,0.070245570,-0.102096800,-0.037881740
1640790344.409190,-0.248547970,0.166613850,10.050696370,0.083445010,-0.086018440,-0.043949500
1640790344.412840,0.175680590,0.177808550,9.245349880,0.046707690,-0.018195810,-0.057119130
1640790344.414270,0.056630900,0.187695740,9.784386630,0.068160890,-0.041604050,-0.059337930
1640790344.415160,0.056107470,0.181597110,10.087100030,0.080251690,-0.062602770,-0.060632820
1640790344.417320,0.202859940,0.296687990,9.594314580,0.116366170,-0.065772240,-0.043804950
1640790344.420140,0.063536000,0.373769880,9.337022780,0.059753660,-0.045837470,-0.044341390
1640790344.421920,-0.140130800,0.269329550,10.124463080,0.043629110,-0.066946450,-0.038452450
1640790344.425590,-0.336220800,0.249001730,9.791729930,0.090210150,-0.044398010,-0.056108840
1640790344.427010,-0.110231340,0.148750560,9.309221270,0.123251990,-0.103875990,-0.086459520
1640790344.430310,-0.393646960,0.413131560,10.326786990,0.131618980,-0.055538130,-0.067125260
1640790344.431930,-0.290983350,0.556181970,9.728260990,0.021000210,-0.010506810,-0.080555680
1640790344.435140,-0.175047920,0.584918860,9.899565700,0.003923480,-0.156147780,-0.042891500
1640790344.437040,-0.317214340,0.485596210,10.071377750,0.058595840,-0.090402370,-0.052244960
1640790344.440120,0.146610690,0.631711180,9.207626340,0.094322860,-0.055591770,-0.069940090
1640790344.442130,-0.130797190,0.687342170,10.054418560,0.088913720,-0.094765420,-0.037428740
1640790344.447390,0.091143920,0.479398910,9.981787680,0.003327430,-0.084611780,-0.048893690
1640790344.447970,0.371679510,0.480885800,9.542562480,0.007936360,-0.072176760,-0.041714310
1640790344.450220,0.154846830,0.374300660,9.771953580,0.009554620,-0.059741730,-0.062909730
1640790344.451940,0.092764930,0.509215770,10.078107830,0.035078830,-0.086647270,-0.051036480
1640790344.455190,-0.166913600,0.425378740,9.728776930,0.021901730,-0.087678440,-0.051781540
1640790344.456900,-0.020596820,0.141540500,9.325588230,0.017945470,-0.139962140,-0.067925460
1640790344.460300,-0.249374840,0.180089180,9.951667790,0.060676040,-0.072266160,-0.050582000
1640790344.461980,0.014456740,0.068354480,9.153623580,0.025412440,0.006155670,-0.067555910
1640790344.465360,-0.003522500,0.138340090,10.083093640,0.031848250,-0.094407800,-0.038762390
1640790344.467220,-0.141189460,0.119865140,10.417034150,0.009207430,-0.063441700,-0.036892290
1640790344.470250,0.330478130,0.155552660,9.084188460,0.047345460,-0.107307750,-0.043536720
1640790344.471930,0.023423530,0.204430100,9.547405240,0.081941500,-0.099110630,-0.059416900
1640790344.475620,0.234047530,0.228794290,9.582884790,0.049836940,0.019286570,-0.071227560
1640790344.477410,0.150829140,0.196839330,9.786807060,0.079530480,-0.026489790,-0.058558590
1640790344.481150,-0.042432810,0.080764940,10.055162430,0.076404230,-0.111915190,-0.060974070
1640790344.483130,-0.003407220,0.228188560,9.668927190,0.107200440,-0.104080150,-0.028678770
1640790344.485110,-0.158439040,0.272254820,9.115813260,0.049699850,-0.022725760,-0.048711900
1640790344.486920,-0.307968830,0.253328590,9.964664460,0.049509110,-0.057347120,-0.049743060
1640790344.490800,-0.501589950,0.403881130,10.311867710,0.093264870,-0.062394130,-0.063368670
1640790344.492760,-0.005600480,0.478151710,9.058555600,0.097057240,-0.085125890,-0.075148050
1640790344.495940,-0.182033200,0.712663410,9.991918560,0.095136460,-0.081819300,-0.060324370
1640790344.499110,-0.131342110,0.759308820,10.032331470,0.005982820,0.004163380,-0.059762600
1640790344.500190,0.137733370,0.699787500,9.650177000,0.027625260,-0.099661950,-0.036005680
1640790344.501940,-0.065771940,0.509641770,10.053651810,0.056757040,-0.112997010,-0.057104240
1640790344.505160,0.141846330,0.610180970,9.574523930,0.079604980,-0.038288540,-0.062213850
1640790344.506920,-0.026629270,0.692945180,9.659194950,0.044040390,-0.064298520,-0.045272710
1640790344.510320,0.043449830,0.493676690,9.788157460,-0.046870100,-0.087912370,-0.034956630
1640790344.512070,0.171931650,0.535034600,9.666328430,-0.016200540,-0.039818880,-0.036080180
1640790344.515200,0.053345010,0.495270130,9.514623640,-0.012509530,-0.023400790,-0.065353520
1640790344.516920,-0.079672310,0.561398390,10.083194730,0.032258030,-0.121247780,-0.040708490
1640790344.520150,-0.316353050,0.460484120,9.983446120,-0.015446540,-0.077563530,-0.051866470
1640790344.521930,0.102781150,0.232340400,8.945862770,-0.037321450,-0.069569060,-0.053440050
1640790344.525650,-0.181755870,0.173058240,10.088114740,0.012962520,-0.063262880,-0.058677800
1640790344.526950,0.176070210,0.242650720,9.558069230,0.001229350,0.041577230,-0.055447230
1640790344.531750,0.416244750,0.358413310,9.504394530,0.003059210,-0.061766800,-0.026282670
1640790344.532440,0.122093010,0.234116270,10.243272780,-0.050364430,-0.060017410,-0.030946740
1640790344.535140,0.430603980,0.245491250,9.411905290,-0.006942450,-0.044491890,-0.022196770
1640790344.536990,0.078095550,0.059286320,9.408641820,0.048109890,-0.051586330,-0.053454940
1640790344.540160,0.057129110,0.090380620,9.689238550,0.054033100,-0.017581880,-0.073851640
1640790344.542180,-0.146106060,0.273716090,9.964038850,0.027301910,0.008043650,-0.051581870
1640790344.546620,-0.102578330,0.158324970,9.631504060,-0.022372600,-0.040705500,-0.048555430
1640790344.549380,-0.237230240,0.377947270,10.013575550,0.028960410,-0.088784110,-0.015965100
1640790344.550110,-0.272822860,0.440897110,9.579962730,0.012120600,0.014658270,-0.038868190
1640790344.551930,0.043154100,0.487881660,9.354189870,0.037579240,-0.037468970,-0.029106440
1640790344.555120,-0.224601270,0.463894520,10.377864840,0.052523620,-0.031812490,-0.042796130
1640790344.556960,0.240168110,0.567390080,9.585221290,0.032691660,0.008982420,-0.047798450
1640790344.560350,0.118814950,0.677475630,9.763217930,0.007976590,-0.053145000,-0.037971140
1640790344.562150,-0.015759020,0.636467750,10.084592820,-0.065997240,-0.037068130,-0.040085620
1640790344.565240,0.074032060,0.707918700,9.640749930,-0.041699410,-0.030140580,-0.021401050
1640790344.566940,-0.091559370,0.567660690,9.664697650,-0.012485680,-0.032456210,-0.044840570
1640790344.570240,-0.096268710,0.605603580,10.086170200,0.019580130,-0.034654140,-0.034707790
1640790344.571940,-0.187376390,0.709778370,9.943173410,-0.045911970,-0.001168250,-0.031599410
1640790344.575780,0.205243240,0.536186700,9.316116330,-0.120931860,-0.035852200,-0.008788700
1640790344.577060,0.057196870,0.482994970,10.164776800,-0.089165580,-0.020444400,-0.010444220
1640790344.581460,0.197600600,0.385379110,9.541685100,-0.065280500,0.054724520,-0.037747620
1640790344.582090,0.274613770,0.467291380,9.535996440,-0.020661950,-0.072123110,-0.009782610
1640790344.585140,-0.060224660,0.205142840,10.200720790,-0.073494020,-0.021968780,-0.011724240
1640790344.587000,0.327122480,0.069502610,9.351896290,-0.088028620,0.023394820,-0.006496910
1640790344.590210,0.052600660,0.024070140,9.846726420,-0.056923940,0.000941750,-0.017908220
1640790344.593910,0.160681430,0.190515670,9.945853230,-0.058837240,0.038434570,-0.009937580
1640790344.595240,0.225437550,0.391848950,9.646217350,-0.070814800,0.042538340,0.001508000
1640790344.597420,0.140908700,0.258248240,9.657341000,-0.104559960,0.009806450,-0.006617610
1640790344.600190,0.026679130,0.245406900,9.878170010,-0.021103030,-0.028941040,0.010737780
1640790344.601950,-0.104832930,0.083677190,9.462475780,-0.004382430,0.049969550,-0.020705160
1640790344.605160,-0.027796730,0.023501300,9.441063880,0.007094440,0.024829800,-0.019803650
1640790344.606940,-0.463974740,0.096671450,10.573153500,-0.033015020,0.012956560,-0.014445190
1640790344.610850,0.037840820,0.131686900,9.332301140,-0.070916120,0.025150190,0.001445410
1640790344.612130,0.013096300,0.289032520,9.595127110,-0.042821470,0.001984830,0.009742380
1640790344.615180,-0.072937530,0.411901800,10.219483380,-0.044417390,0.063033400,0.001727040
1640790344.616950,-0.039743270,0.535079000,9.907154080,0.000306960,0.021137300,0.004544850
1640790344.620190,-0.151348290,0.460377160,9.682801250,-0.005748870,-0.068581100,-0.002869960
1640790344.621960,0.001521450,0.426634160,9.627667430,-0.013534720,-0.015704340,0.015868250
1640790344.625240,-0.011998240,0.627630170,9.534827230,-0.057058040,0.098080930,0.012417140
1640790344.627810,0.074842470,0.593701120,10.029728890,-0.105926410,0.025315590,0.027962030
1640790344.630880,-0.073338260,0.657333020,10.638767240,-0.073061890,-0.027611850,0.038652130
1640790344.632000,0.119988310,0.592610900,9.418423650,-0.075523560,0.010009110,0.000950690
1640790344.635220,0.032385340,0.595664860,9.566652300,-0.030341740,-0.038485230,0.019744030
1640790344.637640,-0.319522860,0.444589140,10.060173030,-0.077492000,0.018283720,0.027361520
1640790344.640340,0.149426740,0.287829490,9.265366550,-0.098505620,0.025995080,0.038498640
1640790344.642060,0.017116140,0.132606660,9.836025240,-0.090661640,0.015622380,0.036767130
1640790344.648080,0.099054780,0.164758700,10.156700130,-0.083412240,0.039498510,0.041714310
1640790344.648580,0.010551770,0.332103940,9.952438350,-0.071869780,-0.001704690,0.044228130
1640790344.650180,0.031581230,0.165160240,9.653314590,-0.117868200,-0.041721760,0.036154690
1640790344.652000,0.086751410,0.133956760,9.717163090,-0.061915810,0.001904370,0.039514900
1640790344.655170,0.102158580,0.177625490,9.305665020,-0.034056610,0.099003310,0.010557470
1640790344.657100,0.275904090,0.269616130,9.660999300,-0.033980610,0.034327810,0.036451220
1640790344.660370,-0.120965240,0.370857600,10.501414300,-0.087746990,0.015908480,0.060711800
1640790344.662060,0.139684300,0.127822890,9.439314840,-0.117903960,0.013314190,0.052523620
1640790344.665120,-0.221090140,-0.058873600,9.772299770,-0.017026070,-0.057189170,0.047682230
1640790344.666900,-0.298984800,-0.177732300,9.692740440,0.028277940,0.024063890,0.020012260
1640790344.670260,-0.029307640,-0.031272800,9.375338550,0.034089380,0.069357450,0.020480150
1640790344.672130,-0.201418670,0.062604250,10.112944600,-0.040479010,0.041817130,0.034995380
1640790344.675240,-0.074089710,0.177522080,10.391819000,-0.057481230,-0.021220750,0.057734550
1640790344.677580,0.098669860,0.402863500,9.401167870,-0.019127130,0.000344220,0.055649880
1640790344.681030,0.115404880,0.472602840,9.574310300,-0.007438660,-0.016303360,0.031560660
1640790344.681980,-0.115005760,0.720985050,10.318144800,0.015203660,0.062166170,0.050516440
1640790344.685130,0.036210380,0.522468510,9.803581240,-0.016751890,0.021255020,0.029613080
1640790344.686920,0.049214930,0.422313390,10.034838680,0.017249590,-0.066185010,0.058335070
1640790344.690230,-0.088392180,0.462897780,9.897399900,-0.018715860,0.041805220,0.055590280
1640790344.692230,0.077038690,0.512160480,9.469985960,-0.069881980,0.030310450,0.066646930
1640790344.697330,-0.215160240,0.421260570,10.102914810,-0.075049680,-0.006547570,0.075460970
1640790344.698250,-0.071898860,0.268291890,9.960950850,-0.042964520,-0.013190510,0.046674910
1640790344.700180,-0.026867330,0.350194690,9.662400250,0.041542950,0.013290350,0.049586600
1640790344.702020,0.027945070,0.348748150,9.631516460,-0.002507870,-0.009013710,0.054635110
1640790344.705620,0.156923890,0.362770110,10.044031140,-0.068382920,0.035499040,0.078727300
1640790344.707010,0.353793000,0.384148420,9.419695850,-0.100782520,0.079187760,0.083385410
1640790344.710300,0.354458150,0.224860190,10.093013760,-0.030969080,-0.015312430,0.078204270
1640790344.712040,0.051281180,0.488360640,10.139630320,0.017412000,0.011488790,0.080172720
1640790344.715110,0.227167320,0.276115180,9.149188040,-0.038662560,-0.004641710,0.065016750
1640790344.716960,-0.109499510,0.015711980,9.933872220,-0.021922590,0.001791120,0.073489550
1640790344.720280,-0.173867520,-0.082871910,9.886413570,-0.004616380,0.080409660,0.048860920
1640790344.722050,-0.035353980,0.034202840,9.590398790,0.033898660,0.032643970,0.063236060
1640790344.725550,-0.226258350,0.247734200,10.036855700,-0.023226440,0.005766750,0.080962490
1640790344.727080,-0.155533780,0.331330780,10.080088620,-0.075039250,0.003933910,0.081765640
1640790344.730240,-0.107768630,0.279161070,9.521630290,-0.012566150,0.023296480,0.080771750
1640790344.732050,-0.087548260,0.225226000,9.789262770,0.051844130,-0.015896560,0.048513710
1640790344.735470,-0.183331830,0.405404810,10.246345520,0.083726650,0.055758660,0.062830750
1640790344.737960,0.123988020,0.558144090,9.402929310,-0.009353460,0.030437120,0.058840230
1640790344.740150,0.080621290,0.540746930,10.291810040,-0.067602100,-0.037373610,0.086620450
1640790344.742270,0.195586930,0.689810690,9.743477820,-0.069472200,0.064417720,0.097717360
1640790344.745260,0.321041020,0.614991550,9.526467320,-0.024354460,0.026991960,0.075934830
1640790344.747030,-0.190732630,0.665785310,10.508052830,0.022491810,-0.000806150,0.088924170
1640790344.750140,-0.097672850,0.417261420,9.784293170,-0.015681980,-0.006946920,0.078293680
1640790344.752120,-0.079587490,0.099684690,9.514050480,-0.007553400,-0.017131870,0.073349480
1640790344.755150,-0.187853350,0.068290220,9.779466630,-0.010246040,0.038634240,0.066477060
1640790344.757020,0.033011690,0.181560140,9.882147790,-0.042748450,0.060641770,0.075879700
1640790344.760300,0.181709190,0.206598890,9.644460680,-0.062410530,0.062346450,0.091350070
1640790344.763210,0.274896860,0.163054570,10.162931440,-0.042611360,-0.025776030,0.089846560
1640790344.765110,0.056967590,0.122009230,10.057692530,0.056438160,0.026161970,0.097124300
1640790344.767020,0.167566960,0.148855120,8.991425510,0.049574670,-0.015203660,0.060018900
1640790344.770200,-0.086054910,0.064596970,10.034396170,0.019645690,0.007788840,0.080165270
1640790344.771990,0.084909810,0.179787170,9.460651400,-0.019074980,0.125701730,0.083424150
1640790344.776320,0.150510030,0.164689360,9.796549800,0.000534950,0.018976630,0.077664860
1640790344.777280,-0.152304680,0.448134210,10.377551080,0.039739910,0.006321070,0.101347280
1640790344.780360,0.059157820,0.402333530,9.462751390,0.001837310,0.020924210,0.077529260
1640790344.782060,-0.159929480,0.248888720,9.647353170,0.028572980,0.010739270,0.074253980
1640790344.785170,-0.231258360,0.192972350,9.785592080,0.062510370,0.032298270,0.060141090
1640790344.787000,-0.164079490,0.186658830,9.834140780,0.077484530,0.042667980,0.051720440
1640790344.790190,-0.084492500,0.442424510,9.621090890,0.018377600,0.037144130,0.066861510
1640790344.792160,-0.109099830,0.520030500,10.376259800,-0.057090820,-0.021666290,0.067727270
1640790344.796950,-0.181959390,0.507922170,9.896533010,-0.024795530,0.046701730,0.080397730
1640790344.797370,0.082824220,0.507369760,9.349925990,0.032521780,-0.054080790,0.058834250
1640790344.800260,-0.239982290,0.429673250,10.595486640,0.093215710,0.015693900,0.068995360
1640790344.801980,0.064376530,0.597298200,9.360046390,0.026449560,0.062473110,0.067305560
1640790344.805140,0.104782480,0.343582450,10.038646700,-0.045797230,-0.071166460,0.082659720
1640790344.806970,0.077194190,0.380327140,10.022096630,-0.037570290,0.052696460,0.084830810
1640790344.810280,0.361406530,0.560834110,9.290401460,-0.022338330,0.036913160,0.050106650
1640790344.813020,-0.098579870,0.569509090,10.377721790,0.001420080,-0.024221840,0.086298600
1640790344.815210,-0.056137380,0.515018460,9.735605240,-0.018097460,-0.023148950,0.070258980
1640790344.817420,-0.024564540,0.333939580,9.439180370,-0.010815260,-0.025227670,0.056207180
1640790344.820100,-0.110352700,0.233325600,9.478299140,0.003275280,0.042907890,0.076319280
1640790344.822010,-0.074841860,0.161287430,10.063923840,-0.029759110,0.022992490,0.068920850
1640790344.826770,0.003778500,0.097724590,9.919730190,-0.037343800,0.057335200,0.084429990
1640790344.827390,0.211029740,0.022332550,9.708004950,-0.021412970,-0.036902730,0.068257760
1640790344.830430,-0.038441940,-0.039056550,10.258536340,0.039823360,-0.002461670,0.064989930
1640790344.832180,0.348145600,0.062391770,8.668203350,0.039516390,0.048992050,0.048330430
1640790344.835160,0.147870260,-0.127029660,9.963152890,0.030237440,0.002732870,0.038692360
1640790344.837300,-0.043018700,0.080000410,10.140316010,0.037132200,0.107939540,0.052265830
1640790344.840150,0.201052770,0.178996620,9.439208030,0.047229230,-0.026319920,0.051471600
1640790344.842250,-0.290323230,0.134120790,10.257275580,0.059209770,-0.029221180,0.073803970
1640790344.846880,-0.062169990,0.481998560,9.206734660,0.039021670,0.054164230,0.048354270
1640790344.847480,-0.254140350,0.323269460,9.844643590,0.052493810,0.017090140,0.036181510
1640790344.850290,-0.255910400,0.378966570,9.889422420,0.090591620,0.034834440,0.030565260
1640790344.851970,-0.091197240,0.608685610,9.833606720,0.087267170,0.005352500,0.014589730
1640790344.855100,-0.126308950,0.602435650,9.751451490,0.035673380,0.039315230,0.038321320
1640790344.857020,0.038444380,0.660155650,9.797024730,-0.012288990,-0.033262370,0.047716500
1640790344.860270,-0.139417200,0.399995740,10.214126590,0.023567680,0.033749650,0.037343810
1640790344.862000,0.259607760,0.382052420,9.115852360,0.081463160,0.039760770,0.024904310
1640790344.865860,-0.135828960,0.323994670,10.594798090,0.087580080,-0.033774980,0.019159910
1640790344.867010,0.056146060,0.403765110,9.499050140,0.026774410,0.078086560,0.046442450
1640790344.870120,0.342470140,0.290979030,9.208772660,-0.013306740,-0.027415160,0.016880040
1640790344.872000,-0.194932890,0.264560970,10.600460050,0.014860930,0.051480530,0.023238360
1640790344.875620,0.111661990,0.710657600,9.173197750,0.044687100,0.050577520,0.007955730
1640790344.876970,-0.296648830,0.514327700,10.230498310,0.030305990,-0.066989670,0.014548010
1640790344.880160,-0.257141380,0.535183310,9.626247410,0.006955860,0.030453510,0.025826700
1640790344.882250,0.058095190,0.329674930,9.112341880,0.036397570,0.014998020,-0.006675720
1640790344.885140,-0.107674290,0.115526530,9.854626660,0.066523250,0.083450970,0.003817680
1640790344.886990,0.230993670,0.386204090,9.664301870,0.031903390,0.050427020,0.010605150
1640790344.890140,0.077506220,0.039780900,10.224790570,-0.010630490,0.029324000,0.008617340
1640790344.892300,0.279373910,-0.040213920,9.372706410,0.026629870,-0.003111360,0.003951790
1640790344.896270,-0.058483610,-0.074186680,9.986476900,0.091442460,-0.030671060,-0.019304460
1640790344.897360,-0.110438940,-0.076757040,9.250027660,0.103980300,0.110672410,-0.024315720
1640790344.900130,-0.076960360,0.185288470,9.673354150,0.074476010,-0.009958450,-0.028550630
1640790344.902010,-0.453867500,0.178490790,10.637545590,0.042642650,0.051803880,-0.002510850
1640790344.905170,0.067746570,0.512545590,8.966321950,0.057116160,0.013393170,-0.002990660
1640790344.906990,-0.331278620,0.607373830,10.346673970,0.067460540,-0.050722070,-0.009627640
1640790344.910270,-0.232195900,0.826161560,9.600414280,0.051492450,0.092253100,-0.004412230
1640790344.913150,-0.023214790,0.786637720,9.542272570,0.049771370,-0.027444960,-0.029236080
1640790344.915280,-0.249417330,0.452974530,10.411416050,0.080789630,0.009839240,-0.012214480
1640790344.917000,0.274859430,0.584488150,9.200045590,0.095102180,0.015334790,-0.024819370
1640790344.920120,0.000605750,0.405766640,10.037795070,0.031904880,0.014010070,-0.031685830
1640790344.922000,0.154004480,0.541424870,9.578598020,-0.038297470,0.035537780,0.001928210
1640790344.925520,0.004102580,0.398658570,10.029413220,-0.026436150,-0.040912630,-0.010794400
1640790344.931350,-0.105546410,0.275355010,9.647205350,0.048136710,0.021369760,-0.019808110
1640790344.932040,0.050352620,0.524763170,9.436582570,0.082623950,-0.046798580,-0.029413400
1640790344.932610,-0.331521180,0.431452780,10.196882250,0.008161360,0.054766240,-0.015446540
1640790344.935090,0.264318050,0.399710600,9.049000740,-0.039371850,0.061172250,0.002264980
1640790344.937170,-0.093384870,0.157667120,10.622073170,0.018331410,-0.008864700,-0.013256070
1640790344.940170,0.066667240,0.435523930,9.430716510,0.054924190,0.057040150,-0.019019840
1640790344.942200,0.212013630,0.512964550,9.131791110,0.026032330,-0.068397830,-0.027874120
1640790344.945490,-0.131346200,0.248730750,9.958386420,-0.038638710,0.072863680,-0.027687850
1640790344.948070,0.272280630,0.292302130,9.096081730,0.002078710,0.082887720,-0.054357950
