# timestamp,accel_x,accel_y,accel_z,gyro_x,gyro_y,gyro_z
1640780874.010160,-0.067688230,0.153856660,10.033011440,0.028030580,-0.059409440,-0.003179910
1640780874.011050,-0.339034470,0.214810300,9.742628100,-0.030994420,0.041955720,-0.001081820
1640780874.015170,-0.229808550,0.470407780,9.094028470,-0.015881660,-0.006730850,0.009369850
1640780874.016070,-0.571860070,0.426447330,10.677693370,0.005881490,0.042629250,0.015226010
1640780874.020260,0.013547510,0.590325360,9.661320690,0.020560620,0.148177160,0.021606680
1640780874.021140,-0.012039440,0.510535180,10.586355210,0.019486250,-0.001187620,0.013288860
1640780874.025260,-0.106121110,0.269506310,10.442347530,-0.001697240,0.042787210,0.002084670
1640780874.026090,0.292972560,0.350116850,8.540393830,-0.019980970,-0.030194220,-0.003488360
1640780874.030220,-0.225466860,0.052566560,9.826831820,-0.023511060,-0.001378360,0.011737650
1640780874.031020,0.067836230,-0.136719500,9.120450020,-0.009515880,0.148044540,0.011150540
1640780874.035340,-0.010952500,-0.074622770,9.970714570,0.040249520,0.009125470,0.011464950
1640780874.036080,-0.376014260,-0.147438650,10.962765690,0.020729010,0.059743240,0.016421080
1640780874.040810,0.211086630,0.110113530,9.095428470,-0.018821660,0.021927060,0.002408030
1640780874.041940,-0.291145860,0.153229590,10.262788770,-0.018730760,-0.032694630,-0.014021990
1640780874.045440,-0.003115880,0.241533340,9.317144390,0.001938640,0.130333010,-0.004249810
1640780874.046050,0.085236010,0.277858350,9.420103070,0.068955120,0.029440230,-0.012494620
1640780874.050380,-0.459135650,0.316974820,10.782987590,0.055420410,0.039517880,-0.010919570
1640780874.051360,-0.034249120,0.494939450,9.186812400,-0.012733040,0.024633110,0.009003280
1640780874.055260,-0.422104920,0.383836030,10.229122160,-0.037625430,-0.056441130,0.002411010
1640780874.056150,-0.385315420,0.538903830,10.022830960,-0.042979420,0.092019140,-0.001604860
1640780874.065400,0.129278960,0.651137830,9.434977530,-0.012524430,0.036849090,0.011840460
1640780874.066490,-0.112932630,0.383256730,10.778970720,0.003391500,0.067143140,0.009992720
1640780874.069220,0.255218800,0.466721120,9.637708660,-0.025393070,0.067716820,-0.013549630
1640780874.069750,0.082383190,0.356223790,9.785993580,-0.044836100,-0.073486570,-0.013525780
1640780874.070150,-0.156270000,0.206021010,9.559067730,-0.068150450,0.024326140,-0.002571940
1640780874.071080,0.039084950,0.206607820,9.086617470,-0.065049530,0.040371720,0.002650920
1640780874.075260,-0.303304260,0.052135390,10.639253620,-0.020962960,0.055299710,0.034767390
1640780874.076230,-0.035309940,0.165562500,10.118009570,-0.022310020,0.084178160,0.031773750
1640780874.080230,0.019859850,0.154616480,10.234978680,-0.038565690,-0.004920360,0.012412670
1640780874.082710,-0.058172040,0.200713170,9.816805840,-0.070416930,0.048019000,0.000798700
1640780874.085260,0.164611920,0.327075420,8.905065540,-0.075383490,0.023105740,-0.024744870
1640780874.086090,-0.151726070,0.105906560,9.777826310,-0.037716330,0.042745470,-0.002330540
1640780874.090490,-0.073884430,0.037913590,9.485664370,0.015003980,0.078125310,0.004944210
1640780874.091220,-0.341100630,-0.054983650,10.371211050,0.023844840,-0.014458600,0.003831090
1640780874.096080,-0.397573980,-0.132777470,10.255382540,-0.018922980,0.037544970,0.024199490
1640780874.099320,-0.098839070,0.045769930,9.633703230,-0.051581860,0.019206110,0.008352100
1640780874.100170,-0.363688770,0.152993600,10.454206470,-0.046402210,0.041069080,0.003488360
1640780874.101080,0.123932250,0.419239460,9.301783560,-0.023488710,0.077354910,0.012357540
1640780874.105170,-0.001260590,0.424502310,10.027896880,0.016330180,-0.016289950,-0.016899410
1640780874.106080,-0.129431250,0.501052920,10.090049740,0.001344080,0.041402880,-0.017806890
1640780874.110240,0.122104210,0.649970050,9.215953830,-0.038629760,-0.018824630,-0.003951790
1640780874.111190,-0.402522090,0.315153420,10.629301070,-0.064609940,0.021937500,0.006031990
1640780874.115260,-0.038490900,0.397203120,9.698699000,-0.057239830,0.103466200,0.031101700
1640780874.116100,-0.217204210,0.296643020,10.378697400,-0.024120510,-0.028137870,0.037702920
1640780874.120240,-0.326457080,0.099772170,10.338113780,-0.035813450,0.026920440,0.031332670
1640780874.121100,0.275709600,0.180582150,8.683710100,-0.046813490,0.011299550,0.007244950
1640780874.126630,-0.237154590,-0.027154120,10.150379180,-0.047363340,0.015281140,-0.010676680
1640780874.128180,0.019872220,-0.021374030,9.518655780,-0.046575070,0.100183490,0.002376740
1640780874.130740,0.047582490,-0.028495190,9.906431200,-0.004230440,-0.029383610,0.006131830
1640780874.131620,-0.415875940,-0.063776240,10.731521610,-0.001546740,0.014461580,0.011958180
1640780874.135180,-0.005059380,0.235505610,9.304569240,-0.028382250,0.015711790,0.025217240
1640780874.136040,-0.401084300,0.197414590,10.308012010,-0.051574410,-0.025302170,-0.002026560
1640780874.140280,-0.193960370,0.391823200,9.629537580,-0.059239580,0.067767510,-0.008764860
1640780874.141070,0.080150990,0.481074780,9.297921180,-0.008721650,0.014895200,0.000955160
1640780874.145320,-0.305162040,0.228406210,10.500247960,0.006200370,0.033460560,0.007019940
1640780874.146520,0.016364190,0.265230540,9.522235870,0.010120870,0.018644330,0.017260020
1640780874.150250,-0.317287090,0.050471530,10.245874400,-0.010748210,-0.076305870,0.006797910
1640780874.151650,-0.315379500,-0.021937980,9.919071200,-0.055658820,0.026641790,0.007401410
1640780874.156280,-0.055107180,0.169453200,9.604575160,-0.027391310,0.028066340,-0.005427000
1640780874.157130,-0.448744180,0.258055600,10.862328530,-0.015103820,0.023666030,-0.008748470
1640780874.164940,-0.092032030,0.573648810,9.739867210,-0.022713840,-0.003677610,0.002342460
1640780874.165380,-0.173717710,0.664373700,9.754468920,-0.042872130,-0.086207700,-0.002489980
1640780874.165700,-0.186708330,0.641561090,9.538161280,-0.086383540,0.017829240,-0.004196170
1640780874.166010,0.132164240,0.611826900,9.307908060,-0.060090420,0.025004150,0.015953180
1640780874.170150,-0.112946120,0.222745940,10.648763660,-0.024352970,0.027962030,0.007218120
1640780874.171110,0.189764450,0.143416730,10.098905560,-0.026394430,0.034576650,0.010845070
1640780874.178840,0.042413420,0.065584320,10.296039580,-0.035725540,-0.066690150,0.028558080
1640780874.179540,-0.110827040,-0.207563160,9.867470740,-0.070962310,-0.000727180,0.008076430
1640780874.180130,0.015414630,-0.067141690,8.889169690,-0.066405530,-0.002093610,-0.012239810
1640780874.181100,-0.341193320,-0.072859940,9.778089520,-0.041328370,0.017564000,-0.009584430
1640780874.185170,-0.057953410,-0.045918830,9.460252760,-0.021138790,0.064766410,-0.000979010
1640780874.186050,-0.242921200,-0.005379380,10.358409880,0.023336700,-0.036035470,-0.008815530
1640780874.190280,-0.327425270,0.028387100,10.508149150,0.015372040,-0.015260280,-0.008629260
1640780874.191070,0.006617770,0.164978440,9.524786000,-0.015068060,-0.018252430,0.005176660
1640780874.197680,-0.244955300,0.111816760,10.291739460,-0.013184550,0.020739440,-0.003390010
1640780874.198300,0.152442990,0.326957580,9.623747830,-0.012736020,0.080953520,0.003322960
1640780874.200160,-0.073556210,0.461341620,10.071575160,0.013302260,-0.044207270,0.002935530
1640780874.201030,-0.245183890,0.437267870,9.841962810,0.004181270,-0.049850340,0.001025200
1640780874.205160,0.140307070,0.610610130,8.898988720,-0.039556620,-0.026164950,-0.000149010
1640780874.206260,-0.320306600,0.422210900,10.358538630,-0.048877310,0.024855140,-0.003084540
1640780874.210360,0.047470010,0.244617790,10.157001500,-0.030249360,0.091604890,0.003848970
1640780874.211650,-0.002228320,0.231097220,10.630189900,0.019666550,-0.009472670,-0.011210140
1640780874.215310,-0.360052650,0.177575200,10.514295580,-0.000238420,-0.026890640,0.008100270
1640780874.216040,0.016373090,0.205463220,8.909493450,-0.062043960,-0.069065390,0.021491950
1640780874.220200,-0.336982130,0.049316070,9.421199800,-0.071719290,-0.016927720,-0.005204980
1640780874.221130,-0.107026550,0.062339730,9.152372360,-0.033850970,0.083351160,-0.004082920
1640780874.225270,0.146172450,0.122793290,9.822712900,0.013314190,0.040040910,-0.007142130
1640780874.226110,-0.164572150,-0.100804470,10.955040930,0.021508340,0.044970220,-0.000143050
1640780874.230760,0.196068410,0.070020610,9.928411480,0.001393260,-0.048200790,0.003577770
1640780874.231440,-0.220427990,-0.101007190,10.200362210,-0.017072260,-0.058725480,-0.001692770
1640780874.235190,-0.110904060,-0.144263360,9.269010540,-0.003974140,0.036658340,0.001594420
1640780874.236060,-0.059974150,0.046748490,9.440982820,0.054922710,0.036033990,-0.015629830
1640780874.240380,-0.485689370,0.088715100,10.257770540,0.047945980,0.038857760,-0.026343770
1640780874.241090,-0.146109030,0.417752650,9.456342700,0.015689430,-0.046105680,0.000610950
1640780874.245520,-0.350695010,0.448910000,10.102007870,-0.004141030,-0.066977740,-0.019387900
1640780874.246580,-0.163309070,0.497569650,9.674339290,-0.030511620,0.039951500,-0.012463330
1640780874.250140,0.171728460,0.643669840,9.918976780,0.005777180,0.023148950,0.002078710
1640780874.251040,-0.001011550,0.261949090,10.822817800,0.031670930,0.079378490,-0.012564660
1640780874.255130,0.254787860,0.400758710,9.814675330,0.039546200,-0.010170040,-0.003312530
1640780874.256320,-0.254986290,0.363732930,10.028830530,0.010059770,-0.111988190,0.008781260
1640780874.260300,-0.231724600,0.083105630,8.898980140,-0.060345230,-0.030724700,0.010788440
1640780874.261150,0.004882920,0.221045880,8.754677770,-0.035029650,0.012294950,0.014695530
1640780874.265180,-0.282730460,0.059941830,10.520573620,0.004799660,0.121152410,0.011813640
1640780874.266120,0.222216140,0.038903560,10.217091560,0.033694510,0.074805320,0.015588110
1640780874.270130,-0.025335980,0.172642920,10.807360650,0.050888960,-0.089861450,-0.000119210
1640780874.271060,-0.092090930,0.095799620,9.791503910,-0.019580130,-0.025515260,-0.002017620
1640780874.275530,-0.005183010,0.060340520,8.758447650,-0.022745140,-0.040911140,0.005771220
1640780874.276270,-0.487373920,0.022505740,9.762197490,0.024533270,0.038491190,-0.017713010
1640780874.280210,-0.082079890,0.193967100,9.262873650,0.044116380,0.094318400,-0.003473460
1640780874.281110,-0.294899140,0.279227260,10.366392140,0.055955350,-0.028276440,0.010198360
1640780874.285170,-0.291448150,0.335454790,10.356779100,0.001198050,-0.011861320,-0.010022520
1640780874.286070,0.207531960,0.499640410,9.248653410,-0.030761960,-0.045226510,0.022161010
1640780874.290620,-0.145119560,0.218616550,10.244180680,0.006924570,0.031316280,0.016748910
1640780874.291860,0.342040630,0.191777360,9.607280730,0.031985350,0.111171600,-0.014011560
1640780874.295320,0.050090580,0.334366740,10.289757730,0.070728370,-0.012511010,-0.008510050
1640780874.296110,-0.298398730,0.284802880,10.133391380,0.013661380,-0.045177340,-0.008499620
1640780874.300140,-0.142328950,0.522289870,8.978048320,-0.054600830,-0.074093040,0.005276500
1640780874.301070,-0.602137740,0.419979930,9.684319500,-0.060306500,-0.014090540,0.027273600
1640780874.305520,-0.200618760,0.271206650,9.530096050,-0.016495590,0.096260020,0.022245950
1640780874.306100,0.092405330,0.231003090,10.248822210,0.060370560,0.045484300,0.016185640
1640780874.310270,0.083872490,0.058271680,10.600041390,0.057163830,0.034049150,-0.006142260
1640780874.311120,0.369900880,0.196306590,9.632231710,-0.030791760,-0.034330790,-0.007605550
1640780874.315220,-0.096839170,-0.017759160,9.619585990,-0.067614020,-0.054807970,0.007636850
1640780874.316020,-0.104966340,-0.190489780,8.900467870,-0.023919350,0.006879870,0.009344520
1640780874.320140,-0.241841880,-0.041338110,9.511249540,0.076438490,0.025415420,-0.003162030
1640780874.321390,-0.494764570,-0.039139580,10.204402920,0.082714840,0.056701900,0.002148750
1640780874.325260,-0.225877340,0.189702540,10.106295590,0.019240380,-0.016482180,0.002604720
1640780874.326070,-0.340702950,0.253169360,10.443279270,-0.035858150,-0.033025440,-0.001142920
1640780874.330520,-0.020096340,0.282628330,9.392651560,-0.022074580,0.019645690,0.015077000
1640780874.331060,0.096535160,0.439065870,9.678665160,0.047034030,0.006078180,-0.002248590
1640780874.335200,-0.020587620,0.418632860,9.846528050,0.064907980,0.049270690,-0.014513730
1640780874.336080,0.129852800,0.595969800,9.491994860,0.027236340,-0.032737850,0.005404650
1640780874.340590,-0.371762960,0.506905850,10.385542870,-0.029906630,-0.048783420,0.018897650
1640780874.341600,-0.222107950,0.288274910,9.435378070,-0.046481190,-0.010938940,0.026273730
1640780874.345400,-0.227461470,0.370122190,9.802625660,0.003668670,-0.032649930,0.032567970
1640780874.346050,-0.220638750,0.129092560,10.152129170,0.013563040,0.094138090,0.015009940
1640780874.350240,0.295549390,0.079179240,9.516398430,0.021547080,0.036148720,0.007504230
1640780874.351120,-0.017353320,0.123253900,10.444366460,0.006553530,-0.046455860,-0.017645960
1640780874.355250,0.207608010,-0.029119990,9.117359160,-0.039626660,0.017823280,-0.000137090
1640780874.356120,0.050249280,0.001535510,9.303670880,-0.007687510,-0.049053130,0.018517670
1640780874.360270,-0.494375080,-0.134004470,10.255795480,0.038720660,0.039994710,0.005880000
1640780874.361750,-0.050909480,0.030760980,9.318108560,0.047458710,0.015455480,0.016640130
1640780874.365200,-0.477317150,0.194445520,10.567885400,0.043787070,-0.047799940,0.007273260
1640780874.366040,-0.183957030,0.259698840,9.726785660,-0.026817620,0.053767860,-0.004684930
1640780874.370300,0.131485700,0.509222980,9.413644790,-0.027364490,-0.024217370,0.009466710
1640780874.371100,-0.313778160,0.413534790,10.485443120,0.010508300,0.029508770,0.003108380
1640780874.375360,0.232903700,0.341673670,9.192244530,0.039875510,0.014886260,-0.005964940
1640780874.376100,-0.265028270,0.516681910,10.059983250,0.057472300,-0.085768110,-0.005863610
1640780874.380180,-0.371486100,0.358927990,9.786426540,-0.025618070,0.017590820,0.021064280
1640780874.381080,-0.031456840,0.334732590,9.344049450,-0.050680340,-0.016798080,0.032587350
1640780874.385600,-0.437038120,0.367961650,10.651905060,-0.031124050,0.014483930,0.031509990
1640780874.386160,0.235659790,0.211691290,9.602154730,-0.017465650,0.058402130,0.037835540
1640780874.390500,0.146600680,0.162790720,10.062842370,0.036440790,-0.028538710,0.000885130
1640780874.391310,-0.014694260,0.205816460,9.917102810,0.002972780,0.000482800,-0.014822180
1640780874.396020,0.360377070,0.201125610,8.829938890,-0.045038760,-0.032445790,0.012700260
1640780874.397570,-0.278769700,0.046196770,9.881448750,-0.045908990,-0.000499190,0.006884340
1640780874.400190,-0.165328410,0.007980400,9.645028110,-0.015442070,0.039704140,0.034110250
1640780874.401270,-0.318946600,-0.038832470,10.129770280,0.053848320,-0.033195310,0.023934250
1640780874.405400,-0.536567450,0.001723610,10.235423090,0.037632880,-0.009067360,0.002731380
1640780874.408790,-0.006854200,0.232639580,9.364559170,-0.023826950,-0.023168320,0.010807810
1640780874.410170,-0.162176300,0.204266210,9.808846470,-0.030367080,0.032591820,0.016522410
1640780874.411150,0.113014200,0.221335380,9.671039580,-0.007331370,0.052765020,0.007179380
1640780874.415100,0.173556730,0.333544340,10.039472580,0.059668720,-0.024546680,-0.002706050
1640780874.416100,-0.048506920,0.396513340,9.815890310,0.044164060,-0.019508600,0.003436210
1640780874.420140,0.103995250,0.531738040,9.384526250,-0.043764710,-0.032247610,0.020504000
1640780874.421140,-0.280633570,0.338045870,10.182304380,-0.056260820,0.024133920,0.025120370
1640780874.425290,-0.210585190,0.288803520,9.943231580,-0.013312700,0.035174190,0.019489230
1640780874.426080,-0.196328150,0.380016150,10.307656290,0.028327100,-0.026692450,0.020121030
1640780874.430220,-0.188075420,0.213688610,9.827116010,-0.001999740,0.021372740,0.003044310
1640780874.431110,0.151102540,0.315620480,9.113001820,-0.052408870,-0.014171010,-0.010290740
1640780874.435220,-0.113570900,0.176086630,9.833696370,-0.051157180,0.025010110,-0.011864300
1640780874.436040,0.172036630,0.014866390,9.283682820,-0.022594630,0.045999880,0.011792780
1640780874.440460,0.057748290,0.029620340,10.086552620,0.033819680,-0.029841070,0.025312600
1640780874.441140,-0.191650670,-0.150636820,10.364737510,0.025087600,0.039991740,0.028336050
1640780874.445180,0.085443110,-0.022106990,9.610447880,-0.007885700,-0.009742380,0.032141800
1640780874.446030,-0.262334940,-0.001799720,10.305465700,-0.017413490,-0.012376910,0.002951920
1640780874.450250,0.127156850,0.082822290,8.974289890,-0.020411620,0.079675030,-0.020554660
1640780874.451090,0.084366930,0.292238530,9.438295360,0.034335260,0.011523070,-0.016014280
1640780874.455120,-0.300471720,0.178256330,10.253086090,0.038278100,0.046391780,-0.017192960
1640780874.456430,0.063657330,0.223786990,9.234453200,0.046603380,-0.022962690,0.010551510
1640780874.461320,-0.428487000,0.184293930,10.467180250,0.030185290,-0.053887080,0.015953180
1640780874.462060,-0.200247300,0.086690650,9.829610820,-0.007791820,0.100408490,0.028775630
1640780874.465360,-0.101151570,0.251893550,10.094787600,0.021815310,0.012472270,0.032119450
1640780874.466320,-0.465896070,0.277698100,10.718729020,0.024054950,0.025691090,0.009527800
1640780874.470120,0.142733420,0.509684560,8.960062030,0.004333260,-0.000061090,0.006859000
1640780874.471090,-0.237875300,0.531811540,9.860360150,0.006055830,-0.051231680,0.001196560
1640780874.475240,-0.109175500,0.493295850,9.527596470,-0.020828840,0.063191350,-0.010071690
1640780874.476070,0.255003510,0.651166080,9.346566200,-0.016285480,0.029243530,0.015109780
1640780874.480180,-0.185897130,0.356482210,10.897811890,-0.011438130,0.053894530,0.026609000
1640780874.481380,0.175732990,0.262414430,10.033734320,-0.013574960,0.052018460,0.027419620
1640780874.485140,-0.162626460,0.304600180,10.208274840,-0.001487140,-0.074878330,0.040760640
1640780874.486050,-0.326985810,-0.065382470,9.577127460,-0.041559340,-0.003533070,0.011549890
1640780874.490450,0.131334690,0.031257310,8.520591740,-0.033551450,0.029227140,-0.018349290
1640780874.491250,-0.343237970,0.021329870,9.993228910,-0.015738610,0.081026540,-0.017233190
1640780874.499260,-0.109648120,0.012908650,9.935077670,-0.016506020,0.077953940,-0.011089450
1640780874.500050,-0.109680880,0.185108830,10.220260620,0.010468070,-0.062102090,0.005020200
1640780874.500490,-0.382613450,0.123942870,10.300728800,-0.015804170,-0.028775630,0.015211110
1640780874.501070,-0.004947750,0.228826420,9.300348280,-0.027005380,0.014455620,0.023877620
1640780874.505150,-0.241542100,0.199084330,10.131477360,0.007928910,0.053408740,0.011040270
1640780874.506100,0.005503270,0.215963440,9.834720610,0.020766260,0.079298030,0.004394350
1640780874.511430,0.074546020,0.401434300,9.814027790,0.021953880,-0.020264090,-0.003966690
1640780874.511870,-0.254149970,0.394764630,9.946537970,-0.018852950,-0.027561190,-0.007700920
1640780874.515130,-0.054538560,0.541530610,9.164731030,-0.061145430,-0.033296660,-0.008980930
1640780874.516090,-0.271498350,0.540013910,9.948415760,-0.050698220,0.020748380,-0.010091070
1640780874.520200,-0.136494800,0.461249380,10.198810580,-0.035819420,0.096571450,0.000379980
1640780874.521070,-0.068371810,0.496086480,10.582363130,-0.006653370,0.019398330,0.001031160
1640780874.525290,-0.281125810,0.399196330,10.585784910,-0.029718880,-0.033806260,0.016774240
1640780874.526090,0.016271940,0.287121440,9.096735950,-0.077274430,-0.052604070,0.027078390
1640780874.530610,-0.139950930,0.109467740,9.317306520,-0.079974530,0.002050400,0.003015990
1640780874.531680,0.036675780,0.076700350,9.221616740,-0.066895790,0.094103810,0.004726650
1640780874.535190,0.224927630,0.031272580,9.812366490,-0.026722260,0.049920390,0.003735720
1640780874.536130,-0.023472910,-0.177709580,10.845412250,-0.004114210,0.043775140,-0.000360610
1640780874.540520,0.064945820,-0.035987140,10.094696040,-0.023992360,-0.025302180,0.002080200
1640780874.541140,-0.392593800,-0.080045100,10.201164250,-0.034575160,-0.089700510,0.003604590
1640780874.545140,-0.296555520,-0.105517050,9.128930090,-0.032216300,0.033408400,-0.003771480
1640780874.546220,-0.124008920,0.199205310,9.021627430,0.001765790,0.056903080,-0.011064110
1640780874.550170,-0.448439090,0.178817530,10.323441510,0.001759830,0.083504610,-0.000114740
1640780874.551060,-0.013174670,0.282177090,9.632644650,0.003054740,0.005662440,0.021412970
1640780874.555120,-0.283383250,0.197897360,10.384318350,0.011186300,-0.107108070,0.008019800
1640780874.556300,-0.159029540,0.121058140,9.743018150,-0.006370250,0.030073520,0.003261860
1640780874.560720,0.168349520,0.212786090,9.518682480,0.002059340,0.029164550,0.008991360
1640780874.561250,-0.231794770,0.030925030,10.958469390,0.021338460,0.069755320,-0.007429720
1640780874.565320,0.168683140,0.304059740,9.726860050,0.015430150,0.032849610,0.002793970
1640780874.566160,-0.220457930,0.449106250,10.001031880,0.001087780,-0.120465470,0.010451680
1640780874.570120,-0.419444200,0.375570300,9.409934040,-0.039133420,-0.021390610,0.009627640
1640780874.571120,-0.041261300,0.664020900,8.544047360,-0.028707090,-0.016440450,0.005695220
1640780874.575230,-0.360009580,0.419403280,10.446553230,-0.020214920,0.071585190,0.011761490
1640780874.576130,0.139192670,0.269599380,10.326963420,0.004397330,0.130167570,0.013028090
1640780874.580220,0.033587210,0.262023420,10.846433640,0.033046310,-0.065104670,0.007441640
1640780874.581100,-0.283987550,0.071780530,10.336483000,-0.030884150,-0.074876850,0.005596880
1640780874.585120,0.151007710,0.127349120,8.365898130,-0.069810460,-0.048603120,0.006441770
1640780874.586040,-0.309590310,-0.098634450,9.490425110,-0.041751560,0.024178630,-0.014789400
1640780874.590330,-0.085836080,-0.068668300,9.405890460,0.007802250,0.129334640,-0.011654200
1640780874.591130,0.057548090,0.009692640,10.096261980,0.064674020,-0.004725160,-0.011684000
1640780874.596020,-0.280289980,-0.082940090,10.919300080,0.024908780,-0.023758410,-0.009500980
1640780874.597520,0.109762000,0.236089390,9.443645480,-0.035129490,-0.039550650,0.013622640
1640780874.600200,-0.219422910,0.096341860,10.050203320,-0.037807230,-0.028705600,-0.001600390
1640780874.601090,-0.094978090,0.144066620,9.587925910,0.007316470,0.091026720,-0.026801230
1640780874.605180,-0.042021190,0.445902710,9.702963830,0.072877110,0.019986930,-0.030234460
1640780874.606250,-0.561456740,0.439035710,10.637274740,0.038957590,-0.036974250,-0.020541250
1640780874.610260,-0.299351010,0.610807060,9.184077260,-0.031487640,-0.090031340,-0.002217290
1640780874.612470,-0.321137220,0.575859730,9.442238810,-0.064955660,-0.066222250,0.003531580
1640780874.615120,-0.028021220,0.326958060,9.776586530,-0.064051150,0.137455780,0.010676680
1640780874.616090,0.378159340,0.190263840,10.281075480,0.037539010,0.089478480,-0.006909670
1640780874.620130,0.156811280,0.092855050,11.128696440,0.069402160,-0.011241440,-0.023490190
1640780874.621080,0.385647270,0.130036220,9.295663830,-0.020989780,-0.065739460,-0.008012350
1640780874.625290,-0.031073320,-0.061894420,9.199168210,-0.072616340,-0.091438000,0.001686810
1640780874.626650,-0.330838260,-0.231502710,9.134288790,-0.052985550,0.054354970,0.002087650
1640780874.631480,-0.218722270,-0.071932510,9.243119240,0.035102670,0.042979420,-0.003938380
1640780874.632060,-0.408664260,-0.062606250,10.660305980,0.065223860,0.054085260,-0.012972950
1640780874.635110,0.022551140,0.257201520,10.048262600,0.024937090,0.054068870,-0.015500190
1640780874.636100,-0.143045190,0.354990210,10.444176670,-0.029402970,-0.061358520,-0.011986500
1640780874.640460,-0.080441930,0.178800570,9.606122970,-0.029620530,0.009466710,0.003021960
1640780874.641660,0.118451040,0.132619920,8.837683680,0.053693360,0.004912910,-0.018095970
1640780874.646640,-0.343044250,0.083182540,10.053429600,0.096951430,0.049395860,-0.028568510
1640780874.647020,-0.107398780,0.300863830,9.501886370,0.041830540,0.038675960,-0.003054740
1640780874.650150,-0.353439660,0.296689360,10.326273920,-0.019472830,-0.079397840,-0.009758770
1640780874.651090,-0.181932670,0.294067470,9.881770130,-0.051613160,0.034420190,0.003406410
1640780874.655140,0.166071280,0.426077570,9.519295690,-0.006270410,0.040298700,0.000199680
1640780874.656430,-0.190960600,0.183357100,10.870809560,0.063566860,0.049416710,-0.020281970
1640780874.660350,0.225398450,0.362873200,9.418383600,0.074875360,0.040714450,-0.023579600
1640780874.662940,-0.180314880,0.412275220,9.809568410,0.011835990,-0.099249180,-0.018338860
1640780874.665170,-0.450461360,0.260983470,9.599524500,-0.066356360,0.001491610,0.010211770
1640780874.666140,-0.164973830,0.325598720,8.907768250,-0.043575460,-0.006051360,0.017355380
1640780874.670190,-0.524071040,0.131843390,10.574814800,0.023750960,0.018851460,0.019595030
1640780874.671080,0.103005330,0.190554190,9.703096390,0.054122510,0.115391620,0.013136860
1640780874.675540,0.152836900,0.215829460,10.343457220,0.024072820,-0.026561320,-0.027179710
1640780874.676540,0.021467400,0.127953220,10.138614650,-0.041893130,-0.002694130,-0.015284120
1640780874.680130,0.348646250,0.127897550,8.549287800,-0.034783770,-0.023148950,-0.016258660
1640780874.681130,-0.309513000,-0.129998370,9.885284420,0.024200980,-0.016473240,-0.018839540
1640780874.685160,-0.269116730,-0.033384370,9.380195620,0.067999960,0.073038030,-0.004462900
1640780874.686060,-0.399639700,0.064601180,10.063417430,0.064305970,-0.042229890,-0.024724010
1640780874.690640,-0.592549500,0.123774190,10.536010740,-0.013445320,0.014105440,-0.018993020
1640780874.691760,0.041505690,0.484422210,9.268814090,-0.037725270,0.013124940,-0.012171270
1640780874.695630,-0.175979820,0.425517560,10.427710530,-0.006709990,0.009492040,-0.022402410
1640780874.696500,0.127345890,0.524552290,9.576919560,0.040885810,0.062927600,-0.000602010
1640780874.700150,0.270114360,0.548152390,9.463355060,0.070421410,-0.056216120,-0.019468370
1640780874.701130,-0.139769460,0.429541380,9.967094420,-0.013552610,0.008982420,-0.021487470
1640780874.705650,0.073158960,0.517318610,9.077636720,-0.065402690,0.015820560,0.010454650
1640780874.706580,-0.446925310,0.187999380,10.707264900,-0.044189390,-0.018352270,-0.013245640
1640780874.710180,-0.349552090,0.289822310,10.049857140,-0.004869700,0.042657550,-0.002436340
1640780874.711160,-0.129339130,0.345826420,9.690506940,0.020422040,-0.042168800,0.000691410
1640780874.715130,-0.297821100,0.154512910,10.188834190,-0.032143290,0.042751440,-0.021423400
1640780874.716070,0.118270560,0.295530320,8.905166630,-0.068214540,0.028410560,-0.011058150
1640780874.720250,-0.113826450,0.066811390,9.917131420,-0.031462310,-0.056764480,-0.000831480
1640780874.721520,0.043023500,-0.028280400,9.383159640,-0.003457070,0.059410930,0.003196300
1640780874.725330,0.065638120,0.077965040,9.645704270,0.024370850,-0.021250550,0.008511540
1640780874.726140,-0.351896940,-0.098770380,10.894423480,-0.004613400,0.025862460,0.007873770
1640780874.730150,0.060278110,0.061661650,9.434967990,-0.032582880,0.005044040,-0.001962480
1640780874.731190,-0.228059660,0.071983490,10.099034310,-0.015681980,-0.054651510,-0.018221140
1640780874.735180,-0.149619830,0.168476630,9.290996550,-0.007632370,0.079651170,-0.009159740
1640780874.736150,-0.153263640,0.175691720,9.204522130,0.028486560,-0.038991880,-0.012356050
1640780874.740620,-0.574020920,0.047204070,10.319481850,0.049367550,-0.040321050,-0.013062360
1640780874.741550,-0.051281270,0.234935150,9.038211820,0.009173150,-0.007207690,-0.009082260
1640780874.745440,-0.312082650,0.133501460,10.512572290,-0.005006790,-0.020599370,0.006915630
1640780874.746090,-0.068576570,0.199948340,10.376414300,-0.001649560,0.097669670,-0.001923740
1640780874.750180,0.080965780,0.426562940,10.088974000,0.026470430,-0.036805870,-0.010883810
1640780874.751150,-0.314730760,0.493144990,10.443857190,0.024661420,-0.074282280,0.007432700
1640780874.755280,0.176292940,0.603461560,8.351784710,-0.013507900,-0.033922490,0.008749960
1640780874.756060,-0.127123300,0.496276940,9.272336010,-0.033023950,-0.037205220,-0.002141300
1640780874.760250,-0.114753840,0.433122960,9.714453700,-0.040994580,0.091640650,0.021387640
1640780874.761190,0.223210500,0.180983420,10.002587320,0.003264840,0.010265410,0.007657710
1640780874.765130,-0.257496890,-0.019985160,11.208255770,0.031131510,-0.027263170,-0.002828240
1640780874.766120,0.115877810,0.197120100,9.524430270,-0.012491650,-0.016859170,-0.003381070
1640780874.770200,-0.220085550,-0.061003140,9.763720510,-0.045751050,-0.071963680,-0.002887850
1640780874.771100,-0.319407430,-0.084358910,9.193281170,-0.034646690,0.031000380,0.003883240
1640780874.775290,0.010975330,0.016778100,8.723365780,0.019656120,0.010570880,0.004543360
1640780874.776120,-0.359970240,-0.291727190,10.226912500,0.066600740,0.019460920,0.004118680
1640780874.780120,0.037143190,-0.000096160,9.593958850,0.060579180,0.011035800,-0.006160140
1640780874.781100,-0.052604220,0.091745860,10.473730090,0.008115170,-0.073276470,-0.011110310
1640780874.785410,-0.007248030,-0.005275050,10.019731520,-0.018566850,0.028792030,0.007662180
1640780874.786290,0.242988810,0.256280660,9.418020250,0.041183830,0.010636450,-0.030095880
1640780874.790460,-0.294847280,0.281028870,10.426363950,0.085631010,0.018884240,-0.013418500
1640780874.791290,-0.207532410,0.481170770,9.072976110,0.087548790,-0.027270620,0.010241570
1640780874.795330,-0.439019680,0.452783790,9.499597550,0.030320880,-0.129249660,-0.001515450
1640780874.796080,-0.361890290,0.423368010,9.394463540,-0.042125580,0.026957690,0.028689200
1640780874.800160,0.039764670,0.267852570,9.700740810,0.005538760,0.050339100,0.019799170
1640780874.801300,-0.145270680,0.012203260,11.527401920,0.080186140,0.060036790,-0.021936000
1640780874.805130,0.207481030,0.298962350,10.053180690,0.089807810,0.001131000,-0.021579860
1640780874.806360,-0.093485210,0.360188570,9.959774020,0.020134450,-0.150959190,-0.012183190
1640780874.810670,-0.280987800,0.278144840,8.976510050,-0.056360670,-0.024680800,0.009819870
1640780874.811150,-0.103576060,0.339252890,8.237743380,-0.010055300,-0.033508240,0.021384660
1640780874.815180,-0.353047070,0.167658760,10.094177250,0.051403050,0.036914640,0.025971230
1640780874.816120,0.289089980,0.174920810,9.713482860,0.063636900,0.122822830,0.036263470
1640780874.820130,0.207304700,0.171727030,10.993376730,0.054559120,-0.041785840,0.017918650
1640780874.821130,0.060160580,0.078498860,10.679730420,-0.017839670,-0.005592410,0.006641450
1640780874.825250,0.220093090,0.042364020,8.827246670,-0.005228820,-0.084936610,0.001506510
1640780874.826120,-0.478117350,-0.073640270,9.521953580,0.049979990,-0.051210830,-0.021898750
1640780874.830260,-0.205739960,0.127979290,8.377083780,0.065094240,0.080427530,-0.015752010
1640780874.831100,-0.476458520,0.207823050,9.732019420,0.065128510,-0.033405430,-0.009644030
1640780874.835150,-0.523882630,0.269053610,10.608720780,0.009281930,0.027440490,-0.007300080
1640780874.836080,0.198099260,0.458244140,9.601608280,-0.014828150,-0.016386810,0.008033220
1640780874.840240,-0.160286070,0.269166830,10.981204030,0.021153690,-0.025910140,0.018799300
1640780874.841190,0.394450310,0.247168260,9.423004150,0.065490600,0.074929010,-0.000715260
1640780874.845150,0.202963920,0.212606910,9.582705500,0.088852630,-0.058506430,-0.016428530
1640780874.846150,-0.340062860,0.220715630,9.879406930,0.045748050,-0.019145010,-0.004418190
1640780874.850180,-0.031987640,0.310497580,8.517871860,-0.023517010,-0.057846310,-0.009980800
1640780874.851160,-0.655776560,0.353536010,10.189541820,-0.026458500,-0.056178870,0.005735460
1640780874.855160,-0.268489060,0.440190050,9.702488900,-0.005954500,0.093796830,0.025562940
1640780874.856330,0.039011710,0.304129420,10.353910450,0.041353700,0.015193230,0.008310380
1640780874.861210,-0.134359750,0.322665720,10.903077130,0.057235370,0.026725240,0.010332470
1640780874.861690,0.331315130,0.252197210,9.103661540,0.025385620,-0.052383550,-0.005322690
1640780874.865330,-0.145408760,0.032945710,9.439947130,-0.001975890,-0.099362420,0.003197790
1640780874.866390,-0.091338440,0.065699210,8.556466100,-0.020343070,0.018227100,0.013253100
1640780874.870110,-0.016738880,-0.106676010,9.250601770,0.010235610,0.009843710,0.002789500
1640780874.871120,-0.304410190,-0.021081620,10.576251030,0.047351430,0.078122330,0.000303980
1640780874.875530,0.115754420,0.169390560,10.082515720,0.052390990,0.005665420,-0.009515880
1640780874.876160,-0.147637800,0.118901480,10.626314160,0.020337110,-0.073976810,-0.004559760
1640780874.880190,0.059256610,0.272497150,9.023911480,0.000788270,0.007641320,0.022150570
1640780874.881290,0.049234550,-0.028361500,9.104031560,0.030317900,-0.012363490,0.001914800
1640780874.885160,-0.370904450,-0.143134120,9.772449490,0.090713810,0.054094200,-0.004780290
1640780874.886070,-0.230699360,0.141746830,9.300996780,0.102661560,-0.022526090,-0.013671820
1640780874.890440,-0.615372780,0.090245170,10.570984840,0.034905970,-0.078110400,-0.019869210
1640780874.891210,-0.311476230,0.465632140,9.469720840,-0.024016200,0.009514390,0.003831090
1640780874.895200,-0.137831780,0.656319440,10.031916620,-0.015845900,-0.019212070,0.013890860
1640780874.896120,-0.042962010,0.458414580,10.448162080,0.040531160,0.085827720,0.032767650
1640780874.900170,0.455699120,0.526782330,9.219728470,0.101926930,-0.003559890,0.003924970
1640780874.901120,-0.011620970,0.410931620,10.163247110,0.060978540,-0.068314380,-0.010956820
1640780874.905150,0.082750540,0.293111560,8.804823880,-0.033769010,0.002956390,0.009377300
1640780874.906450,-0.096695890,0.122356560,9.360447880,-0.043578450,-0.080482680,0.002788010
1640780874.910350,-0.392078790,0.016300590,10.264162060,0.001327690,0.063170490,0.006519260
1640780874.911540,0.188303130,0.226448820,9.249322890,0.051283830,0.058859580,0.014413890
1640780874.915200,-0.234729710,0.226510270,11.051162720,0.041711320,-0.014486910,0.007827580
1640780874.916180,0.068590860,0.349122380,9.484630580,-0.031061470,0.047624110,0.014272330
1640780874.920200,0.098909800,0.225530280,8.965039250,-0.023518500,-0.096099090,0.020720060
1640780874.921160,-0.423935320,-0.140027000,9.719660760,0.025001170,0.022584200,0.008139020
1640780874.925280,0.045612890,-0.069320140,8.456465720,0.089101490,0.040145220,0.001214440
1640780874.926160,-0.462894230,-0.035671170,10.535092350,0.079686960,-0.041453550,-0.003826620
1640780874.930240,-0.170787740,0.106644820,9.934203150,-0.017984210,0.084576020,-0.000499190
1640780874.931290,0.217238490,0.368945240,9.571987150,-0.048095000,-0.049066550,-0.009185080
1640780874.935170,-0.202502490,0.388479500,10.542149540,-0.014130770,0.047543650,0.018072130
1640780874.936100,0.301520910,0.358693870,8.770600320,0.058855120,0.041413310,0.021035970
1640780874.940280,-0.238969220,0.123793490,10.030864720,0.120183830,-0.100271400,0.014497340
1640780874.941160,-0.274354070,0.077513810,9.227050780,0.060604520,0.033406910,0.009679800
1640780874.945310,-0.099050770,-0.003548300,9.092147830,-0.006045400,-0.028066340,-0.006039440
1640780874.946440,-0.685642120,0.080960570,10.995383260,-0.029270350,0.034108760,-0.010718410
1640780874.950170,-0.063121710,0.550137640,9.615481380,-0.022280220,0.039157280,-0.013616680
1640780874.951120,-0.188888820,0.695382890,10.389507290,0.000610950,-0.066365300,0.015483800
1640780874.955530,-0.144345540,0.683358070,9.664990430,0.015927850,0.051662330,0.014893710
1640780874.956620,0.183501260,0.588601290,8.932203290,0.012865660,-0.050032140,0.003892180
1640780874.960250,-0.213368280,0.267483140,9.876245500,0.010943410,-0.024591390,0.043469660
1640780874.961270,0.249462280,-0.122204190,8.920181270,-0.004720690,0.049793720,0.017157200
1640780874.965180,0.009834270,-0.239447920,10.412513730,0.011067090,-0.013892350,0.007522110
1640780874.966180,-0.216442060,-0.104088590,10.416611670,0.000239910,0.039160260,0.019706790
1640780874.970200,0.093821410,-0.116445480,9.572465900,-0.020167230,-0.070932510,-0.016966460
1640780874.971130,-0.319802170,0.178599490,9.826174740,-0.010338430,-0.004954640,-0.017647450
1640780874.976340,-0.095201430,0.312728170,8.666013720,0.009895860,0.046084820,0.002746280
1640780874.976990,-0.347374770,0.090046170,9.853946690,0.057378420,-0.021690130,0.014355780
1640780874.980170,-0.358875900,0.240544410,9.575300220,0.067968650,0.009588900,0.031095740
1640780874.981130,-0.043650200,0.059762250,9.514930730,0.029341880,-0.070975720,0.018362700
1640780874.985180,-0.203660830,-0.012224330,10.412627220,-0.001612310,0.047536190,0.001628700
1640780874.986100,0.225051890,0.145947560,9.581072810,0.018943850,0.056745120,-0.008541350
1640780874.990250,-0.023619580,0.012633170,10.678506850,0.057555740,-0.036713480,-0.028926140
1640780874.991120,-0.047469570,0.360033150,9.464123730,0.068210070,0.017219780,-0.011400880
1640780874.996560,-0.166614760,0.448874000,9.032336240,0.042243310,-0.124651190,0.007687510
1640780874.997310,-0.578503790,0.412763890,9.643735890,-0.007893150,-0.020878020,0.021463630
1640780875.000120,-0.054874320,0.635291460,8.655627250,-0.026784840,0.039015710,0.019732120
1640780875.001150,-0.223467590,0.357479270,10.991456030,0.010712450,0.024022160,0.007353720
1640780875.005190,-0.069073740,0.410015230,10.707710270,0.042167310,0.101599100,-0.007890160
1640780875.006670,0.097629350,0.518746790,10.030578610,0.038203600,-0.142492370,-0.013795500
1640780875.012340,-0.296284440,0.373709230,10.015073780,-0.025078650,-0.086840970,-0.013180080
1640780875.013130,0.280590980,0.537161050,7.579599380,-0.086286660,0.027866670,0.008618830
1640780875.015190,-0.110187610,0.307647940,9.596857070,-0.065349040,-0.000879170,0.039027640
1640780875.016100,-0.001376360,0.008741970,10.014204980,0.003252920,0.127623990,0.038108230
1640780875.020120,0.385394540,-0.012353970,9.889756200,0.052076580,-0.059433290,0.010348860
1640780875.021160,-0.266291770,-0.251430870,11.338824270,0.024130940,-0.047883400,0.010122360
1640780875.025310,0.108623730,-0.337451220,9.027574540,-0.021919610,0.018566850,-0.023594500
1640780875.026240,-0.267283230,-0.271198450,9.672649380,0.000993910,-0.090631840,-0.040690590
1640780875.031540,-0.522201540,-0.040185950,9.310047150,0.018961730,0.092798460,-0.028038030
1640780875.032060,-0.106016150,0.319663350,8.601892470,0.034339730,-0.015047190,-0.006332990
1640780875.035100,-0.718913200,0.430309440,10.764956470,0.027558210,-0.052687530,0.024913250
1640780875.036090,-0.086284300,0.526940820,9.230357170,-0.002242620,0.017128880,0.019051130
1640780875.040240,0.078027380,0.299147430,10.263079640,0.023530420,-0.060677530,0.020951030
1640780875.041480,-0.020268300,0.049224010,10.733010290,0.072297460,0.120027380,-0.006058810
1640780875.045240,0.418436440,0.133955660,9.476969720,0.084395710,-0.013852120,-0.037403400
1640780875.046440,-0.261040090,0.205119670,10.370297430,0.041860340,-0.107380760,-0.015455480
1640780875.050170,-0.131996200,0.388019230,8.378953930,-0.051625070,-0.030702350,-0.013415520
1640780875.051210,-0.207248460,0.602642420,8.953468320,-0.067828600,-0.088550140,0.015549360
1640780875.055130,-0.535413320,0.562924980,10.163002010,-0.031521920,0.104711960,0.029166040
1640780875.056370,0.018499410,0.386981580,10.121193890,0.042341650,0.059738760,0.001761320
1640780875.061740,-0.341002640,0.356569770,11.617116930,0.075055670,-0.041146580,-0.001645090
1640780875.063020,-0.207173650,0.283658060,9.813453670,-0.003118810,-0.057268150,-0.014181440
1640780875.065290,-0.027746300,0.059278250,8.853467940,-0.065387790,-0.155068930,0.004252790
1640780875.066140,-0.210776970,0.016614240,8.657276150,-0.059431800,0.038975480,0.002396110
1640780875.070100,0.185249450,0.010118310,8.666844370,-0.017885870,0.065286450,0.005288420
1640780875.071170,-0.019355690,-0.033441320,10.745326040,0.056861340,0.020185110,0.026015940
1640780875.075500,0.190259920,0.066831090,10.253564830,0.037734210,-0.003570320,-0.001445410
1640780875.076410,0.042714410,0.159865770,10.388406750,-0.025865440,-0.123298170,0.015662610
1640780875.080130,-0.262248400,-0.055315280,9.681550030,-0.020857160,-0.008991360,0.021190940
1640780875.081210,-0.077386110,-0.190467100,8.684070590,0.024221840,-0.008665030,-0.040058790
1640780875.085150,-0.600272770,0.129261540,9.993245120,0.086632370,0.012081860,-0.026342270
1640780875.086130,-0.460733470,0.325752440,9.093133930,0.053492200,0.000403820,-0.019805140
1640780875.090620,-0.436255690,0.527587530,9.922672270,-0.029481950,-0.140561180,-0.020614270
1640780875.091580,-0.369456200,0.815209750,10.013858800,-0.084410610,0.020280480,0.019611420
1640780875.097040,0.223653840,0.469312400,9.625263210,-0.031439960,0.021155180,0.026880210
1640780875.097770,-0.035452280,0.225920560,11.274962430,0.085222730,0.009916720,0.010518730
1640780875.100140,0.331556380,0.267288240,9.336747170,0.102596000,0.012327730,0.001853700
1640780875.101110,0.082809170,0.010762700,9.457076070,0.008687380,-0.167928650,-0.006556510
1640780875.105730,-0.395708110,0.027330740,9.283256530,-0.084070880,-0.036013130,-0.001922250
1640780875.106650,0.017029310,0.077446590,8.352337840,-0.089828660,-0.037501750,-0.010113420
1640780875.110230,-0.408838330,0.146591950,10.889777180,0.001886490,0.008705260,-0.014995040
1640780875.111250,0.027301070,0.408779680,10.107297900,0.048971180,0.127390000,-0.020988280
1640780875.115120,0.163361790,0.570430160,10.485359190,0.023020800,-0.101254890,-0.015655160
1640780875.116100,-0.214530600,0.521164540,10.094703670,-0.050766770,-0.035013260,0.020542740
1640780875.120180,0.267870960,0.099158850,7.879726410,-0.054086750,-0.048635900,0.037004050
1640780875.121370,-0.434140500,-0.245523940,9.761324880,0.033238530,-0.054937600,0.015544890
1640780875.125400,-0.297732920,-0.270664100,9.202458380,0.071452560,0.079260770,-0.005529820
1640780875.127080,0.020988390,-0.221425700,9.872513770,0.037102400,-0.063498320,-0.035797060
1640780875.131440,-0.351305630,0.062247420,11.076288220,-0.029537080,0.033791360,-0.050251190
1640780875.131950,0.245816230,0.323878350,9.331753730,-0.076511510,0.009350480,-0.031405690
1640780875.135150,-0.188453720,0.323088740,10.402420040,0.010532140,-0.100348870,-0.008240340
1640780875.136160,-0.115437520,0.378511280,8.996974950,0.078479950,0.009955470,-0.010344390
1640780875.140540,0.222435150,0.509747860,8.561989780,0.082582230,-0.071845960,0.011333820
1640780875.141910,-0.410054270,0.462653730,10.233414650,-0.005710130,0.045928360,0.022906070
1640780875.145620,0.068824680,0.342717560,9.606027600,-0.088685760,0.042492150,0.007405880
1640780875.146170,-0.252060440,0.365649490,11.027969360,-0.040802360,-0.074026000,-0.013850630
1640780875.150150,-0.329197020,0.514040770,10.072755810,-0.013688210,-0.000670550,-0.032120950
1640780875.151130,0.050976160,0.522044180,9.037227630,0.004148480,-0.084270540,-0.036752220
1640780875.155170,-0.304560750,0.521107970,9.421043400,-0.035527340,-0.000420210,-0.025056300
1640780875.156100,0.260878260,0.180544870,8.552641870,-0.081418440,0.075249380,0.013904270
1640780875.160230,0.153089820,-0.275695120,10.304374690,-0.011512640,0.021938980,0.034345690
1640780875.161760,0.027344880,-0.393917680,10.424592020,0.042900450,0.024515390,0.000600520
1640780875.165130,0.225702960,-0.286884550,9.780740740,0.020381810,-0.112007570,-0.001482670
1640780875.166110,-0.272417900,-0.124163950,9.974430080,-0.037497290,-0.006879870,-0.020840770
1640780875.170160,-0.097736170,-0.019600330,8.909283640,-0.068423150,0.042746960,-0.041757530
1640780875.171200,-0.439735260,0.185718240,9.888100620,0.015950200,-0.017869470,-0.031448900
1640780875.175300,-0.424409930,0.347423080,9.319086070,0.067067150,0.027905410,-0.035034120
1640780875.176140,-0.098872830,0.454021330,9.312534330,0.043523310,-0.078666220,0.003291670
1640780875.180250,-0.326505930,0.478035900,10.262444500,-0.021499400,0.027178230,0.026807190
1640780875.181130,0.291919560,0.128329930,9.530539510,-0.058645010,0.056916480,0.027580560
1640780875.185260,0.068595670,-0.108816540,10.905226710,0.036887830,-0.010192390,0.003813210
1640780875.186340,0.047092360,-0.057948750,9.835190770,0.103269520,0.034476820,-0.040611630
1640780875.190440,-0.039208830,0.021561470,9.302708630,0.063565370,-0.128442050,-0.035560130
1640780875.191240,-0.622774000,0.265541790,9.446775440,-0.017160180,-0.053843870,-0.013343990
1640780875.195160,-0.090525770,0.370752540,8.327111240,-0.084801030,0.021544100,0.003480910
1640780875.197220,-0.232852000,0.370334090,10.560344700,-0.023041670,0.047989190,0.028833750
1640780875.200160,0.022642820,0.317246530,10.645678520,0.073030600,0.139656680,-0.004364550
1640780875.201400,0.347377270,0.512805640,10.349024770,0.083802630,-0.074236090,-0.032645460
1640780875.205170,-0.246292230,0.449131940,10.354152680,0.006666780,-0.075851380,0.008527930
1640780875.206300,0.091784940,0.141367170,8.061970710,-0.059518220,-0.035353010,0.006958840
1640780875.210620,-0.253890100,0.023069460,9.200343130,-0.019635260,-0.040453670,0.020469730
1640780875.211190,-0.290980070,-0.111743040,9.308895110,0.048521170,0.128091870,0.026166440
1640780875.215110,0.224318490,-0.068729670,9.753494260,0.068543850,0.029210750,0.003518160
1640780875.216160,-0.283825580,0.197610300,11.335963250,0.012721120,-0.000639260,-0.024984780
1640780875.220190,0.293493330,0.247442980,9.336897850,-0.069005780,-0.013516840,-0.018532570
1640780875.221180,0.034072370,0.106661280,9.793842320,-0.014239550,-0.048030910,-0.020249190
1640780875.225290,-0.302466990,0.051735980,9.411282540,0.089934470,0.077776620,-0.024883450
1640780875.226170,-0.019496850,0.181456040,8.924867630,0.115239640,-0.015220050,-0.013273960
1640780875.230180,-0.604822280,0.312626870,10.264505390,0.041654710,-0.002850590,0.002969800
1640780875.231140,-0.109927150,0.396190670,9.191051480,-0.083966550,0.030447540,0.009956960
1640780875.235180,-0.050455160,0.509932940,10.257242200,-0.072205070,-0.008872150,0.008676950
1640780875.236130,-0.150556070,0.406886280,10.537770270,0.007091460,0.100609660,-0.002543630
1640780875.240270,0.354831430,0.438129570,9.653862000,0.094342240,-0.009250640,-0.019793210
1640780875.241510,-0.182467620,0.458069380,10.116644860,0.074920060,-0.035129490,-0.021132830
1640780875.246350,-0.067425250,0.317389190,8.657595630,-0.063605610,0.000900030,0.001408160
1640780875.246740,-0.245661050,0.253689890,9.445181850,-0.084529800,-0.034551330,0.019104780
1640780875.250160,-0.528521660,0.149964760,10.108778000,-0.042650110,0.060141100,0.012402240
1640780875.251140,0.045620560,0.281371770,9.707750320,0.016111140,0.013914710,0.012871630
1640780875.255150,-0.145647440,0.386003260,10.758177760,0.029851500,0.039294360,-0.001713630
1640780875.256320,0.180456410,0.296918930,9.648677830,-0.047990680,0.044943390,-0.012463330
1640780875.261040,0.149259900,0.280497700,9.584562300,-0.051409000,-0.067774940,0.010138750
1640780875.261550,-0.080004820,-0.060133620,9.228667260,-0.017857560,0.027978420,0.011231010
1640780875.265780,0.162815440,-0.221019190,8.789055820,0.020046530,0.000829990,0.011219090
1640780875.266580,-0.386015890,-0.102300500,10.339161870,0.046038620,0.021600720,0.001086290
1640780875.270100,-0.121249490,-0.131367340,9.802144050,-0.021302700,0.057768830,-0.003975630
1640780875.271160,-0.114335350,0.200485570,10.211963650,-0.040362780,-0.034809120,-0.004534420
1640780875.275220,-0.316708360,0.289998860,10.052524570,-0.031656030,0.068549820,0.001557170
1640780875.276150,0.039099860,0.117428580,9.072388650,0.035110120,0.000578170,0.021757190
1640780875.280260,-0.537820340,0.242213860,9.982175830,0.106298930,-0.048477940,0.007477400
1640780875.281890,-0.180305140,0.187299530,8.827876090,0.032635030,0.007839500,0.010763110
1640780875.285150,-0.116292830,0.096851770,9.670228000,-0.030146540,-0.014558440,0.006221230
1640780875.286130,-0.366347190,0.174209030,10.697062490,-0.027596950,0.101204220,-0.024518370
1640780875.290470,0.187332260,0.400184360,10.102433200,-0.009164220,0.006461140,-0.020745400
1640780875.291210,-0.185152490,0.595201020,10.671041490,0.037720800,-0.051952900,0.004161890
1640780875.298890,0.080742190,0.616905210,9.052721980,0.004644690,0.000956650,0.003573300
1640780875.299640,0.094282200,0.645073470,8.943942070,-0.038178270,-0.046689810,0.036118930
1640780875.300200,-0.241834060,0.199199540,9.471464160,-0.029744210,0.063537070,0.052408870
1640780875.301180,0.228396890,-0.088704820,9.456203460,0.004045670,0.047017640,0.023402270
1640780875.305160,-0.276808590,-0.012715260,11.010178570,0.045752530,-0.002002720,0.003866850
1640780875.306130,-0.158268300,-0.071569850,10.038295750,-0.008188190,0.003668670,-0.014376640
1640780875.310180,-0.003185280,0.145257260,9.582003590,-0.055441260,-0.046743460,-0.036950410
1640780875.312040,-0.341025710,0.281549510,9.491639140,-0.052523620,0.052042310,-0.012107190
1640780875.315140,0.048333820,0.271662120,8.845336910,-0.002713500,0.049652170,0.028781590
1640780875.316140,-0.349284980,0.130084020,10.120594980,0.077061360,-0.009208920,0.029760600
1640780875.320130,-0.229189950,0.008096390,9.615982060,0.063139210,-0.013187530,0.038401780
1640780875.321180,0.109992030,-0.049246460,9.720511440,-0.009340050,-0.035834310,0.024038550
1640780875.325300,-0.124960620,-0.299222200,10.432392120,-0.030963120,0.096562500,-0.012885030
1640780875.326140,0.259007600,-0.078511380,9.877517700,0.025397540,0.052106380,-0.034488740
1640780875.332150,-0.099115430,0.300335620,10.379598620,0.068676480,-0.029465560,-0.024615230
1640780875.332800,-0.204129430,0.460046260,9.156682010,0.025978680,-0.026331840,0.013673300
1640780875.335140,-0.173303410,0.671375690,8.819511410,-0.018389520,-0.057919330,0.043524810
1640780875.336160,-0.627571520,0.618377510,9.758887290,-0.036977230,0.049045680,0.049029290
1640780875.340510,-0.074468930,0.430112420,9.612371440,-0.006566940,0.060951720,0.043939060
1640780875.341420,-0.214797350,0.343009560,11.101598740,0.059196350,0.037309530,-0.002038480
1640780875.345240,-0.157639310,0.256722420,10.593205450,0.028540200,0.028802450,-0.014078620
1640780875.346320,0.044158440,0.275914100,9.548692700,-0.007317960,-0.116507710,-0.000505150
1640780875.350160,-0.275963990,0.204471900,9.274888040,-0.054763260,-0.027918820,-0.019592050
1640780875.351220,0.196119430,0.328265610,8.134701730,-0.077664850,0.056447090,0.014312570
1640780875.355180,-0.105125230,0.164340760,9.949427600,-0.008243320,0.059083100,0.050331650
1640780875.356160,0.005846080,-0.221444430,10.453075410,0.042390820,0.087089830,0.025343890
1640780875.360230,0.165203870,-0.042699430,10.320337300,0.064951190,-0.072567170,0.027970970
1640780875.363970,-0.335331860,-0.153019650,10.644445420,0.014334920,-0.047564500,0.011086460
1640780875.365160,0.065678720,-0.206852670,8.889963150,-0.049726670,0.020879500,-0.010578330
1640780875.366140,-0.350375830,0.126411680,9.660092350,0.009226800,-0.000438090,-0.020562110
1640780875.370140,-0.464718970,0.147407470,9.682914730,0.045546890,0.065231330,-0.015993420
1640780875.371180,-0.237362790,0.486527120,9.328539850,0.058630110,-0.072973970,0.002987680
1640780875.379470,-0.621224760,0.672681450,10.279597280,0.013434890,-0.068917880,0.016470260
1640780875.379970,0.021034760,0.474571850,9.296792980,-0.053811080,0.035651030,0.025403500
1640780875.380330,-0.039040770,0.419667600,10.523416520,-0.009015200,0.013269480,0.020526350
1640780875.381140,0.030885070,0.179142800,10.720605850,0.048726790,0.070707500,-0.005424020
1640780875.385160,0.396153600,0.259904330,9.533209800,0.047649450,-0.046007340,-0.013138360
1640780875.386120,-0.303264230,0.368511950,9.973246570,-0.008265680,-0.100444260,-0.002968310
1640780875.390500,-0.080780290,0.286210980,8.582204820,-0.098887090,-0.029350820,0.005516410
1640780875.391340,-0.206252310,0.372479530,9.157891270,-0.081747770,-0.017894810,0.031118100
1640780875.397560,-0.342498480,0.112374010,10.371665950,-0.005815920,0.088317700,0.031639640
1640780875.398240,0.221178640,0.067373220,10.285543440,0.057101250,0.047676260,0.010623040
1640780875.400200,-0.143952530,0.177370410,11.011595730,0.039069360,-0.051166120,0.006137790
1640780875.401180,0.050491330,-0.017441410,9.602230070,-0.053603950,-0.040754670,0.014068190
1640780875.405130,0.069714990,-0.089367100,8.876326560,-0.052814190,-0.055822740,-0.010898710
1640780875.406160,-0.294116620,-0.038882510,9.141678810,0.004430120,0.030191240,-0.011274220
1640780875.410310,0.050468710,0.148698090,9.043129920,0.043882430,0.060608990,0.002138320
1640780875.411260,-0.269157920,0.184523720,10.488809590,0.042325260,0.005389750,0.006552040
1640780875.415150,-0.123338890,0.284257650,10.286170010,-0.020302830,-0.010570880,0.021478540
1640780875.416150,0.090439330,0.238667260,9.943284030,-0.034765900,-0.034956630,0.034059590
1640780875.420120,-0.182373480,-0.236030220,10.107700350,0.020487610,0.028565530,0.010982160
1640780875.421220,0.117051390,-0.105608880,9.223554610,0.101305550,0.031743940,-0.017280880
1640780875.425340,-0.226256760,-0.048479470,9.758183480,0.101146100,-0.014138220,-0.026153030
1640780875.426300,-0.292772560,-0.004913070,9.440400120,0.011485820,-0.002500420,-0.006151200
1640780875.430240,-0.236070950,0.451192170,9.522437100,-0.039474670,-0.064221030,-0.008608400
1640780875.431200,-0.399929640,0.503308300,10.194416050,-0.033262360,0.022627410,0.008010860
1640780875.435110,0.088450350,0.655840810,9.776976590,0.034272670,0.052131720,0.019228460
1640780875.436200,-0.034487680,0.648391130,10.779347420,0.082506250,0.021263960,-0.003440680
1640780875.440450,-0.095921800,0.469302000,10.121895790,0.042702260,0.006009640,0.012749440
1640780875.441310,-0.134873790,0.441049220,9.312687870,-0.002504890,-0.131286700,0.027677420
1640780875.446350,-0.459147190,0.085185390,9.296251300,-0.052602600,-0.052714360,0.009545680
1640780875.447930,-0.022855740,0.246917800,8.507879260,-0.054726000,0.042040650,0.023728610
1640780875.450080,-0.141385910,0.141258030,10.380686760,0.000536440,0.062805420,0.014063720
1640780875.451130,0.132298340,0.093152550,10.692060470,0.012987850,0.097870850,-0.002869960
1640780875.455150,0.273579870,0.346544560,10.297266960,0.015455490,-0.077982250,0.001944600
1640780875.456160,-0.169262710,0.055853960,10.261992450,-0.027504560,-0.069248680,0.015772880
1640780875.460340,0.133339630,-0.100137410,8.288560870,-0.019626320,-0.008185210,0.018595160
1640780875.461210,-0.330803070,-0.095765440,9.240769390,0.046028200,-0.021778040,-0.001248720
1640780875.466180,-0.351189430,-0.106506650,9.521274570,0.033427780,0.099717100,-0.009165710
1640780875.466750,-0.094391490,0.216628580,9.652325630,0.024355950,-0.019648670,-0.008945170
1640780875.470110,-0.424017370,0.479048490,10.901989940,-0.041921440,-0.022125250,-0.007379060
1640780875.471170,0.108116830,0.605573120,9.464303020,-0.081199420,0.039450820,0.029861930
1640780875.476280,-0.123171820,0.355848610,10.092407230,0.020413100,-0.038053100,0.020886960
1640780875.476970,-0.184190850,0.112299550,9.871469500,0.087252270,0.055643920,0.006222730
1640780875.480350,0.104535490,0.047652880,8.830511090,0.096170600,-0.029693550,0.008454920
1640780875.481190,-0.519863250,-0.196700050,10.237652780,0.031875070,-0.056719790,0.001555680
1640780875.485170,-0.004911090,0.088705320,9.041808130,-0.072431560,0.029636930,-0.014634430
1640780875.486130,-0.129073930,0.334162560,10.036590580,-0.077557570,-0.027757880,-0.006146730
1640780875.490180,-0.151357280,0.474720510,10.726386070,-0.024127970,0.090405350,-0.009064380
1640780875.492360,0.342938390,0.784162640,9.684237480,0.038424140,0.006291270,-0.018040840
1640780875.495400,-0.249010890,0.678460240,10.572482110,0.036315620,-0.071032350,0.006762150
1640780875.497380,-0.077086110,0.507136700,8.995859150,-0.027929250,0.007472930,0.024865570
1640780875.500190,-0.240301100,0.093586240,9.007934570,-0.041435650,-0.088591870,0.036719440
1640780875.501230,-0.402309920,-0.174267770,9.711075780,-0.026232000,0.047063830,0.050847230
1640780875.505530,0.250713940,-0.178278370,9.218642230,0.004789230,0.098535420,0.015801190
1640780875.506290,-0.090326900,-0.197843720,11.067485810,0.010532140,0.024464730,-0.014781950
1640780875.510210,0.134736430,0.241259160,10.128712650,-0.032208850,0.013054910,-0.024837260
1640780875.511260,0.203625440,0.206016120,9.404103280,-0.054259600,-0.082264840,-0.009284910
1640780875.515110,-0.323427650,-0.025404640,9.531172750,0.006474550,0.003793840,-0.000543890
1640780875.516180,-0.141288040,0.145582680,8.654544830,0.073339030,0.028288360,-0.008444490
1640780875.520130,-0.590300560,0.005864560,10.133795740,0.071744630,-0.007292630,-0.000138580
1640780875.521520,-0.414398310,0.253223480,9.814195630,-0.002659860,0.025895240,0.010335440
1640780875.525760,-0.125923260,0.456936390,10.059257510,-0.078414380,-0.043945020,0.000900030
1640780875.527080,-0.255433950,0.421092510,10.507580760,-0.059321520,0.045774880,0.028474630
1640780875.531300,0.223327380,0.491812650,9.519230840,0.023384390,0.017741320,0.009477140
1640780875.532140,-0.060351960,0.245694280,10.315086360,0.077195470,-0.046905880,-0.012823940
1640780875.535130,-0.056992960,0.309255450,9.080295560,0.040040910,0.005145370,-0.001825390
1640780875.536200,-0.160118450,0.182521480,9.360877990,-0.030176350,-0.081795460,-0.007373100
1640780875.540170,-0.423466680,0.061572720,10.016054150,-0.069648030,0.021669270,0.004403290
1640780875.541420,-0.022220870,0.337780590,9.398399350,-0.035738950,0.022073090,0.006823240
1640780875.545180,-0.150249030,0.267958550,10.876496320,0.004321340,0.003090500,0.004382430
1640780875.546980,0.070266460,0.445937310,9.794656750,0.010827180,0.057655580,-0.012755400
1640780875.550140,0.085697630,0.528449770,9.653897290,-0.018066170,-0.097748640,-0.009556120
1640780875.551200,-0.233756500,0.165740610,9.771381380,-0.046420110,0.004926320,0.019474330
1640780875.555150,0.077611540,-0.045919310,8.541512490,-0.009928640,0.007453560,0.012624260
1640780875.556230,-0.335344170,-0.192089300,10.295486450,0.037711860,-0.035128000,0.013609230
1640780875.560280,0.012426040,-0.218087350,9.572527890,0.016215440,0.092829760,0.016862160
1640780875.561250,0.175510670,-0.077551390,9.943432810,-0.010259450,-0.035113090,-0.011196730
1640780875.566370,-0.146072880,0.041115230,10.711181640,-0.037932400,0.028444830,-0.009720030
1640780875.566810,0.330837910,0.177338030,8.779755590,-0.006756190,0.015209620,0.005304810
1640780875.570180,-0.296096830,0.096762750,10.152416230,0.071680550,-0.060880190,-0.001087780
1640780875.571180,-0.345856700,0.129419910,9.327950480,0.076019760,0.059551000,-0.002525750
1640780875.575580,-0.310535820,0.228079440,9.240226750,0.040364270,-0.081408020,-0.008080900
1640780875.576420,-0.705844880,0.200741980,10.687419890,-0.003443660,0.019778310,-0.005564090
1640780875.580160,0.027499730,0.435934310,9.265932080,-0.021220740,0.069323170,-0.010345880
1640780875.581200,-0.204473500,0.570950390,10.923655510,0.008252260,-0.036381190,-0.002700090
1640780875.585700,0.061864570,0.572428580,9.986211780,0.014749170,0.072032220,0.007756060
1640780875.586800,0.428360700,0.473628880,8.943444250,0.020840770,-0.076971950,-0.008751450
1640780875.590180,-0.228543820,0.402987930,10.116710660,0.009435410,-0.009129940,0.011670590
1640780875.591350,0.212435290,0.135926570,8.607112880,-0.027187160,0.060667090,0.012929740
1640780875.596360,-0.245789390,-0.110829530,10.321858410,0.005294380,-0.049954650,0.019043680
1640780875.596950,-0.353544890,-0.026523620,10.290397640,0.011384490,0.074087090,0.019863250
1640780875.600380,0.117301780,-0.129223530,9.484430310,0.002962350,-0.017309190,-0.002151730
1640780875.602560,-0.392940460,0.075994150,10.581137660,0.009402630,-0.003319980,-0.006225710
1640780875.605140,0.033947100,0.350723680,8.884720800,-0.026477880,0.055857000,-0.023572150
1640780875.606180,-0.108063530,0.274438470,9.616285320,-0.005887450,-0.049148500,-0.002475080
1640780875.610280,-0.295609180,0.220436100,9.682442670,0.036527220,0.051835190,0.005610290
1640780875.611200,0.077777420,0.044411360,9.296695710,0.054062910,-0.006151200,-0.005549190
1640780875.615130,-0.379867880,-0.004530270,10.639430050,0.050917270,0.006547570,0.017131870
1640780875.616660,0.089010120,0.032814560,9.457102780,0.016227360,0.048802800,-0.000059600
1640780875.620170,0.176444020,-0.019466510,9.981264110,-0.004236400,-0.008937710,0.002738830
1640780875.621200,-0.102324830,0.197380160,9.816956520,0.016686320,0.085628030,0.028043990
1640780875.625590,0.059893910,0.001055160,9.346872330,0.057731580,-0.038906940,0.012148920
1640780875.626410,-0.523213450,0.067597200,10.108611110,0.090949240,-0.054615740,-0.007656220
1640780875.630260,-0.367611970,0.311144350,8.855474470,0.052413360,0.007024410,-0.015033780
1640780875.631290,-0.505550030,0.171853780,10.198111530,0.015930830,-0.015684960,-0.018195810
1640780875.635310,-0.517592550,0.492595730,10.325987820,0.003890690,0.090944750,-0.022958220
1640780875.636220,-0.026795130,0.726887700,9.953493120,0.020736460,-0.027866660,-0.005954500
1640780875.640220,-0.208726760,0.688171090,10.575117110,0.020320710,-0.012063980,0.020636620
1640780875.641680,0.179615510,0.824093820,8.684494970,0.005672870,-0.019608430,0.008843840
1640780875.645530,0.117293220,0.645645380,9.365246770,-0.027099260,-0.071202240,0.025282810
1640780875.647920,0.019346820,0.278818610,9.427397730,-0.026996430,0.102026760,0.028058890
1640780875.651970,0.234240580,-0.010741620,9.600116730,0.010398030,0.001466270,0.010311600
1640780875.652370,-0.249198360,-0.189841180,11.161682130,0.028888890,-0.011743610,0.006592270
1640780875.655170,0.066127420,-0.184757630,9.330982210,-0.006677210,0.019294030,0.001922250
1640780875.656180,-0.091842960,-0.093792620,9.897056580,-0.032579900,-0.068597500,-0.014109910
1640780875.660290,-0.303846090,0.095845280,9.506297110,-0.032727420,0.094345210,-0.018398470
1640780875.661270,0.035675590,0.242455300,8.640183450,0.008054080,-0.000226500,-0.004436080
1640780875.665450,-0.484745560,0.200244500,10.477210040,0.049614910,-0.006602710,0.002057850
1640780875.666660,-0.124613820,0.231421280,9.217101100,0.042372940,0.036773090,0.004480780
1640780875.670130,-0.154879260,0.147313390,10.075244900,0.016123060,-0.085823250,0.014536080
1640780875.671220,-0.295652540,-0.024972620,10.386451720,0.005126000,0.085681660,-0.000329320
1640780875.675610,0.403000890,0.078759510,9.140623090,0.023801630,0.028955940,-0.020104650
1640780875.676570,-0.182445320,0.223784060,10.795578000,0.043986740,-0.006909670,-0.005695220
1640780875.680480,0.072200100,0.337415930,9.098018650,0.015190240,0.048923490,-0.000993910
1640780875.681300,-0.064232190,0.390343070,9.363900180,0.004959110,-0.134764610,0.008162860
1640780875.685150,-0.490625380,0.510849540,9.721769330,-0.001131000,0.014510750,-0.005166230
1640780875.686220,0.180715890,0.339117800,8.778056140,-0.008153920,0.069732980,0.005884470
1640780875.690180,-0.353253990,0.321988400,11.287691120,0.045259290,0.058221820,-0.003975630
1640780875.691410,-0.202863960,0.356334890,10.551820760,0.024251640,0.054837770,-0.014910100
1640780875.695200,0.018714460,0.323922570,9.716403960,0.005207960,-0.138930990,0.004212560
1640780875.697370,-0.519330680,0.366085080,9.591744420,-0.029785930,-0.032730400,-0.005908310
1640780875.700270,0.115031500,0.295741590,7.988396170,-0.064019860,0.052133200,0.006084140
1640780875.701320,-0.191241710,0.160889690,9.917685510,0.000351670,0.042313340,0.029364230
1640780875.705180,0.021926920,-0.053199780,10.185562130,0.033405430,0.098526480,0.015830990
1640780875.706210,0.404818620,-0.133635920,10.270258900,0.040958820,-0.034642220,0.016643110
1640780875.710230,-0.195621560,-0.166421100,10.692666050,0.029847030,-0.032201410,0.003790860
1640780875.711280,0.173796090,-0.272998210,8.968867300,-0.013263520,-0.003707410,-0.019228460
1640780875.716540,-0.240613390,-0.116313290,9.509650230,0.025470550,-0.002871450,-0.026994950
1640780875.716980,-0.496167360,0.199374260,9.274317740,0.039161740,0.074012580,-0.037965180
1640780875.720110,-0.337659390,0.437712310,9.486486430,0.037501750,-0.035388770,-0.009037560
1640780875.721210,-0.735857250,0.701237560,10.267548560,0.014810260,-0.023299460,0.004395840
1640780875.725820,-0.263950080,0.742378120,9.611278530,-0.035764280,-0.025343900,0.013980270
1640780875.726680,-0.200243060,0.527545690,10.495071410,-0.005987290,0.016745930,0.033883750
1640780875.730510,0.014759930,0.201031240,10.096960070,0.054422010,0.092558550,0.003454090
1640780875.731550,0.266707930,0.211628560,10.077801700,0.073166190,-0.035259130,-0.009901820
1640780875.735680,-0.112870690,0.226507750,9.885480880,0.017949940,-0.047726930,0.005787610
1640780875.736200,0.028889570,0.174028140,8.567457200,-0.080145880,-0.087758890,-0.006699560
1640780875.740170,-0.200931070,0.417553540,9.413370130,-0.091604880,-0.026910010,0.006306170
1640780875.741420,-0.143227500,0.299622180,9.654143330,-0.031879550,0.123812260,0.006000700
1640780875.745360,0.098920100,0.336494890,10.620285990,0.045996910,0.016383830,-0.014053280
1640780875.746200,-0.172519610,0.402550130,11.083468440,0.052772470,0.009149310,-0.008630750
1640780875.750160,-0.005250410,0.274201240,9.413514140,-0.038161870,-0.066852570,0.001494590
1640780875.751220,-0.325393440,0.124809800,9.452153210,-0.073879960,-0.104793910,0.011031330
1640780875.755140,-0.414006410,-0.088829380,8.621510510,-0.029270350,0.043915210,-0.001440940
1640780875.756220,-0.133883460,0.066205860,8.837116240,0.022730230,0.003248450,0.004440550
1640780875.760190,-0.363715470,0.088471000,10.600554470,0.016322730,0.056493280,-0.003960730
1640780875.761670,0.195845170,0.142378430,9.964920040,-0.035053490,0.024922200,-0.007840990
1640780875.765890,0.153966810,0.219619020,10.688147540,-0.029109420,-0.079758470,0.008584560
1640780875.767230,0.036979550,-0.087825780,9.942582130,0.001724060,0.035028160,-0.005814430
1640780875.770120,0.231303930,0.003891840,8.917785640,0.063523640,-0.028973820,-0.013816360
1640780875.771200,-0.532534300,0.108047780,10.029212000,0.072057550,-0.017189980,-0.016584990
1640780875.775700,-0.375583500,0.200771030,8.909656520,-0.014060730,-0.000795720,-0.016921760
1640780875.776560,-0.539496540,0.611908200,9.794956210,-0.044907630,-0.102941700,-0.001597400
1640780875.780530,-0.605374100,0.611049770,10.410469060,-0.059817740,0.052961720,0.001293420
1640780875.781900,0.174176230,0.680397630,9.750248910,-0.012931230,0.035075840,0.004787740
1640780875.785170,-0.140561580,0.562232020,11.184241290,0.058390200,0.000461940,-0.000646710
1640780875.786200,0.230245160,0.314353670,9.666637420,0.018183890,0.011052190,-0.011071560
1640780875.790080,0.197664990,0.295084980,9.010888100,-0.015142560,-0.140129030,0.008726120
1640780875.791510,-0.359903960,-0.077471580,9.379096030,-0.062593830,-0.047661360,0.010985140
1640780875.795560,0.244978700,-0.068597860,8.337055210,-0.065578520,0.025160620,0.014537580
1640780875.796350,-0.162546520,-0.017119540,10.450108530,0.000078980,0.042350590,0.021660330
1640780875.800260,0.006075130,-0.110571400,10.743637080,0.020013750,0.094068040,-0.002762680
1640780875.801250,0.222399740,0.331463190,10.173261640,0.014877320,-0.074921550,-0.008682910
1640780875.805150,-0.376801910,0.283249080,10.206315990,-0.039623680,-0.082328920,0.005859140
1640780875.806180,0.044785600,0.022951720,8.314390180,-0.042811050,-0.010825700,0.002419950
1640780875.810440,-0.441174360,0.110978240,9.226433750,0.044146180,-0.009283420,-0.015023350
1640780875.811420,-0.497821210,0.074012020,9.726108550,0.053679940,0.047831230,-0.013558570
1640780875.815550,-0.078968700,0.225974010,9.726246830,0.023445490,-0.023698810,-0.015094870
1640780875.816480,-0.342129440,0.414043930,10.752150540,-0.047491490,-0.030237440,-0.012378400
1640780875.820150,0.228568700,0.356042270,9.813337330,-0.080311310,0.038233400,0.025571880
1640780875.821220,0.108174150,0.197268400,10.137043950,0.017848610,-0.015816090,0.016491120
1640780875.825460,0.001760050,0.139928120,9.791238780,0.083288540,-0.003434720,0.003126260
1640780875.827080,0.113466080,0.226371120,8.971914290,0.056253380,-0.045073020,-0.001740460
1640780875.831170,-0.450589240,0.119291230,9.728894230,-0.017711520,-0.051024560,-0.010453160
1640780875.832950,-0.278155270,0.256413970,9.355982780,-0.088593360,-0.006988650,-0.010465090
1640780875.835150,-0.332362320,0.393399510,10.033361430,-0.049351160,-0.003571810,-0.013147290
1640780875.836190,-0.285637320,0.481238220,10.393417360,-0.002454220,0.054308780,-0.016075370
1640780875.840160,0.090493190,0.746819500,9.914018630,0.011028350,-0.005915760,-0.017115480
1640780875.842750,-0.053808610,0.565678720,9.823416710,-0.024774670,-0.041547420,0.009386240
1640780875.845510,0.111798400,0.195812730,8.907686230,-0.054547190,-0.014090540,0.048708920
1640780875.846490,-0.076631070,-0.144184980,9.331677440,-0.011521580,-0.042684380,0.026918950
1640780875.851280,-0.174287380,-0.460132210,9.608872410,0.020420560,0.023588540,0.018142160
1640780875.851760,0.011816870,-0.303350810,9.678327560,0.022447110,0.009584430,-0.011369590
1640780875.855320,-0.284234700,-0.132714990,10.637283330,-0.016918780,-0.000181790,-0.045257810
1640780875.856260,-0.012279770,0.292496620,9.526644710,-0.061842800,-0.011059640,-0.019472840
1640780875.860380,-0.162164150,0.481593520,9.621281620,-0.035646560,-0.044330960,-0.002595780
1640780875.862260,-0.349583660,0.304950300,9.645231250,0.027355550,0.015255810,0.010272860
1640780875.868190,-0.214119260,0.460929660,9.061796190,0.078634930,-0.048369170,0.025416910
1640780875.868760,-0.619081500,0.246550070,10.205804820,0.033169980,-0.047858050,0.004820530
1640780875.871330,-0.170197840,0.275092960,9.460236550,-0.040476030,0.019995870,0.007592140
1640780875.871920,-0.072921330,0.444879470,10.261333470,-0.069992250,-0.029771030,-0.012303890
1640780875.875200,-0.050602090,0.367561970,10.595917700,-0.058774650,0.051008170,-0.006018580
1640780875.876700,0.424624410,0.562784430,9.313504220,0.000552830,-0.028765200,0.003315510
1640780875.880540,-0.109972800,0.433717820,10.165162090,0.008726120,-0.101864350,-0.009234250
1640780875.882050,0.098019240,0.350073100,8.700278280,-0.054138900,0.013805930,0.022293630
1640780875.885250,-0.101466040,0.111503240,9.294847490,-0.056678070,-0.045558810,0.025749210
1640780875.887000,-0.541262690,-0.274456020,10.695152280,-0.041261320,0.028596820,0.013291840
1640780875.890400,0.068436770,-0.086348380,9.430326460,0.001341100,0.005565580,0.005568560
1640780875.891250,-0.303310960,-0.030262430,10.700500490,-0.002481040,-0.062958900,-0.023972990
1640780875.895600,0.013872400,0.228033590,9.506836890,-0.064323850,0.051626560,-0.028550620
1640780875.896480,0.267464910,0.468663690,8.835285190,-0.067840520,-0.040313590,-0.001145900
1640780875.901240,-0.300697390,0.214296950,10.124848370,-0.034515560,0.003725290,0.013008710
1640780875.901810,0.191068020,0.176475900,8.678443910,0.023531920,0.013151770,0.023867190
1640780875.905360,-0.275451210,-0.037140500,10.189648630,0.057637700,-0.080794100,0.021763150
1640780875.906640,-0.332264040,-0.133059440,10.188155170,-0.006684660,0.055764620,0.006446240
1640780875.912170,0.031823440,-0.018823370,9.564635280,-0.037170950,-0.024189060,-0.006194410
1640780875.912920,-0.447388410,0.024351200,10.825420380,-0.039085750,-0.003698470,-0.011070070
1640780875.915330,0.031408410,0.316509660,9.126034740,-0.005894900,0.049331780,-0.005379320
1640780875.916590,-0.246149330,0.425961520,9.755453110,0.051833690,-0.115111470,-0.005720560
1640780875.920120,-0.374284710,0.581222470,9.555439950,0.004434590,-0.004638730,0.007586180
1640780875.922160,0.171616520,0.639645460,8.713377000,-0.050467250,-0.007739660,0.011879200
1640780875.926150,-0.339636390,0.326129350,10.923494340,-0.038513540,0.027576090,0.013205410
1640780875.926840,0.062301070,0.451380850,10.156126020,-0.014528630,0.052450600,-0.000986460
1640780875.930280,0.075201180,0.351476610,10.229751590,0.003039840,-0.100319100,0.001545250
1640780875.931360,-0.199859500,0.291156260,9.930681230,-0.036083160,-0.016765290,0.002552570
1640780875.935110,0.167663430,0.372937170,8.427955630,-0.078384560,-0.015920400,0.006224210
1640780875.936300,-0.262004380,0.041355230,9.648331640,-0.068069990,0.006788970,0.024771690
1640780875.940140,-0.131366120,-0.077549350,9.466038700,-0.014518200,0.067493320,0.018639870
1640780875.941510,-0.026671630,-0.233308970,10.161527630,0.037124760,-0.054772200,0.002017620
1640780875.945230,-0.284440400,-0.177915220,10.512969970,0.011351710,0.001212950,-0.002305210
1640780875.946240,0.039458130,-0.110351680,9.535020830,-0.035808990,-0.018057230,-0.016498570
1640780875.950240,-0.160518750,-0.154331460,10.096693990,-0.033564870,-0.019161400,-0.035282970
1640780875.951260,0.037959690,0.274004550,8.982144360,0.010050830,0.062936530,-0.028857590
1640780875.955770,-0.143961330,0.321794780,9.659804340,0.038340690,-0.040380660,-0.002297760
1640780875.958900,-0.380465060,0.398358520,9.859129910,0.032740830,-0.019197170,0.013005730
1640780875.960170,-0.107328240,0.606465880,9.098122600,-0.019954140,-0.061060480,0.005111100
1640780875.962230,-0.337608160,0.336692090,10.482571600,-0.047981740,0.007452070,0.031918290
1640780875.965270,0.021210670,0.230577330,9.865408900,-0.010782480,0.110365460,-0.007899110
1640780875.966340,-0.028905170,0.266252430,10.693197250,0.051996120,-0.050304840,-0.036832690
1640780875.970980,-0.235884260,0.315048930,10.172287940,0.027005380,-0.012476740,-0.007915500
1640780875.972020,-0.028153630,0.391280590,8.515312190,-0.043894350,-0.102956600,-0.018945340
1640780875.975250,-0.388570310,0.315348630,9.581338880,-0.091366450,-0.059470540,0.005458290
1640780875.976200,0.018380580,0.233712330,8.661200520,-0.044967230,0.122451790,0.026351210
1640780875.981130,0.112733600,0.072768680,10.362738610,0.041393940,0.005675850,0.007556380
1640780875.981690,-0.131345420,0.067459540,11.360062600,0.050084300,0.060066590,0.003525610
1640780875.985420,0.286863270,0.089638810,9.484349250,-0.001879040,-0.078377130,-0.003090500
1640780875.986680,-0.300831500,-0.109110310,10.252363200,-0.044052310,-0.128544880,-0.001931190
1640780875.990570,-0.113775510,-0.166270170,8.381482120,-0.031408670,0.071673100,-0.023025270
1640780875.992880,-0.209749830,-0.036012400,9.012981410,0.041157000,-0.019678480,-0.027976930
1640780875.995150,-0.665394780,0.040344290,10.582135200,0.064630790,0.062102080,-0.004360080
1640780875.996290,-0.005623650,0.276919040,9.218147280,0.031119590,-0.023570660,-0.005385280
1640780876.000380,-0.342772160,0.384267360,10.873534200,-0.021725890,-0.104726850,0.017009680
1640780876.002160,-0.012265750,0.138651530,9.732736590,-0.028482090,0.100331020,0.029505790
1640780876.005150,0.259038690,0.019972870,9.611272810,0.067773460,-0.032398110,-0.015474860
1640780876.006190,-0.401753930,0.146988750,10.825557710,0.122404090,-0.000298020,-0.024691230
1640780876.010140,0.069111230,0.324237910,8.569088940,0.053854290,-0.038240850,-0.018444660
1640780876.011270,-0.443567570,0.438525290,9.842950820,-0.040557970,-0.154031800,-0.006499890
1640780876.015120,-0.440362040,0.629750970,9.501469610,-0.097622000,0.069247190,0.009380280
1640780876.016230,0.207226560,0.519443510,9.434316640,-0.041353710,0.019752980,0.013801460
1640780876.020270,-0.164145740,0.317082730,11.571564670,0.084094700,0.051315130,0.007347760
1640780876.021310,0.305831850,0.319448140,9.868673320,0.094410780,0.032649930,-0.013338030
1640780876.025590,0.000667090,0.120631540,9.940584180,0.013336540,-0.167153760,0.019608440
1640780876.026680,-0.350992110,-0.175216470,9.109441760,-0.069172670,-0.025704500,0.026124720
1640780876.031140,0.033067450,-0.289760590,8.126549720,-0.041009480,-0.009553130,-0.001944600
1640780876.034230,-0.511778590,-0.144883890,10.293502810,0.058758270,0.039465730,0.013214350
1640780876.038470,-0.063735630,0.052249070,9.918265340,0.069570540,0.069151830,-0.018085540
1640780876.039380,0.116558950,0.425173580,10.554916380,0.017087160,-0.059573350,-0.013394650
1640780876.040590,-0.217597980,0.520309150,10.478419300,-0.037945810,0.003647800,0.023573640
1640780876.041540,0.113696140,0.125687790,9.129320140,-0.005425510,-0.051890320,0.006644430
1640780876.045340,-0.364556100,0.131436790,9.679720880,0.103570520,-0.054103140,-0.000371040
1640780876.046250,-0.257554710,0.199649070,8.777957920,0.105573260,0.038675970,-0.001333650
1640780876.050240,-0.255363910,0.214154270,9.888817790,0.017046930,-0.044009090,-0.005404650
1640780876.051280,-0.421863200,0.469478790,10.361903190,-0.070621070,0.023111700,0.007836520
1640780876.055110,0.118153890,0.404862400,9.871100430,-0.072257210,-0.028559560,0.004059080
1640780876.057450,-0.020257180,0.337690060,10.719840050,0.036461660,0.000108780,0.006353860
1640780876.060170,0.171393190,0.310172230,9.447749140,0.104583810,0.024604800,-0.011557340
1640780876.061640,-0.024995850,0.203774590,9.813880920,0.059936940,-0.091223400,-0.001241270
1640780876.065560,-0.411462520,0.151475130,9.458100320,-0.023867190,-0.019460910,0.028900800
1640780876.067200,-0.213179280,-0.016518970,8.827447890,-0.065270060,-0.074690570,0.013799970
1640780876.071710,-0.557136240,0.117829650,10.393548970,-0.022093950,-0.008770820,0.016477700
1640780876.072220,-0.145401090,0.249217450,9.570265770,0.037555400,0.064834950,0.000002980
1640780876.076070,0.066437070,0.341802300,10.454405780,0.042863190,-0.060950220,-0.034736100
1640780876.076710,0.058680560,0.602589250,10.123078350,-0.003691020,0.034680970,-0.014971200
1640780876.080280,0.450864260,0.291421260,8.804713250,-0.037367650,-0.035952040,0.013890860
1640780876.081600,-0.162951470,-0.023092830,10.231057170,0.016942620,-0.063249470,0.014002620
1640780876.085100,-0.079476070,-0.019389190,8.882702830,0.053341690,0.005313750,0.008992850
1640780876.086180,-0.199272740,-0.109400160,9.690957070,0.053204600,-0.097627950,0.005249680
1640780876.090600,-0.569970370,0.087224860,10.650240900,-0.010026990,0.048084560,-0.009649990
1640780876.092050,-0.026361880,0.347903340,9.441748620,-0.066256520,0.015951690,-0.011062620
1640780876.095200,-0.468176040,0.400101070,11.077817920,-0.031033160,-0.062155720,-0.010137260
1640780876.097750,-0.307247580,0.516558890,9.535387040,0.047868480,0.009202960,-0.017473100
1640780876.100600,-0.070329910,0.675621930,8.957236290,0.063048300,-0.158253310,-0.010435280
1640780876.101450,-0.438081290,0.761826810,9.701399800,-0.035311280,-0.007714330,0.005511940
1640780876.105140,0.317306880,0.482509700,8.723598480,-0.120504200,0.073209410,0.025308130
1640780876.106290,-0.001980960,0.269016620,11.192681310,-0.054852670,-0.022998450,0.006027520
1640780876.110830,-0.082450010,0.259615900,10.789672850,0.006566940,0.016255680,-0.011503700
1640780876.112020,0.342616680,0.140929670,9.287504200,0.017780070,-0.155127050,-0.012713670
1640780876.115200,-0.296575160,0.194702550,9.720121380,-0.050291420,-0.044508280,-0.018438700
1640780876.116250,0.092824680,0.022759730,8.255636220,-0.125353050,0.077030060,0.012630230
1640780876.120090,-0.125096560,-0.252047690,9.921837810,-0.042490660,-0.011719760,0.023636220
1640780876.121260,-0.418787720,-0.248933990,10.633345600,0.046569110,0.025795410,-0.010754170
1640780876.125380,0.110989470,-0.073733540,9.516697880,0.037173930,-0.090645260,-0.003938380
1640780876.126230,-0.529509780,0.067523650,10.517527580,-0.024378300,-0.056497760,-0.008407240
1640780876.130440,-0.156002430,-0.021490250,9.300239560,-0.083714730,0.044892740,-0.029300160
1640780876.133530,-0.119588360,0.200062950,9.678903580,0.000080470,-0.032177570,-0.026547910
1640780876.135140,-0.427639900,0.324200840,9.937231060,0.073435900,0.018626450,-0.017872450
1640780876.136270,0.088263580,0.440703180,8.954480170,0.045926870,-0.080232340,-0.006312130
1640780876.140600,-0.270060030,0.691053990,9.968463900,-0.038008390,-0.068522980,0.013592840
1640780876.141690,0.057115870,0.400848510,9.546236990,-0.105997930,0.045710800,0.014698510
1640780876.145460,0.237117260,0.152332950,10.535490990,-0.017960370,0.018996000,-0.005923210
1640780876.146640,-0.215017210,0.189898510,10.963037490,0.081625590,0.022767480,-0.040560960
1640780876.150150,-0.020905770,0.225850370,9.597604750,0.043132900,-0.116460030,-0.023496150
1640780876.151240,-0.419076030,0.338686700,9.426659580,-0.046108670,-0.117583570,-0.008440020
1640780876.155120,-0.324423250,0.320330110,8.436769490,-0.140710180,0.006100540,0.010292230
1640780876.156710,-0.177735060,0.146283670,9.560385700,-0.083661100,0.021277370,0.037644810
1640780876.162420,-0.128885190,0.021597740,10.515670780,0.052082540,0.089401010,-0.004041200
1640780876.163060,0.341669680,0.297853200,10.295447350,0.055281820,-0.027047090,-0.033202760
1640780876.165270,0.056712580,0.361458690,10.676396370,-0.029106440,-0.059187420,-0.001646580
1640780876.166260,0.068996700,0.028381540,9.067836760,-0.107420990,-0.027030710,-0.006544590
1640780876.170100,-0.170129480,-0.004595850,9.151072500,-0.049406290,-0.074513260,-0.005885960
1640780876.171260,-0.478367270,-0.055345840,9.213535310,0.043950970,0.041793290,0.008298460
1640780876.175220,-0.114149210,-0.020543010,9.096338270,0.045356150,0.001616780,-0.012347100
1640780876.176310,-0.452974800,0.303672160,10.809493060,-0.016047060,-0.010173020,-0.013187530
1640780876.180180,-0.021929980,0.266818370,9.869893070,-0.094041220,0.026138130,-0.000311430
1640780876.181250,0.146071330,0.145311520,10.181422230,-0.049883130,-0.047759710,-0.004075470
1640780876.185110,-0.169269620,0.059802440,10.270365720,0.063289710,0.043462220,-0.020486110
1640780876.186220,0.165047620,0.181847350,8.859929080,0.091117630,-0.038437550,-0.019051140
1640780876.190250,-0.458389760,0.251421570,9.909372330,0.025291740,-0.090663140,-0.008191170
1640780876.191280,-0.271063690,0.288754700,8.951368330,-0.084911290,0.016705690,-0.001774730
1640780876.196240,-0.031317430,0.484460740,9.645927430,-0.102844830,-0.027409190,0.009402630
1640780876.198490,-0.450415910,0.404108550,11.229737280,-0.029562420,0.078049300,0.002171100
1640780876.200200,0.262395470,0.458810330,9.906907080,0.038172310,0.004298990,-0.018100440
1640780876.201270,-0.040715770,0.447471920,10.439802170,0.050176690,-0.088205930,-0.022448600
1640780876.205160,-0.146149720,0.242542590,9.167018890,-0.043573980,0.013761220,-0.009255110
1640780876.206570,0.125317740,0.080451880,8.572408680,-0.076223910,-0.060059130,0.025841590
1640780876.210650,-0.459918950,-0.177339870,10.134133340,-0.029124320,0.011911990,0.026471920
1640780876.212760,0.139656740,-0.099779630,9.231861110,0.006340450,0.067126760,0.013493000
1640780876.215170,0.042538750,0.123495770,10.568308830,0.014437740,-0.012695790,-0.008852780
1640780876.216220,-0.124507150,0.208976580,10.542729380,-0.051273410,0.040425360,-0.034974520
1640780876.220880,0.298762950,0.401724550,9.214518550,-0.063824640,-0.048026440,-0.014898180
1640780876.222010,-0.380602660,0.174089060,9.904573440,-0.000496210,-0.029791890,-0.004014370
1640780876.225370,-0.155576720,0.000255100,8.782588960,0.042557720,0.029438730,0.000439580
1640780876.226760,-0.338040770,0.093544070,9.531595230,0.058010230,-0.038483750,0.008273130
1640780876.232040,-0.508425350,-0.040388370,10.169576640,-0.018259880,0.050807000,-0.005437430
1640780876.233120,0.063065690,0.084602210,9.762956620,-0.061661010,0.004348160,-0.014722350
1640780876.235110,-0.220806060,0.196319160,10.589117050,-0.019389390,0.005455320,-0.010679660
1640780876.236240,0.094044830,0.102582450,9.718222620,0.026218600,0.033913560,-0.015382470
1640780876.240380,0.003627340,0.261570630,9.707851410,0.089214740,-0.066310170,-0.003966690
1640780876.241350,-0.285896900,0.160438940,9.432463650,0.046075890,-0.023889550,-0.000846390
1640780876.246730,-0.005883760,0.194799200,8.908142090,-0.026793780,-0.026515130,-0.002463160
1640780876.247410,-0.406181160,0.344990460,10.259575840,-0.027893490,0.028826300,-0.012749440
1640780876.250170,-0.206918610,0.473824500,10.282847400,-0.033716860,0.049048670,-0.023308400
1640780876.251300,-0.182388690,0.819902660,10.654973030,-0.014938420,-0.047561530,-0.018309060
1640780876.255170,-0.247451100,0.733400230,10.093994140,-0.009533760,-0.021505360,-0.014463070
1640780876.258650,0.134794740,0.659090940,8.920085910,-0.041969120,-0.043942030,-0.002160670
1640780876.260130,-0.053966130,0.454525800,9.451918600,-0.045140090,0.033849480,0.032374270
1640780876.262610,0.233433070,-0.146669360,9.287181850,-0.039325650,0.084209450,0.039157270
1640780876.268020,0.133100450,-0.285234780,10.319768910,0.008031720,-0.019875170,0.003980100
1640780876.268480,-0.084507040,-0.264857020,10.405842780,-0.002594290,0.000207130,-0.008784240
1640780876.270140,0.070145900,-0.256173160,9.583321570,-0.052127250,-0.031240290,-0.027583540
1640780876.271400,-0.407793640,-0.043562000,10.128725050,-0.040057290,-0.015676020,-0.054436910
1640780876.276280,-0.178149130,0.134003530,8.992380140,-0.007815660,0.060015920,-0.019630790
1640780876.278770,-0.175245550,0.278958860,9.435131070,0.042775280,-0.002598760,0.003354250
1640780876.280320,-0.426955580,0.292066430,10.075304990,0.031426550,0.035697220,0.021274390
1640780876.281280,0.090443590,0.306800370,9.312749860,-0.013320150,-0.015905500,0.037193290
1640780876.285100,-0.200997750,0.103479600,10.528770450,-0.013855100,-0.001032650,0.013977290
1640780876.286240,0.139988010,0.009115480,9.888042450,0.004483760,0.104853510,-0.012277070
1640780876.290680,0.136778550,0.169555710,10.093593600,0.048717850,-0.009793040,-0.025804340
1640780876.292390,-0.340555160,0.161320540,10.310438160,0.031796100,0.001743440,-0.016863640
1640780876.295410,0.024602250,0.297341590,8.630624770,-0.013908740,-0.032740830,0.000424680
1640780876.296250,-0.534554180,0.423815670,9.670128820,-0.019025800,-0.053352120,0.007310510
1640780876.300320,-0.331973430,0.380503300,9.424902920,-0.039950010,0.092616680,0.020152330
1640780876.301300,0.150613580,0.470859170,9.813920020,-0.003004070,0.045922400,0.009080770
1640780876.305730,-0.291250820,0.351415990,11.473139760,0.016534330,0.067214680,-0.022599100
1640780876.307200,0.199887290,0.472167310,9.951882360,-0.005857650,-0.005714600,-0.011749570
1640780876.312270,-0.183610840,0.402343690,9.862614630,-0.020606810,-0.126589820,-0.008580090
1640780876.313130,-0.240767700,0.219691680,8.796138760,-0.058254610,0.011703370,0.000700350
1640780876.315180,0.147187350,0.254450560,8.363500600,-0.048576300,0.067365170,0.030373040
1640780876.316280,-0.297230210,-0.113103450,10.507575040,-0.007346270,0.098592070,0.030341750
1640780876.320180,0.145492790,-0.196913060,10.226504330,0.021378690,0.066606690,0.020119550
1640780876.321900,0.125188280,-0.062957810,10.485116000,0.025510790,-0.060708820,-0.004620850
1640780876.325280,-0.182718440,-0.168103170,10.139991760,-0.031344600,0.018511710,-0.009456280
1640780876.326260,-0.018081690,-0.076891590,9.024633410,-0.024339560,0.005862120,-0.018194320
1640780876.330240,-0.545921860,-0.041229930,9.678533550,0.030398370,0.030317900,-0.033369660
1640780876.331500,-0.387018020,0.175227730,9.130075450,0.050339110,0.054630640,-0.008864700
1640780876.335100,-0.380997720,0.359674390,9.751574520,0.050055980,-0.013855100,0.010104480
1640780876.336350,-0.489061060,0.466966720,10.323056220,-0.017443300,0.019474320,0.007556380
1640780876.340520,0.086249900,0.486084160,9.744479180,-0.042368480,0.013402110,0.039723520
1640780876.341450,-0.026337670,0.100298640,10.615939140,0.029726330,0.060541930,-0.003698470
1640780876.345190,0.144224460,0.144551320,10.064194680,0.077989680,0.060096390,-0.024364890
1640780876.346200,-0.011071090,0.236776920,9.745523450,0.078928470,-0.066444290,-0.010280310
1640780876.350150,-0.380517070,0.187291800,9.384111400,-0.007414820,-0.044092540,-0.009171660
1640780876.351240,-0.161988200,0.511842310,8.685070040,-0.089164070,-0.025729840,0.010053810
1640780876.355190,-0.351489190,0.441785630,10.008439060,-0.064150990,0.070911650,0.024646520
1640780876.356540,-0.047463500,0.383780390,10.435437200,0.005175170,0.127750640,0.000645220
1640780876.360200,0.053212070,0.549965740,10.865262030,0.058224810,-0.004512070,-0.026306510
1640780876.361990,-0.068557200,0.487506300,10.328375820,0.009579950,-0.029464070,-0.017750260
1640780876.365290,0.128962810,0.329804900,8.748928070,-0.068292030,-0.035846230,0.005976860
1640780876.366270,-0.332085340,0.025625240,9.260636330,-0.066764660,-0.009815390,0.018146640
1640780876.370180,-0.114677500,-0.158729240,9.129450800,-0.011533500,0.095203520,0.017154220
1640780876.371260,0.023466090,-0.041777900,9.893905640,0.033222140,0.048914550,0.003263350
1640780876.375230,-0.153056200,0.069264810,10.859195710,-0.000363590,0.049361580,-0.025601680
1640780876.376240,0.338553190,0.373600270,9.655261040,-0.078901640,0.024648010,-0.008811060
1640780876.380140,-0.022057610,0.204350140,10.120874400,-0.068490210,-0.005003810,0.001227860
1640780876.381230,-0.109510520,-0.043172920,9.489783290,0.024329130,0.068546830,-0.001119080
1640780876.385370,-0.095946300,0.080564320,9.001664160,0.102193650,-0.023362040,-0.009658930
1640780876.386260,-0.581380430,-0.027716880,9.977366450,0.046671930,0.017854570,-0.022293630
1640780876.390440,-0.075587440,0.210342600,9.223851200,-0.057064000,0.078001620,-0.019179290
1640780876.391300,-0.268594410,0.393054250,10.587094310,-0.099469740,0.032797460,-0.024309750
1640780876.395120,-0.206731660,0.333856640,10.635498050,-0.038139510,0.099346050,-0.011768940
1640780876.396250,0.260958820,0.495245700,9.619522090,0.078520180,-0.007112320,-0.014817720
1640780876.400180,-0.304448520,0.398396040,10.250944140,0.064145010,-0.029157100,-0.008058550
1640780876.401380,0.033522190,0.438779830,8.643593790,-0.036284330,0.048056250,0.028835240
1640780876.405120,-0.152520110,0.085719590,9.548929210,-0.077883890,0.003443660,0.004589560
1640780876.406520,-0.380327670,0.012255970,10.534816740,-0.052016970,0.094440560,-0.018517670
1640780876.410430,0.045343160,0.339088050,9.827927590,0.014847520,0.034019350,-0.017216800
1640780876.411260,-0.419958590,0.331067740,10.909894940,-0.004757940,-0.016471750,-0.041285150
1640780876.415740,-0.096447060,0.655094270,9.356429100,-0.075063110,0.035506490,-0.021044910
1640780876.416250,-0.026195470,0.549754320,9.132560730,-0.087665030,-0.013193490,0.024205440
1640780876.420120,-0.263958250,-0.001911910,9.889617920,-0.032931570,0.077581410,0.043830280
1640780876.421260,0.122194750,-0.073988590,9.310141560,0.056429220,0.053563720,0.030623380
1640780876.425230,-0.209497710,-0.206558320,10.600517270,0.049942730,-0.028637050,0.002384190
1640780876.426220,-0.028333790,-0.206839830,9.858757970,-0.060403350,0.055874880,-0.016482180
1640780876.430150,0.050888180,0.019606670,9.641397480,-0.099542740,0.003702940,-0.046487150
1640780876.431240,-0.310352890,0.031400040,10.224803920,-0.058873010,0.056220600,-0.034376980
1640780876.435100,-0.024218490,0.138402150,9.125720020,0.048086050,0.040765100,-0.002679230
1640780876.436240,-0.397265700,0.087319250,9.949053760,0.115695620,-0.043961410,0.011692940
1640780876.440280,-0.346426730,0.048596410,9.567729000,0.043852630,0.025354330,0.049208110
1640780876.441300,-0.132994190,-0.109257390,9.567814830,-0.016513470,0.005020200,0.034479800
1640780876.445110,-0.350370530,-0.275071050,10.730615620,-0.015407800,0.072814520,-0.019922850
1640780876.446230,0.015587970,0.103871870,9.979465480,0.041212150,0.047259030,-0.045245890
1640780876.450180,-0.269352530,0.398848800,10.401503560,0.097364190,-0.064414740,-0.053271660
1640780876.451390,-0.290174840,0.758062600,9.446729660,0.030533970,-0.040394070,-0.026151540
1640780876.455120,-0.103265090,0.991802280,8.750409130,-0.050705670,-0.045576700,0.020946560
1640780876.456290,-0.271717370,0.573528350,10.078281400,-0.052212180,0.083482270,0.050993260
1640780876.460190,0.176858440,0.373642890,10.071691510,0.018893180,0.102056590,0.025853510
1640780876.463960,-0.049958740,0.228852750,11.089465140,0.086507190,-0.039219850,-0.011590120
1640780876.467150,-0.066685960,0.120660830,10.256157880,0.020228330,-0.026926400,-0.017355390
1640780876.467620,-0.019174800,0.138378860,9.053174970,-0.068664550,-0.080068420,-0.017684700
1640780876.470200,-0.441660670,-0.021168720,9.661459920,-0.065474200,-0.013221800,-0.006477530
1640780876.471250,0.035238060,0.104341680,8.741659160,-0.014719370,0.102598970,0.026164950
1640780876.475220,-0.089922800,0.154772370,10.229827880,0.044392050,0.025241070,0.027227400
1640780876.477690,-0.065330080,0.252983210,10.712848660,0.016458330,0.054715570,0.021560490
1640780876.480170,0.251016020,0.371351360,9.792329790,-0.047223270,-0.039218370,0.015509130
1640780876.481590,-0.266668290,-0.025368010,10.421253200,-0.040461130,-0.040830680,-0.001703200
1640780876.485110,-0.033280930,-0.019106920,8.914628980,0.034953650,0.054503980,-0.022068620
1640780876.486220,-0.247864340,0.006130550,9.401182170,0.081633040,-0.017330050,-0.032246120
1640780876.490510,-0.542000590,0.057730240,9.900676730,0.032399590,0.063239040,-0.000078980
1640780876.491360,-0.100145910,0.335613130,9.299662590,-0.044631960,-0.006978210,0.014798340
1640780876.495130,-0.404707160,0.206920760,10.661126140,-0.073949980,-0.039191550,0.024789570
1640780876.496300,0.058696480,0.153174150,9.726890560,-0.004667040,0.083318380,0.024159260
1640780876.500130,0.102401150,-0.024827480,10.309491160,0.103937090,0.010232630,-0.027997790
1640780876.501260,-0.258195880,-0.038800680,10.583026890,0.115826730,0.025123360,-0.025974210
1640780876.505150,0.014753600,0.102682660,8.939874650,0.056865810,-0.068736080,-0.011548400
1640780876.506550,-0.460369740,0.017958060,9.684014320,-0.032404070,-0.076043610,-0.013025110
1640780876.510950,-0.345184270,0.468920770,9.062407490,-0.057949130,0.053983930,0.014674670
1640780876.511420,-0.097861720,0.624875720,9.875355720,-0.010588770,0.023259220,0.014752150
1640780876.515350,-0.279651820,0.538931250,11.197292330,0.040657810,0.083950150,-0.011135640
1640780876.516320,0.104734710,0.885970710,10.070599560,0.045819580,-0.014305110,-0.015772880
1640780876.520120,-0.243243830,0.470837620,10.408641820,0.012497600,-0.115802870,-0.010688600
1640780876.521320,-0.205374760,0.183383080,8.901958470,-0.038088860,-0.020655990,0.009156770
1640780876.525200,0.043064360,0.126651470,8.423535350,-0.024898350,-0.027650600,0.024582450
1640780876.526260,-0.121780770,-0.261268170,9.987357140,-0.015778840,0.111724440,0.031137470
1640780876.530130,0.275800440,-0.054374370,9.828708650,0.002931060,0.091268120,0.005079810
1640780876.531330,-0.017966230,0.110411550,11.108562470,-0.000840430,-0.071977080,-0.012810530
1640780876.535090,-0.111653470,0.134771200,10.102896690,-0.053542850,-0.015331810,-0.005503000
1640780876.536280,-0.152936700,0.098939370,9.029880520,-0.004211070,-0.082901110,-0.012072920
1640780876.540260,-0.634512130,-0.143136320,9.731684680,0.058917700,0.010289250,-0.025480990
1640780876.541460,-0.278936000,0.100542460,8.766598700,0.074985630,0.065857170,-0.012832880
1640780876.545260,-0.409441170,0.178371210,10.181015010,0.031209000,-0.041881200,-0.008995830
1640780876.546300,-0.169540570,0.402351560,10.138808250,-0.078512740,0.050896410,-0.010336940
1640780876.550110,0.217326150,0.635517780,9.696975710,-0.085946920,-0.003588200,0.013798480
1640780876.551260,-0.146139340,0.339449520,11.012029650,0.009346010,0.012804570,0.000204150
1640780876.555600,0.151728200,0.393260000,9.475959780,0.080344090,0.006972250,-0.027476250
1640780876.556730,-0.163620250,0.337935950,9.685071950,0.073067840,-0.113296530,-0.008206070
1640780876.560150,-0.347757250,0.129226860,9.421481130,-0.032553080,0.037573280,0.008985400
1640780876.561510,-0.073768690,0.191502150,9.107970240,-0.090907510,-0.012469290,0.000403820
1640780876.565220,-0.440148030,0.141504870,10.896884920,-0.051353880,0.000290570,0.012397770
1640780876.566440,0.064232740,0.345933680,9.820903780,-0.003319980,0.065727540,-0.026105340
1640780876.572840,0.000638000,0.543732170,10.264095310,0.011409820,-0.074641410,-0.049553820
1640780876.573470,-0.190957750,0.674091940,10.090843200,-0.039708620,0.021164120,-0.013504920
1640780876.575120,0.164449040,0.447439310,8.779840470,-0.085064790,-0.016443430,0.012846290
1640780876.577740,-0.304715420,-0.038277460,10.129732130,-0.029119850,-0.043033060,0.037722290
1640780876.580110,0.057847500,-0.117853020,9.198657040,0.016185640,0.069457290,0.036762660
1640780876.581270,0.190888380,-0.324926350,9.822669980,0.023449960,-0.021797410,0.015035270
1640780876.585100,-0.092703900,-0.195954780,10.664233210,-0.032649930,0.072585050,-0.018683080
1640780876.586250,0.294261010,0.179564030,9.395303730,-0.086104880,0.006859000,-0.041736670
1640780876.590280,-0.220270830,0.060418540,10.239909170,-0.056381530,-0.056187810,-0.024779140
1640780876.592500,-0.231678170,0.257709830,9.140852930,0.033281740,0.039868060,-0.021296740
1640780876.596090,-0.420937210,0.299669440,9.492021560,0.070346900,-0.055705020,-0.010640920
1640780876.596480,-0.742812100,0.206190930,10.146136280,0.027607390,0.007992980,0.021228200
1640780876.600090,-0.077789560,0.325284330,9.214416500,-0.047178570,0.030243400,-0.000268220
1640780876.601310,-0.164038720,0.176461860,10.800938610,-0.072811540,0.039377810,0.003494320
1640780876.605140,0.046183200,0.270296990,10.203125950,-0.014166540,0.093267880,0.003473460
1640780876.606310,0.218668160,0.368186180,9.909604070,0.055179010,-0.106003900,-0.033481420
1640780876.610360,-0.158710440,0.489765230,9.703609470,0.013689690,-0.048430260,-0.011199710
1640780876.611990,0.127846610,0.567308370,8.291943550,-0.074084110,0.009043510,0.014914570
1640780876.616080,-0.282143000,0.165822700,10.354850770,-0.085361300,0.035004320,0.018361210
1640780876.616510,-0.315218900,0.108225730,10.405034070,-0.011953710,0.095573080,0.003281240
1640780876.620210,-0.142229750,0.242752540,10.378232960,0.036498900,-0.085020070,-0.012579560
1640780876.621500,-0.440801170,0.193907690,10.525856970,-0.025123360,-0.020599370,-0.025787950
1640780876.625360,-0.031477060,0.355538070,8.565470700,-0.089980670,-0.002197920,-0.025886300
1640780876.626380,-0.269821850,0.335240840,9.696692470,-0.081756710,-0.022110340,-0.003653770
1640780876.631080,-0.040766270,0.098894600,9.393632890,-0.027064980,0.107982780,0.024123490
1640780876.631640,0.218344610,0.059233560,9.769220350,0.048288710,-0.026986000,0.023192170
1640780876.635120,-0.118965260,-0.025187950,11.041598320,0.011797250,0.005340580,0.030650200
1640780876.636290,0.295728860,-0.180172560,9.307753560,-0.044323510,0.017459690,0.023385880
1640780876.640260,-0.132105570,-0.257208530,10.272121430,-0.033693020,-0.063809750,-0.022663180
1640780876.641610,-0.200360060,-0.156472070,9.489836690,-0.004979970,0.097498280,-0.034007430
1640780876.645120,-0.138987510,-0.024202550,8.965273860,0.059500350,-0.029663750,-0.021450230
1640780876.646340,-0.746276020,0.108752920,10.461318970,0.069433460,-0.029417880,-0.009417530
1640780876.650080,-0.257396280,0.428543420,8.987977030,-0.008217990,0.010342900,0.005890430
1640780876.651340,-0.429423900,0.338939520,10.329508780,-0.040297210,-0.062438850,0.028820340
1640780876.655180,-0.299272210,0.181329400,10.487508770,-0.001607840,0.126221780,0.008836390
1640780876.656330,0.135489460,0.290784980,9.891600610,0.084678830,-0.007025900,-0.022955240
1640780876.660850,-0.418606160,0.383401690,11.027259830,0.097739700,-0.078135730,-0.005325680
1640780876.661890,0.063234980,0.516654790,8.536200520,-0.009658930,-0.047753760,0.005047020
1640780876.665720,-0.050281770,0.506641390,8.941400530,-0.089615580,-0.097595140,0.019298490
1640780876.666310,-0.149152040,0.429837230,9.714597700,-0.077067320,0.126048920,0.044465070
1640780876.671770,0.392908220,0.152522500,9.838586810,0.027880070,0.065657500,0.000114740
1640780876.672780,-0.187566730,0.217967760,11.625866890,0.096088650,-0.047247120,-0.020562110
1640780876.675150,0.002542250,0.330418020,9.783414840,0.002662840,-0.028952960,-0.016513470
1640780876.678370,-0.159666610,-0.102887420,9.344727520,-0.075045230,-0.126564520,-0.007563830
1640780876.680120,-0.588169220,-0.078018340,9.318597790,-0.052991510,0.024387240,0.003291670
1640780876.681340,-0.203093800,-0.111963040,8.669434550,0.029271840,0.031167270,0.003311040
1640780876.685130,-0.455367150,-0.077047850,10.381407740,0.078588720,-0.013577940,0.001667440
1640780876.686240,-0.041749400,0.426027600,9.728057860,0.012210010,0.025704500,-0.014030930
1640780876.690320,0.186894820,0.420565160,10.134620670,-0.081704560,-0.054045020,-0.005556640
1640780876.691470,-0.062222510,0.250547260,10.467238430,-0.049282610,0.036470600,0.008642670
1640780876.696030,0.212994890,0.256546440,9.331604960,0.062814350,-0.029794870,-0.028002260
1640780876.697420,-0.223976630,0.177818950,9.972295760,0.105756530,-0.057131060,-0.013560060
1640780876.700100,-0.226722050,0.351152900,8.880157470,0.027823450,0.008516010,0.000473860
1640780876.701320,-0.266749200,0.301481220,9.619847300,-0.082105400,-0.080683820,-0.005006790
1640780876.705620,-0.399132910,0.306236890,10.273431780,-0.114159280,0.053116670,0.011548400
1640780876.706570,0.053922120,0.305119220,9.836166380,-0.025112930,0.028787550,-0.004704300
1640780876.711490,-0.197640570,0.190498080,11.256031040,0.073695190,-0.028796500,-0.031915310
1640780876.712520,0.005166060,0.423738270,9.444565770,0.054632130,-0.005351010,-0.030861800
1640780876.715280,-0.045711360,0.341945590,9.173909190,-0.036683680,-0.129725040,0.005216900
1640780876.716290,-0.337743340,0.052688740,9.591468810,-0.092159230,0.025720900,0.024412580
1640780876.720240,-0.001026680,0.190792620,8.919273380,-0.046062470,0.009468200,0.027078390
1640780876.721590,-0.280762280,0.130506740,10.905970570,0.020818410,-0.037901100,0.009877980
1640780876.725150,0.136324670,0.286834750,9.941865920,0.007899110,0.089560460,-0.033728780
1640780876.726280,0.256020430,0.505959930,9.905731200,-0.046929720,-0.056803230,-0.027759380
1640780876.730150,-0.157237350,0.191630200,10.346076970,-0.069439400,0.015321370,-0.006976720
1640780876.731380,0.237403390,0.030577290,8.330385210,-0.008322300,-0.003632900,-0.000967090
1640780876.735130,-0.338705540,-0.078633620,9.953982350,0.074392560,-0.090372580,0.020195550
1640780876.736280,-0.292055370,-0.163970900,9.472033500,0.027117140,0.091096770,0.012376910
1640780876.740720,-0.071471680,-0.149784560,9.705616000,-0.028976800,-0.030860300,0.009335580
1640780876.741740,-0.610226870,-0.149113610,11.392131810,-0.043562050,0.038199120,-0.023323290
1640780876.745300,-0.006990690,0.144052520,9.328023910,-0.012996790,0.022904580,-0.053399800
1640780876.746290,-0.418225770,0.265175610,10.258115770,0.069279950,-0.125971450,-0.051036470
1640780876.750180,-0.404765190,0.548970160,9.177266120,0.064224000,0.014394520,-0.043118000
1640780876.751320,0.184789720,0.734135630,8.396821020,-0.013650950,-0.057907400,-0.007693470
1640780876.755200,-0.154465850,0.645704450,10.602728840,-0.062623620,0.065329660,0.042255220
1640780876.756640,0.454940080,0.418765250,10.052686690,-0.054508440,0.129370380,0.015716250
1640780876.760360,0.051778950,0.266237320,11.373839380,0.039450820,-0.091208520,-0.000432130
1640780876.764870,-0.398800100,0.351054670,10.364248280,0.042362510,-0.070367760,-0.023561720
1640780876.765600,-0.112400860,0.233208360,8.273795130,-0.038512050,-0.123994070,-0.030928850
1640780876.766310,-0.644785460,0.111367020,9.256605150,-0.082822150,-0.002659860,-0.007981060
1640780876.770370,-0.215172440,0.040031370,8.965736390,-0.063319500,0.142748640,-0.008213520
1640780876.771430,-0.021134330,-0.067222130,10.612665180,0.026722250,-0.003686550,0.005704160
1640780876.776130,-0.075927950,0.232395660,10.895621300,0.033698980,-0.004343690,-0.014857950
1640780876.776650,0.322235970,0.365327920,9.706880570,-0.061403220,-0.075453520,-0.006294250
1640780876.780210,-0.126563310,0.055928600,10.143225670,-0.076539820,-0.038737060,0.016734000
1640780876.781300,-0.074782650,-0.099475160,8.910369870,-0.000402330,0.035139920,-0.021094090
1640780876.785540,-0.216770460,-0.064259540,9.632513050,0.089409940,-0.044946370,-0.013071300
1640780876.786510,-0.412011500,0.076397210,9.615528110,0.065165770,0.029096010,0.008733570
1640780876.790300,-0.136586890,0.279297410,9.439193730,-0.055177520,-0.059106950,-0.021159650
1640780876.791340,-0.354362370,0.471439540,10.615661620,-0.120632360,-0.016576050,0.010350350
1640780876.796050,0.038353570,0.375427870,9.650865550,-0.054024170,0.059075660,-0.001320240
1640780876.796480,-0.058209410,0.227157860,10.762957570,0.080341110,-0.045551360,-0.037437680
1640780876.800550,-0.259138490,0.358305780,10.052433010,0.129671380,0.009511410,-0.027576090
1640780876.802040,-0.126981970,0.337173850,8.853245740,0.014428790,-0.118879980,-0.003404920
1640780876.805180,-0.544815900,0.223541660,9.860832210,-0.107283910,-0.070861000,0.020913790
1640780876.806810,-0.139640570,0.237979320,8.720444680,-0.113649670,0.057753920,0.034289060
1640780876.811040,-0.068181260,0.109149700,10.529654500,-0.002649430,-0.029461090,-0.000697370
1640780876.811580,-0.002221440,0.174327840,10.927250860,0.074701000,0.080217420,-0.028076770
1640780876.815280,0.534344790,0.324948820,9.437968250,0.043961410,-0.052759050,-0.041723260
1640780876.816440,-0.077846290,0.212214920,10.437919620,-0.052680070,-0.080902870,-0.018295640
1640780876.820100,0.132711530,0.024364020,8.492690090,-0.077860080,0.038993360,0.018821660
1640780876.821360,-0.128784110,-0.219764110,9.333117490,0.024299320,-0.091268110,0.028873980
1640780876.826590,-0.602471110,-0.117042990,10.247933390,0.088936100,0.042077900,0.020490590
1640780876.827320,0.065008830,0.056815530,9.040029530,0.043246150,0.009560590,-0.003317000
1640780876.830230,-0.439703820,0.146050970,11.156478880,-0.033605100,-0.035068400,-0.035001340
1640780876.831370,-0.158685950,0.321620940,9.774318700,-0.062334540,0.074677180,-0.036513810
1640780876.835280,0.007982640,0.184748260,9.542998310,0.040353830,-0.112161060,-0.034593050
1640780876.836330,-0.519198660,0.299137030,10.028269770,0.114215930,-0.023318830,-0.025451190
1640780876.840260,0.192238750,0.507416010,8.183992390,0.051806870,-0.000835960,0.006774070
1640780876.841480,-0.188723280,0.354405110,10.408075330,-0.042256720,-0.011058150,0.035032630
1640780876.845180,-0.049402150,0.280536980,10.295662880,-0.075535480,0.108186900,0.024384260
1640780876.846340,0.264101300,0.156357900,10.256311420,0.003708900,-0.074987100,0.004102290
1640780876.850380,-0.335865410,0.260628730,10.783750530,0.077560540,-0.039772690,-0.025276850
1640780876.851370,0.015788560,0.493415770,8.632580760,0.028790530,-0.035770230,-0.027246770
1640780876.855470,-0.275234940,0.516791220,9.405641560,-0.063957270,-0.068967050,-0.013062360
1640780876.857420,-0.211122380,0.493775810,9.190355300,-0.110735010,0.102494680,0.007823110
1640780876.860190,0.114294930,0.229614230,9.918047900,-0.036558510,0.015047190,0.001047550
1640780876.861690,-0.291234400,0.286396270,11.167369840,0.035336610,0.009149310,-0.009781120
1640780876.865630,-0.017745520,0.275076210,9.735902790,0.007893150,-0.043185060,-0.013451280
1640780876.866940,-0.192465800,0.047994750,9.914645200,-0.042940680,-0.104042890,-0.003059210
1640780876.870190,-0.147263510,-0.029428710,8.832714080,-0.082419820,0.073394190,-0.015889110
1640780876.871350,0.077929180,-0.160209000,9.222150800,-0.038944190,0.021123890,-0.000858310
1640780876.875220,-0.154938710,-0.225431470,10.392300610,0.055307150,0.052697960,-0.003166500
1640780876.876390,0.241890090,0.106338080,9.363188740,0.041356690,-0.027959050,-0.031125540
1640780876.880720,0.040800780,0.251632240,10.295191760,-0.043077780,-0.063598160,0.005771220
1640780876.882420,0.061394870,0.070345960,9.619224550,-0.075097380,0.117126110,-0.003094970
1640780876.885110,-0.116643120,-0.015717750,10.219692230,0.018604100,-0.013132400,-0.035637620
1640780876.886290,-0.665808260,0.126385820,10.522384640,0.124123700,-0.007431210,-0.017127400
1640780876.890260,-0.332844320,0.316520420,8.544185640,0.072404740,-0.066666310,-0.029687590
1640780876.892440,-0.627135280,0.586541000,9.736645700,-0.061833870,-0.075496740,-0.004667040
1640780876.895070,-0.293472050,0.659687040,9.300037380,-0.134782460,0.138032420,0.007140640
1640780876.896580,0.235339970,0.405344460,10.208317760,-0.055372720,0.030300020,-0.016273560
1640780876.900220,-0.059608110,0.430060240,11.575646400,0.086326880,0.041064620,-0.040070720
1640780876.901320,0.443538190,0.578577280,9.328775410,0.075896070,-0.031368440,-0.038699800
1640780876.905100,-0.146547730,0.366496890,10.034028050,-0.047089170,-0.135906060,0.002586840
1640780876.906570,-0.291652680,0.141153680,8.934297560,-0.127208230,0.050258650,0.035621230
1640780876.910600,0.106570580,-0.080570030,8.779915810,-0.066483020,-0.008353590,0.035385790
1640780876.911410,-0.406395170,-0.192763050,10.855293270,0.049789240,0.076286490,0.017854570
1640780876.915410,0.181966320,0.064778480,9.594996450,0.060400370,0.075311960,-0.038447980
1640780876.916410,-0.110830430,0.313584030,10.675595280,-0.050263110,-0.091357530,-0.048048800
1640780876.920140,-0.326317820,0.215356080,9.787271500,-0.112777970,0.024248670,-0.016660990
1640780876.921340,-0.014415790,-0.000034010,8.706684110,-0.021240110,-0.050230320,-0.022324920
1640780876.926760,-0.669394080,0.043224860,10.219360350,0.094921870,0.004811580,-0.003334880
1640780876.928230,-0.171872750,0.185947250,9.017603870,0.081591300,0.054128460,0.016307830
1640780876.930300,-0.098816100,0.231341360,10.350133900,-0.027659540,-0.036337980,0.017085670
1640780876.931360,-0.131869960,0.281213670,10.459259990,-0.119777040,0.098185260,0.005225840
1640780876.935100,0.335904810,0.166235690,9.721609120,-0.045923890,-0.020225350,0.000166890
1640780876.936290,-0.182297950,0.052465920,10.697421070,0.113847850,-0.038595490,-0.032494960
1640780876.940190,0.094763600,0.421883110,8.728311540,0.109241910,-0.017105040,-0.033579770
1640780876.941910,-0.045750860,0.516561150,9.433955190,-0.033527620,-0.041058660,0.012981890
1640780876.945290,-0.263951150,0.354189340,9.952072140,-0.140377880,0.137712110,0.027950110
1640780876.946370,-0.066372710,0.345496590,10.150763510,-0.073440360,0.008337200,0.013782080
1640780876.950180,-0.550328490,0.448713930,11.192652700,0.044740750,-0.051727900,0.007240480
1640780876.951310,-0.181453300,0.437832560,9.093706130,0.051178030,-0.014367700,-0.014247000
1640780876.955700,-0.194115980,0.437146250,9.388277050,-0.019495190,-0.060081480,-0.015471880
1640780876.956710,-0.167455700,0.288350970,9.383540150,-0.110091280,0.147655610,0.022451580
1640780876.961510,0.384321960,-0.155146940,9.324211120,-0.069783630,0.046615300,0.033593180
1640780876.963290,0.067686300,-0.155836460,10.868824010,0.046351550,0.003591180,0.011456010
1640780876.965140,0.403764010,0.122578590,9.351453780,0.021791460,0.033733250,0.012969970
1640780876.966360,0.066609610,-0.134888690,10.100008010,-0.040766600,-0.058545170,0.031457850
1640780876.972690,-0.347411070,-0.239636450,10.031603810,-0.048342350,0.098758940,-0.006327030
1640780876.973510,-0.086894010,-0.154065920,9.107017520,0.016912820,0.001417100,-0.015716260
1640780876.975150,-0.773810680,-0.070499760,10.412068370,0.098967550,-0.009845200,-0.003390010
1640780876.976310,-0.316627320,0.403119470,8.887633320,0.037510690,0.038731100,-0.034737590
1640780876.980240,-0.285249260,0.732720910,9.861204150,-0.059287260,-0.051389650,0.011594590
1640780876.981340,-0.295786620,0.685571430,10.254570960,-0.099705170,0.130504370,0.029653310
1640780876.985150,0.300792190,0.420811680,9.975048070,-0.007976590,0.047001240,0.001144410
1640780876.986280,-0.264210100,0.291520030,11.309572220,0.118139370,-0.008472800,0.013941520
1640780876.990220,-0.106652440,0.303643350,9.208831790,0.092850630,-0.031054020,0.005871060
1640780876.992500,-0.154843540,0.138480080,9.084491730,-0.039789080,-0.133332630,0.026175380
1640780876.995280,-0.348472450,0.142507910,9.153595920,-0.134658830,0.091223400,0.053922830
1640780876.997280,0.231694390,-0.002782070,9.344800950,-0.078025450,0.100550050,0.030042230
1640780877.000170,-0.066512030,-0.076176940,11.476596830,0.062882900,0.057117640,-0.002363320
1640780877.001310,0.271752800,0.260651470,10.031898500,0.096867970,0.024534760,-0.047872960
1640780877.005660,0.102661130,0.361699340,9.968705180,-0.001883510,-0.094252840,-0.022487340
1640780877.006790,-0.355596570,0.229933230,9.406468390,-0.085170570,0.025455660,0.023004410
1640780877.010520,-0.196382970,0.032013410,8.597256660,-0.038386880,0.002260510,0.041031830
1640780877.011930,-0.580486180,-0.011413710,10.182541850,0.067795820,0.022292140,0.043351960
1640780877.015250,-0.229339550,0.069584220,9.431947710,0.084994740,0.094972550,0.031878050
1640780877.016300,-0.092059120,0.257347460,10.394820210,0.001074370,-0.036901240,0.001455840
1640780877.020190,-0.111207400,0.290047140,10.396404270,-0.092203920,0.066331040,-0.002174080
1640780877.021400,0.367844020,0.127545950,9.246932980,-0.032942000,0.001770260,-0.002740320
1640780877.025420,-0.108471510,0.066925470,10.507356640,0.095537300,-0.009074810,-0.017803910
1640780877.026420,0.050809040,0.207451190,8.973521230,0.107224300,0.057867170,0.001619760
1640780877.030520,-0.170405330,0.254820410,9.654177670,0.015410780,-0.068706270,0.032994150
1640780877.031710,-0.466781380,0.219780180,10.227389340,-0.075422230,0.060613460,0.033444170
1640780877.035120,0.008488760,0.270146220,9.441373830,-0.058311230,0.023983420,0.018934910
1640780877.036290,-0.495205640,0.372200190,11.249389650,0.045733160,-0.002384190,0.000242890
1640780877.040170,-0.138357950,0.569206120,9.636709210,0.064089900,0.056414320,-0.019249320
1640780877.045060,0.036951550,0.720583440,9.321163180,-0.001363460,-0.097466990,-0.011953710
1640780877.045970,-0.216041550,0.641927720,9.740626340,-0.093965250,0.080348560,0.027795140
1640780877.046300,0.397785370,0.258124140,8.768622400,-0.089439750,0.065594920,0.041954220
1640780877.050090,-0.115609630,0.021449530,10.962188720,0.028280920,-0.003795330,0.053645680
1640780877.051400,0.081425190,-0.045256030,9.988583560,0.052161520,0.066220780,0.035716600
1640780877.055690,0.157029900,-0.244188590,9.669540410,0.010688600,-0.065693250,0.021336970
1640780877.056780,-0.443554100,-0.134874400,10.256983760,-0.052206220,0.036399070,0.007675590
1640780877.060190,0.072416690,-0.115466470,8.590184210,-0.065921250,0.066390630,-0.014747680
1640780877.061600,-0.400904000,-0.043914980,10.144050600,0.029675660,-0.004132090,0.006102030
1640780877.065220,-0.401655580,0.264298020,9.674616810,0.068444020,0.060141090,-0.005261600
1640780877.066430,-0.081293150,0.404777940,9.541182520,0.030472870,-0.055156650,0.014987590
1640780877.070260,-0.466484100,0.469255860,10.497400280,-0.025327500,0.043541190,0.043930120
1640780877.071580,0.090738910,0.131905440,9.566236500,-0.036932530,0.079908970,0.019556290
1640780877.075480,-0.204888820,0.048483140,10.707250600,0.047723950,-0.004439060,0.020875040
1640780877.076350,-0.187243670,0.157671690,9.584125520,0.102697320,0.021439790,0.013881920
1640780877.080170,0.074117520,0.160622730,9.115641590,0.041867790,-0.076825920,0.001806020
1640780877.081340,-0.239273950,0.508329330,9.692865370,-0.063672650,0.025224680,0.023600460
1640780877.085110,0.203804880,0.420787270,9.219194410,-0.102500620,0.094613440,0.026233500
1640780877.086320,0.029896010,0.188314010,11.082032200,0.004057590,0.059883310,0.000821050
1640780877.090230,-0.078002440,0.439535410,10.565437320,0.100798890,0.062449270,-0.026640290
1640780877.091430,-0.153868840,0.485508620,10.034276010,0.069452820,-0.114420080,-0.007234510
1640780877.096520,-0.595314980,0.394859310,9.504244800,-0.047677760,-0.038741530,0.037881740
1640780877.097250,-0.216848820,0.268899170,8.031479840,-0.107407580,0.034719710,0.050859160
1640780877.100200,-0.258903060,-0.038823110,10.038765910,-0.039055940,0.083322810,0.055588780
1640780877.101350,0.118563960,-0.117765040,10.108260150,0.074067720,0.160755220,0.014266370
1640780877.105610,0.435447130,0.167764510,10.409135820,0.075191260,-0.041784350,-0.021567940
1640780877.107160,0.052113950,0.200674680,10.675943370,-0.047881900,0.003707410,-0.001525880
1640780877.110170,0.282745660,0.007333180,8.688779830,-0.101184850,0.018706920,0.007963180
1640780877.111400,-0.388951450,-0.154208530,10.020917890,0.008258220,-0.032910700,0.008521980
1640780877.115150,-0.476076720,-0.127181630,9.111456870,0.113642210,0.090688450,0.015853340
1640780877.116380,-0.245408850,0.159500030,9.101581570,0.097483410,-0.034810610,0.005061930
1640780877.120160,-0.612691400,0.403466020,10.715501790,-0.032015150,0.076252230,0.012679400
1640780877.121920,-0.004613740,0.471326290,9.584401130,-0.120294110,0.103995210,0.015129150
1640780877.125380,-0.213278370,0.335326050,11.117005350,-0.017488000,-0.051340460,0.010228160
1640780877.126360,-0.115444600,0.380387070,9.941683770,0.110556190,0.051076710,-0.034037230
1640780877.131450,0.265239120,0.709931250,8.562392230,0.085859000,-0.057922300,-0.021134320
1640780877.132200,-0.436317740,0.628113210,10.136387830,-0.043518840,0.031507020,0.037874280
1640780877.135130,0.081476180,0.368582730,8.954434390,-0.146815180,0.090286130,0.048466030
1640780877.136320,-0.033735470,0.181828720,10.439036370,-0.056453060,-0.028075280,0.067938860
1640780877.140550,-0.240304830,0.040326080,10.657136920,0.047999620,0.083625320,0.020307300
1640780877.141420,0.318903120,0.104777560,9.237292290,0.051203370,-0.008735060,-0.017754730
1640780877.145100,-0.269571190,0.289322200,10.258905410,-0.033992540,0.004409250,-0.004661080
1640780877.146340,-0.017652440,0.018417040,8.930039410,-0.122056920,0.098685940,0.005120040
1640780877.150110,-0.109965500,-0.126648350,9.590027810,-0.034090880,-0.029848520,0.022903080
1640780877.151370,-0.568845330,-0.024409420,10.063837050,0.071634360,0.033462050,0.014281270
1640780877.155520,-0.055114320,0.002713250,9.207802770,0.057645150,0.002762680,0.025101010
1640780877.157170,-0.416762470,0.171225580,10.532632830,-0.015246870,0.025683640,0.018548970
1640780877.161120,-0.111110180,0.175990730,9.784860610,-0.082451110,0.106909870,-0.005814430
1640780877.161820,0.128316970,0.115283020,9.939982410,-0.010363760,-0.002771620,0.009500980
1640780877.165400,-0.229314710,0.155125140,9.909438130,0.098890080,0.029928990,-0.003530090
1640780877.166350,0.092542430,0.358972760,8.899792670,0.078292200,-0.046214460,-0.009781120
1640780877.171910,-0.271417230,0.493443280,9.754330640,-0.020883980,0.001122060,0.030608470
1640780877.174280,-0.093960220,0.226856590,9.501661300,-0.089433790,0.104258960,0.016656520
1640780877.175120,-0.079473560,0.192889470,10.839694980,-0.019411740,0.047025080,-0.008033220
1640780877.176380,-0.458162550,0.342955230,10.869531630,0.080513950,0.045268240,-0.003798310
1640780877.180150,-0.257994560,0.387232540,9.559987070,0.060886140,-0.115746260,-0.021088130
1640780877.181380,-0.479878250,0.696102500,9.319083210,-0.046952070,-0.064902020,0.010617080
1640780877.185400,-0.060573940,0.543714230,8.211728100,-0.136154860,0.103187550,0.042764840
1640780877.186640,0.082388770,0.190581250,10.142709730,-0.067174430,0.088325150,0.028528270
1640780877.190280,0.032521360,0.221837920,10.921651840,0.057676440,0.096212330,-0.000905990
1640780877.193280,0.381063190,0.260908900,10.046786310,0.040473050,-0.078138690,-0.004370510
1640780877.195080,-0.086272340,0.187618110,10.464385030,-0.057941670,-0.054232770,0.011032820
1640780877.196330,-0.051598080,-0.059611600,8.745729450,-0.113022330,0.050498540,0.019721680
1640780877.200210,-0.175814940,-0.146651010,9.267888070,-0.042109190,-0.015541910,0.036984690
1640780877.201800,-0.361818250,-0.136766660,9.808677670,0.047405060,0.109232970,0.028653440
1640780877.205690,0.140858590,0.085367020,9.239350320,0.040194390,0.036689640,0.009366870
