timestamp,accel_x,accel_y,accel_z,gyro_x,gyro_y,gyro_z
1640833437737459968,-0.120063750,0.553607640,10.344067570,0.023838880,-0.018070640,-0.029118360
1640833437739620096,0.217538910,0.438863690,9.520469670,0.015923380,-0.003018980,-0.005882980
1640833437740259840,0.167353450,0.476094720,9.205397610,0.053326790,0.029841070,-0.007683040
1640833437751430144,-0.387147870,0.276371960,9.985778810,0.017033520,-0.011141600,-0.011233990
1640833437752139776,-0.135833280,0.332091630,9.497923850,-0.033621490,-0.008113680,0.011713800
1640833437753600000,-0.363869910,0.299495730,9.864311220,-0.021749740,0.006191430,-0.012926760
1640833437755249920,-0.314486030,0.298898610,10.245072360,-0.016982860,0.048157580,-0.016425560
1640833437756339968,0.013007350,0.630083200,9.842803000,0.006665290,0.017955900,0.016650560
1640833437757859840,-0.087986370,0.408746780,9.936079030,-0.015096370,0.000652670,0.006157160
1640833437759889920,0.301099390,0.420733360,9.327563290,-0.028006740,0.044329470,0.008635220
1640833437760579840,-0.029903250,0.500372590,9.677960400,-0.015611950,-0.004592540,-0.002738830
1640833437764819968,-0.165714980,0.201364580,9.796283720,-0.053061550,-0.016398730,-0.008708240
1640833437765479936,0.035690450,0.176628520,9.372562410,-0.008559230,0.020135940,0.000278650
1640833437769899776,-0.328087270,0.186591640,9.951776500,0.010134280,0.016930700,-0.003047290
1640833437771929856,0.002765940,0.241441000,9.525013920,-0.050280990,0.044967240,0.036405030
1640833437775300096,0.083163510,0.174741490,9.590044980,-0.044354800,0.033120810,0.023736060
1640833437780809984,-0.043698860,0.082309030,9.989389420,-0.025719410,0.026565790,-0.004187230
1640833437781509888,0.108228830,0.166226800,9.548060420,0.011031330,-0.011952220,-0.001166760
1640833437781920000,-0.220897820,-0.096356920,9.703543660,0.020524860,-0.007572770,-0.016655030
1640833437784979712,-0.299401640,-0.117338080,9.618685720,0.011929870,0.023180250,-0.025428830
1640833437786720000,-0.443610640,0.002460170,9.658686640,0.008393820,-0.014442210,-0.017490980
1640833437789929984,-0.507480920,0.078809990,9.613116260,-0.017929080,-0.012667480,-0.007453560
1640833437790789888,-0.135576980,0.335855220,9.345797540,0.004167860,0.014440720,-0.003108380
1640833437794620160,-0.235572220,0.489487020,10.168528560,0.031968950,0.015561280,-0.000457470
1640833437795249920,0.126700730,0.621881780,9.808835980,0.002348420,0.004151460,0.022751090
1640833437799729920,0.294491560,0.400776890,9.842399600,0.009708100,0.002437830,0.015173850
1640833437801479936,-0.002273460,0.309301910,10.257777210,0.027254220,0.030016900,-0.009861590
1640833437805649920,-0.136232940,0.534517770,9.679884910,0.002311170,-0.065897410,-0.020709630
1640833437806649856,-0.411994580,0.430726260,9.484033580,-0.035241250,-0.101277230,-0.022643800
1640833437811669760,-0.304320810,0.524602890,9.090293880,-0.062361360,0.026826560,-0.019420680
1640833437813679872,-0.271281180,0.574288730,9.797762870,-0.037842990,0.020603840,-0.007285180
1640833437814599936,-0.178646060,0.371211680,10.409399030,-0.024555620,0.032140320,0.015984470
1640833437815340032,0.289420930,0.338278110,9.849240300,-0.022187830,0.009532270,0.022195280
1640833437823520000,0.005433140,0.149859310,10.504302020,-0.022190810,-0.037275250,0.004780290
1640833437824920064,0.027970470,0.219628390,9.644846920,-0.068813570,-0.046204030,0.008164350
1640833437825649920,0.140854150,0.190442730,8.890769000,-0.078290710,-0.063201790,-0.015948710
1640833437826370048,0.024407790,0.109730230,9.474288940,-0.050970910,0.060161960,-0.021202860
1640833437829519872,0.248772890,0.378443390,9.336038590,-0.031380360,0.098608460,0.008147950
1640833437830200064,0.011314320,0.051650050,10.446795460,-0.019493700,-0.014278290,0.030508640
1640833437835119872,0.099148480,-0.044772000,10.087526320,-0.010111930,0.004461410,0.041088450
1640833437836209920,0.001871290,0.018949830,9.541108130,-0.026422740,-0.055436790,0.012621280
1640833437839649792,-0.175219430,-0.289683280,9.750251770,-0.027962030,0.025594230,-0.005999210
1640833437840410112,0.128739250,-0.175019280,9.145153050,0.014291700,0.109218060,-0.051672760
1640833437847059968,-0.284135430,-0.003422430,10.115725520,0.050392750,0.007574260,-0.067129730
1640833437848989952,-0.236709460,0.248835850,9.654359820,0.007745620,0.004096330,-0.006426870
1640833437849629952,-0.143316670,0.310763960,9.001111030,-0.027324260,-0.038392850,0.011551380
1640833437850249984,-0.565017940,-0.065907310,10.169720650,0.016762320,0.006201860,0.029909610
1640833437855459840,-0.090635730,0.032790990,9.643351550,0.087785730,0.050590930,0.035651030
1640833437856169984,-0.053754420,-0.149405960,10.329285620,0.109411800,0.021694600,-0.007827580
1640833437863399936,0.113593500,0.018919000,10.264882090,0.054343050,0.081989170,-0.023159390
1640833437864829952,0.248462620,0.495569080,9.489830020,-0.005668400,-0.028292830,-0.031305850
1640833437865289984,-0.242944720,0.393835130,9.846011160,-0.025306650,-0.080476720,-0.028456750
1640833437865870080,-0.066184630,0.664016600,8.747772220,0.037336350,-0.001615290,-0.017473100
1640833437869959936,-0.422705020,0.783986990,9.664925580,0.085307640,-0.014449660,-0.020417570
1640833437872480000,-0.497516330,0.690591040,10.546934130,0.014805800,0.061526900,0.016509000
1640833437875259904,0.001848510,0.693620920,10.030063630,-0.039151310,0.031694770,0.018769500
1640833437876659968,-0.361662030,0.453784470,10.995122910,-0.048701470,-0.041730700,-0.006631020
1640833437879779840,0.012271030,0.614446040,9.488357540,-0.040213760,-0.032360850,0.007563830
1640833437880679936,0.151698170,0.513155880,8.666992190,-0.020150840,-0.068202620,-0.024150310
1640833437885319936,-0.057613250,0.311197250,9.581258770,-0.036841630,0.053253770,-0.029753150
1640833437887490048,0.203922140,0.551536980,9.421856880,-0.050185620,0.076390790,0.001442430
1640833437889989888,-0.174306780,0.199595630,10.707555770,-0.072209540,-0.063271820,0.012113160
1640833437893699840,-0.061812300,0.242738170,10.158805850,-0.080780680,-0.015974040,0.034756960
1640833437894469888,0.029531880,0.324339360,9.445589070,-0.053654610,-0.035363440,0.025866930
1640833437895149824,-0.238632290,-0.013726330,10.162958150,-0.054594870,0.012624260,0.008231400
1640833437899510016,0.335108880,0.212936030,8.971021650,-0.032483040,0.084726530,-0.014002620
1640833437900209920,0.215644630,0.285220210,9.655423160,-0.037270800,-0.003059210,-0.043593350
1640833437904859904,0.075662660,0.375630860,9.819583890,-0.110687320,0.045768920,-0.008895990
1640833437907059968,0.108275340,0.274107870,9.227451320,-0.090083480,-0.019598010,0.015062090
1640833437910709760,-0.569018840,-0.293731210,10.437064170,-0.008702280,-0.045031310,0.013306740
1640833437911650048,-0.492064570,-0.195548270,9.500622750,0.043122470,0.007750090,0.022326410
1640833437914479872,-0.342978120,-0.294317960,9.495587350,0.015237930,-0.028818840,-0.000317390
1640833437915209984,-0.129298140,-0.290089760,9.871437070,-0.065504020,0.123029960,-0.014530120
1640833437919849984,0.314356030,0.129556880,9.619717600,-0.053419170,0.075136120,-0.011892610
1640833437920869888,0.059225420,-0.042817390,10.408652310,0.017188490,-0.046747930,-0.016032160
1640833437924809984,0.109620350,0.070610190,9.295186040,0.073695180,-0.031116610,-0.002402070
1640833437927279872,-0.168011080,0.161616100,9.145907400,0.098079440,-0.072470310,0.006236140
1640833437929529856,-0.597659770,0.138059320,9.849460600,0.001077350,0.034837430,0.004233420
1640833437930199808,-0.280486110,0.377604690,9.576756480,-0.045318890,0.043208890,0.005072350
1640833437937280000,-0.422970060,0.363311530,10.699213980,0.019396840,-0.001648070,-0.019653140
1640833437938739968,-0.072606300,0.628123700,9.936611180,0.037196270,0.014917550,-0.011941790
1640833437941019904,0.184836210,0.606218460,9.553159710,0.053989890,-0.037910040,0.009714070
1640833437943939840,-0.028626060,0.222230700,9.954836850,0.033773490,0.023835900,0.009323660
1640833437944579840,0.045694410,0.297198120,9.328207020,0.017808380,-0.018030410,0.005665420
1640833437946080000,-0.263194380,0.250652460,9.886163710,0.006267430,-0.095458350,0.004667050
1640833437949949952,-0.132376910,0.197375150,9.511456490,-0.035163760,0.041526560,0.006058810
1640833437952189952,-0.078177030,0.325463890,9.920437810,0.016172230,0.017298760,0.015014410
1640833437955299840,-0.210487510,0.298350160,10.604675290,0.040444740,-0.004020330,0.033400960
1640833437955859968,0.361882900,0.445024670,9.204565050,0.007280710,0.007316470,0.022113320
1640833437959839744,0.191172480,0.402101870,9.894461630,-0.004930790,-0.006324050,0.012886530
1640833437960640000,0.080467280,0.377005900,9.714860920,-0.041189790,0.052066140,0.002032520
1640833437964560128,0.050196680,0.311760040,9.374296190,-0.008009370,-0.054566570,-0.007209180
1640833437965169920,-0.295505940,0.010507380,9.958132740,0.044059750,-0.014445190,-0.001451370
1640833437970830080,-0.168439950,0.158306260,9.052379610,0.018912550,0.036102530,0.008147950
1640833437972129792,-0.293426720,0.017885160,9.912093160,-0.006160140,-0.009824330,0.042580060
1640833437975929856,-0.080755750,-0.149817930,9.903761860,-0.013206900,0.081752250,0.047348440
1640833437977769728,0.204353450,-0.109677250,9.733881000,0.036309650,0.006520750,0.012043120
1640833437979529984,0.046230860,-0.196103840,10.353856090,0.081644970,-0.004753470,0.016838310
1640833437980259840,0.354063570,-0.230176120,9.099444390,0.069606310,0.045087940,-0.021497910
1640833437984939776,-0.054160130,-0.155294600,9.780865670,0.068695850,-0.016765300,-0.040635470
1640833437986359808,-0.313486430,0.255332530,9.660261150,0.041499730,0.020354990,-0.026327380
1640833437989639936,-0.263613220,0.473073070,9.057868960,0.005064910,-0.048218670,-0.015857820
1640833437990379776,-0.522908870,0.526082520,10.144686700,0.047148760,-0.002133850,0.006257000
1640833437994579968,-0.173713650,0.671686770,9.691472050,0.080718110,0.080451370,0.030964610
1640833437995190016,-0.260558070,0.209532540,10.624135020,0.113067050,-0.008147960,0.026433180
1640833438000569856,-0.174933580,0.152729380,10.404542920,0.103439390,0.025007130,0.018106400
1640833438003170048,0.012199870,0.196322840,9.192708020,0.039811440,-0.061175230,-0.000922380
1640833438004819968,-0.281290800,0.045688510,9.740521430,0.007514660,-0.063019980,-0.012175740
1640833438006870016,0.010124360,0.444060060,8.914325710,0.013577940,0.043404100,-0.032919650
1640833438013089792,-0.026916630,0.560064730,9.846928600,0.045900050,-0.020442900,-0.026817620
1640833438013739776,-0.028123500,0.705185000,10.591082570,0.055861480,0.067076090,0.022436680
1640833438014530048,0.266943220,0.790817500,9.818504330,0.018531080,0.007691980,0.028108060
1640833438015309824,-0.060094300,0.517632600,10.625640870,-0.000865760,-0.058925150,0.047147270
1640833438023160064,0.003753000,0.654184460,9.339186670,-0.023491680,0.013224780,0.027149920
1640833438025979904,0.010838290,0.393059700,9.049571990,-0.032563510,-0.047449760,-0.016607340
1640833438028299776,-0.094958080,0.251478340,9.677509310,-0.009253620,0.060522560,-0.034660100
1640833438028699904,0.249661130,0.475021840,9.168845180,-0.009673830,0.094889090,-0.034603480
1640833438029489920,-0.057311260,0.119287450,10.572847370,-0.028951470,0.001415610,0.020773710
1640833438030190080,0.015528340,0.056901310,10.036540030,-0.029738250,0.030183800,0.053502630
1640833438035599872,-0.001345840,-0.183376540,9.604729650,-0.010305640,-0.054077800,0.047455730
1640833438037999872,-0.228103970,-0.468438450,10.022083280,0.033083560,0.020515920,0.041972100
1640833438039719936,0.202820540,-0.253288480,9.017668720,0.047948950,0.092986210,-0.022007530
1640833438041049856,0.100956420,-0.044213720,10.009370800,0.027619300,0.053188200,-0.051984190
1640833438047539968,0.115125710,0.444651990,9.744233130,-0.032281880,0.081390150,-0.023944680
1640833438048270080,0.109463220,0.561551630,9.479422570,-0.035400690,-0.021223720,-0.010621550
1640833438049819904,-0.444290970,0.212543040,10.128153800,0.046321750,-0.023294990,0.026935340
1640833438052300032,-0.380567550,0.191061230,9.090963360,0.120371590,0.029380620,0.029948350
1640833438055019776,-0.458080590,0.055147530,9.963085170,0.092762710,0.013272470,0.013436380
1640833438056380160,-0.245812360,0.098706660,10.100470540,-0.013400620,0.133293870,0.029326980
1640833438060009984,0.225722820,0.209252570,9.837973590,-0.038447970,0.060009950,-0.004240870
1640833438061969920,-0.050251870,0.019219610,10.631142620,0.040277830,0.001756850,-0.003989040
1640833438064699904,0.098631170,0.230768740,9.124025340,0.115862510,-0.012010340,-0.004123150
1640833438066180096,-0.087784690,0.294447540,9.305011750,0.113837420,-0.062459710,-0.004859270
1640833438069999872,-0.437405050,0.403263570,9.701628680,0.001336630,0.084568550,0.016184150
1640833438071589888,-0.187002260,0.514649270,9.668882370,-0.044387580,0.042676930,0.010661780
1640833438075140096,-0.334928750,0.446962300,10.967019080,0.008711220,0.006024540,0.005294380
1640833438076069888,-0.000433140,0.671357750,9.782920840,0.054380300,0.044143200,0.015863780
1640833438079639808,0.233256680,0.603764060,9.671563150,0.064599520,-0.027789180,0.012846290
1640833438080309760,0.027235420,0.443882230,9.909196850,0.007489320,0.071574740,0.004439060
1640833438084569856,0.157538710,0.483025760,9.187393190,-0.037403410,0.019004940,0.009085240
1640833438086429952,-0.146021930,0.223780840,10.139534950,-0.028406090,-0.032462180,0.016267600
1640833438089900032,-0.188810540,0.209295300,9.460072520,-0.020591910,0.039279460,0.007979570
1640833438091769856,-0.017888520,0.304024190,9.561522480,0.013625620,-0.000040230,0.020736460
1640833438094879744,-0.137818960,0.162892760,10.363961220,0.002332030,0.099207460,0.030243400
1640833438098779904,0.175560340,0.195987020,9.626038550,-0.021107490,0.060103830,0.021879370
1640833438099500032,0.164635230,0.329526340,10.152523990,-0.006973740,-0.016270580,0.013895330
1640833438100270080,0.072683040,0.187332880,9.484095570,-0.040389590,0.066880890,0.003001090
1640833438104620032,0.111129220,0.095628860,9.218530650,0.004398820,-0.000031290,-0.018256900
1640833438105440000,-0.290120010,0.072706750,9.916402820,0.041428210,0.045025350,-0.025865440
1640833438109639936,-0.161981240,0.160545510,9.081656460,-0.017091630,0.074850020,-0.012254720
1640833438110380032,-0.203107970,0.078940030,10.105845450,-0.011025370,0.021827220,0.019662080
1640833438114650112,-0.264514090,-0.003685560,10.153293610,-0.004239380,0.090423230,0.015570220
1640833438115200000,-0.046963730,-0.006883130,9.729601860,0.038844350,-0.000220540,0.034660100
1640833438119670016,-0.187256660,-0.224655840,10.173325540,0.092455750,0.024242700,0.031803550
1640833438120989952,0.028562880,-0.299448100,9.060089110,0.069673370,0.078095500,-0.014480950
1640833438125039872,-0.072870530,-0.013774540,9.682236670,0.052358210,0.016933680,-0.020110610
1640833438126739968,-0.327025770,0.180060240,9.911276820,0.011543930,0.056931380,-0.028438870
1640833438129760000,-0.167588070,0.304608400,9.366768840,0.021877880,-0.038759400,-0.030453500
1640833438131330048,-0.324175360,0.683543260,10.208487510,0.084115570,-0.022172930,-0.019337240
1640833438134820096,-0.101622540,0.765475330,9.570084570,0.056290640,0.102175790,0.011543930
1640833438136899840,-0.021913110,0.526255790,10.356131550,0.051496930,0.025014580,0.041939330
1640833438140239872,-0.135015040,0.457390340,10.543383600,0.058309730,0.045195230,0.026622410
1640833438142439936,0.022556740,0.400987740,9.286728860,0.006593760,-0.035004320,0.012168290
1640833438144640000,-0.244193990,0.301416750,9.718760490,0.017689170,-0.065630660,0.011986490
1640833438146380032,-0.285088450,0.381062950,9.106512070,0.001150370,0.038145490,-0.038844350
1640833438149550080,-0.083311880,0.644691650,9.465103150,-0.021274390,0.000907480,-0.006692110
1640833438151089920,-0.178192600,0.670281110,10.633501050,-0.021271410,0.075557840,0.018599630
1640833438154779904,0.092222830,0.514676630,10.256618500,-0.030510130,0.038225940,0.008656080
1640833438155609856,0.046741790,0.567712070,10.477421760,0.000259280,-0.069031100,0.044564900
1640833438159629824,-0.026595780,0.384579510,9.543659210,-0.032086670,-0.004610420,0.015562770
1640833438160280064,0.255918890,0.162269290,8.775818820,-0.071498760,0.011414290,-0.013451280
1640833438164589824,0.066147020,0.267548710,9.664342880,-0.041766480,0.068400800,-0.018751630
1640833438170830080,0.188480150,0.211050360,9.497661590,-0.062337530,0.083436080,-0.021417440
1640833438171419904,0.140322400,0.099495260,10.111506460,-0.038692360,-0.007124250,0.023250280
1640833438172169984,-0.290663870,-0.054668840,10.366776470,-0.004419680,0.004209580,0.043547150
1640833438176999680,-0.286123450,-0.256928240,9.745217320,-0.015643240,-0.031659010,0.046052040
1640833438179109888,-0.358486980,-0.261655600,9.785964970,0.004315380,0.000403820,0.031684340
1640833438179999744,-0.213889610,-0.222730030,9.456144330,-0.006055830,0.097508740,-0.032338490
1640833438180529920,0.065205260,0.064023600,9.647022250,-0.008618830,0.050455340,-0.045304000
1640833438184859904,-0.071786750,0.398123590,9.934587480,-0.003130730,0.038586560,-0.030131640
1640833438186939904,0.015002220,0.248804930,9.674255370,0.002323090,-0.015224520,-0.017465650
1640833438189920000,-0.300538600,0.319342460,10.028802870,0.053654610,-0.064137580,0.016474730
1640833438191089920,-0.328693450,0.327068210,9.557231900,0.043615690,0.003664200,0.029768050
1640833438194649856,-0.051047030,0.076211230,9.756348610,-0.001549720,0.064264240,0.022061170
1640833438195200000,-0.167175680,0.178181560,10.591563220,0.013802940,0.092978770,0.008401270
1640833438199630080,-0.076403110,0.359518710,10.256830220,0.004646180,-0.006562470,-0.023527440
1640833438200359936,-0.087227640,0.383548620,9.795091630,0.003483890,-0.087612870,-0.014385580
1640833438204800000,-0.353955270,0.423387110,9.192052840,0.013284390,-0.046092280,-0.031228360
1640833438205519872,-0.205961270,0.633548860,9.222748760,-0.015833980,-0.003165010,-0.021846590
1640833438211389952,-0.303355370,0.616039870,10.156631470,-0.042165820,0.070559990,0.015482310
1640833438214109952,-0.141625270,0.522209050,10.550616260,-0.037634370,0.040294220,0.011572240
1640833438215960064,0.037542380,0.593746360,10.686858180,-0.027143960,-0.040601200,0.014351310
1640833438217069824,-0.070424150,0.456044500,9.841283800,-0.033691530,-0.064861780,0.021195410
1640833438220290048,0.232092250,0.240049170,8.953330990,-0.058445330,-0.032673770,-0.010742250
1640833438221649920,0.206028160,0.124547920,9.163810730,-0.045566260,0.055448710,-0.020898880
1640833438225080064,0.194520530,-0.221880020,9.545228960,-0.022988020,0.071331870,0.003108380
1640833438225900032,0.348113890,-0.665877880,10.267578120,0.031925740,0.018756090,0.008606910
1640833438229499904,-0.110460330,-1.087181690,10.434414860,0.095756350,-0.011202690,0.024519860
1640833438230180096,-0.002836110,-1.205623630,9.761073110,0.117205110,-0.049139560,0.033575300
1640833438235249920,-0.058818020,-1.051109430,9.703075410,0.085733830,0.038741530,0.007610020
1640833438236349696,0.000274170,-0.596292380,9.444537160,0.077179070,0.101442640,-0.011347230
1640833438239739904,0.281196770,0.144567850,9.762186050,0.126801450,0.057844830,-0.019186740
1640833438240519936,0.026211880,0.572285770,9.955510140,0.133772210,0.056830060,-0.004474820
1640833438247629824,-0.077926020,0.749311570,9.578207020,0.162035240,-0.017154220,0.019985440
1640833438248090112,-0.477414580,0.620619890,10.033034320,0.201416030,-0.041386490,0.030671060
1640833438250180096,-0.645812930,0.374052850,9.494370460,0.162740050,0.031091280,0.028024610
1640833438250999808,-0.261805590,0.246069240,9.706003190,0.143057140,0.036537650,0.019943720
1640833438254639872,-0.141970200,0.055229110,10.318984030,0.121833400,0.149372230,-0.006817280
1640833438255349760,0.143716870,-0.053414000,10.119408610,0.139193250,0.049769890,0.002846120
1640833438259670016,0.143599910,-0.213086200,10.229245190,0.219477730,-0.056049230,0.026582180
1640833438260519936,-0.115633290,-0.437290280,9.241775510,0.224903270,-0.025863950,0.001645090
1640833438264740096,-0.171648060,0.124392100,9.214161870,0.183133750,-0.048562880,0.010721390
1640833438265590016,-0.537611480,0.511691630,10.081852910,0.087900460,0.061710190,0.017338990
1640833438269879808,-0.262507110,0.701919730,10.031029700,0.059407950,0.046688310,-0.003229080
1640833438270989824,-0.155913220,1.254196410,10.887376790,0.165325420,0.002010170,0.004334750
1640833438274789888,-0.085354180,1.214940670,10.210175510,0.178535280,0.021992630,0.017949940
1640833438276099840,0.365414200,1.026679990,9.286938670,0.137861090,-0.030410290,0.036919120
1640833438279579904,0.158356610,0.780265930,9.641611100,0.083954630,0.050689280,0.039213900
1640833438280949760,0.121650310,0.160480340,9.376358030,0.031469770,0.056855380,0.031755860
1640833438285449984,0.054492310,-0.101705570,9.967543600,0.091192130,-0.030484800,0.026775900
1640833438287559936,-0.290732980,-0.350346830,10.077156070,0.135399420,0.019589060,-0.006020070
1640833438290220032,-0.183940980,-0.274720550,9.700110440,0.107938060,-0.000840430,0.005108120
1640833438293120000,-0.343584660,0.063719690,10.185902600,0.083777310,0.027243790,0.017145280
1640833438294620160,-0.181439120,0.128296930,9.731908800,0.038437550,0.061064970,-0.003257390
1640833438295199744,0.234122160,0.658305760,9.520985600,0.072258710,0.022827090,0.012095270
1640833438299820032,0.081411010,0.684557740,10.011416440,0.112020970,0.067140170,0.018961730
1640833438301990144,0.224938810,0.280580340,9.684598920,0.128668560,0.023844840,0.011436640
1640833438304750080,-0.088231040,0.319073200,9.920399670,0.169147540,-0.016213950,0.021220740
1640833438306999808,-0.360353050,0.020377840,9.687692640,0.083142520,0.001063940,0.013232230
1640833438309589760,-0.006754780,-0.008195390,9.296846390,0.027956070,0.021599240,0.011466440
1640833438310190080,-0.206318540,0.050411190,10.178312300,0.075523540,0.105769930,0.002045930
1640833438314560000,-0.021235290,-0.210452650,10.288521770,0.140608850,0.088135910,0.015239420
1640833438315389952,-0.188589440,-0.139733780,10.269865040,0.222085460,-0.027255720,0.024400660
1640833438319609856,-0.539081160,-0.065287170,9.705009460,0.181101230,-0.068384400,0.006389620
1640833438320289792,-0.421201830,0.164342270,8.983649250,0.057284540,-0.018468500,0.006842610
1640833438325199872,-0.677165510,0.560423730,9.832814220,0.039334600,0.021886820,-0.009585920
1640833438327399936,-0.345870440,0.698314730,10.278319360,0.092881930,0.054287910,-0.045819580
1640833438329569792,0.116696700,1.117843630,10.287279130,0.163055970,0.032195450,-0.009873510
1640833438330259968,0.101697830,1.102841730,10.685031890,0.139570240,0.008815530,0.031559170
1640833438335269888,0.507720590,0.673418700,9.800417900,0.051984190,0.014008580,0.045888120
1640833438339639808,0.260411470,0.473070830,9.590141300,0.041696430,-0.037194790,0.051362810
1640833438340000000,-0.040309120,0.030305080,9.650142670,0.058060880,-0.002223250,0.020301340
1640833438340379904,-0.038750210,-0.020229050,9.386251450,0.075532500,0.006689130,-0.014369190
1640833438345819904,-0.511311650,0.204954640,10.207944870,0.078701970,-0.017856060,-0.015291570
1640833438346390016,-0.330052550,0.281900290,10.098559380,0.011247400,0.040124350,0.002744790
1640833438349979904,-0.264020530,0.402701080,10.091662410,0.013269490,0.006879870,0.016731020
1640833438351769856,-0.417174220,0.503528830,10.445597650,0.056344270,-0.019232930,0.007188320
1640833438354929920,0.027472140,0.632233440,9.389192580,0.056189300,-0.002425910,0.009457770
1640833438356039936,-0.103388260,0.468185690,9.643244740,0.061084330,-0.022560360,0.010605160
1640833438359649792,0.142092000,0.305984020,9.546911240,0.030605490,0.033707910,0.016053020
1640833438360250112,0.472578230,0.202929680,9.342983250,0.017488000,0.055284800,0.013001260
1640833438364640000,0.185122220,-0.010556200,10.441713330,0.041407340,0.031410150,0.017769640
1640833438365619968,0.453490940,0.105581340,9.892561910,0.033663220,0.021474060,0.005599860
1640833438369789952,0.156879450,-0.025693520,9.924083710,0.037315490,-0.007207690,-0.000281630
1640833438377179904,-0.194745970,-0.266501100,10.049040790,0.069057950,0.043164200,0.018028910
1640833438377920000,-0.269651590,-0.299003010,9.464581490,0.103475170,0.015471880,-0.018967690
1640833438378379776,-0.782728310,-0.181013510,9.817295070,0.108368700,-0.029937920,-0.022085010
1640833438379520000,-0.631762800,0.278995040,9.287623410,0.054262580,0.015543400,-0.014275310
1640833438380260096,-0.537880300,0.521369580,9.675876620,0.020077820,-0.005309280,-0.040707000
1640833438384860160,-0.330974460,0.760942400,10.282681470,0.033520170,0.032600760,-0.011597570
1640833438386710016,0.305165770,0.736148120,10.098595620,0.088867550,0.066654390,0.002093610
1640833438389619712,0.152124810,0.220257130,10.884799000,0.151371960,0.020758810,0.000905990
1640833438391369728,0.257828000,0.227386460,9.967573170,0.137729940,-0.032742320,0.015625360
1640833438394479872,0.118039320,0.147565660,9.091655730,0.031320750,-0.087764870,0.000585620
1640833438395209984,-0.310811520,0.021701110,9.387498860,-0.030761960,-0.021475550,-0.007943810
1640833438401489920,-0.132778530,0.411896050,9.255284310,0.004033740,0.024323170,-0.035412610
1640833438404009728,-0.248811480,0.412270670,10.446029660,0.073839710,0.022529060,-0.028572980
1640833438406249984,-0.115492580,0.589752910,10.755721090,0.106130540,0.067855410,0.006809830
1640833438406919936,-0.060901800,0.749585330,10.529957770,0.060844430,-0.032481550,-0.006635490
1640833438409910016,-0.421164870,0.685816940,10.375087740,-0.029057270,-0.082279740,0.025048850
1640833438412229888,-0.187932890,0.723900850,8.758291240,-0.050553690,-0.053069010,0.026801230
1640833438414670080,-0.254159750,0.370783980,9.103579520,0.014650820,-0.024101140,-0.025425850
1640833438419409920,-0.060388840,0.522692800,9.556696890,0.046549730,0.086559360,-0.011880690
1640833438421079808,0.364358870,0.641287980,9.950275420,0.005590910,0.056691460,0.006966290
1640833438425079808,0.296953650,0.258196090,11.174634930,-0.067579730,0.018842510,0.017164650
1640833438426820096,0.455279140,0.373228790,10.219884870,-0.076849760,-0.004601480,0.021944940
1640833438427239936,0.166326340,-0.031636470,9.950537680,-0.023423130,-0.080008790,-0.000561770
1640833438429499904,-0.087587510,-0.320668190,9.403758050,0.042387850,0.024124980,-0.010459130
1640833438430240000,0.001537080,-0.062629460,8.693848610,0.062936550,0.052888700,-0.027699770
1640833438435149824,-0.425781400,0.002498970,10.025594710,-0.024935610,0.040961810,-0.016187140
1640833438437520128,-0.303553580,0.170043450,9.711634640,-0.089435280,0.049704320,0.022508210
1640833438439980032,-0.314869640,0.249274940,10.130533220,-0.027963520,-0.056025390,-0.013475120
1640833438441069824,-0.472611010,0.213625100,10.625028610,0.055409960,0.010481480,-0.002969800
1640833438446539776,-0.009439420,0.278571490,9.384156230,0.092874460,0.028237700,-0.004532930
1640833438447500032,-0.088435390,-0.008183970,10.166544910,0.065565110,0.026303540,-0.043897330
1640833438450389760,0.061052680,0.119777830,9.500702860,-0.005556640,0.084832310,-0.020155310
1640833438451979776,0.050716490,0.113722910,9.263489720,-0.003758070,-0.078791400,-0.006724890
1640833438457100032,-0.261722650,-0.192866520,9.926743510,0.036343930,-0.047743320,-0.017763670
1640833438457860096,-0.112565580,0.129651040,9.177641870,0.095306340,0.002683700,-0.000727180
1640833438460000000,-0.284523370,0.114814130,10.568174360,0.101314510,-0.010535120,0.004380940
1640833438461390080,-0.250209270,0.102722170,10.823347090,0.036908690,0.096899280,-0.006051360
1640833438464539904,-0.099645930,0.481142370,10.190298080,0.031848260,-0.043325130,-0.019773840
1640833438465430016,-0.487918730,0.606322170,10.439302440,0.023518500,-0.098775330,-0.034089380
1640833438469920000,-0.231000360,0.911226210,8.463114740,0.013254580,-0.051559500,-0.037828080
1640833438470959872,-0.343474600,1.023316140,9.093252180,0.037442150,-0.079694400,-0.033627450
1640833438474959872,-0.311002730,0.942193930,10.008279800,-0.014849010,0.069388750,-0.005878510
1640833438478720000,0.158820500,0.770633100,10.092449190,-0.033864370,0.013805930,0.028134880
1640833438480339968,-0.033007550,0.333052810,11.599002840,-0.007058680,-0.051781540,0.023867190
1640833438480759808,0.167189670,0.206449090,10.212153430,-0.021708010,-0.028198960,0.022928420
1640833438484669952,0.076475210,0.024108950,9.451517110,-0.010705000,-0.142395500,-0.007902090
1640833438485519872,-0.078774620,-0.083734880,9.295547490,-0.048448150,-0.019298500,-0.045032810
1640833438489719808,0.307909370,0.173738550,8.340289120,-0.056970120,0.064921380,-0.044690080
1640833438490969856,0.027197580,0.424478200,10.313829420,-0.040794910,0.017680230,-0.008527930
1640833438495119872,-0.072168260,0.380532830,10.686702730,-0.065472730,0.038670000,0.009411570
1640833438496239872,-0.105082940,0.346758040,10.243001940,-0.012013320,-0.135210170,0.021384660
1640833438499630080,-0.471841160,0.279783460,10.346213340,0.003100930,-0.089907650,0.017261510
1640833438500239872,-0.077391710,0.197112800,8.773055080,-0.046652560,0.050115590,-0.009222330
1640833438504699904,-0.035330930,0.232269870,9.769326210,-0.043690200,0.024849180,-0.038157400
1640833438505420032,0.015319370,0.298465190,10.000959400,-0.057719640,0.085540100,-0.040015570
1640833438509559808,0.246845650,0.132306010,9.449720380,-0.033013520,-0.075934830,-0.020484630
1640833438510249728,-0.212679710,-0.103025010,10.217060090,0.029326980,-0.099658970,-0.004498660
1640833438514799872,-0.252565740,-0.147019160,9.321170810,0.014802810,-0.009503960,-0.005593890
1640833438515480064,-0.319603230,-0.181214810,10.027459140,-0.002793970,-0.035668910,0.007082520
1640833438519640064,-0.329053340,-0.016774480,10.544243810,-0.036379710,0.059278320,-0.024679310
1640833438520519936,0.210606870,0.328345570,9.729526520,-0.027036670,0.022655730,-0.040474530
1640833438524889856,-0.075584810,0.645055710,10.521389010,0.023569170,-0.044472520,-0.019542880
1640833438526199808,-0.089449820,0.781403300,9.427816390,-0.015947220,-0.049653660,-0.032132870
1640833438529749760,-0.062085740,0.812012970,9.072028160,-0.024855140,-0.120690490,-0.010256470
1640833438531599872,-0.415310740,0.853311840,9.920588490,-0.043305760,0.017289820,0.006599720
1640833438535009792,-0.115114890,0.676186080,9.903524400,-0.091251740,0.048752130,0.005042550
1640833438537669888,-0.179957080,0.511644420,11.096425060,-0.058642030,-0.036451220,0.021238630
1640833438539520000,-0.159534530,0.458813850,10.434711460,-0.050845750,-0.032752750,-0.004154440
1640833438540349952,0.237452540,0.194159550,9.306215290,-0.069062410,-0.089676680,-0.001384320
1640833438544800000,-0.012666860,0.122322540,9.569377900,-0.061705710,-0.012457370,-0.002837180
1640833438546049792,0.059106740,0.067377110,9.185182570,-0.085575890,0.020699200,-0.027573110
1640833438549890048,0.042963860,0.119867440,10.012896540,-0.076563660,-0.040011110,0.002065300
1640833438551509760,-0.260557800,0.225496800,10.336770060,-0.081305210,-0.013181570,0.005349520
1640833438554630144,-0.105258890,0.129486690,9.959095000,-0.079262260,-0.057947650,0.007948280
1640833438555680000,-0.259383680,0.214123930,10.195814130,-0.042575590,-0.036691120,0.019294020
1640833438559629824,-0.146464600,0.255227090,9.462839130,-0.049424170,0.004340710,-0.013569000
1640833438561110016,0.223035690,0.320076940,9.567603110,-0.073656450,-0.004489720,-0.006207820
1640833438564519936,0.140879170,0.395608840,9.819338800,-0.082582240,0.050619250,0.012503570
1640833438565349888,0.229538320,0.041833620,9.756525990,-0.073346500,-0.018636880,-0.006908180
1640833438569519872,-0.056399300,-0.223267420,10.165807720,-0.000213090,-0.062893340,-0.006410480
1640833438570240000,-0.376542930,-0.195952620,9.500174520,0.012585520,-0.049504640,-0.016066430
1640833438574550016,-0.334932770,-0.291338890,9.678345680,-0.031358000,-0.048229110,-0.023145970
1640833438575229952,-0.374419840,0.000269920,9.963965420,-0.055736300,0.045037270,-0.017739830
1640833438579589888,-0.077463600,0.251692150,9.920247080,-0.063191350,0.014369190,-0.004224480
1640833438580269824,0.093865570,0.200880080,10.614313130,0.002464650,0.009626150,0.022372600
1640833438584489728,-0.062285880,0.349033300,10.023684500,0.069931160,-0.019221010,0.002422930
1640833438585189888,-0.165378600,0.406293630,9.710343360,0.040082630,-0.131419320,-0.006887320
1640833438589479936,-0.421694580,0.488679020,9.411665920,-0.047245630,-0.049898030,0.006942450
1640833438590269952,-0.273379650,0.642843840,9.185435300,-0.102894030,-0.013993680,-0.020024180
1640833438594739968,-0.110597470,0.727579830,10.442278860,-0.069822370,0.010870400,-0.011669100
1640833438595510016,0.108996610,0.776650970,10.324272160,-0.023564700,0.059407950,0.011818110
1640833438599559936,0.286079470,0.509757640,10.427406310,0.008982420,-0.055360810,0.009574000
1640833438600279808,0.108174440,0.361974780,10.324479100,-0.022578240,-0.051382180,0.020776690
1640833438605399808,-0.019441880,0.169045450,9.092315670,-0.097544490,-0.068506610,0.013141330
1640833438605870080,-0.208322960,-0.091938610,9.554223060,-0.102521480,-0.073820360,-0.010260940
1640833438611820032,-0.188096030,-0.043191310,9.364470480,-0.051751740,0.044997030,-0.025814770
1640833438612959744,0.009980720,0.140245560,9.676761630,-0.020399690,0.020991270,-0.022314490
1640833438614529792,-0.027899260,0.247338920,10.741944310,-0.033178930,0.028936570,0.006282330
1640833438615239936,0.080171450,0.309446930,10.018871310,-0.070291740,-0.014641880,0.030814110
1640833438621789952,0.128769250,0.333198640,9.932220460,-0.059902680,-0.095704200,0.037172440
1640833438622169856,0.016154900,0.140849160,9.474419590,-0.044353310,0.026217100,0.025719410
1640833438624559872,0.182557150,-0.030209110,9.127194400,0.004187230,0.040256980,-0.009411570
1640833438625669888,-0.144112040,-0.006554130,10.200260160,0.028334560,0.020831830,-0.046823920
1640833438629469952,-0.203254000,0.109756650,9.618934630,-0.033380090,0.024443870,-0.037808720
1640833438630249984,-0.236915080,0.161275940,9.802070620,-0.055220730,-0.096684700,-0.003626940
1640833438634889728,-0.502203820,0.192225220,10.043231960,-0.038874150,-0.021810830,0.003767010
1640833438635459840,-0.191617800,0.218823670,9.448949810,-0.002372260,0.007182360,0.036314130
1640833438639539968,-0.222053800,0.015179120,10.562052730,0.060911470,0.014588240,0.030009450
1640833438640280064,0.016376640,-0.048972320,10.119954110,0.052952770,0.062099100,-0.006268920
1640833438644589824,0.187977970,0.203674150,9.899483680,0.013378260,-0.052455070,-0.003905590
1640833438645249792,-0.262628670,0.391404810,10.070746420,-0.039900840,-0.057323280,-0.023810570
1640833438649519872,-0.061415740,0.569427190,8.853610040,-0.064070520,-0.073187060,-0.040267410
1640833438650560000,-0.165854900,0.954371870,9.550055500,-0.013980270,-0.042629240,-0.013956430
1640833438655289856,-0.239856910,0.790178660,10.127532010,-0.011233990,0.098556290,0.007049740
1640833438655739904,-0.004424970,0.662837090,10.589514730,0.008003420,0.019072000,0.037136680
1640833438659479808,-0.320891380,0.593219160,11.106988910,-0.017865000,-0.073952980,0.043569510
1640833438660310016,-0.089472900,0.233562410,9.410945890,-0.101064160,-0.081025080,0.031626230
1640833438664499968,0.058768890,0.125725580,9.041636470,-0.078202790,-0.055216260,0.007234510
1640833438665199872,-0.155995880,0.089234200,9.474949840,-0.045911970,0.060719260,-0.038772830
1640833438669560064,0.264691500,0.260703500,9.387256620,-0.041913980,0.024220350,-0.025324520
1640833438670339840,0.045693990,0.293476700,10.423627850,-0.037874290,-0.009360910,0.010168550
1640833438674759936,-0.115816110,0.097517000,10.278587340,-0.076363970,-0.031675390,0.017519290
1640833438675249920,-0.016513300,0.156430710,9.866729740,-0.057901450,-0.088569520,0.045397880
1640833438679539968,-0.329637710,-0.103741440,9.843511580,-0.033260880,-0.005351010,0.002875920
1640833438680239872,0.088068200,-0.104552220,9.234807970,-0.008085370,0.051690650,-0.036719450
1640833438684640000,0.142580520,0.353314670,9.795438770,-0.001376870,0.047211340,-0.033657260
1640833438685309952,-0.052200340,0.382427330,9.962409970,-0.083522490,0.018011030,-0.015568730
1640833438689629952,0.038630960,0.319327860,9.692542080,-0.074598200,-0.084549190,0.025905670
1640833438690929920,-0.468469890,0.135846440,9.809895520,0.010295210,-0.045125190,0.019779800
1640833438694589952,-0.446628510,-0.022594900,9.567916870,0.027351090,-0.020481650,0.002363320
1640833438695319808,-0.299230690,0.158375840,9.948778150,0.019547350,0.022247430,0.003908570
1640833438700039936,-0.249327210,0.203057840,10.280806540,-0.054021190,0.053618850,-0.034546850
1640833438701169920,0.165047170,0.526856540,10.141973500,-0.092758240,-0.011502210,-0.020818410
1640833438705039872,0.087016520,0.626005530,9.962519650,-0.048758100,-0.039531290,-0.000888110
1640833438705910016,0.102146180,0.393174260,9.518006320,0.001907350,-0.051222740,-0.025483970
1640833438709619968,-0.024000360,0.620998980,9.643374440,0.025296210,-0.032316150,0.002679230
1640833438710399744,-0.418481320,0.433642800,9.832871440,-0.043764710,-0.006476050,0.015291570
1640833438714560000,-0.157026450,0.178737860,9.896670340,-0.102922340,-0.016298890,0.022184850
1640833438715449856,-0.204831620,0.318314140,10.234938620,-0.065964470,0.012770300,0.028216840
1640833438720229888,-0.151590170,0.252221200,10.026605610,-0.047484030,-0.020705170,0.021843610
1640833438720710144,0.237537220,0.294998740,9.619077680,-0.031319260,-0.026224560,0.010721390
1640833438724459776,0.034500740,0.286338690,9.635219570,-0.034253300,0.026229020,-0.006133320
1640833438725240064,0.080469410,0.157828670,9.732359890,-0.064863270,-0.010922550,-0.000885130
1640833438729499904,-0.075703040,0.043929480,9.944777490,-0.040349360,-0.028499970,0.013996660
1640833438730279936,-0.242799150,-0.102244440,9.647801400,-0.020670890,-0.034104290,-0.001229350
1640833438734680064,-0.176718370,-0.013977750,9.628252030,-0.013531750,-0.022192300,0.007677080
1640833438735239936,-0.258947220,0.149507210,9.789506910,-0.021690130,0.033426290,0.001895430
1640833438739859712,-0.007426320,0.252450940,9.903226850,-0.054346030,-0.000694390,-0.007674100
1640833438740710144,0.116322050,0.438499930,10.059547420,-0.023497640,-0.006791950,0.015999380
1640833438744819968,0.127767730,0.295540750,9.696256640,-0.009335580,0.016142430,0.028340520
1640833438745389824,0.116131620,0.063082270,9.832393650,0.019930300,-0.010244550,0.015318390
1640833438749829888,-0.366946370,-0.092946160,10.002795220,0.050714610,-0.015844410,-0.003576280
1640833438750419968,-0.447437350,-0.041606430,9.493947030,0.008714200,-0.078649830,-0.016483660
1640833438754949888,-0.474009390,0.217564060,9.652490620,-0.040641430,-0.052233050,-0.011408330
1640833438755980032,-0.362576040,0.472258600,9.744803430,-0.051791970,0.048823670,-0.003057720
1640833438759470080,-0.010862880,0.747040870,10.286994930,-0.030456490,0.031386320,0.015732650
1640833438760239872,-0.065078780,0.713407700,10.736411090,0.010490420,-0.001509490,0.026057660
1640833438764469760,0.200373010,0.595648770,9.880973820,0.020615750,-0.053460890,0.013814860
1640833438765379840,0.033468880,0.585703970,9.756110190,-0.011265280,-0.074435780,0.006328520
1640833438771529984,-0.231730800,0.394123850,9.537584300,-0.076097250,-0.024572020,0.004383920
1640833438772480000,0.066659690,0.454584180,9.169549940,-0.098690400,-0.023284550,-0.004765390
1640833438774479872,0.004998550,0.477788030,9.908027650,-0.075905030,0.045792760,0.014536080
1640833438775269888,0.137861770,0.307050170,10.243309970,-0.046066940,0.072018790,0.044834610
1640833438779549952,0.087539050,0.173583630,10.557065960,-0.019603970,-0.047476590,0.046502050
1640833438780279808,-0.218884390,-0.073014350,10.263192180,-0.027349590,-0.071845960,0.032073260
1640833438784679936,0.028761040,-0.157994290,9.130224230,-0.050067910,-0.030815610,0.025850540
1640833438785499904,-0.193370340,-0.207362440,9.577505110,-0.052081050,0.022593140,-0.029946870
1640833438789659904,-0.022258180,-0.008468610,9.592760090,-0.045825530,0.085860480,-0.046873090
1640833438790360064,0.214595750,0.398574680,9.765991210,-0.015911460,0.030061600,-0.010007620
1640833438794649856,-0.171076030,0.340417210,10.343708040,-0.024880470,-0.024725490,0.020542740
1640833438795279872,-0.028792010,0.292464260,9.666193010,-0.018335880,-0.051942480,0.056310010
1640833438799569920,-0.335749950,0.142340300,9.830298420,0.009082260,-0.048749150,0.058789550
1640833438800359936,-0.270439920,-0.253809150,9.793992040,0.011809170,0.061126050,0.029890240
1640833438805189888,0.146369160,-0.076744500,9.813748360,0.039823350,0.073511900,-0.007918480
1640833438806190080,-0.172517580,0.044921250,10.446116450,0.016155840,0.030826030,-0.031170250
1640833438809639936,0.098164070,0.194852870,9.725403790,-0.028310720,-0.030629340,-0.009046500
1640833438810419968,-0.150925590,0.307003830,9.539773940,0.011171400,-0.076703730,-0.000181790
1640833438814489856,-0.500798050,0.257686350,9.633131030,0.036516790,-0.029329960,0.004981460
1640833438816480000,-0.223837180,0.496789810,9.568445210,0.052744150,0.024448340,0.040711460
1640833438819609856,-0.499709430,0.528786000,10.554858210,0.019711260,0.025285790,0.025333470
1640833438820339968,-0.035940970,0.676115810,10.305079460,-0.048829620,0.024674830,0.030849880
1640833438824470016,0.185873430,0.854534860,10.049324040,-0.056591640,-0.007279220,0.029841070
1640833438825219840,0.033034470,0.549996850,10.007164960,-0.034542390,-0.021347400,-0.010128320
1640833438829540096,0.346264120,0.559903560,9.185377120,0.022010510,-0.021651390,-0.016760830
1640833438830329856,0.014819610,0.554403780,9.436513900,0.007946790,0.000064070,-0.010445710
1640833438834800128,-0.106912370,0.183417080,9.929975510,-0.086423750,0.047795470,0.027683380
1640833438835959808,-0.086557980,0.049675750,10.105308530,-0.073310740,0.004518030,0.053250790
1640833438839579904,-0.407967030,-0.200410160,10.326401710,-0.033457580,-0.043578450,0.038909920
1640833438840369920,-0.041033820,-0.155111480,9.484969140,-0.002495940,0.005599860,0.031605370
1640833438844699904,-0.026836850,0.074510540,9.569270130,0.013947490,0.037111340,-0.016799570
1640833438846159872,-0.031057280,0.289827730,9.980186460,-0.050111110,0.050541760,-0.016257170
1640833438849880064,0.308799650,0.515257360,9.651549340,-0.061577540,0.015360120,0.014631450
1640833438850839808,-0.065355430,0.241364080,10.013649940,-0.025162100,-0.007794800,-0.005514920
1640833438855739904,-0.197487940,0.201918100,9.772663120,0.019320850,-0.005602840,0.012508040
1640833438856189952,-0.353236680,0.220165370,9.518005370,0.040437280,-0.032904740,0.014764070
1640833438859520000,-0.481901050,-0.001025970,9.713246350,-0.024463230,0.008241830,-0.007252390
1640833438860260096,-0.014033920,0.265202280,9.583751680,-0.062814360,0.065074870,0.009682770
1640833438864839936,-0.127580140,0.217321100,10.548269270,-0.039423990,0.046980380,0.015994900
1640833438866289920,0.088581270,0.042239390,10.398986820,0.001421570,0.016236310,0.016266110
1640833438870839808,0.081445480,0.033612720,9.921757700,0.085237630,-0.031024220,0.012856720
1640833438871269888,-0.411390100,-0.031063360,9.931989670,0.058859590,-0.043961410,-0.004407760
1640833438874560000,-0.240221590,0.330570010,9.118787770,-0.048941380,-0.020298370,0.006265940
1640833438875249920,-0.426698480,0.550718490,9.784414290,-0.082483890,-0.000785290,-0.001452860
1640833438879539968,-0.180799650,0.760760190,10.024014470,-0.063398480,0.062042480,-0.000943240
1640833438880270080,0.217029210,0.993142250,10.113724710,0.002372270,0.026650730,0.015647710
1640833438886749952,0.100385050,0.705725490,10.755239490,0.027965010,0.022545460,0.025413930
1640833438887620096,0.259667780,0.599923130,9.790112500,-0.019872190,-0.015360120,0.027628240
1640833438891119872,-0.102014140,0.316382910,9.761506080,-0.065763300,-0.073581930,0.034615400
1640833438892609792,-0.184051990,-0.005729950,9.319925310,-0.097581740,0.010423360,0.027562680
1640833438894459904,-0.023433550,-0.140517850,9.020237920,-0.048112870,0.038385380,0.004622340
1640833438895279872,-0.277303100,-0.104376300,10.321911810,0.000059600,0.065888460,0.011244420
1640833438899819776,0.052005230,0.118280100,9.929108620,-0.028078260,0.067023940,0.043296820
1640833438900849920,-0.035436370,0.036276400,10.329725270,-0.042334200,-0.043891360,0.038866700
1640833438904589824,-0.116909060,0.210504740,10.048685070,-0.056730220,0.007732210,0.039573010
1640833438905289984,0.060966300,0.272987570,9.143898960,-0.048904110,0.004649160,0.028559560
1640833438909560064,-0.167135690,-0.069334720,9.922472950,0.025944410,0.043223790,-0.005850190
1640833438910419968,-0.058206850,0.216784400,9.426069260,0.048574810,0.094856310,-0.027209520
1640833438914619904,-0.309892240,0.322876040,9.868402480,-0.001597400,-0.045546890,-0.005991760
1640833438915259904,-0.397435010,0.166244160,9.875294690,-0.064364060,-0.011503700,0.040403000
1640833438920429824,-0.152908670,0.197976110,9.191987040,-0.047120460,0.007812680,0.039675830
1640833438920859904,-0.471335650,-0.099565020,10.547402380,0.040666760,0.010830160,0.049863760
1640833438924549888,-0.022782970,-0.152518780,10.051436420,0.094711780,0.075723240,0.032714010
1640833438925240064,0.004501540,-0.152649720,10.073680880,0.079426190,-0.022926930,-0.021138790
1640833438929709824,-0.178909970,0.085725920,10.218819620,0.005869570,0.002510850,-0.009812410
1640833438930330112,-0.038524210,0.552843450,9.087911610,-0.054840750,-0.042214990,-0.013792520
1640833438934619904,-0.502363320,0.670417490,9.881420140,-0.036023560,-0.114880500,-0.020331150
1640833438935429888,-0.217447940,1.080773590,9.221225740,0.018192820,0.029851490,0.014881790
1640833438939559936,-0.142130000,1.051361320,9.820871350,0.019255280,0.029148160,0.030869250
1640833438940280064,-0.312843110,0.653820340,11.234057430,-0.004199150,0.046783690,0.065898900
1640833438947069952,0.092310540,0.661954520,10.113314630,-0.038120150,-0.023207070,0.045704840
1640833438947749888,-0.167084830,0.245856780,10.109062190,-0.070710490,-0.142152610,0.010509790
1640833438949799936,0.039105800,0.085494730,8.927172660,-0.082154580,-0.004650650,-0.015142560
1640833438950660096,0.288700490,0.193083200,8.626452450,-0.049924840,0.044311580,-0.046342610
1640833438954510080,-0.198678020,0.127412300,10.562291150,-0.033098460,0.052945320,-0.001546740
1640833438955239936,0.151671810,0.308083360,9.826010700,-0.060808670,0.001925230,0.040474540
1640833438959549952,-0.113337350,0.079910140,10.264608380,-0.075379010,-0.110231360,0.046239790
1640833438960300032,-0.298283670,0.010391130,10.030716900,-0.055599210,0.002624090,0.074008110
1640833438964920064,0.017860240,0.020726380,9.080542560,-0.015905500,0.009892880,0.014717880
1640833438966009856,-0.278521720,0.010718270,10.189697270,0.002264980,0.029961760,-0.029598180
1640833438970209792,0.131490310,0.470518560,9.226545330,-0.038884580,0.069145860,-0.025318560
1640833438970599936,0.024707230,0.417792890,9.663589480,-0.078240040,-0.050745910,-0.014217200
1640833438974520064,-0.368384660,0.156369570,10.189130780,-0.061549260,-0.009183590,0.016170740
1640833438975249920,-0.193541420,0.119702130,9.278446200,0.017006700,-0.046148900,0.030732160
1640833438979539968,-0.451027990,-0.133764120,10.289114950,0.044737760,-0.044293710,0.037163500
1640833438980249856,-0.057403810,-0.069470510,9.648545270,-0.008606910,0.110702220,0.026118760
1640833438984629760,0.162020860,0.048563340,10.074978830,-0.036939980,0.019927320,-0.009952490
1640833438985299712,-0.116608690,0.113134060,10.676346780,-0.037041310,-0.000599030,-0.007851420
1640833438990690048,0.127166840,0.413539860,9.042135240,0.002013150,-0.077196980,-0.015671550
1640833438991269888,-0.272125750,0.563905950,9.462876320,0.026154510,-0.118456770,-0.018158560
1640833438994749952,-0.326342850,0.815735940,9.184716220,-0.046126540,0.074473030,0.010679660
1640833438995349760,-0.217571990,0.757277730,10.019981380,-0.067733230,0.028838220,0.030423700
1640833438999619840,-0.429440680,0.484774680,11.326173780,-0.042319290,0.016924740,0.020727510
1640833439000480000,0.048482730,0.545055690,9.849416730,-0.024592880,-0.038334720,0.011743610
1640833439004499968,0.082882650,0.349680270,9.843139650,-0.017686190,-0.080610820,0.010888280
1640833439005289984,0.054742440,0.233338800,9.194064140,-0.078958260,0.049719210,-0.010290740
1640833439009779968,0.265236290,0.291179780,8.921267510,-0.097504250,-0.006425380,-0.006330010
1640833439010589952,-0.097992200,0.041625920,10.170917510,-0.060252850,0.007189810,0.017282370
1640833439014950144,-0.157887280,0.008789780,9.703586580,-0.043201450,-0.006850070,0.007677080
1640833439016339968,-0.195197090,0.008628020,10.187994960,-0.004279610,-0.095312280,0.022196770
1640833439020329984,-0.385301410,0.011165890,9.984984400,-0.040251020,0.036272410,0.011755530
1640833439020749824,-0.026839240,0.168146220,9.436993600,-0.080458820,0.002558530,-0.024668880
1640833439024610048,0.076637330,0.418928350,10.047093390,-0.055062770,0.022874770,-0.017014150
1640833439025769984,0.243611450,0.490507960,9.293128010,-0.045537960,0.074300180,-0.010529160
1640833439029499904,0.111845020,0.308221790,9.886139870,-0.002501900,-0.047953430,0.012692810
1640833439030299904,-0.379015560,0.141643390,9.872338290,0.002194940,-0.047841670,0.010849540
1640833439034700032,-0.377131400,-0.045934870,9.119648930,-0.050413610,-0.064836450,0.007838010
1640833439035409920,-0.510364650,-0.222563980,10.138342860,-0.023050610,0.010243060,0.004561250
1640833439039579904,-0.347369550,-0.051411930,9.948338510,-0.015263260,0.085473060,-0.033055250
1640833439045440000,0.014643340,0.317939790,10.302411080,-0.013560060,-0.018197300,-0.006659330
1640833439046360064,0.053265520,0.423706710,10.312329290,-0.025267900,0.014936920,0.022934380
1640833439046720000,0.156279330,0.378762100,9.371251110,-0.035697230,-0.057864200,-0.000759960
1640833439049880064,-0.086346660,0.521673080,9.646162030,0.004218520,-0.092811890,0.004248320
1640833439050679808,-0.356825680,0.525503640,9.206302640,-0.024126470,0.000253320,-0.006516280
1640833439054560000,-0.185389210,0.488561390,9.752552030,-0.052900610,-0.025537610,-0.007846950
1640833439055259904,-0.219953060,0.604841710,10.569326400,-0.054046510,0.043152280,0.012981890
1640833439059579904,0.066392150,0.398623530,10.002438550,-0.066892800,0.015690920,0.015412270
1640833439060379904,0.234934640,0.217660490,10.264939310,-0.021907690,-0.040045370,0.033655760
1640833439064499968,0.160788670,0.171097980,9.433431630,-0.004681950,0.012181700,0.014787910
1640833439065319936,0.145201590,-0.005774380,9.142752650,-0.053232910,-0.042717160,0.010623040
1640833439069540096,-0.143448190,-0.169304340,9.694650650,-0.042665010,0.006768110,0.015456980
1640833439070819840,-0.250152440,-0.216388050,9.429803850,-0.019037730,0.008307400,-0.024726990
1640833439074720000,-0.331632850,-0.015362390,10.090772630,0.000691410,-0.033818190,-0.016565620
1640833439075520000,-0.434338960,0.270090040,9.960813520,-0.021468100,0.028608740,-0.003972650
1640833439079559936,-0.242800180,0.357165250,9.752397540,-0.055474050,-0.034452970,-0.006897750
1640833439080299776,-0.146638050,0.483358920,10.034223560,-0.015531480,-0.018815700,0.024805970
1640833439084659712,0.077875330,0.276271100,9.300105090,0.012646620,0.036986170,0.022323430
1640833439085430016,0.131501390,0.019102710,9.800119400,0.049366060,-0.007851420,0.000244380
1640833439089710080,-0.112048930,0.074099340,9.949178700,0.033332410,0.016655030,-0.006186960
1640833439091640064,-0.181038650,0.038421650,9.621444700,-0.036302210,-0.066672270,-0.018593670
1640833439094550016,-0.432136600,0.095471690,10.044106480,-0.038661060,-0.077877950,-0.014518200
1640833439095299840,-0.416552660,0.337997170,9.507409100,-0.009596350,-0.001721080,-0.012715160
1640833439099619840,-0.230003100,0.512874840,9.929965020,0.015480820,-0.011341270,0.016967950
1640833439100389888,-0.230658470,0.490109470,10.393168450,0.023043150,0.041988490,0.033913550
1640833439107110144,0.028975310,0.494853880,9.981888770,-0.000973050,-0.013984740,0.017830730
1640833439107499776,-0.122129860,0.508893490,10.120758060,-0.016334650,-0.101967160,0.010125340
1640833439109509888,-0.144583020,0.481331200,9.262551310,-0.038951630,-0.070346880,-0.011400880
1640833439110460160,0.017443900,0.582947080,9.129643440,-0.054280460,-0.034403800,-0.020994240
1640833439114919936,-0.079831260,0.650029000,9.901879310,-0.049218540,0.025486950,0.005084280
1640833439115639808,0.227157260,0.419607520,9.908350940,-0.043812390,0.040079660,0.046670440
1640833439119520000,0.294923340,0.250397740,10.379207610,-0.018426780,-0.024536250,0.048655270
1640833439120450048,-0.013978100,0.075975650,10.314388280,-0.031116610,-0.037385530,0.035233800
1640833439124499968,0.031338480,-0.088715790,9.412295340,-0.056427710,-0.067763020,0.021418930
1640833439125259776,-0.246521120,-0.255614670,9.369701390,-0.034998360,-0.036147240,-0.024011730
1640833439129469952,-0.082949320,-0.174676450,9.098546030,-0.014714900,0.066863000,-0.048892200
1640833439130289920,0.043900370,0.255720620,9.605786320,-0.005081300,0.055648390,-0.014308090
1640833439134589952,-0.319929510,0.241086170,10.524043080,-0.035759810,-0.005365910,0.010338430
1640833439135340032,0.030743720,0.401829750,9.751399040,-0.041010980,-0.058504940,0.033508240
1640833439139600128,-0.189348680,0.310855300,9.872046470,-0.007557870,-0.055728850,0.052213670
1640833439140359936,-0.173745010,-0.194396790,9.768663410,0.033751130,0.041507180,0.018453600
1640833439144589824,0.148514200,-0.086346540,9.598815920,0.089047860,0.045704840,-0.015136600
1640833439145359872,-0.184374170,0.012040790,10.141877170,0.029940900,0.015212600,-0.029163060
1640833439149590016,0.081727740,0.213618010,9.520416260,-0.068631770,-0.015826530,-0.006191430
1640833439150359808,-0.181521590,0.410837170,9.651850700,-0.057154900,-0.076837850,-0.007703900
1640833439154919936,-0.452979740,0.353079020,9.870417590,0.006541610,-0.012215970,-0.006558000
1640833439155799808,-0.146612030,0.512279390,9.738390920,0.077497980,0.026261810,0.027282540
1640833439159489792,-0.361960770,0.333620670,10.652793880,0.078789890,0.024612250,0.014576320
1640833439160280064,-0.048225330,0.415852670,10.305747990,-0.011968610,0.022643800,0.011523070
1640833439164880128,0.087004940,0.659796060,9.726847650,-0.073494020,-0.060598540,0.020860140
1640833439165890048,-0.066837970,0.387547670,9.624785420,-0.085365780,-0.037986040,-0.023902950
1640833439170830080,0.340869100,0.613319580,8.843709950,-0.000761450,0.020451850,-0.026407840
1640833439171409920,0.088128910,0.537530960,9.634289740,0.041653220,0.026690960,-0.011397900
1640833439174459904,0.034917320,0.233229860,10.250481610,-0.024685260,0.064058590,0.026203690
1640833439175319808,0.153136760,0.189615620,10.174507140,-0.053267190,-0.002527240,0.053894530
1640833439179499776,-0.364405270,-0.139198290,10.641757010,-0.058081750,-0.051996120,0.036886330
1640833439180300032,-0.098607270,-0.151681890,9.398691180,-0.033560400,-0.020268560,0.007216630
1640833439184589824,-0.051392370,-0.169553460,9.055175780,0.039328640,0.019378960,-0.033569340
1640833439186060032,-0.184204130,-0.082208480,9.630873680,0.031614310,0.109836460,-0.039114060
1640833439189609984,0.109906290,0.348036410,9.576496120,-0.005991760,0.055304170,0.002405050
1640833439190340096,-0.346966090,0.247933340,10.429319380,-0.030434140,-0.069725520,0.016742940
1640833439194550016,-0.214089080,0.298970850,9.556744580,-0.034023820,-0.050273540,0.026287140
1640833439195269888,-0.191633190,0.243792680,9.449008940,0.045318900,-0.003026430,0.012625750
1640833439199640064,-0.384977400,-0.036842830,10.321129800,0.078292200,0.081264960,-0.019435590
1640833439203689728,0.188592960,0.292599890,9.656931880,0.051167610,0.058250130,-0.036066770
1640833439205410048,0.011531160,0.303552480,10.193540570,-0.009915230,-0.000663100,-0.009629130
1640833439205829888,-0.021266520,0.231307740,9.748327260,-0.051607200,-0.004634260,0.001247230
1640833439209519872,-0.163953230,0.275241730,9.292738910,0.024330620,-0.099740940,-0.013394660
1640833439210279936,-0.599153820,0.310637680,9.763446810,0.061774270,-0.025637450,-0.002439320
1640833439214479872,-0.271888820,0.427335140,9.500082020,0.024160740,0.057077410,0.005890430
1640833439215649792,-0.391910490,0.315204350,10.906867980,0.003425780,0.022894140,-0.007036330
1640833439219579904,-0.183828040,0.590558530,10.651456830,-0.023481250,0.025254490,0.002405050
1640833439222400000,0.121126280,0.650198940,9.674997330,-0.021597740,-0.074708470,0.001658500
1640833439224560128,-0.067057710,0.618800760,9.678459170,-0.016735490,-0.057001410,-0.018531090
1640833439225279744,0.194557310,0.855233550,8.536655430,-0.047701600,0.023065510,-0.014248490
1640833439229489920,-0.035999940,0.361915170,9.847840310,-0.029504300,0.007842480,0.010575350
1640833439230309888,-0.258240700,0.157053750,10.492833140,-0.015665590,0.033929940,0.011020900
1640833439234799872,-0.048325390,0.132799660,10.123534200,-0.029236080,-0.070825230,0.010995570
1640833439235839744,-0.197233890,-0.137193580,10.458275790,-0.049451000,-0.027307870,0.019967560
1640833439239609856,0.024210280,0.029092520,9.306611060,-0.063112370,0.037622440,-0.026367600
1640833439240349952,0.024429340,-0.033722000,9.591080670,-0.041750080,-0.018419330,-0.033478440
1640833439244669952,-0.019711950,0.035819050,9.489592550,0.013916190,0.047788030,0.006085630
1640833439245580032,-0.076931160,0.089655460,9.259742740,0.007416310,-0.038936740,-0.003440680
1640833439250109952,-0.435990600,0.049047690,10.268654820,-0.016768280,-0.071387000,0.022146110
1640833439252280064,-0.326024410,0.189659770,9.583386420,-0.047525760,0.008654590,0.012142960
1640833439254629888,-0.271091100,-0.023257410,10.211901660,-0.017988680,-0.025966760,-0.025452670
1640833439255329792,-0.063093430,0.164465650,10.221329690,0.036998100,0.071388480,-0.032983720
1640833439259470080,0.241562900,0.397823150,9.426768300,0.041277710,0.020095700,-0.024092200
1640833439260320000,-0.061665580,0.052199360,10.179172520,0.022950770,-0.051698090,0.023438040
1640833439264509952,-0.135652860,0.155738650,9.062017440,-0.000891090,-0.055800390,0.017404560
1640833439265920000,-0.425798270,-0.004750380,9.407480240,-0.002884870,-0.118078290,0.002236660
1640833439269609984,-0.516751770,-0.043645740,10.078874590,0.023420150,0.027364490,-0.007137660
1640833439270399744,-0.144799170,0.358845980,9.912417410,0.039432950,0.040255490,-0.059235100
1640833439274469888,-0.174985130,0.563499390,11.220669750,0.008915360,0.012269620,-0.033378600
1640833439275300096,0.124193890,0.762235280,10.148363110,-0.029213720,0.009743870,-0.003895160
1640833439279500032,0.185225590,0.761157330,9.373617170,-0.020501010,-0.147372500,-0.021003180
1640833439280339968,-0.076596510,0.668674230,9.244656560,-0.009451810,-0.040815780,0.017735360
1640833439284910080,0.061100000,0.566339310,8.642374040,-0.018662210,0.013183060,0.015431640
1640833439285760000,-0.257939900,0.245649930,10.581020360,-0.022879240,-0.020976370,-0.002227720
1640833439289579776,-0.118926110,0.278068070,10.487045290,-0.046476730,0.046308350,0.010286270
1640833439290360064,0.067546810,0.214235160,10.230760570,-0.062760710,-0.064435590,-0.000269710
1640833439294469888,-0.126056940,0.055171580,10.539468770,-0.048127770,-0.023208560,-0.018733740
1640833439295259904,0.138472470,0.283384680,8.719398500,-0.024355950,-0.010171530,-0.036759670
1640833439299569920,-0.021829000,0.222138480,9.251538280,-0.024016200,-0.040782990,-0.016626720
1640833439300879872,-0.155798410,0.118502590,9.597843170,-0.039021670,0.078754130,0.008021300
1640833439305479936,-0.056199890,0.133973850,9.693771360,-0.033283240,-0.042121120,0.017103550
1640833439305929984,-0.342654500,0.060911860,10.675752640,-0.031837820,-0.056372580,0.026893620
1640833439309579776,0.007867330,0.108194580,9.477139470,-0.046029690,0.027166310,-0.002105530
1640833439310659840,0.150973660,0.138432460,9.881321910,-0.018271800,-0.005035100,-0.029067700
1640833439315320064,0.060339910,0.172603700,10.025514600,0.002963840,0.091527390,-0.024449820
1640833439315899904,0.281521770,0.148592560,9.184498790,0.000341240,-0.005774200,-0.011692940
1640833439319559936,-0.202281910,-0.076812080,9.967294690,0.010584290,-0.062440340,0.009673830
1640833439321129984,-0.471924720,-0.144772200,9.167199130,0.003501770,-0.012327730,0.003983080
1640833439324470016,-0.563315270,-0.080574030,9.505493160,0.010679660,-0.079296530,-0.007005040
1640833439325260032,-0.717099960,-0.043599810,10.268066410,0.007393960,0.042028730,-0.032199920
1640833439329540096,-0.119191350,0.222859280,9.796120640,0.022536520,0.031933190,-0.040528180
1640833439330319872,-0.058896840,0.489883480,10.691092490,0.046372410,-0.006648900,-0.005188580
1640833439334619904,0.075618700,0.417523920,9.889388080,0.010176000,0.021211800,0.009694700
1640833439335670016,0.141861570,0.310278510,9.440856930,0.035882010,-0.120776910,0.016701220
1640833439339559936,-0.290551280,0.321115110,9.469206810,0.051878390,-0.085940960,0.009299810
1640833439340379904,-0.098224610,0.315907420,8.811141970,-0.008358060,-0.005334620,-0.015620890
1640833439345360128,-0.244150920,0.507102130,10.340299610,-0.009998680,-0.011405350,-0.019727650
1640833439347429888,-0.208185570,0.656390670,10.630805970,-0.037094950,0.045964120,-0.017397110
1640833439349839872,0.190417290,0.646438540,10.232880590,-0.029250980,-0.042662020,0.013323130
1640833439351279872,-0.103854370,0.517232180,10.349493980,0.020900370,-0.058957950,0.010141730
1640833439354609920,-0.167245980,0.348136430,9.179902080,0.001306830,-0.046923760,-0.006105010
1640833439355340032,-0.297627450,0.357060610,9.222404480,-0.017303230,-0.096711510,0.022043290
1640833439359479808,-0.480305400,0.129213480,9.364779470,-0.066465150,-0.022655730,0.002442300
1640833439360299776,0.028842150,0.086369300,9.506308560,-0.071634350,0.019845370,0.001043080
1640833439364539904,0.028441920,0.309437750,10.642795560,-0.004196170,0.016729540,0.018808250
1640833439365289984,0.206292050,0.156558050,10.341635700,-0.020828840,0.002676250,-0.004975500
1640833439369540096,0.476708080,0.335662900,9.863801960,-0.031287970,-0.060637300,0.003336370
1640833439371259904,0.074036910,0.235451940,9.630729680,-0.040447700,-0.025564430,0.010785460
1640833439374519808,0.115500060,-0.227991490,9.051527020,-0.021523240,-0.037014480,-0.001811980
1640833439375299840,-0.106302860,-0.015464370,9.196780200,0.033983590,-0.010435280,-0.012956560
1640833439379609856,-0.394304190,0.015360760,9.549650190,-0.009058410,0.032992660,-0.015796720
1640833439380309760,-0.307078240,0.007036620,10.180042270,-0.040705500,-0.011198220,0.002743300
1640833439384610048,-0.513011340,0.213078200,10.357318880,-0.011388960,-0.049865260,-0.018267340
1640833439385440000,-0.204317930,0.217954730,9.771348950,0.005555150,-0.042985380,-0.000368060
1640833439389529856,-0.045672650,0.029876690,9.771548270,0.069795560,0.025586780,0.022098420
1640833439390390016,-0.108119170,-0.025915060,9.782830240,0.075899060,0.028197470,-0.027786200
1640833439394619904,0.058174490,0.184546660,9.590175630,0.020015240,-0.038278100,-0.011764470
1640833439395299840,-0.193742830,0.241219550,9.617905620,-0.002351400,-0.068438050,-0.007261340
1640833439399849984,-0.180940300,0.414254250,9.554133420,-0.020875040,-0.065417600,-0.039637090
1640833439400780032,-0.044797390,0.832154630,9.785021780,0.003525610,-0.025375190,-0.005443390
1640833439405109760,-0.117681760,0.683558760,10.210437770,0.024335090,0.056286160,0.018587710
1640833439405439744,0.087905670,0.496691110,10.609583850,0.027303400,0.016197560,0.015382470
1640833439409659904,-0.082760540,0.591314140,10.358002660,0.018714370,-0.063470010,0.021544100
1640833439410359808,-0.239566000,0.400000480,9.439951900,-0.051569950,-0.104708990,0.011344260
1640833439414569728,-0.169436170,0.341170100,8.921802520,-0.079670550,-0.064773870,-0.014336410
1640833439415269888,-0.342890590,0.280937370,9.314400670,-0.035360460,0.000484290,-0.030554840
1640833439419559936,0.004742800,0.283294500,9.774868970,-0.005389750,0.051242110,-0.010128320
1640833439420329728,0.073478910,0.289592120,10.624417300,0.003091990,0.024999680,0.009237230
1640833439424559872,0.124042290,0.220791160,10.593334200,-0.038820510,-0.038357080,0.036825240
1640833439425479936,0.234489110,0.214251340,9.833753590,-0.069056460,-0.083209570,0.028184060
1640833439429459712,-0.000384870,-0.067188750,9.432022090,-0.048129260,-0.044880810,0.004354120
1640833439430330112,0.175617170,-0.098162640,8.878633500,0.016255680,0.025169550,-0.034014880
1640833439434559744,0.041606780,0.005645950,9.434842110,0.041273240,0.051659360,-0.051084170
1640833439435360000,-0.155337830,0.069783030,10.146101000,-0.014637410,0.049789250,-0.016324220
1640833439439539968,-0.177505000,0.216274680,10.150822640,-0.049808630,-0.053191200,0.012506550
1640833439440399872,-0.476012860,0.024637820,10.173845290,-0.039280960,-0.083686420,0.015795230
1640833439444659968,-0.200658950,-0.017909610,9.319924350,0.033819680,0.004552310,0.024527310
1640833439446249984,-0.192025450,-0.133112210,9.814951900,0.106236350,0.050486620,-0.023229420
1640833439449789952,-0.091895310,-0.029594630,10.077181820,0.071534510,0.066004700,-0.039507450
1640833439450830080,0.177638070,0.386591850,9.611206050,0.002464650,-0.024259090,-0.018946830
1640833439454510080,-0.197470840,0.382886110,9.916963580,-0.050526870,-0.076484680,-0.026415290
1640833439455299840,-0.076342500,0.678277190,9.131649970,-0.028441850,-0.047825280,-0.001123550
1640833439459519744,-0.254787980,0.700258970,9.671016690,0.046399230,-0.026957690,-0.002308190
1640833439460310016,-0.284395160,0.345813330,10.387363430,0.074742740,0.066018110,-0.006669760
1640833439464509952,0.097507700,0.475394900,10.118285180,0.054232780,0.034290550,0.003039840
1640833439465289728,-0.255113690,0.374587980,10.789310460,-0.026790800,-0.044852500,-0.012399260
1640833439469570048,0.003917500,0.354694600,9.444416050,-0.088134410,-0.061999270,-0.002333520
1640833439471099904,0.018879350,0.451966200,8.746907230,-0.048492850,-0.088259590,-0.033560400
1640833439474560000,-0.180506680,0.362032710,9.449322700,-0.017850100,0.045786790,-0.029793380
1640833439475459840,0.177257930,0.377696870,9.549785610,0.024133920,0.091481200,0.008656080
1640833439479499776,-0.145893170,0.232437160,11.085663800,0.021378700,-0.028832260,0.001320240
1640833439480349952,-0.040621440,0.320350350,10.414310460,-0.073176620,-0.026059150,0.029867890
1640833439484640000,0.168051840,0.332597970,9.170189860,-0.104321540,-0.070014600,0.015209620
1640833439485309952,-0.125399570,0.045604160,9.692399020,-0.058756770,0.027994810,-0.038680440
1640833439489830144,0.216061740,0.313797530,8.922918320,0.023819510,0.106349590,-0.036747760
1640833439491000064,-0.036588710,0.295338150,9.814151760,0.039334600,-0.019583110,-0.025697060
1640833439494569984,-0.204876480,0.178038970,10.159203530,-0.060389930,0.010727350,0.015217070
1640833439495309824,-0.004378960,0.122444350,9.406087880,-0.091837350,-0.029036410,0.034308430
1640833439499779840,-0.524145540,-0.366882470,10.576186180,-0.034570690,-0.026927890,0.003121790
1640833439500579840,-0.154120760,-0.237856880,9.514498710,0.054472680,0.055506830,-0.033333900
1640833439504499968,0.047397530,-0.042167490,9.364932060,0.089207280,0.011453030,-0.053599480
1640833439505440000,-0.055233120,0.111637060,10.046746250,-0.011840460,0.098368530,-0.022721290
1640833439509539840,0.184881900,0.339359520,9.401754380,-0.058476630,0.004667040,0.017085670
1640833439510530048,-0.375004890,0.153119250,10.207320210,0.003591180,-0.130312110,0.011251870
1640833439514530048,-0.242582750,0.333189640,9.187119480,0.056344280,-0.016151370,0.008136030
1640833439515539968,-0.249149610,0.403999060,9.512470250,0.088052460,0.005146860,-0.004933770
1640833439520109824,-0.460784730,0.412102040,10.848796840,0.012542310,0.092855100,-0.025045870
1640833439521129728,0.088282640,0.757979150,9.908521650,-0.058908760,0.033795840,-0.016269080
1640833439524570112,-0.153176680,0.586095270,10.359735490,-0.036595770,-0.101058190,-0.007729230
1640833439525289984,-0.036738590,0.597667930,9.227530480,-0.008717180,-0.030992930,-0.014621020
1640833439529489920,0.030075060,0.653665420,8.771124840,0.014910100,-0.043150780,0.000038740
1640833439530339840,-0.344594840,0.339081590,10.250902180,-0.016540290,0.043943530,0.024709110
1640833439534639872,0.086192500,0.369347180,9.879487990,-0.063535580,0.056628880,0.015191740
1640833439535310080,-0.016407680,0.322229740,10.831454280,-0.067135690,-0.054568060,0.024671850
1640833439539680000,0.008045580,0.221871930,10.229623790,-0.074358290,0.022354730,0.007918480
1640833439540619776,0.160154800,0.329126480,9.230162620,-0.036957860,-0.055883830,-0.034955140
1640833439544600064,-0.168763560,0.441221540,9.577902790,-0.019930300,-0.024752320,-0.017626580
1640833439545549824,0.020277670,0.540678080,8.729043960,-0.083358590,0.068561730,0.009012220
1640833439549649920,-0.153020590,0.295851860,10.068643570,-0.089943420,-0.010992590,0.023964050
1640833439550400000,-0.217485380,0.253069640,10.333890910,-0.077363860,0.022552910,0.025890770
1640833439554919936,0.041613700,0.052358940,9.733597760,-0.049361600,-0.020939120,0.006069240
1640833439555849984,-0.061669690,-0.140002000,10.297235490,-0.000253320,0.015568730,-0.013327600
1640833439559459840,0.218021200,0.115259510,9.188890460,-0.035947550,0.078633420,-0.042276080
1640833439560320000,0.254252340,0.059920620,9.555545810,-0.072510550,0.007142130,0.003519650
1640833439564499968,0.029348510,-0.155224700,9.674462320,-0.050750370,0.064033280,0.035536290
1640833439565699840,-0.118232500,-0.255021040,9.358016010,0.017777090,-0.033995510,-0.004139540
1640833439569710080,-0.564807240,-0.174811240,10.088541030,0.057438020,-0.059120360,0.014744700
1640833439572120064,-0.444798650,0.001999910,9.329316140,-0.003999470,0.039820380,-0.025868420
1640833439574550016,-0.262373180,0.231585160,10.155354500,-0.043299810,0.040958830,-0.045710810
1640833439575289856,-0.116099910,0.585199530,10.408340450,-0.024235250,0.110240280,-0.000287590
1640833439579479808,0.221375550,0.557070970,9.812423710,0.021073220,0.015959140,-0.002837180
1640833439580329984,-0.038278330,0.474154350,10.195578580,0.068886590,-0.058700150,0.019848350
1640833439586919936,-0.149875420,0.480496410,8.836923600,0.025892260,-0.029905140,0.030948230
1640833439587819776,-0.350486870,0.046972620,9.386348720,-0.027102240,-0.056898610,0.002691150
1640833439589679872,-0.416863980,0.117580530,9.979824070,-0.029405960,0.079584120,-0.000992420
1640833439590359808,-0.104906320,0.261025970,10.052917480,-0.016842780,0.046630200,-0.025036930
1640833439594470144,-0.007700820,0.313031260,11.054617880,-0.008854270,0.016887490,-0.005188580
1640833439595299840,0.188706950,0.525345860,9.802725790,-0.005044040,0.030849880,-0.001755360
1640833439599759872,0.004225620,0.352374730,9.701124190,0.002865490,-0.092251610,-0.009644030
1640833439600519936,-0.268211310,0.334314610,9.441246990,0.011307000,-0.025501850,0.025859480
1640833439604780032,-0.145042510,0.259357780,8.628361700,-0.012212990,-0.009875000,0.019915400
1640833439605829888,-0.199352700,0.183005240,9.973568920,-0.035361950,0.030325360,0.013323130
1640833439609479936,0.110723100,0.322670010,9.912737850,-0.040042400,0.131309050,0.030986960
1640833439610380032,0.185033710,0.057423880,10.536800380,-0.008569660,-0.006449220,-0.000014900
1640833439615020032,0.099654600,0.062396390,10.552496910,0.031813980,-0.024089220,-0.013592840
1640833439616039936,0.173108680,0.168916660,8.861258510,0.014582280,-0.020757320,0.009454790
1640833439619949824,-0.201501790,-0.280954930,9.580151560,0.009241700,-0.019818540,0.017173590
1640833439621549824,-0.296941730,-0.340070160,9.225916860,0.019441550,0.086836520,0.003725290
1640833439624519936,-0.335114450,-0.176045400,9.440053940,0.052860380,-0.009520350,-0.005792080
1640833439625309952,-0.573504690,-0.151620750,10.450014110,0.050467250,0.006762150,-0.008064510
1640833439629449728,-0.216109480,0.242914300,9.545385360,0.027084350,0.014196340,-0.013010200
1640833439630619904,-0.241218270,0.418525580,10.415366170,0.035579510,-0.036720940,0.004975500
1640833439634670080,-0.076397460,0.276149360,9.952367780,0.058296330,0.066685680,0.025987630
1640833439635479808,0.251898830,0.192349820,9.406595230,0.115484000,-0.000275670,0.006514790
1640833439639619840,-0.086677730,0.322810440,10.234423640,0.101238500,0.002142790,0.000654160
1640833439640419840,-0.069455220,0.381309780,9.239604000,0.009313230,0.006465610,0.002525750
1640833439644539904,-0.355025890,0.399585630,9.818624500,-0.006870930,-0.118087240,-0.022453070
1640833439645390080,-0.451690320,0.550603510,9.682594300,0.005535780,-0.005345050,-0.029273330
1640833439650139904,-0.007198270,0.568154810,9.407303810,0.037908560,0.059835620,-0.006611650
1640833439651000064,-0.290425150,0.544843200,11.167987820,0.080865620,0.059023500,0.014133750
1640833439654700032,-0.113842140,0.584443030,10.338560100,0.023707750,-0.003893670,0.030915440
1640833439655319808,0.017740320,0.510124620,9.610853200,-0.026544930,-0.130882870,0.040788940
1640833439659520000,-0.223007930,0.258987750,9.320846560,-0.051130350,-0.031338640,0.008797650
1640833439660339712,0.094446150,0.261489060,8.720914840,-0.014136730,0.030888620,-0.032620140
1640833439664689920,-0.001500130,0.521868590,10.005785940,0.030747060,0.032436850,-0.016236310
1640833439665829888,0.047579100,0.453437390,10.239894870,-0.030501190,0.067506740,-0.008490680
1640833439669959936,0.310381470,0.551230130,10.239112850,-0.063338880,-0.036415460,0.030143560
1640833439671279872,-0.097274730,0.424224880,10.437156680,-0.058984760,-0.044283270,0.056956700
1640833439674549760,0.069992450,-0.053165930,9.147103310,-0.020810960,-0.010290740,0.031377370
1640833439675340032,0.043860590,-0.040688840,9.165377620,0.051073730,0.019407270,-0.011090940
1640833439679499776,-0.180562170,0.040659610,9.487462040,-0.001104180,0.093694040,-0.027307870
1640833439682429952,0.076327860,0.039122150,9.609237670,-0.070539120,0.041523580,0.002826750
1640833439684579840,-0.333211810,0.019899900,10.383936880,-0.050164760,-0.028762220,0.008095800
1640833439685380096,-0.292145850,-0.174323740,9.769204140,-0.000472370,-0.036075710,0.010311600
1640833439689509888,-0.109548000,-0.086192190,9.612411500,0.087119640,0.006504360,0.024098160
1640833439690419968,-0.324977430,-0.063806750,9.967767720,0.068058070,0.080479680,-0.011277200
1640833439694579712,0.227020070,0.070065070,9.448255540,-0.013063850,0.049994890,-0.007729230
1640833439695399936,0.121946700,0.227727340,9.753300670,-0.015239420,0.032851100,0.006781520
1640833439700739840,-0.050677070,0.000114940,9.732425690,0.034649660,-0.000685450,-0.007453560
1640833439701629952,-0.158686950,0.152623550,9.603510860,0.119732330,-0.066801910,0.010509790
1640833439705299968,-0.598511930,0.188518020,9.641706470,0.099641100,-0.038994860,0.008451940
1640833439705750016,-0.238080830,0.115467940,9.584185600,0.018677120,0.046131020,0.002235170
1640833439709549824,-0.230171350,0.320167060,10.290802960,0.013567510,0.082738700,0.005811450
1640833439710670080,-0.182614400,0.256859570,10.538848880,0.024944540,0.036121900,-0.018039350
1640833439714669824,0.077224490,0.452119200,9.821052550,0.075194240,-0.047260530,-0.008240340
1640833439715479808,-0.275165020,0.638917740,9.389088630,0.078238540,-0.083477780,-0.021588800
1640833439719980032,-0.176817950,0.660070900,8.993877410,-0.018127260,-0.030297040,-0.001508000
1640833439721259776,-0.172900240,0.619255540,9.592350960,-0.022585690,0.033704940,0.037547950
1640833439724449792,-0.281772490,0.335243280,10.585501670,0.011084970,0.042675430,0.027732550
1640833439725339904,0.167749110,0.475288090,10.367780690,0.040990120,0.002165140,0.030347700
1640833439730089984,0.062045470,0.502534210,10.252497670,0.012063980,-0.031489140,0.024160740
1640833439730929920,0.132534520,0.365417300,9.552741050,-0.066322100,-0.022517150,-0.010530650
1640833439734609920,0.264398340,0.514542520,8.885622980,-0.057166810,-0.010566410,-0.035658480
1640833439735350016,-0.140729430,0.412082940,9.521865840,-0.022667650,0.017352400,-0.024168200
1640833439739509760,-0.074129430,0.357030090,9.645625110,-0.007486340,0.021220750,-0.000026820
1640833439740409856,-0.253713130,0.323678400,10.223999980,-0.015969580,-0.032074750,0.025430330
1640833439744599808,-0.322291080,0.132339890,10.173495290,-0.064264250,0.001975890,0.053039200
1640833439745400064,0.006733290,-0.104093430,9.575603490,-0.051017110,0.000762940,0.029423840
1640833439749809920,-0.076639500,-0.237327310,9.916061400,0.012604890,0.037512180,-0.010465090
1640833439750899968,0.251099110,0.028323670,9.256855960,0.020949540,0.056761500,-0.015009940
1640833439754969856,0.153823450,-0.027678630,9.515230180,0.004613400,-0.004793700,-0.013701620
1640833439755439872,-0.075424980,0.024551880,9.729811670,-0.024756790,-0.004346670,0.004838410
1640833439759519744,-0.158102740,0.118969750,9.508546830,-0.017100570,-0.039805470,0.000204150
1640833439760349952,-0.461186560,-0.080925080,10.116229060,0.027191640,-0.003567340,-0.017327070
1640833439764529920,-0.200757220,0.235055760,9.659710880,0.054557620,0.061173740,-0.026659670
1640833439765369856,-0.148964000,0.358310460,10.053380010,0.039340550,0.028151270,-0.022026890
1640833439769649920,-0.092426550,0.293675450,10.018102650,-0.005993250,0.051641470,0.019404290
1640833439771790080,0.022560000,0.219821680,9.443908690,0.008609890,-0.032946470,0.015601520
1640833439774439936,-0.352062850,-0.094654640,9.815769200,0.067964200,-0.067491830,0.005245210
1640833439775359744,-0.221172150,0.023547940,9.073141100,0.092561550,-0.002765660,-0.006030500
1640833439779500032,-0.235107300,0.148704100,9.861980440,0.036905710,-0.001262130,-0.043079260
1640833439780349952,-0.150647190,0.300726890,10.561188700,-0.024519860,0.088001790,-0.012558700
1640833439787639808,0.245876370,0.574727890,10.116610530,-0.021234160,0.015026330,-0.004288550
1640833439788159744,0.054307910,0.386146190,10.574516300,0.040592260,-0.042885530,-0.023826960
1640833439789430016,0.141324270,0.656959890,9.199004170,0.072434530,-0.003805760,-0.001482670
1640833439790409984,-0.253976370,0.616039690,9.227087970,0.032356390,-0.082586710,0.000853840
1640833439795300096,-0.543409940,0.331414580,9.768907550,-0.037334860,0.010541080,0.022462010
1640833439795749888,-0.184719220,0.483781780,9.174804690,-0.046904390,0.022342800,0.020869070
1640833439799799808,-0.330051450,0.210971250,10.706784250,-0.021922590,0.011676550,0.011187790
1640833439801149952,0.100595270,0.311383010,10.218325610,0.001782180,0.089281800,0.005614760
1640833439804649728,0.301919700,0.400741990,9.868892670,0.007499760,-0.042305890,-0.026164950
1640833439805379840,0.078567850,0.182746010,10.137103080,-0.026689470,-0.011734670,-0.005146860
1640833439811099904,0.268143830,0.117572600,8.643052100,-0.015538930,0.006753210,0.011198220
1640833439811679744,-0.161222820,-0.146747750,9.602725980,0.022251900,-0.056229520,0.002762680
1640833439814550016,-0.073982920,0.008329040,9.386496540,0.008514530,0.096361360,0.028124460
1640833439815349760,-0.015442340,0.081796630,9.724143030,-0.018866360,0.031527880,0.023117660
1640833439819619840,-0.378279540,-0.032485670,11.191914560,-0.017088650,0.012983380,-0.012438000
1640833439820389888,-0.045732870,0.369679030,9.606474880,0.000517070,-0.000299510,-0.012317300
1640833439824529920,-0.250240030,0.072232210,9.773948670,0.046703220,-0.065848230,-0.008596480
1640833439826680064,-0.300810100,-0.075800120,9.484844210,0.064350670,0.081722440,-0.017109510
1640833439829469952,-0.108876310,0.167754250,8.901454930,0.056667630,0.018560880,-0.001691280
1640833439830380032,-0.514047500,0.012243590,10.267456050,0.003647800,-0.019988420,0.011241440
1640833439834589952,-0.085097140,0.086303430,9.379781720,-0.016684830,0.009121000,-0.001332160
1640833439837769984,-0.134973270,0.163019050,10.076528550,0.050677370,-0.059291730,-0.019812580
1640833439839549952,-0.238132970,0.190871640,10.515146260,0.081171110,0.057147450,-0.000491740
1640833439840449792,0.191403420,0.293159130,9.630404470,0.081469120,0.020809470,0.001788140
1640833439844649984,-0.250202360,0.350680590,10.577097890,0.051590800,-0.048375130,-0.004121660
1640833439845549824,-0.192015590,0.497384460,9.239068980,-0.013706090,-0.008295480,0.004711750
1640833439849789952,-0.381854560,0.448677630,9.204866410,0.016336140,-0.128497200,-0.008893010
1640833439851439872,-0.643842580,0.569061100,9.761590960,0.033271310,-0.030739610,-0.028169160
1640833439854569984,-0.052261230,0.762322190,9.173646930,0.011661650,0.032092630,-0.020320720
1640833439855629824,-0.100365720,0.625561120,11.004240990,-0.002114470,0.030927360,0.012081860
1640833439859529984,0.075568900,0.562927370,10.815005300,-0.026054680,0.046001370,0.008574130
1640833439860379904,0.238357250,0.526370110,9.985312460,-0.007735190,-0.142425300,0.023622810
1640833439864539904,-0.111841910,0.319088700,9.560585020,-0.015169380,-0.111751270,0.021775070
1640833439865370112,0.083205370,0.169612970,8.110896110,-0.050285460,-0.000110270,-0.011622910
1640833439869560064,0.006179580,0.158420920,9.421472550,-0.027434530,0.023664540,-0.010873380
1640833439870439936,-0.133430080,0.120776890,10.352664950,-0.029538570,0.094233450,-0.013256070
1640833439874599936,0.133394380,0.157972290,10.424262050,-0.029218200,-0.054430970,-0.001820920
1640833439875429888,-0.186303760,0.219040870,10.714632990,-0.023193660,-0.090751040,0.027993320
1640833439879549952,-0.081884570,0.056454410,9.339196210,-0.044967230,-0.031048070,0.017994640
1640833439880369920,-0.010656060,-0.051833650,9.369314190,-0.000327830,-0.024282930,0.009992720
1640833439887569920,-0.092377710,-0.031921280,9.405962940,0.032950940,0.072135030,-0.012984870
1640833439888249856,0.187735770,-0.020113610,9.342092510,0.004394350,0.037620970,-0.028862060
1640833439889629952,-0.174428850,0.155598790,10.348780630,-0.000767410,-0.029551990,0.006490950
1640833439891310080,-0.288796960,0.075029640,9.755952840,-0.032323600,-0.067725780,-0.006996100
1640833439894539776,-0.209793480,0.101877660,9.691535000,0.004486740,-0.079582620,-0.000062580
1640833439895439872,-0.385401580,0.130033150,9.944829940,0.057558720,0.044977670,-0.000895560
1640833439899669760,0.033197130,0.008878610,9.764209750,0.055229670,0.050874050,-0.027878580
1640833439901199872,0.042826090,0.410440390,10.430911060,0.047153240,0.029349330,-0.009131430
1640833439905910016,-0.113275670,0.485483290,9.862448690,-0.021654370,-0.039839740,0.003410880
1640833439907259904,-0.003028450,0.413586350,9.363639830,-0.028698150,-0.130300220,-0.004775820
1640833439909539840,-0.341226820,0.706706170,9.276537900,0.007084010,-0.040517760,-0.013527280
1640833439910390016,-0.255180450,0.577327910,9.494861600,0.008003410,0.023965540,-0.003033880
1640833439914549760,-0.165714950,0.536988140,10.652587890,0.017753240,0.047548130,0.004838410
1640833439915399936,-0.167998970,0.679474950,10.686542510,-0.029911100,0.003963710,0.000754000
1640833439919559936,0.142116550,0.428204890,10.130607600,-0.085569930,-0.076849760,0.009229780
1640833439920450048,0.026007070,0.339198650,9.459604260,-0.053700810,-0.048977140,-0.014454130
1640833439924579840,-0.009262600,0.366590470,8.822102550,-0.038139530,-0.031521920,-0.049661110
1640833439925380096,0.043332670,0.381496190,9.346622470,-0.040520730,0.023573640,-0.016045570
1640833439929449984,-0.129930390,0.222602930,10.034807210,-0.052320970,0.032088160,0.014433270
1640833439930369792,-0.015579380,0.127680640,10.410836220,-0.077171630,-0.036486990,0.035014750
1640833439934599936,-0.068102710,0.106337910,10.232381820,-0.060103840,-0.035865600,0.051958860
1640833439936919808,-0.078963660,-0.069923150,9.687695500,-0.038251280,-0.020016730,0.008133050
1640833439940169728,0.161160230,0.106065240,9.383012770,-0.028195980,0.012953580,-0.040793420
1640833439940809984,0.026390300,0.308381380,9.441362380,-0.032477080,0.048387050,-0.037293140
1640833439944539904,0.043421210,0.233600750,9.559697150,-0.063261390,-0.013419990,-0.019733610
1640833439945489920,-0.096342000,0.284186960,9.840885160,-0.050355490,-0.034391880,-0.012224910
1640833439949849856,-0.354144250,0.171223600,9.854163170,-0.034640730,-0.018778450,0.011628860
1640833439951099904,-0.305964230,0.041904260,9.947089200,-0.017318130,-0.010424850,0.012631720
1640833439956079872,-0.343851660,-0.105675150,10.066821100,-0.001643600,0.017800930,-0.009760260
1640833439956950016,0.063257810,0.097878720,9.589908600,-0.016826390,0.034581130,-0.000080470
1640833439959460096,0.086287480,0.165872110,9.876073840,-0.036457180,0.021936000,0.007182360
1640833439960389888,-0.004665580,0.105791000,9.851156230,-0.038529930,0.003482400,-0.008195640
1640833439965359872,0.002343380,0.408172010,9.503133770,-0.007051230,-0.071729720,-0.010238590
1640833439967180032,-0.403649420,0.394989040,9.866186140,-0.010322040,-0.044921040,-0.024275480
1640833439969629952,-0.261808220,0.534233090,9.679009440,-0.035688280,0.006815790,-0.015409290
1640833439970850048,-0.183214370,0.716900530,10.180186270,-0.054378820,0.007474420,-0.011146070
1640833439974469888,-0.130007890,0.588154260,10.493586540,-0.069484110,0.046351560,0.013373790
1640833439975360000,0.292199970,0.593457580,9.742529870,-0.044459110,-0.006262960,0.021779540
1640833439979529984,0.030127240,0.404459000,9.828159330,-0.037416820,-0.060923410,-0.015474860
1640833439980389888,0.099050020,0.320568200,9.086682320,-0.062838220,-0.007230040,0.002093610
1640833439984640000,-0.016646170,0.098695580,9.316753390,-0.064408790,-0.024022160,0.008732080
1640833439985659904,-0.388734370,-0.258599130,10.302399640,-0.054690250,0.007112330,-0.008608400
1640833439989819904,0.032874040,0.009407860,9.614899640,-0.043267020,0.017033520,0.009901820
1640833439990520064,-0.076820690,-0.008633410,10.272538190,-0.062954430,-0.002694130,-0.006195900
1640833439994479872,0.221213940,0.145211960,9.851795200,-0.084379300,0.072039660,-0.012798610
1640833439995339776,0.374246060,0.434606250,9.443113330,-0.040560960,0.006909670,-0.003077090
1640833439999719936,-0.145757230,0.141965150,10.075107570,-0.009897350,-0.014758110,-0.006154180
1640833440001679872,0.085255920,0.245967130,8.924625400,0.000755490,-0.009466710,0.011001530
1640833440006429952,-0.358877900,0.080407390,9.499497410,-0.022755570,-0.028945510,-0.001411140
1640833440006889728,-0.514546750,-0.047532950,10.081622120,-0.072768320,0.079369540,0.000000000
1640833440009469952,-0.290875610,0.112206370,9.892798420,-0.035147370,0.005067880,-0.016847250
1640833440010889984,-0.425846610,0.074318030,10.572859760,-0.006593760,-0.035192070,-0.040625040
1640833440014769920,0.155747260,0.219371260,9.474086760,-0.006130340,0.053425130,0.003814700
1640833440016349952,0.018660230,0.046144220,9.810420990,0.025451190,0.009079280,0.001403690
1640833440019599872,-0.253260700,0.005669080,10.202151300,0.008963050,-0.008864700,-0.011672080
1640833440022070016,0.065722570,0.319849190,8.924934390,-0.006985660,-0.052922970,0.002281370
1640833440024459776,-0.414490550,0.194554780,9.996848110,-0.030636790,-0.059199330,-0.026793780
1640833440025389824,-0.137719020,0.562169020,9.731624600,-0.050877050,0.057390330,-0.017653410
1640833440029440000,0.009328210,0.776595890,9.974421500,-0.015738610,0.008329750,-0.003491340
1640833440030469888,-0.065367580,0.475117740,10.862751010,-0.022090970,0.042417650,0.007036330
1640833440035120128,0.282243070,0.601884600,9.716053010,-0.006061790,0.006981190,0.023695820
1640833440036539904,-0.238753690,0.370437950,10.034334180,-0.010894240,-0.113962590,0.020179150
1640833440039539712,-0.244243400,0.123564110,9.238239290,-0.078701970,-0.012119120,0.015318400
1640833440040439808,-0.096578910,0.070846740,8.896967890,-0.055545560,-0.018276270,-0.015084450
1640833440044519936,-0.281167300,-0.054413420,10.179737090,-0.039128960,0.056074550,-0.016905370
1640833440045399808,0.230105550,0.105675390,9.752556800,-0.028507410,0.098069010,0.010296700
1640833440049669888,0.120513190,0.048537810,10.604016300,0.003834070,-0.042819980,0.015105310
1640833440051549952,0.071447920,0.202688130,10.160916330,-0.040556490,-0.020621720,0.024481120
1640833440055929856,0.236295030,0.261410330,9.023154260,-0.052517650,-0.046911830,0.029015540
1640833440056449792,-0.104569580,-0.110190620,9.683503150,-0.006110970,0.012794140,-0.002220270
1640833440059490048,0.194541320,0.127259880,8.943418500,0.024436420,0.110745430,-0.036601730
1640833440060379904,0.015782990,0.147962510,9.994916920,0.025030970,0.029946860,-0.008258220
1640833440064509952,-0.223751830,0.049654460,10.348665240,-0.026574740,0.047585380,0.010530650
1640833440065649920,-0.162177350,0.076543560,9.654961590,-0.017528240,-0.062908220,0.012589990
1640833440069579776,-0.521076560,-0.237420070,9.998871800,0.045320400,-0.049528490,0.038672990
1640833440070479872,-0.131401420,-0.312955050,9.073246960,0.083880110,0.081711990,0.011712310
1640833440074439936,-0.117619940,-0.246429320,10.022267340,0.115977220,0.073373300,-0.010380150
1640833440075429888,-0.139010910,0.114967650,10.249419210,0.045695900,0.076787170,-0.001250210
1640833440079529984,0.037149330,0.358041640,9.557290080,-0.027900940,-0.064170360,-0.017374760
1640833440080440064,-0.222450170,0.391921820,9.850077630,0.018867850,-0.082410880,-0.014734270
1640833440087049984,-0.155856130,0.687285780,9.011883740,0.084570050,0.021901730,-0.019232930
1640833440087919872,-0.218855920,0.616405790,9.987357140,0.100678210,0.026232000,-0.000141560
1640833440089530112,-0.174534840,0.632234450,10.546803470,0.051805380,0.095412140,0.030131640
1640833440090409984,0.074834700,0.622770190,10.150938990,-0.016392770,-0.005249680,0.022302570
1640833440094480128,-0.162884680,0.356196820,10.509798050,-0.019687410,-0.065249210,0.039191540
1640833440095350016,-0.070969390,0.337591110,9.048316960,0.014847520,-0.021900240,0.001400710
1640833440099569920,-0.191501110,0.233183880,9.278767590,0.034058100,-0.051654880,-0.046958030
1640833440101580032,-0.275306640,0.388625170,9.788849830,0.013510880,0.080816450,0.000141560
1640833440104579840,-0.067404110,0.373979930,9.771232600,-0.030866270,0.034186240,-0.002713500
1640833440106119936,-0.237593840,0.395438340,11.011190410,-0.043557600,-0.049912940,0.017187000
1640833440110819840,0.069683570,0.649480040,9.687773700,-0.050653520,-0.003176930,0.051549080
1640833440112439808,0.143941730,0.312084020,9.520434380,-0.029188400,-0.048196330,0.007300080
1640833440115119872,0.139222620,0.373964820,9.728546140,0.007338820,0.075353690,0.001005830
1640833440116619776,0.335845770,0.354448230,9.141641620,-0.007091460,0.064055630,-0.012259190
1640833440121369856,-0.037391340,0.034767500,10.438578610,-0.029248000,-0.026427210,0.004652140
1640833440121899776,-0.050122570,0.115316270,9.570905690,-0.055740780,0.012110170,0.029626490
1640833440124749824,-0.205638420,-0.188208670,9.477170940,-0.049032270,-0.060923390,0.019970530
1640833440125409792,-0.409880640,-0.335644130,10.122269630,0.015567250,0.054207450,0.024271020
1640833440130070016,-0.089336680,-0.153215630,9.353982930,0.044889750,0.079259280,-0.011678040
1640833440131350016,-0.121325240,-0.031298440,10.339639660,0.018189850,0.008815530,-0.017561020
1640833440135139840,0.042635170,0.139240890,9.685020450,-0.023119160,0.076338660,0.018715860
1640833440136090112,-0.000781190,-0.011430690,9.483814240,0.001570580,-0.049510600,0.000976030
1640833440139569920,-0.421363860,0.070226770,9.983957290,0.069290410,-0.045105810,-0.000351670
1640833440140480000,-0.198298230,0.287778110,8.744454380,0.077195470,0.008168820,0.000315900
1640833440144729856,-0.326193600,0.224114330,10.110952380,0.041909520,0.005833800,-0.026240950
1640833440147689728,-0.111571910,0.495125260,10.313186650,-0.009348990,0.110562150,-0.006791950
1640833440149499904,0.277504470,0.526873470,10.035407070,-0.001767280,0.004044180,0.016033650
1640833440151719936,0.002656000,0.261286800,10.672052380,0.052201750,-0.028789040,0.015901030
1640833440154739968,0.111800560,0.242766780,9.048661230,0.077801940,-0.015109780,0.016488130
1640833440156209920,-0.231252150,0.066839600,9.412437440,0.073806950,-0.072675940,0.014825170
1640833440159499776,-0.527789240,0.085257330,9.740191460,0.014968220,0.029197340,-0.001551210
1640833440160430080,-0.174544540,0.379492580,9.346092220,-0.030241910,0.009529290,-0.002263490
1640833440164519936,-0.310428890,0.462048170,10.739521980,-0.028826300,0.020602350,0.012783710
1640833440165400064,-0.025310770,0.476424130,10.223466870,0.011363630,0.060616440,-0.002583860
1640833440169580032,0.058752690,0.561757980,10.173090930,0.076419100,-0.065562140,-0.011405350
1640833440170759936,-0.203035700,0.641645610,9.928826330,0.039406120,-0.048650800,0.013612210
1640833440174479872,0.132060560,0.470715520,8.620911600,-0.054936110,-0.013576450,0.025273860
1640833440175419904,-0.003998590,0.337049010,9.560206410,-0.066486000,-0.004346670,0.019180780
1640833440179739904,0.155018310,0.173169230,9.563261030,-0.034822530,0.082705910,0.020627680
1640833440180759808,0.481167940,-0.056395350,10.042713170,0.047911700,0.051727890,0.021693110
1640833440186810112,0.017603890,-0.060650930,10.985080720,0.065009300,0.013527280,0.008951130
1640833440187919872,0.052863090,-0.067380730,9.724829670,-0.012293460,-0.051620610,0.021277370
1640833440189459968,-0.105343430,-0.116836500,9.403016090,-0.039954490,-0.049224500,0.037512190
1640833440190419968,-0.337372990,-0.254244090,9.237478260,-0.010046360,0.073276460,-0.001123550
1640833440194479872,-0.115199700,-0.023355420,9.279097560,0.076043610,0.073324160,-0.007224080
1640833440195409920,-0.446333170,0.251846580,10.228701590,0.101333860,0.032269950,0.011186300
1640833440199879936,-0.328252320,0.174834280,9.814989090,0.027503080,-0.029347840,0.007988510
1640833440201040128,-0.185436380,0.321826670,9.830204960,0.015245380,-0.061850250,0.021679700
1640833440204619776,-0.353005740,0.149095770,9.874995230,0.024631620,0.035592910,0.014215710
1640833440205639936,0.264092060,-0.064677980,9.531446460,0.087107730,0.052930410,0.003615020
1640833440209699840,0.248636350,0.117947100,10.080373760,0.144673880,0.070831190,-0.005356970
1640833440210419968,0.180434780,0.130549730,9.772326470,0.067991030,0.026133660,0.000964110
1640833440214550016,0.162320750,0.193728040,9.570237160,0.023753940,-0.068829950,0.032196940
1640833440215449856,-0.448197870,0.196357440,9.549038890,0.030525030,-0.060385470,0.000278650
1640833440219529984,-0.418537380,0.337677060,9.325994490,0.047612190,-0.023114680,-0.002470610
1640833440220849920,-0.530243640,0.502114060,10.233846660,0.102980460,0.062386700,0.003243980
1640833440224699904,-0.506527600,0.529261170,10.667847630,0.083090360,0.054204480,-0.025819250
1640833440225689856,-0.091908050,0.862694500,10.283452990,0.024525820,-0.025331980,0.008645650
1640833440229509888,-0.208642900,0.886709990,9.866809840,-0.028680270,-0.047975780,0.010706490
1640833440230379776,0.090412170,0.661232050,9.020679470,-0.039935110,-0.057286020,-0.011165440
1640833440234629888,0.309907320,0.725173290,8.884578700,0.025363270,0.021635000,0.004765390
1640833440235419904,0.126091960,0.373738350,9.908585550,0.033098450,0.073444840,0.012481210
1640833440239529728,0.349929750,0.296622690,10.411237720,-0.012861200,0.035898390,0.025890770
1640833440240429824,0.033149970,0.354249920,10.714111330,-0.056107350,-0.048545000,0.043587390
1640833440244499968,-0.110545340,-0.000315590,10.013162610,-0.091072920,-0.043706600,0.033108890
1640833440245449984,0.005577990,0.058323410,9.068140030,-0.022345780,-0.002945960,-0.015220050
1640833440249479936,-0.305359660,0.086073540,9.426687240,0.033999980,0.055594740,-0.028862060
1640833440250419968,-0.145780700,0.210237960,9.321753500,0.011087950,0.070871410,-0.020954010
1640833440254649856,-0.203759790,0.333080200,9.812172890,-0.043652960,-0.028038030,0.002793970
1640833440255379968,-0.325871970,0.224013340,10.122159960,-0.091448410,-0.013984740,0.025217240
1640833440259510016,-0.099929380,0.140331480,9.731637950,-0.033979120,-0.025883320,0.033561890
1640833440260419840,-0.138456030,-0.110796510,10.061803820,0.061780230,0.004811590,-0.005133450
1640833440264549888,0.298264060,0.116237360,9.404841420,0.042666490,0.093136740,-0.024622680
1640833440265489920,0.364714290,0.143441070,9.792561530,-0.010508300,0.055818260,0.002749260
1640833440270739968,0.167426620,-0.069852200,10.021597860,-0.037156050,0.031074880,0.029475990
1640833440272009728,0.029294240,0.052955330,9.224320410,-0.005556640,-0.083646190,0.006029010
1640833440274899968,-0.402942960,-0.112034340,9.485207560,0.050176680,-0.066788480,0.006708500
1640833440277809920,-0.376510740,0.010023780,9.411389350,0.063584740,0.086635340,-0.008167320
1640833440279500032,-0.463779690,0.184981290,10.601160050,0.046382840,0.051079690,-0.028464200
1640833440280470016,-0.345818130,0.518616500,10.695166590,-0.006271900,0.043018170,-0.003139680
1640833440285029888,0.056991690,0.783337120,9.559824940,-0.045514110,-0.019906460,0.014595690
1640833440286749952,-0.154194640,0.525737290,9.904604910,-0.006857520,-0.038635730,0.008754430
1640833440290969856,-0.007095140,0.681867900,8.868981360,0.045008960,0.016777220,0.007151070
1640833440291869952,-0.125744430,0.535847780,9.382613180,0.029630960,-0.037032370,-0.005112590
1640833440297029888,-0.154376060,0.290844680,10.233245850,-0.022289160,0.061854720,0.020349030
1640833440298429952,0.160139680,0.418261260,9.983987810,-0.072483730,0.037087500,0.013002750
1640833440299549696,-0.078906820,0.161933020,10.998671530,-0.070607650,-0.001612310,0.017505880
1640833440300419840,0.153116700,0.250812050,9.754668240,-0.030396880,0.024160740,0.005421040
1640833440304770048,0.128904060,0.295819460,9.172986030,0.007422270,-0.063280770,-0.031897430
1640833440306139904,-0.180240630,0.240017520,9.522943500,-0.021171570,0.058113040,-0.002394620
1640833440311099904,-0.106231040,0.327146050,8.967503550,-0.051993140,0.039170680,0.012497600
1640833440311650048,-0.449660420,0.098125000,10.412573810,-0.052171950,-0.056724250,0.018504260
1640833440314829824,-0.116638110,0.296807290,9.623321530,-0.053359580,0.065089770,0.048866880
1640833440316619776,0.057360260,0.241264980,9.834546090,-0.040799380,0.031322240,0.006474560
1640833440319579904,-0.054900880,0.152869140,10.705495830,-0.026202200,0.072240840,-0.007182360
1640833440320539904,0.412280500,0.378339740,9.043716430,-0.015226010,0.025348370,0.002142790
1640833440324499968,0.173197280,0.033016310,9.557188030,-0.011320410,-0.045055160,0.005564090
1640833440325510144,0.028760690,-0.098226340,9.175081250,-0.015699870,0.097964690,0.018428270
1640833440329829888,-0.219404830,-0.154942240,9.305686000,0.001947580,-0.030811130,0.004370510
1640833440330550016,-0.627703430,-0.348274920,10.414809230,0.004611910,-0.008897480,0.000055130
1640833440334679808,-0.245714470,-0.075791370,9.406450270,0.006067750,0.065357980,-0.025518240
1640833440335439872,-0.352016330,0.131991800,10.536393170,0.015245380,0.005681810,-0.025920570
1640833440339820032,-0.208101240,0.162554890,10.276340480,0.008657570,0.099594910,0.010007620
1640833440341659904,0.086605700,0.199534040,9.398925780,0.059261920,-0.026173890,0.010082130
1640833440346589952,-0.286897540,0.225167680,10.066170690,0.072227420,-0.050416590,0.007653240
1640833440347360000,-0.133887190,0.410422350,8.733415600,0.004507600,0.023587050,0.016613310
1640833440349469952,-0.303832380,0.474354450,9.726486210,-0.025768580,-0.050747390,-0.003202260
1640833440350449920,-0.277194560,0.567705270,10.298726080,-0.030410300,0.058443860,-0.012925270
1640833440354619904,0.172677640,0.592590510,9.861600880,0.009574000,0.047263500,-0.008085370
1640833440355429888,0.013186640,0.531682910,10.967205050,0.045788280,0.004510580,0.004938250
1640833440359539968,0.175844510,0.390474590,9.690774920,-0.002865490,0.037762520,0.007940830
1640833440361510144,0.043524220,0.224790100,9.417345050,-0.027887530,-0.073783110,0.018151100
1640833440364529920,-0.406458230,-0.015928470,9.574781420,-0.027938190,-0.017613170,0.016680360
1640833440365440000,-0.197811890,-0.165165710,8.737620350,0.003123280,-0.001670420,-0.007872280
1640833440370009856,-0.289282950,0.043802820,9.984703060,0.025750700,0.001583990,0.000442560
1640833440371229952,-0.071012050,0.127503200,10.095689770,-0.026851890,0.120489300,0.006702540
1640833440374840064,0.253777800,0.191706870,10.390394210,-0.025597220,0.017307700,0.003467500
1640833440375879936,0.033434030,0.432578740,10.611031530,0.004899500,-0.032681230,0.010190910
1640833440381459968,0.221813230,0.273059340,8.933909420,-0.001040100,-0.019861760,0.014500320
1640833440381929984,0.025224190,0.070127830,9.075077060,0.051140790,-0.028495490,0.015541910
1640833440384519936,-0.252733200,0.027700970,9.201657300,0.029996040,0.084066390,-0.012472270
1640833440385749760,-0.059373540,-0.002990860,9.492444990,-0.012266640,0.039991730,0.002245600
1640833440389720064,-0.335623980,0.041445350,10.589118000,0.003308060,0.012427570,-0.009360910
1640833440392439808,-0.117360060,0.122427090,9.880967140,-0.014816220,0.011081990,-0.035420060
1640833440394549760,0.019829930,0.151114030,9.937689780,0.035224850,-0.002922120,0.011563300
1640833440396549888,-0.215370070,-0.221309110,9.919478420,0.099061430,0.066757210,0.003810230
1640833440399520000,-0.101206540,-0.261171730,9.530986790,0.111350420,0.000971560,-0.011286140
1640833440400899840,-0.398926440,0.126355380,9.668662070,0.068649660,-0.052715840,0.009042020
1640833440404620032,-0.407266970,0.114528780,9.209529880,-0.030149530,-0.018642840,-0.022228060
1640833440406259968,-0.134662370,0.521026850,9.598909380,-0.021238630,-0.001223390,-0.029832130
1640833440413420032,-0.238531200,0.826719940,10.408031460,0.052632390,0.066845130,-0.011789800
1640833440414240000,0.223756540,0.662854850,10.335965160,0.079193720,0.056308510,-0.002793970
1640833440414799872,0.197555360,0.829427720,10.411881450,0.070983180,-0.004939740,0.013579430
1640833440415769856,-0.086049490,0.629015210,9.819496150,-0.013534720,-0.042501100,0.027458370
1640833440421779968,-0.069856230,0.275970820,9.011884690,-0.054903330,-0.063273320,0.025050340
1640833440422860032,-0.437351880,0.249718220,9.143069270,-0.009068850,-0.030456490,-0.002467630
1640833440424470016,-0.258430510,0.160283770,9.429512020,-0.002475080,0.060628360,-0.009752810
1640833440425699840,-0.022678500,0.176581980,10.233752250,0.019909440,0.090508160,0.009082260
1640833440429590016,-0.230659720,0.157023460,11.122055050,0.003321470,0.026524070,0.006915630
1640833440430459904,0.039729200,0.348814430,10.323338510,-0.045815110,-0.063741210,0.016793600
1640833440434880000,-0.048232190,0.340110780,9.345504760,-0.046560160,-0.083324300,0.030571220
1640833440437880064,-0.026966360,0.152176380,8.771319390,-0.023931260,0.023980440,0.000296530
1640833440439569920,0.253501620,0.366996790,8.812663080,0.018797810,0.088456280,-0.003384050
1640833440440509952,0.047382430,0.245426770,10.029944420,0.018350780,0.069573530,0.020800530
1640833440447520000,0.211605670,0.247173460,10.237221720,-0.025522710,0.023597480,0.017885870
1640833440449209856,0.009683100,0.185278000,10.317403790,-0.043082240,-0.057758400,0.020648540
1640833440449669888,-0.256609680,-0.089940240,9.970242500,-0.032064320,-0.012508040,0.033612550
1640833440450449920,-0.152272940,-0.358837570,9.324375150,0.042770800,0.030350690,-0.003567340
1640833440454479872,-0.407515940,-0.411565930,9.636456490,0.108470020,0.055092580,-0.033666190
1640833440455440128,-0.247044460,-0.068222660,9.259978290,0.052431230,0.047788020,-0.014537570
1640833440459559936,-0.313340600,-0.062290820,9.533797260,-0.015288590,-0.031776730,-0.004026290
1640833440460419840,-0.356578680,0.157864540,9.836001400,-0.024138390,-0.023561720,0.012399260
1640833440464679936,-0.128007460,0.462323430,9.731240270,0.041261310,-0.005824860,0.011038780
1640833440466019840,-0.189410750,0.092160820,10.451883320,0.118990250,0.019624830,0.004848840
1640833440469519872,0.179782790,0.356185380,9.959910390,0.131106380,0.068674990,-0.003790860
1640833440470429952,0.056638520,0.512835920,10.090661050,0.047630070,0.006520750,-0.000160930
1640833440474439936,-0.171662210,0.418598030,9.773230550,-0.043371320,-0.032515830,0.025990610
1640833440475729920,-0.053450200,0.687791050,8.655773160,-0.043676790,-0.102612380,-0.010354820
1640833440479470080,-0.357470840,0.525718750,9.287227630,0.008004900,-0.014136730,-0.021451710
1640833440480489984,-0.227953580,0.488403770,9.777708050,0.070932490,0.116480870,0.006981190
1640833440484549888,-0.302654860,0.345261570,11.015412330,0.079549860,0.008144970,-0.009900330
1640833440485499904,-0.382560670,0.262035460,11.063021660,-0.000818070,-0.049529970,0.037643310
1640833440489440000,0.026670840,0.409890860,9.148652080,-0.071993470,-0.097241990,0.043469670
1640833440490870016,-0.101385220,0.090198840,9.204032900,-0.070120380,-0.042426580,-0.010536610
1640833440494449920,0.174675430,0.278815980,8.715062140,0.007171930,0.088964410,-0.018212200
1640833440495399936,0.141759040,0.373746450,9.623842240,0.070889300,0.014834110,-0.018541510
1640833440499589888,-0.107045520,0.152592020,10.714090350,0.012037160,-0.018668180,0.013336540
1640833440500730112,0.176509380,0.454821200,9.538884160,-0.060923390,-0.046794110,0.053070480
1640833440504499968,-0.209494640,0.094989830,10.330631260,-0.086081040,-0.052739680,0.052575770
1640833440505440000,-0.049486700,-0.117698540,9.627443310,-0.014828150,0.064554820,0.016550720
1640833440509440000,0.150917190,0.038059380,9.127509120,0.090518590,0.002773110,-0.043722990
1640833440510399744,-0.155561790,-0.102432960,9.904210090,0.082108360,0.041387980,-0.022885200
1640833440514669824,0.012603130,0.087132270,8.920289040,-0.002838670,0.007379060,0.001703200
1640833440515579904,-0.499120950,0.013825450,10.042792320,-0.042784210,-0.118537250,0.013060870
1640833440519480064,-0.561477070,-0.101243320,9.672837260,-0.014029450,-0.014309590,0.030170380
1640833440520429824,-0.213252170,0.024317070,9.328479770,0.083094840,-0.022302570,-0.004388390
1640833440524580096,-0.262108060,0.043537710,10.644608500,0.116583710,0.069868550,-0.028227270
1640833440525469952,0.284430210,0.335845440,9.554818150,0.060789290,0.084252660,0.000853840
1640833440529969920,0.102579570,0.374681120,10.246400830,0.011277200,-0.082479420,0.009720030
1640833440530850048,-0.035346400,0.247121360,9.530733110,-0.016841290,-0.061054540,0.026935340
1640833440535559936,-0.006109470,0.207989990,8.460199360,0.058020650,-0.104933980,0.018918520
1640833440536099840,-0.489427240,0.101293210,9.985677720,0.124523060,0.005108120,0.003129240
1640833440539539712,-0.298635070,0.275092870,9.957432750,0.069972870,0.087499630,-0.010544060
1640833440540529920,-0.186249910,0.470108150,10.822788240,0.021511320,-0.059795380,0.005149840
1640833440546649856,-0.135450600,0.543982090,10.542302130,-0.034591550,0.001996760,0.017471610
1640833440547809792,0.206522460,0.530287440,9.047741890,-0.007952750,-0.065305820,0.004003940
1640833440549479936,-0.123698160,0.442727740,9.694889070,0.083889070,-0.076229880,0.004945690
1640833440550479872,-0.102368210,0.478658560,8.852045060,0.065815430,0.023050610,0.005222860
1640833440554669824,-0.038614770,0.384620930,9.514416690,0.005036590,-0.059100990,0.035127990
1640833440555470080,-0.278442200,0.347665790,10.620461460,-0.055888310,0.029768050,0.039388240
1640833440559480064,0.050803340,0.167849960,9.901352880,-0.068315860,-0.019966070,0.034880630
1640833440561609984,0.094986260,0.053550810,10.379468920,0.038179760,-0.057552760,0.022274250
1640833440564479744,0.169607220,0.097731460,9.491809840,0.071497270,0.048354260,-0.027707220
1640833440565440000,0.361038800,0.228306470,9.035084720,0.029215210,-0.023679440,-0.005018710
1640833440569459968,-0.020129240,0.253196840,9.716299060,-0.023005900,0.007079540,0.016228850
1640833440570449920,-0.028921710,0.027487580,9.206348420,-0.066392130,-0.013913220,0.001534820
1640833440574710016,-0.270120860,0.055206120,9.831191060,0.016182660,-0.074639920,0.020432470
1640833440579190016,-0.550022900,-0.030812650,10.016244890,0.075967620,0.017541650,-0.011509660
1640833440580430080,-0.301889090,0.077049150,9.750412940,0.059047350,-0.013293330,-0.029820210
1640833440580819968,-0.306651590,0.480493340,10.043260570,0.006157160,-0.021658840,-0.004151460
1640833440584600064,0.136024330,0.229918080,9.363964080,-0.058142840,0.049710270,0.013779100
1640833440585389824,0.263132040,0.057021080,9.696425440,0.025205310,0.007283690,0.035867090
1640833440589519872,-0.118278570,-0.017679820,10.017339710,0.140589490,-0.036454200,0.002413990
1640833440590799872,0.028948430,-0.037969830,9.257540700,0.096717480,-0.086402900,-0.015041230
1640833440594879744,-0.190467390,0.242832380,9.529976840,0.015844400,-0.041760510,-0.010280310
1640833440596029952,-0.225067560,0.363389820,9.960246090,-0.074866410,0.058871510,-0.026990480
1640833440599529984,0.047972120,0.565541030,10.213684080,-0.038531430,0.031611320,-0.005027650
1640833440601929984,-0.181118090,0.634121780,10.573349950,0.080312790,-0.025722390,-0.002430380
1640833440604460032,-0.040559380,0.548695680,9.747830390,0.096854570,-0.041380520,-0.008368490
1640833440605440000,-0.311393380,0.520545660,9.320559500,0.037184360,-0.079132620,0.020676850
1640833440610259968,-0.561386050,0.251014590,9.463171010,-0.055523220,-0.049373510,0.019657610
1640833440610949888,-0.096917030,0.235825960,9.217004780,-0.073292840,0.012905890,0.009205940
1640833440614579968,-0.130094020,0.314649020,10.138319020,-0.010125340,0.009670850,0.007347760
1640833440615639808,0.274461000,0.256359310,10.336060520,0.017510360,0.062735380,0.008277600
1640833440619449856,0.524929290,0.206817310,10.139528270,0.040145220,-0.004068020,0.002482530
1640833440620460032,0.055884080,0.151343520,10.360367770,0.018540030,-0.067856920,0.014582270
1640833440624960000,0.219462720,0.153694110,8.954511640,-0.036165120,-0.050035130,0.028094650
1640833440625799936,-0.142307610,-0.068410080,8.967926030,-0.023646650,-0.035107140,0.010682640
1640833440629439744,-0.214287460,0.076100540,9.328622820,0.006403030,0.083227460,0.005580490
1640833440630459904,-0.032437890,0.218658310,9.667374610,0.017991660,0.071755060,-0.013351440
1640833440635129856,-0.375800670,0.147008820,10.897985460,0.026085970,-0.019733610,-0.001581010
1640833440635559936,0.011165640,0.434452030,9.786437990,-0.000490250,-0.032223750,0.005561110
1640833440639499776,-0.060843660,0.131955030,9.566792490,-0.010232630,-0.037676100,0.017109510
1640833440640729856,-0.098663230,-0.126925410,9.605290410,0.041776900,0.074081120,0.027863680
1640833440645839872,0.169744180,-0.090137100,9.160569190,0.088915230,0.041934850,-0.012227890
1640833440646469888,-0.232748690,-0.240053000,10.004623410,0.067171460,-0.005513430,-0.011064110
1640833440649519872,-0.046624920,0.056257740,9.259527210,0.016118590,-0.015391410,-0.005972390
1640833440652279808,-0.250662710,0.094506640,9.761455540,-0.001789630,-0.061289980,-0.029285260
1640833440654439936,-0.328866150,0.301055400,10.101387980,0.025627020,0.050891940,0.008246300
1640833440655469824,0.054810730,0.348296110,9.840394970,0.088766220,0.048017510,-0.000689920
1640833440659639808,-0.201234790,0.119158730,10.845525740,0.119777030,0.022599100,-0.015926360
1640833440660519936,-0.078580740,0.587117370,9.689500810,0.071996450,-0.007078050,0.010469560
1640833440665499904,-0.357523200,0.473655340,9.430911060,-0.001606350,-0.132086870,-0.009690230
1640833440666210048,-0.523584780,0.578914820,9.168139460,-0.051739820,-0.050361450,-0.014822190
1640833440669479936,-0.054020590,0.905177710,8.758216860,-0.016899400,0.022746620,-0.012093780
1640833440670400000,-0.139694090,0.425371260,10.814006810,0.038179760,0.087212030,-0.012411180
1640833440674690048,0.185716390,0.555663760,10.794926640,0.070460150,0.082670150,0.001496080
1640833440675489792,0.194782610,0.498937580,10.556154250,0.015968080,-0.123640900,-0.001595910
1640833440679529984,-0.087170360,0.220556900,9.768136980,-0.086449090,-0.076144930,0.013664370
1640833440680569856,0.054332490,0.129592600,8.197419170,-0.083495680,-0.038024780,-0.004741550
1640833440685119744,-0.142783220,-0.025648660,9.297360420,0.003804270,0.013439360,-0.032861530
1640833440685609728,0.022291210,0.188962670,9.436848640,0.033496320,0.141076760,-0.009599330
1640833440689649920,0.121884440,0.328034730,10.502953530,0.000649690,0.006027520,-0.004558270
1640833440692379904,-0.138792370,0.254061160,11.112235070,-0.068956620,-0.039708620,0.013358890
1640833440694479872,0.030141500,0.263477710,9.416118620,-0.075076510,-0.055834640,0.021564960
1640833440695430144,-0.139194490,-0.029338650,9.669927600,0.007916990,-0.027607380,-0.005461270
1640833440699579904,-0.100855220,0.012677050,8.966569900,0.060997910,0.109685960,-0.037060680
1640833440700569856,0.054645060,0.239644020,9.209399220,0.029489400,0.037564340,-0.029692060
1640833440704589824,-0.221357260,0.130310490,10.315409660,-0.053268670,0.016170740,-0.011381510
1640833440705949952,-0.135115040,0.161559750,9.549062730,-0.076970470,-0.046202550,-0.008670990
1640833440709549824,-0.208930210,0.108993840,10.128323550,0.011996930,-0.081504880,0.001883510
1640833440710559744,-0.263718580,-0.078999300,9.893527980,0.070603180,0.081187490,-0.007809700
1640833440714479872,-0.050465590,-0.042012070,9.891375540,0.084389750,0.043919690,-0.027126070
1640833440715469824,-0.150417270,0.203016940,10.464615820,0.024884940,0.027789180,-0.010098520
1640833440719509760,-0.120943740,0.277114990,9.358157160,-0.062720490,-0.017702580,-0.012661520
1640833440720509952,-0.204155710,0.471854810,9.491663930,-0.039181120,-0.110200050,-0.022041790
1640833440724509952,-0.357183220,0.751242880,9.252975460,0.002121930,-0.009061400,-0.024002790
1640833440726209792,-0.062006750,0.724102910,9.350769040,0.017385190,0.040672720,0.004987420
1640833440729469952,-0.117543180,0.639427960,10.965242390,0.029441720,0.075641270,0.016471750
1640833440730489856,-0.062502770,0.531966510,10.720564840,-0.029337410,0.007779900,0.003394480
1640833440735089920,0.152632620,0.434166520,9.995220180,-0.071230540,-0.098922850,0.020757320
1640833440735679744,-0.052106160,0.259226830,9.285260200,-0.067405420,-0.035500540,-0.020362440
1640833440739670016,0.090556780,0.157714610,8.493187900,-0.061605860,0.012728570,-0.041408830
1640833440740659968,0.022121290,0.188555400,9.425674440,-0.003957750,0.050511960,0.000385940
1640833440745629952,-0.087901970,-0.151747720,10.115883830,0.000303980,0.061769780,-0.009107590
1640833440746449920,0.040459570,-0.057582510,10.357044220,-0.038048620,-0.020404160,0.027044120
1640833440750659840,-0.247396110,-0.033514470,10.437844280,-0.044372690,-0.051000730,0.033305590
1640833440752290048,-0.081023200,-0.273236690,9.458268170,-0.052665180,-0.003688040,-0.016896430
1640833440754599936,0.049049720,0.110142990,9.172761920,0.016188620,0.034409770,-0.031146410
1640833440755470080,-0.108052330,0.185367120,9.433156010,0.048704440,0.071273730,-0.028014180
1640833440759569920,0.081227470,0.286461860,9.374083520,0.004859270,0.023536380,-0.006268920
1640833440760519936,-0.221031810,0.423190360,10.020428660,-0.013354420,-0.049917400,0.018137700
1640833440765479936,-0.299940560,0.114987810,9.883090970,-0.037704410,-0.029951340,0.024181600
1640833440766119936,-0.174318430,-0.098623870,9.746612550,0.032067300,-0.013342500,0.007765000
1640833440771109888,-0.222625750,-0.241914670,10.047828670,0.110705200,0.053107740,-0.033363700
1640833440771819776,0.073018030,-0.065947980,9.650815960,0.068102780,0.074261430,-0.035333640
1640833440774469888,-0.015354480,0.142183330,9.923866270,0.008276100,-0.015455490,-0.006465610
1640833440776179968,-0.220834230,0.121816270,9.723716740,-0.025999550,-0.051009650,-0.017088650
1640833440779510016,-0.190664780,0.464656470,9.003132820,0.012430550,-0.091362000,-0.006383660
1640833440780609792,-0.454032240,0.404110280,9.760290150,0.079184780,-0.007031860,0.001455840
1640833440785499904,-0.177374410,0.499082210,10.030131340,0.080679360,0.096698130,-0.017629560
1640833440787399936,-0.069602190,0.782405020,10.619425770,0.026683510,0.012698770,-0.002278390
1640833440792839936,0.038515790,0.668133970,10.539171220,-0.051903720,-0.006122890,0.017151240
1640833440793309952,0.399367330,0.642435250,9.012431140,-0.061319780,-0.038945690,-0.009250640
1640833440794419968,0.078417930,0.477390560,9.276947980,0.010548530,-0.041948250,-0.024366380
1640833440795460096,0.063028580,0.405174020,9.049345970,0.033406920,0.076088310,-0.004477800
1640833440799510016,-0.093908850,0.197288720,9.734564780,0.002758200,-0.005653500,0.007544460
1640833440800529920,-0.275425260,-0.034728460,10.719821930,-0.047840180,0.012952090,0.031454860
1640833440804549888,0.022912550,0.066808310,9.722562790,-0.073143850,0.036132340,0.015260280
1640833440805420032,-0.212942970,-0.148734150,10.325737000,-0.031501050,-0.025790940,-0.022573770
1640833440809559808,0.057899780,0.126017090,9.369544030,0.016336140,0.059789420,-0.039088730
1640833440810519808,0.245578410,0.377764700,8.779237750,0.015069550,0.021392110,-0.037938360
1640833440814519808,-0.055784770,0.160711040,9.880821230,-0.010925530,0.044509760,0.004927810
1640833440815619840,0.211993930,0.332579910,9.175580980,-0.036923590,0.053340200,0.014020500
1640833440820179968,-0.247257810,0.061444090,10.419977190,-0.019022820,-0.042921310,0.016792120
1640833440821199872,-0.188049380,0.004138410,10.067905430,0.021776560,0.060731180,0.004482270
1640833440824800000,-0.049771440,0.140982210,9.455132480,0.032743820,0.002405050,-0.046214470
1640833440825739776,-0.274550650,-0.036314320,10.157436370,0.010940430,0.062492490,-0.018665200
1640833440829479936,0.113453670,0.097664920,9.070629120,0.017729400,0.100310160,-0.000055130
1640833440830509824,-0.322652610,-0.022647320,10.108899120,0.042614340,-0.061993310,-0.002020600
1640833440834659840,-0.471555290,0.211851180,9.618949890,0.027745960,-0.022307040,0.024220350
1640833440837499904,-0.242988680,0.376323850,8.957028390,0.001263620,-0.032313170,-0.000835960
1640833440839479808,-0.585775910,0.296541330,10.691295620,0.001622740,0.053168840,-0.011804700
1640833440840529920,-0.003667800,0.725696740,9.951968190,0.018148130,0.096292790,-0.021073220
1640833440844480000,0.077562240,0.727617980,10.515405650,0.021606680,-0.033050770,-0.022897120
1640833440845459968,0.060213070,0.701460360,10.003306390,-0.011333820,0.004580620,-0.002397600
1640833440849540096,0.303594110,0.858753560,8.593427660,-0.041191280,-0.046603390,0.004610420
1640833440850970112,-0.258555230,0.340897890,9.758017540,-0.058032570,-0.022585690,0.043223800
1640833440854519808,-0.143793280,0.045297060,9.396637920,-0.011755530,0.049172340,0.015264750
1640833440856679936,-0.170199920,0.011903470,10.211594580,0.018070640,-0.031103200,-0.004568700
1640833440859469824,-0.370090840,-0.016670940,10.770487790,-0.028719010,0.036734350,-0.001174210
1640833440860499968,0.099439260,0.173102450,9.541161540,-0.085867940,-0.001399220,-0.033660240
1640833440864649984,-0.057385790,0.282667100,9.938425060,-0.077341500,-0.030912460,-0.038634250
1640833440868779776,0.023187070,0.393861800,8.916934010,-0.023271140,0.040522230,-0.007863340
