# timestamp,accel_x,accel_y,accel_z,gyro_x,gyro_y,gyro_z
1640836237.792060,0.133025690,0.248098630,9.768205640,0.105033840,0.090189280,0.005066400
1640836237.792620,-0.246544880,0.199425970,10.330545430,0.085704040,0.067664700,-0.002196430
1640836237.796660,-0.106645020,0.098225360,9.904152870,0.010223680,-0.057055050,0.022475420
1640836237.797259,-0.335652920,0.110598130,9.662314410,0.019156930,0.004462900,0.018826130
1640836237.801740,-0.411440940,-0.063076790,9.433266640,0.057047600,0.075744080,-0.013041500
1640836237.802270,-0.477281210,0.201669870,10.321701050,0.130115450,0.030998890,-0.003571810
1640836237.806800,-0.567290660,0.628770350,10.139062880,0.091895460,0.030513110,-0.006872420
1640836237.808879,-0.178525480,0.554338280,9.671336170,-0.003063680,-0.030185280,0.012689830
1640836237.813279,-0.298919170,0.652082200,10.185524940,0.021103020,0.030484790,0.032624600
1640836237.814230,-0.257035550,0.574910820,9.748351100,0.070352850,0.038459900,0.003522640
1640836237.816779,-0.151852120,0.516825680,10.142671590,0.104290270,-0.055262450,0.020109120
1640836237.817760,-0.204425170,0.732811630,9.800232890,0.066953900,0.014998020,0.025387110
1640836237.821930,0.057381040,0.516298290,9.560034750,-0.029224160,0.016717610,0.013722480
1640836237.823180,-0.118605170,0.436189710,10.552598950,-0.021189450,0.032991170,0.045754020
1640836237.827139,-0.240052910,0.271734950,10.011191370,0.047652420,0.013031060,0.004622340
1640836237.828650,-0.194119780,0.221759360,9.794624330,0.099161270,-0.089207280,-0.003997980
1640836237.832790,-0.368064460,0.623238330,9.637379650,0.042274590,0.006182490,0.026877230
1640836237.833770,-0.218702390,0.510888760,9.358823780,-0.079540910,0.034183260,0.023321810
1640836237.836880,-0.265761410,0.245707660,10.520565030,-0.041772430,0.011414290,0.029036400
1640836237.837649,-0.080569920,0.391380160,9.890857700,0.076043600,0.031208990,0.006623570
1640836237.842100,0.039616290,0.384886410,9.679677960,0.091966990,-0.042112180,0.009544190
1640836237.843070,-0.239890530,0.355511930,10.134254460,0.018440190,0.014775990,0.045973060
1640836237.847460,-0.057911720,0.191805330,9.319565770,-0.047327580,0.001521410,0.024449830
1640836237.848209,-0.099434090,-0.119815000,9.849090580,0.015848880,-0.033120810,0.021658840
1640836237.851820,-0.032526990,0.032192700,9.616209980,0.088490550,0.101715350,0.009785590
1640836237.852609,-0.079312300,0.001219640,9.967941280,0.105929370,0.030471380,-0.007653240
1640836237.856750,-0.513683140,0.052400990,10.681529050,0.074419380,-0.054678330,0.013984740
1640836237.858160,-0.252583740,0.335494010,9.129616740,0.014910100,-0.042539840,0.032590330
1640836237.861860,-0.385479030,0.088886150,9.538263320,0.018791850,0.001743440,0.008912380
1640836237.862660,-0.420466810,0.276592140,10.200261120,0.095628200,0.091820960,0.001871590
1640836237.866720,-0.311100420,0.584867300,10.058363910,0.137573500,-0.007063150,-0.007291140
1640836237.867420,-0.341996730,0.564470530,10.170146940,0.077092650,-0.082175440,0.003966690
1640836237.871820,0.028702550,0.762494680,9.401763920,0.008554760,0.003080070,0.030128660
1640836237.872579,-0.065507200,0.612223270,9.814713480,0.013054910,0.034734610,0.010533630
1640836237.877869,-0.239647150,0.393193600,10.551511760,0.067745150,0.001123550,0.011254850
1640836237.879230,-0.122830290,0.531289280,9.976525310,0.118929140,-0.053188200,0.017680220
1640836237.881749,-0.137317900,0.368417080,9.535259250,0.064465400,-0.052273280,0.005313750
1640836237.882419,-0.084302270,0.439796450,9.778072360,-0.035934160,0.040650380,0.027848790
1640836237.886740,-0.175243110,0.446933180,9.966799740,-0.022703410,0.036035480,0.025206800
1640836237.887450,-0.254012410,0.106288630,10.242447850,0.049743060,-0.064004960,-0.003950300
1640836237.892840,-0.213819440,0.489082840,9.761887550,0.119592270,-0.042292480,0.009199980
1640836237.893760,-0.323389290,0.631289960,9.330244060,0.033849480,-0.009067360,0.003002580
1640836237.896700,-0.267714620,0.357227920,10.040933610,-0.070758160,-0.004290040,0.025764110
1640836237.897480,-0.116447030,0.394243750,9.797575000,-0.005073850,0.028921670,0.019828970
1640836237.902459,0.069166180,0.249072780,9.641510010,0.072024750,-0.019270180,-0.007385020
1640836237.903139,0.116175520,0.313940760,10.156350140,0.086036320,0.020809470,0.020280480
1640836237.907120,-0.071911130,0.285758140,9.766386030,0.037872800,0.021517280,0.003816190
1640836237.909190,-0.148995130,-0.086067970,9.966605190,-0.016069410,-0.100705030,0.005817410
1640836237.911810,-0.160821830,0.053507810,9.477262500,0.030742590,0.005969410,0.013618170
1640836237.912560,-0.101468620,0.104435520,9.061346050,0.066918130,0.057786710,-0.022636360
1640836237.916669,-0.368451540,0.091813250,10.707498550,0.089481480,0.010381640,-0.007501250
1640836237.917460,-0.415725080,0.453840290,9.917534830,0.077641010,-0.006040930,-0.001187620
1640836237.921790,-0.322539270,0.305778000,9.422866820,0.030526520,-0.115750730,-0.004500150
1640836237.922989,-0.507205430,0.364338010,10.034891130,0.033712390,0.015920400,0.013545160
1640836237.926940,-0.310380370,0.633166910,9.360836030,0.053809590,0.053268670,-0.011445580
1640836237.927810,-0.303735110,0.489515990,10.581403730,0.072953130,-0.070908680,-0.004862250
1640836237.931810,-0.185501770,0.622900780,10.074731830,0.066924100,0.012792650,0.007760530
1640836237.932489,0.136802150,0.615568340,9.333929060,0.024086240,-0.055637960,-0.016377870
1640836237.936710,-0.225552450,0.431341410,10.587914470,0.009068850,-0.020301340,0.018925970
1640836237.937500,-0.096364480,0.488971770,9.377758030,0.015671550,0.026020410,0.005221370
1640836237.941880,-0.091137550,0.243833330,9.868246080,0.058177110,-0.109580170,-0.008843840
1640836237.942930,-0.277804430,0.399311720,10.045198440,0.065095720,0.030729170,0.009706620
1640836237.946890,0.059139500,0.656769510,9.077661510,-0.016877060,0.006082650,0.004069510
1640836237.947899,-0.369805460,0.251705880,10.888026240,-0.036112970,-0.044263900,0.007504220
1640836237.951670,-0.230577260,0.301835780,9.767066000,0.023931260,0.022928420,-0.004097820
1640836237.954150,-0.145812260,0.369310950,9.333002090,0.090152040,-0.115154700,-0.013078750
1640836237.956689,-0.452890900,0.310631280,10.063851360,0.031150880,0.004507600,0.004155930
1640836237.958119,0.152644690,0.434012060,8.831111910,-0.056034330,0.069212910,0.004917380
1640836237.961920,-0.065732400,0.075747910,10.397882460,-0.009474160,-0.037206710,-0.010445710
1640836237.962700,-0.020386380,0.121070560,10.134074210,0.064533960,0.039538740,-0.004084410
1640836237.966770,0.209972400,0.256684570,9.290738110,0.089190910,-0.060683490,0.000445540
1640836237.967530,-0.349192500,0.008385240,10.446305270,0.031153860,-0.035656990,-0.004704300
1640836237.972080,-0.153696240,0.172329190,9.311535840,-0.005923210,0.031785670,0.002649430
1640836237.972829,-0.263191730,0.082281010,9.526618960,0.039802490,-0.042104720,-0.014270840
1640836237.976650,-0.449842040,0.157109920,10.202902790,0.063452130,0.030595060,-0.031140450
1640836237.977200,-0.154183940,0.589796190,9.473126410,0.077019620,0.001627210,-0.025530160
1640836237.981650,-0.385097590,0.457199250,10.150498390,0.041173390,-0.061322740,-0.024701650
1640836237.982280,-0.189538340,0.499936370,9.870727540,0.007016960,0.014868380,-0.008130070
1640836237.987300,-0.188607540,0.504923050,9.782809260,0.060911480,-0.010316070,-0.011456010
1640836237.989930,-0.404971480,0.482373090,10.341785430,0.057461860,-0.048457090,-0.020413100
1640836237.992100,-0.091285790,0.635750890,9.447927470,0.021778050,-0.027456880,-0.000076000
1640836237.993049,-0.067422630,0.435024020,9.484930040,0.024962430,-0.023604930,-0.013966860
1640836237.996790,-0.048270360,0.445247200,10.118369100,-0.000812110,0.027361520,-0.023028260
1640836237.997619,0.023737430,0.520815970,9.934103010,0.019288060,0.017286830,-0.006835160
1640836238.001930,-0.134836420,0.360910120,10.204994200,0.027826430,-0.072194640,-0.025190410
1640836238.003110,-0.126132500,0.507450520,9.804924960,0.014556940,-0.047087670,-0.014904140
1640836238.006670,-0.030542710,0.576686740,9.009404180,-0.005283950,0.010417400,-0.003519650
1640836238.007249,-0.187706470,0.405719700,10.054667470,-0.046750910,0.022514160,-0.017437340
1640836238.011799,-0.113855490,0.348051070,9.977417950,0.020170210,0.041675570,-0.002564490
1640836238.012200,-0.047791940,0.332815800,9.554332730,0.053791700,-0.067666160,-0.016668440
1640836238.016670,-0.251898830,0.379486440,10.153915410,0.001551210,-0.023815040,-0.012753910
1640836238.017220,-0.199983270,0.306277130,9.365140910,-0.047141310,0.026105350,-0.000654160
1640836238.021809,-0.169331910,0.023674870,9.809329030,-0.019021330,-0.055223710,-0.038656590
1640836238.023739,-0.215942080,0.157028240,9.977298740,0.045077500,0.056903060,-0.029630960
1640836238.026630,0.167509690,0.405720470,9.217402460,0.036068260,0.023467840,-0.016532840
1640836238.027119,-0.162374000,0.303095040,10.664038660,-0.015406310,-0.027135020,-0.017359850
1640836238.031600,-0.166873340,0.385220590,9.790806770,-0.035177170,0.012201070,-0.003680590
1640836238.031960,0.081094530,0.298052160,9.252336500,0.014969710,-0.082004070,-0.022649770
1640836238.036769,-0.415380570,0.309266420,10.339921950,0.046394760,0.063212220,-0.039786100
1640836238.037840,-0.151588440,0.797117590,9.431891440,0.012490150,0.046350050,-0.035764270
1640836238.041760,-0.311022580,0.871179220,10.408246990,-0.070992110,-0.077003250,-0.011171400
1640836238.042410,-0.256387500,0.614337380,9.913262370,-0.085105000,0.042147930,-0.013305250
1640836238.046929,0.051362300,0.597114030,9.292366030,-0.001922250,-0.005137920,-0.027395790
1640836238.048030,-0.536799310,0.583583890,10.731933590,0.044384600,-0.019764900,-0.016194580
1640836238.052160,-0.126500430,0.630760310,9.339295390,-0.056727230,0.006733840,0.004258750
1640836238.053340,0.050846240,0.473052920,9.608852390,-0.116825110,-0.052650280,0.001980360
1640836238.056900,-0.060991970,0.172811940,10.181848530,-0.084207950,0.087517510,-0.013782080
1640836238.058009,0.313429500,0.297636750,9.559796330,-0.021629030,0.061480700,-0.021903220
1640836238.061940,-0.254046170,0.237769510,10.711688040,0.013460220,-0.058181590,-0.012803080
1640836238.062460,-0.219580200,0.221925140,9.493349080,-0.051154200,-0.033155090,-0.004915890
1640836238.066850,-0.015294380,0.396599140,8.847023960,-0.096124430,-0.033846500,-0.003382560
1640836238.068879,-0.372739320,0.289041400,9.922502520,-0.100810830,0.097799310,-0.002165140
1640836238.072300,-0.057552480,0.217269150,9.915450100,-0.036454190,0.077691670,-0.028429930
1640836238.072919,-0.243882970,0.287710040,10.470358850,0.052511690,-0.039947030,-0.018291170
1640836238.077080,-0.342625650,0.321754220,9.681118010,-0.019004940,-0.038737060,-0.009946530
1640836238.078879,-0.140330810,0.275916340,9.082989690,-0.092068320,-0.018832090,-0.002971290
1640836238.081650,-0.359914780,0.073848170,9.792057990,-0.077483050,0.058442350,-0.020588940
1640836238.082190,-0.137067780,0.084840510,9.795382500,-0.010021030,0.048665700,-0.034128130
1640836238.087000,-0.016571480,0.273616820,10.054945950,0.060580670,0.001378360,-0.029876830
1640836238.088270,-0.094841120,0.380236000,9.967689510,-0.005942580,0.003856420,-0.028693680
1640836238.092419,-0.090132590,0.421420750,9.849230770,-0.080561640,-0.015188750,-0.014021990
1640836238.093580,-0.304780990,0.390321670,9.822082520,-0.061291450,-0.000490250,-0.010891260
1640836238.096720,-0.315142330,0.376615200,9.616945270,-0.004206600,-0.015136600,-0.026345250
1640836238.097720,-0.334502910,0.587994990,9.811546330,0.037807230,0.024855140,-0.024294860
1640836238.102130,-0.362297090,0.840079250,9.940834050,-0.048580770,0.012753900,-0.023226440
1640836238.103099,-0.312751050,0.620075580,10.276353840,-0.115352880,-0.029192870,-0.010554490
1640836238.107030,-0.183459330,0.453496460,9.887340550,-0.053983930,-0.003300610,-0.026527050
1640836238.107900,-0.115754990,0.627425490,9.812198640,-0.020061430,-0.008465350,-0.039145350
1640836238.111840,-0.261382070,0.593425750,10.143441200,-0.044657300,0.002068280,-0.015394390
1640836238.112650,0.076567630,0.536134540,9.470768930,-0.106194620,-0.018344820,-0.008673970
1640836238.116690,0.007404470,0.244281740,9.791110040,-0.105769930,-0.033527620,-0.013811880
1640836238.117149,0.030642660,0.250712450,9.744983670,-0.058147310,0.057771810,-0.017841160
1640836238.121719,-0.060994350,0.349908830,10.097249980,-0.055870410,-0.006675720,-0.016488130
1640836238.123360,-0.447869480,0.155916040,10.430396080,-0.069911790,-0.049968080,-0.009466710
1640836238.126760,-0.129897550,0.259781720,9.191722870,-0.085957330,-0.033915050,-0.008612870
1640836238.127270,-0.224790070,0.263248710,9.485120770,-0.096344960,0.022694470,-0.020153820
1640836238.131680,-0.228935690,0.255503890,9.927423480,-0.076092760,0.102306910,-0.028346480
1640836238.132239,-0.026151880,0.316667770,10.112357140,-0.043545670,-0.016906860,-0.024546680
1640836238.136659,-0.305886920,0.185895730,10.110353470,-0.024971370,-0.069068380,-0.015375020
1640836238.137240,0.026086780,0.303812090,9.037717820,-0.060361620,-0.021345920,-0.002190470
1640836238.142840,-0.227027730,0.231280360,9.835247990,-0.085794930,0.038844350,-0.007091460
1640836238.143450,-0.332755740,0.104188460,10.119956970,-0.072237860,0.052079560,-0.024802980
1640836238.148100,-0.038756140,0.255488810,9.881988530,-0.010304150,-0.033602120,-0.023090840
1640836238.149060,-0.219005020,0.285132230,9.831171990,0.002105530,0.007781390,-0.015564270
1640836238.151770,-0.076916650,0.426718440,9.556168560,-0.062885880,0.006958840,-0.014388560
1640836238.152429,-0.365287960,0.504172330,10.203621860,-0.083383940,-0.012317300,-0.013484060
1640836238.157220,-0.411510880,0.352946160,9.774959560,-0.064885620,-0.008475780,-0.025703020
1640836238.158680,-0.142669220,0.467870120,9.799307820,-0.012877580,-0.026029350,-0.024983290
1640836238.161810,-0.309236910,0.732775570,10.047693250,-0.021076200,0.064450500,-0.021870440
1640836238.163349,-0.127170260,0.720131400,9.931221010,-0.111930070,-0.009062890,-0.014467540
1640836238.166839,-0.066314820,0.586573480,10.184528350,-0.103284420,-0.029523670,-0.003637370
1640836238.167640,0.024352000,0.428728820,9.343649860,-0.066733360,0.023049120,-0.028212370
1640836238.172010,-0.049740990,0.434020490,10.024895670,-0.034014880,-0.008223950,-0.020487600
1640836238.172799,-0.231881110,0.515148220,10.197504040,-0.065870580,0.030058630,-0.007534030
1640836238.179250,-0.081550750,0.240944240,9.536117550,-0.142140700,-0.048558410,-0.021308660
1640836238.179989,-0.079613810,0.238957880,9.925410270,-0.101989490,-0.003801290,0.001937150
1640836238.181919,-0.032246010,0.222398250,9.563739780,-0.062216830,0.107596820,-0.014734270
1640836238.182740,-0.250314770,0.142088830,10.362532620,-0.043657430,-0.017975270,-0.016193090
1640836238.186699,-0.350544210,0.286139880,10.161069870,-0.055624540,-0.040155650,0.002509360
1640836238.187340,0.038722390,0.218127370,8.712294580,-0.106932250,-0.011259320,-0.028303270
1640836238.191720,-0.196687270,0.197370010,9.889451030,-0.101889690,0.071471930,-0.014297670
1640836238.192360,-0.187442590,0.309551600,10.167403220,-0.061133520,0.124061120,-0.027580560
1640836238.196709,-0.175635960,0.181605010,10.168414120,-0.020723040,-0.085018580,-0.031739470
1640836238.197280,-0.290021120,0.246114420,9.874647140,-0.018639860,-0.048103920,0.002896790
1640836238.201630,0.000472770,0.213519570,8.886854170,-0.075486300,0.073885930,-0.014238060
1640836238.201990,-0.407557280,-0.058164030,10.375131610,-0.073505950,0.035414100,-0.014242530
1640836238.206760,-0.306054620,0.117168000,10.170125010,-0.013381250,0.030130150,-0.018668180
1640836238.207530,-0.056024100,0.250000950,9.431364060,-0.000707810,-0.050345060,-0.042337180
1640836238.212010,-0.305696400,0.310054270,10.063241960,-0.027512020,0.012771790,-0.018726290
1640836238.213359,-0.091637390,0.563846590,9.729639050,-0.067295120,0.060857820,-0.016245240
1640836238.216699,-0.383221750,0.400277970,10.288475040,-0.051765140,-0.024661420,-0.031861660
1640836238.217219,-0.363763270,0.560862660,10.053041460,-0.014910100,-0.025910140,-0.019548830
1640836238.221959,-0.165583240,0.737482610,9.377383230,-0.019113720,0.000847880,-0.025603180
1640836238.222669,-0.403090000,0.710798500,10.014601710,-0.080747900,0.015102330,-0.009551650
1640836238.227599,-0.156254990,0.732804480,10.135117530,-0.118006750,0.013206900,0.012664500
1640836238.228809,-0.086984200,0.357068900,9.908996580,-0.067877770,0.013415520,-0.018459560
1640836238.231629,-0.132065640,0.264304910,10.193552020,-0.023230920,-0.012961030,-0.012174250
1640836238.231989,-0.131615580,0.550530730,10.039527890,-0.042976440,0.012150410,-0.005470220
1640836238.236680,-0.131401180,0.310545120,9.617439270,-0.133617240,-0.017599760,-0.003463030
1640836238.237280,0.004545640,0.251823070,9.810712810,-0.136113180,-0.008833410,0.002667310
1640836238.241720,0.050030590,0.366272120,9.574977870,-0.063326950,0.100104520,-0.027528410
1640836238.244639,-0.151559370,0.287921370,10.263471600,-0.044703490,0.011806190,-0.021630530
1640836238.246870,-0.288882340,0.603825210,10.558040620,-0.059375170,-0.035135450,-0.000040230
1640836238.247660,-0.149017480,0.468550380,9.139379500,-0.131291150,-0.013080240,-0.015866760
1640836238.251670,-0.040291690,0.306202740,9.494317050,-0.141833740,0.003424290,0.006285310
1640836238.252070,-0.045340790,0.295579580,9.901684760,-0.058515370,0.168609620,0.002601740
1640836238.256780,0.061065210,-0.066600260,10.050896640,-0.019803640,0.043845180,-0.031529370
1640836238.257449,-0.178849910,0.068047500,10.597877500,-0.017516310,-0.070153180,0.004480780
1640836238.261839,-0.052274680,0.089944250,8.904851910,-0.096918650,0.021542610,0.005909800
1640836238.262640,-0.164462540,-0.327647330,9.464978220,-0.118237730,0.014264880,-0.010199840
1640836238.266630,-0.518614170,-0.065134240,10.409035680,-0.017015640,0.110279010,-0.015789270
1640836238.267140,-0.144808020,0.126809970,9.420180320,0.030010940,0.023703280,-0.039543220
1640836238.271950,-0.286647410,0.224671690,10.319673540,0.002376740,-0.018262870,-0.005282460
1640836238.273180,-0.197390930,0.552244370,9.704918860,-0.060711810,0.106595470,-0.007776920
1640836238.276820,-0.169418570,0.290045560,9.899382590,-0.059276820,-0.022523110,-0.018338860
1640836238.277819,-0.449839410,0.401776190,10.297122000,0.010952350,-0.006219750,-0.002351400
1640836238.281720,0.120092760,0.684381720,8.831877710,0.020638110,0.064224000,-0.034379960
1640836238.282379,-0.255981240,0.506783660,10.355211260,-0.019782780,0.038395820,-0.017681720
1640836238.286670,-0.337600020,0.639040710,10.422960280,-0.067310040,0.052575770,0.003588200
1640836238.287230,-0.070499540,0.418746110,9.623080250,-0.059638920,-0.051334500,-0.011685490
1640836238.291829,-0.416545930,0.165775600,10.243283270,-0.009521840,-0.011640790,0.002522770
1640836238.292699,-0.183037710,0.480847630,9.435310360,-0.006188450,0.103816390,-0.008834900
1640836238.296650,-0.402762060,0.395861740,10.253652570,-0.058366360,0.000903010,-0.014206770
1640836238.297200,-0.300762060,0.368273680,10.257406230,-0.088506940,-0.011390450,0.022552910
1640836238.301659,0.204681930,0.427543970,9.017810820,-0.044113400,0.031268600,-0.021192430
1640836238.302019,-0.117927090,0.391610380,10.119904520,-0.021800400,0.048305090,-0.023406750
1640836238.306820,-0.091790370,0.700256350,10.204450610,-0.044131280,0.057722630,0.010843580
1640836238.307649,-0.121064570,0.515970230,9.838456150,-0.070181500,-0.033327940,0.000950690
1640836238.311940,-0.089816260,0.246384500,9.770581250,-0.080007320,-0.031335650,0.008822980
1640836238.312780,0.092436660,0.343372020,9.251049040,-0.036437810,0.106179710,0.008961560
1640836238.316690,-0.130211520,0.023296770,10.075625420,-0.016649070,0.088183590,-0.020156800
1640836238.317279,-0.174752770,-0.076025790,10.572288510,-0.014358760,0.012034180,0.009027130
1640836238.321960,-0.199665460,-0.004153510,9.527487750,-0.006063280,-0.014933940,-0.007314980
1640836238.323330,-0.257754470,-0.272153820,9.415328030,-0.047038490,-0.019709760,-0.009982290
1640836238.326850,-0.360693690,0.009431930,9.856050490,-0.008235870,0.093939900,-0.003562870
1640836238.328719,-0.346297710,0.109197240,9.709750180,0.025528670,0.089700530,-0.039461260
1640836238.331640,-0.220443680,0.329622270,10.329452510,0.020125510,-0.034347190,-0.008139010
1640836238.332069,-0.165133520,0.686931970,9.707899090,0.011748080,0.047139830,0.017829240
1640836238.336640,-0.046457950,0.481865080,9.540804860,-0.019066040,0.023673480,-0.007994470
1640836238.337170,-0.400762920,0.424083890,10.668119430,0.016804040,0.021518770,0.013610720
1640836238.341760,-0.237065460,0.473094250,9.392215730,0.043126940,0.021654370,-0.018548970
1640836238.342440,-0.133406040,0.245612770,9.818177220,0.024411080,-0.039096170,-0.027413660
1640836238.346779,-0.301418270,0.531399250,10.176845550,-0.005169210,0.102126610,-0.007447600
1640836238.347430,-0.102915220,0.472115810,9.734972000,-0.057776280,0.027374930,-0.027908390
1640836238.351660,-0.348471790,0.252676810,10.749795910,-0.009597840,-0.057347120,-0.004066530
1640836238.352020,-0.199640380,0.547701840,9.388084410,0.049874190,0.039513410,-0.015275180
1640836238.357110,-0.053995330,0.522178770,9.626070020,0.013381240,-0.019258260,0.001515450
1640836238.358130,-0.236201330,0.566031870,10.373472210,-0.050039590,0.089076150,0.031736490
1640836238.361660,0.150231200,0.549804690,9.383975030,-0.068354610,0.046132500,0.000800190
1640836238.362120,-0.067350860,0.315528450,10.540890690,-0.007446110,-0.035797060,-0.006531180
1640836238.366670,-0.168405470,0.588386120,9.739736560,0.017620620,0.072245310,-0.002509360
1640836238.367169,-0.127319800,0.544335370,9.435307500,-0.035908820,-0.048950310,-0.010667740
1640836238.371680,-0.341440830,0.276381460,10.226572040,-0.072649130,0.030274690,0.005118550
1640836238.372239,0.153461860,0.367483650,9.003934860,-0.060731180,0.129124540,0.001750890
1640836238.376819,-0.036097330,0.067663440,10.541421890,0.005920230,0.044752650,-0.009055430
1640836238.378990,-0.237745660,0.015823180,10.589550020,0.029778480,0.071190300,0.014352800
1640836238.381820,-0.062240210,0.096739610,9.230030060,0.016556680,-0.064486270,0.004367530
1640836238.382340,-0.421720920,-0.213747340,9.751070980,-0.024163720,-0.030678510,0.005526840
1640836238.386780,-0.059649840,0.047198600,8.973131180,-0.030116740,0.153456630,-0.001640620
1640836238.387380,-0.152455370,0.073544580,10.131660460,0.038254260,0.093396020,-0.028795010
1640836238.391790,-0.270904000,0.233903270,10.867951390,0.065144900,0.034879150,-0.022025410
1640836238.392429,0.067702540,0.560768250,9.428915020,0.052195790,-0.012028220,0.004395840
1640836238.396659,-0.264980470,0.287896810,9.677882190,0.007216630,-0.000223520,-0.002062320
1640836238.397060,-0.244214710,0.265819970,9.846552850,-0.006696580,0.090424720,0.018121300
1640836238.401710,-0.246260020,0.236569390,9.641331670,0.085791950,0.062406070,0.008025770
1640836238.403060,-0.309870150,0.102208180,10.172867770,0.093907130,0.008498130,-0.007656220
1640836238.407130,-0.134989750,0.466982930,9.831336020,0.041612980,0.039780140,0.002613660
1640836238.408550,-0.258569840,0.457523110,9.781566620,-0.009180610,0.039635610,-0.006318090
1640836238.411960,-0.324161170,0.297216270,10.410705570,-0.005456810,0.002014640,-0.011412800
1640836238.412809,-0.179432570,0.577180920,9.669908520,0.083518030,0.042916830,-0.011262300
1640836238.416730,-0.161461990,0.631068650,9.741176610,0.076456370,0.008663540,-0.024323170
1640836238.419560,-0.096917440,0.891148870,10.107307430,-0.004139540,0.068388860,0.013040000
1640836238.421700,0.030644260,0.803445160,9.521924970,-0.056824090,0.063395510,0.025026500
1640836238.422190,-0.007982020,0.221277280,10.254315380,-0.006714460,-0.014570350,0.012634700
1640836238.426720,-0.130401820,0.395058160,9.822694780,0.093390050,0.070588300,0.018320980
1640836238.428120,-0.167081730,0.327828560,9.381776810,0.047189000,-0.005778670,0.011645260
1640836238.431630,-0.390217360,0.063494940,10.446607590,-0.045683990,0.032044960,0.029681630
1640836238.432000,-0.164966390,0.080541300,9.256872180,-0.033517190,0.099706670,0.010512770
1640836238.436669,-0.152624610,-0.009505340,9.901238440,0.036214290,-0.014872850,-0.017538670
1640836238.437240,-0.284226600,0.219425690,10.223308560,0.081154700,0.102368020,-0.003942850
1640836238.441789,-0.022935910,0.424030150,9.237744330,0.035773220,0.035390260,-0.016236310
1640836238.442610,-0.320867060,0.252244470,10.526433940,-0.001735990,-0.046129520,0.016756350
1640836238.446730,-0.093582750,0.350268100,9.251801490,0.008426610,0.105810170,0.013725460
1640836238.447360,-0.035427560,0.330405030,9.488682750,0.050961970,0.006853040,-0.003503260
1640836238.451720,-0.473898380,0.269834850,10.870250700,0.082591180,0.070141260,0.016231840
1640836238.452260,-0.029161810,0.448752020,9.135972980,0.050871080,0.045405330,0.013029580
1640836238.457049,-0.320821400,0.187656300,10.162061690,0.032161180,-0.062334550,0.017966330
1640836238.458020,-0.392195490,0.182337490,9.943190570,0.038808580,0.118219860,0.020191080
1640836238.461640,-0.181273450,0.354809970,9.390267370,0.053764880,0.007773940,-0.006854530
1640836238.462100,-0.686365370,0.326676070,10.904879570,0.052984070,-0.036762650,0.006274880
1640836238.466859,-0.123076270,0.532876850,9.101696970,0.039413570,0.056222090,0.008317830
1640836238.467530,-0.076729550,0.615466770,9.655712130,0.045789790,-0.016780200,-0.007916990
1640836238.471680,-0.401238260,0.696646870,10.695396420,0.005175170,0.086466980,0.028276440
1640836238.473800,0.095798470,0.709241090,9.384603500,0.000000000,0.006034970,0.027132040
1640836238.478839,-0.195031260,0.244601860,10.228662490,0.058849160,-0.070348390,0.023226440
1640836238.479480,0.006773250,0.332080300,9.495501520,0.062000760,0.078055270,0.030466920
1640836238.481819,0.147686480,0.329650970,9.224244120,0.020721550,0.035303830,0.030903520
1640836238.482960,-0.249117310,-0.052463220,10.596374510,-0.027261670,0.046183170,0.031626230
1640836238.486660,-0.024081080,-0.002612310,9.777942660,0.031827390,0.051963330,0.020018220
1640836238.487280,-0.301228460,-0.086467460,9.755164150,0.115317110,-0.062233210,0.010541080
1640836238.491770,-0.560073550,0.116271940,9.880932810,0.075170420,0.000122190,0.015585130
1640836238.492499,-0.270665940,0.454320520,9.007191660,0.012345610,0.067697470,0.023861230
1640836238.496690,-0.409143690,0.211116810,10.042413710,-0.008469820,0.030992930,0.006973740
1640836238.497460,-0.185137900,0.505106930,10.266945840,0.070564460,0.056305530,0.025933980
1640836238.501690,-0.005469450,0.554038640,9.606335640,0.129860640,0.000694390,0.013706090
1640836238.502220,-0.143198150,0.482536670,10.198369980,0.067853940,-0.036960840,0.016024710
1640836238.506990,-0.074989440,0.636719230,9.601359370,0.011828540,0.062759220,0.035947560
1640836238.508440,-0.068066520,0.202795770,9.531717300,0.014232100,0.003352760,0.020459300
1640836238.513389,-0.264512180,0.232598110,10.445137020,0.080794100,0.017830730,0.013776120
1640836238.514330,-0.138256740,0.591754320,9.473040580,0.100158150,0.048482420,0.016169250
1640836238.516719,-0.219575230,0.365576680,10.029560090,0.018107890,-0.051832210,0.015331810
1640836238.517290,-0.355755780,0.452608380,10.225688930,-0.000159440,0.053262710,0.018587710
1640836238.521680,-0.127319200,0.532365500,9.327745440,0.036820770,0.014777480,0.000888110
1640836238.522110,-0.451001520,0.452480730,10.641916280,0.055705010,-0.040878360,0.021284820
1640836238.527249,-0.214351040,0.723711850,9.530973430,0.036217270,0.055193900,0.021427870
1640836238.527930,0.082423840,0.400311890,9.301452640,0.001959500,-0.025689600,0.013124940
1640836238.531700,-0.179486100,0.380242140,10.305675510,0.029204790,0.064224010,0.024096670
1640836238.532260,0.225870730,0.510355590,9.157486920,0.022871790,0.076878060,0.014497340
1640836238.536690,-0.077480490,0.101230670,10.499864580,0.022234020,-0.057888040,0.023479760
1640836238.537230,-0.244370590,0.142124920,9.928545950,0.052319470,0.022991000,0.036422910
1640836238.541910,0.123330450,0.107005400,8.766050340,0.038836900,-0.001682340,0.005126000
1640836238.542559,-0.477354590,0.005502970,10.481641770,0.023551290,0.061608840,0.023543830
1640836238.549110,-0.228033630,0.210845710,9.489128110,0.034037230,0.108601160,0.006072220
1640836238.549820,-0.254703700,0.124328550,10.073707580,0.069381300,-0.088143350,-0.011909010
1640836238.551689,-0.512904880,0.382375570,10.009833340,0.072416660,0.014309590,0.018297140
1640836238.552140,0.046172250,0.504460280,8.742359160,0.035569070,0.054803490,0.001761320
1640836238.557050,-0.464820210,0.339550790,10.843946460,0.030463930,0.023098290,0.008258220
1640836238.558140,-0.204606860,0.578751330,9.855619430,0.053775320,0.064189740,0.012402240
1640836238.562389,0.135086770,0.487460670,9.501001360,0.072295960,-0.067651280,-0.003875790
1640836238.563230,-0.307328640,0.588151990,10.336085320,0.034931300,0.054733460,0.008539860
1640836238.567360,0.019083090,0.770532790,9.308373450,-0.016638640,0.057913360,0.011499230
1640836238.568570,-0.306323530,0.389227210,10.466740610,0.007262830,-0.053577130,-0.010813770
1640836238.571709,-0.386296060,0.402449130,9.975877760,0.047169630,0.015807150,0.002454220
1640836238.572180,-0.033644530,0.607688250,9.264810560,0.062304750,-0.004976990,0.004099310
1640836238.577350,-0.432239740,0.574712990,10.478932380,-0.039051480,0.034834440,0.013728440
1640836238.578800,0.011327760,0.630952780,9.638767240,-0.092150270,0.051498420,0.028961900
1640836238.581920,0.061847480,0.291949660,9.913769720,0.002136830,-0.009123980,-0.005346540
1640836238.583269,-0.269106920,0.393773700,10.140024190,0.057651110,0.023689870,0.000661610
1640836238.586680,0.043090430,0.739963890,9.211906430,0.003759560,-0.016836820,0.010700520
1640836238.587319,-0.271958140,0.450162320,9.950531010,-0.113272670,0.003536050,0.004005430
1640836238.591780,-0.198930790,0.356000990,9.728093150,-0.099936130,0.055277350,0.009952490
1640836238.592399,-0.130823330,0.293468590,9.749890330,0.031705200,0.017784540,-0.014531610
1640836238.596930,-0.365730200,0.208759070,10.202705380,0.032608210,0.027778750,-0.016815960
1640836238.597620,-0.218633100,0.324062170,9.708508490,-0.013622640,0.003592670,0.022698940
1640836238.601650,-0.274591150,0.056092030,9.695405960,-0.064863260,-0.014251470,0.012578070
1640836238.602000,-0.213759300,0.027152610,9.616945270,-0.068293510,0.035415590,-0.000867250
1640836238.607060,-0.137142290,0.187946680,9.696604730,0.016967960,0.042432550,-0.013770170
1640836238.608490,-0.234236310,0.195173810,10.224456790,0.027230380,0.025174020,-0.041247900
1640836238.611879,-0.290794430,0.538230900,10.121050830,-0.006005170,-0.026014450,-0.002834200
1640836238.613410,-0.254160260,0.560502230,9.555858610,-0.032179060,-0.032828750,0.005970900
1640836238.618000,-0.254157930,0.486404450,9.817974090,-0.072422610,0.018574300,-0.015358620
1640836238.618539,-0.419792530,0.653155150,10.173483850,-0.009298330,0.046388800,0.005234780
1640836238.621650,-0.302920670,0.493064610,10.077679630,0.010268390,-0.032599270,-0.007046760
1640836238.622120,-0.212854100,0.490876760,9.950387950,-0.017374750,-0.050818920,-0.000409780
1640836238.626930,0.002752750,0.649775030,9.305326460,-0.054022680,0.036783520,0.005124510
1640836238.627960,-0.025074380,0.404922810,10.114026070,-0.115072720,0.044006100,-0.006480510
1640836238.631700,-0.238573690,0.244683030,10.471627240,-0.047294800,0.004729630,0.007283690
1640836238.632120,-0.035084310,0.190897480,9.609688760,0.035120550,-0.071278210,-0.018338860
1640836238.636669,-0.208695690,0.372665640,9.788153650,-0.011481340,-0.022983550,-0.010772050
1640836238.637090,-0.116810450,0.577348770,9.376811980,-0.121387850,0.066071750,0.030103330
1640836238.641790,0.085239080,0.240309450,9.955421450,-0.133037570,0.037109860,0.006893280
1640836238.642940,-0.139323990,0.163750600,10.532359120,-0.012889500,0.039471690,-0.004580620
1640836238.646900,0.080479640,0.388494310,9.424180980,0.065822880,-0.028817350,-0.010246040
1640836238.648599,-0.288498070,0.406235100,9.944889070,-0.028045480,-0.047989190,-0.000698860
1640836238.651680,-0.340541930,0.375269500,9.354797360,-0.147730110,0.060723730,0.024007260
1640836238.652099,-0.156654490,0.165389310,9.518042560,-0.101649760,0.010459130,-0.007268790
1640836238.657140,-0.435450020,0.033481780,10.415985110,0.025312600,0.046251710,-0.023436550
1640836238.658419,-0.038200980,0.271161790,9.425730710,0.072516500,0.032126910,-0.018073620
1640836238.663750,-0.258452860,0.305617720,10.342125890,-0.019872190,-0.029914090,-0.015223030
1640836238.664280,-0.295745400,0.153195860,9.881377220,-0.119861970,0.036139780,0.014340880
1640836238.666649,0.043869120,0.112167020,9.211503030,-0.047999620,-0.028185550,0.002509360
1640836238.667160,-0.310889040,0.125669320,10.318060870,0.050079830,0.038576130,-0.030094390
1640836238.671660,-0.088750640,0.594893690,9.573382380,0.020024180,0.054903330,-0.021769100
1640836238.672140,-0.189439070,0.763857480,10.231569290,-0.047673300,-0.053827480,0.007486340
1640836238.676829,-0.294452910,0.555117550,10.098825450,-0.105005510,0.028333070,0.008572640
1640836238.677760,-0.076621350,0.616427540,9.452040670,-0.043569510,-0.002577900,0.003285710
1640836238.682809,-0.463796790,0.528087200,10.554237370,0.028978290,0.006575880,-0.004878640
1640836238.683210,-0.298958030,0.529820260,9.741515160,-0.022742150,0.032952430,0.008128580
1640836238.686650,-0.148164560,0.457930710,9.689132690,-0.063543020,-0.057390340,0.020200010
1640836238.687130,-0.239793170,0.213263140,9.977585790,-0.098517540,0.047439340,-0.000947710
1640836238.692099,0.105369370,0.274968830,9.469882970,-0.070217240,0.057126570,-0.000427660
1640836238.692960,-0.253549580,0.188242900,10.571988110,0.005500020,-0.016246740,0.005005300
1640836238.696699,-0.153713570,0.093720560,9.884783740,-0.018230080,-0.011718270,-0.011132660
1640836238.697320,0.014010470,0.247868180,9.220397950,-0.041259830,-0.037883220,0.010186430
1640836238.701670,-0.224926650,0.284135400,9.832601550,-0.081330550,0.063587730,0.015142560
1640836238.702070,0.015528400,0.212407890,9.761676790,-0.081771610,0.083430110,0.009208920
1640836238.706810,-0.207926510,0.173375030,10.407082560,0.031721590,-0.011193750,0.011882190
1640836238.708060,-0.274671260,0.190597070,9.882761960,0.048880280,-0.036261980,-0.006327030
1640836238.713209,-0.160807340,0.292363910,9.147268300,-0.025701520,-0.010885300,0.001984830
1640836238.714059,-0.423276900,0.212392420,9.702030180,-0.076742470,0.058726970,-0.000996890
1640836238.716740,-0.243477240,0.005949300,9.968603130,-0.047650940,0.049904000,-0.016084320
1640836238.717370,-0.185875490,0.158986270,9.954843520,0.065915290,0.013673310,-0.009685750
1640836238.721680,-0.150974710,0.361870320,9.902254100,0.061433020,0.004440550,-0.006020070
1640836238.722489,-0.197398620,0.382735490,9.983483310,-0.032666330,0.008186700,0.001811980
1640836238.726800,-0.239815000,0.401939180,9.760446550,-0.049282610,0.011374060,0.019446020
1640836238.727830,-0.223537560,0.280748130,9.958156590,-0.003863870,-0.010548530,-0.012180210
1640836238.731670,-0.251702220,0.487957980,9.792776110,0.055240100,0.034436590,-0.010675190
1640836238.732869,-0.172944230,0.888852420,9.835489270,0.010056790,-0.001184640,-0.011038780
1640836238.736690,-0.295898560,0.696035680,10.323898320,-0.087258220,0.014583770,0.002071260
1640836238.737429,-0.130546840,0.500418600,9.668209080,-0.060741600,0.008757410,0.011354680
1640836238.741660,-0.206663500,0.445592970,10.043673520,0.016504530,-0.031976400,-0.016520920
1640836238.742120,-0.336646680,0.553693830,9.918915750,0.018106400,0.048895180,-0.006547570
1640836238.746960,-0.115348980,0.606988790,9.569425580,-0.073565540,-0.010199840,0.022418790
1640836238.747880,-0.202670280,0.257176580,10.244093890,-0.103990740,-0.004525480,0.010378660
1640836238.751770,0.015410350,0.218135540,9.396105770,-0.038810070,0.059433290,-0.003775950
1640836238.752490,-0.034493790,0.383904220,9.936750410,0.013321640,-0.017954410,-0.005763770
1640836238.756800,-0.435015560,0.252678900,10.362203600,-0.025877350,0.030019880,-0.000256300
1640836238.757920,-0.111809870,0.263848540,9.273986820,-0.069996710,-0.042863190,0.015215580
1640836238.761720,-0.278789250,0.159631370,9.861776350,-0.050185630,-0.008748470,0.010946390
1640836238.762390,-0.128970300,0.147529080,9.495539670,-0.039307780,0.116609040,-0.003288690
1640836238.767410,-0.057295550,0.248144940,10.096920970,0.008213520,-0.000770390,0.001354520
1640836238.768090,-0.341838030,0.170476450,10.386713030,0.014995040,-0.009101630,-0.007812680
1640836238.771740,0.029539530,0.304508090,8.919084550,-0.033657250,-0.026391450,0.009244680
1640836238.772270,-0.297212600,0.174728010,9.790725710,-0.030815600,0.000880660,0.008356570
1640836238.776719,-0.427976160,0.054791710,9.901116370,-0.007626410,0.081631540,-0.021243100
1640836238.777289,-0.269767280,0.353639220,9.841355320,0.034844880,-0.042201580,-0.017780070
1640836238.781819,-0.488401590,0.454412220,10.110447880,0.003311040,-0.006628040,-0.001564620
1640836238.782450,-0.160548600,0.464435610,9.382186890,-0.052739670,0.023962550,-0.001485650
1640836238.787020,-0.374611230,0.519451320,10.320861820,-0.019755960,-0.006766620,0.006297230
1640836238.787600,-0.485492410,0.420870160,10.128455160,0.002300740,-0.000984970,-0.007314980
1640836238.791640,-0.121285140,0.484464880,9.362533570,0.016550720,-0.073048470,-0.005538760
1640836238.791999,-0.287549290,0.604080620,9.871429440,-0.006075200,0.012023750,-0.007815660
1640836238.796810,-0.041741720,0.643536150,9.767370220,-0.091145940,0.057764350,-0.009077790
1640836238.797680,-0.088218930,0.520156680,10.347649570,-0.064802180,-0.036624070,0.001676380
1640836238.801920,-0.129303250,0.362440050,10.064039230,-0.007912520,-0.026062140,-0.022985040
1640836238.803480,-0.022320280,0.432435900,9.490335460,0.017550590,-0.014379620,-0.016331670
1640836238.806670,-0.427648160,0.611355900,9.972543720,-0.034867230,-0.018455090,0.013062360
1640836238.807210,-0.350081650,0.467535850,9.657898900,-0.138770040,-0.010493400,0.017936530
1640836238.812340,-0.126984890,0.285537480,9.593635560,-0.093737240,-0.013300780,0.007908050
1640836238.813690,-0.173766030,0.245150920,9.900626180,0.005042550,0.055402520,-0.019808120
1640836238.816860,-0.205868570,0.215376870,10.156035420,0.009810920,0.013005740,-0.017936530
1640836238.817829,-0.260783880,0.298260570,10.060264590,-0.030812620,-0.067995500,-0.001482670
1640836238.821720,-0.092583400,0.169011040,9.332225800,-0.112891200,-0.045600530,-0.019720200
1640836238.822260,0.031572710,0.111201760,9.328755380,-0.084768230,0.042210520,-0.017419450
1640836238.826690,0.045337950,0.092538430,9.745828630,0.008091330,0.102493170,-0.015312430
1640836238.827170,-0.156663890,0.095719900,10.403865810,0.053496670,-0.001503530,-0.035138430
1640836238.832710,-0.247495160,0.299187720,9.949968340,0.014354290,-0.080233820,-0.005128980
1640836238.833259,-0.224715810,0.236460860,9.014830590,-0.078581270,-0.051105020,0.007100400
1640836238.836700,-0.489677580,0.004117200,9.669598580,-0.064024340,0.048142670,-0.007715820
1640836238.837190,-0.460545300,0.183132960,9.936462400,0.038474790,0.073613210,-0.024577980
1640836238.841660,-0.499196440,0.333000900,10.372480390,0.076358030,-0.052098930,-0.042526430
1640836238.841970,-0.286797520,0.470949530,9.696642880,0.012308360,-0.027298930,-0.023631750
1640836238.846820,0.000715880,0.607893710,9.277312280,-0.065368410,-0.000104310,-0.020766260
1640836238.847509,-0.306263630,0.497968820,10.359594350,-0.061051560,0.033126770,-0.026619440
1640836238.852150,-0.079193980,0.531068150,9.827095030,0.013388690,-0.000824030,-0.022190810
1640836238.853330,-0.127442870,0.572647450,9.883244510,0.054876520,-0.081270960,-0.021930040
1640836238.856660,-0.222175990,0.542933700,9.742630960,-0.002072750,0.025103990,-0.014753640
1640836238.857120,-0.038938140,0.677985490,9.488403320,-0.096243620,0.023520000,0.006550550
1640836238.861990,-0.401882170,0.366422300,10.553606030,-0.095380850,-0.009189550,-0.001999740
1640836238.863000,-0.102608460,0.160043120,9.630818370,-0.007009510,0.005553660,-0.020992760
1640836238.867080,-0.095858960,0.392703770,9.657946590,0.055749720,-0.042928760,-0.026534500
1640836238.868929,-0.446407740,0.508622470,9.956954000,-0.031259660,0.026488310,-0.014813250
1640836238.871680,0.020562130,0.536969420,9.239426610,-0.149793940,-0.012940170,-0.001743440
1640836238.872030,-0.132445570,0.181950360,9.988227840,-0.097118320,0.018472970,-0.016777220
1640836238.876799,0.036312150,0.180631160,9.662395480,0.025758150,0.060813130,-0.031387810
1640836238.877329,0.040792190,0.398625020,9.943447110,0.065182160,-0.030474360,-0.019800660
1640836238.881830,-0.420982780,0.255833060,10.092880250,-0.053936240,-0.007896130,-0.005719070
1640836238.883129,-0.074880990,0.065595450,9.146274570,-0.125063970,-0.033672160,-0.004293030
1640836238.886910,-0.296898840,-0.110671750,9.614081380,-0.026519600,0.021013620,-0.029745700
1640836238.888160,-0.302891340,-0.010098160,9.604619980,0.040920080,0.073958940,-0.047652430
1640836238.891690,-0.233695240,0.280490760,10.124232290,0.056910520,-0.010451680,-0.042057040
1640836238.892099,-0.532057580,0.329318260,10.117269520,-0.030180820,-0.035338100,-0.024618210
1640836238.896920,-0.220392230,0.192859830,9.236542700,-0.065280500,-0.059552490,-0.017122920
1640836238.898219,-0.354296450,0.198292760,9.697510720,0.033280250,0.019825990,-0.029371680
1640836238.902010,-0.512618540,0.413441060,9.979202270,0.058054920,0.026036800,-0.047007210
1640836238.904209,-0.252553140,0.675603690,9.994324680,0.017838180,-0.070787970,-0.021597740
1640836238.907070,-0.131890010,0.568012540,9.687941550,-0.040407480,-0.021255020,-0.020299850
1640836238.908660,0.005311810,0.450574430,9.641001700,-0.051006690,0.005790590,-0.039160250
1640836238.915910,-0.182807000,0.584300520,10.222548480,0.023378440,-0.008173290,-0.024363400
1640836238.916710,-0.413250420,0.458356800,10.016660690,0.014030930,-0.059983150,-0.025570390
1640836238.917830,-0.239848640,0.405652310,9.466080670,-0.014397500,-0.102990870,-0.016632680
1640836238.918860,-0.188344700,0.338107140,9.238188740,-0.030463930,0.018376110,-0.012633210
1640836238.921800,-0.173018660,0.263294220,9.812787060,-0.054243210,0.048635900,-0.031961500
1640836238.922550,-0.262373630,0.303043990,10.434204100,-0.006160140,-0.010274350,-0.015401840
1640836238.926700,-0.144072310,0.134966180,9.801160810,0.009241700,-0.088545690,-0.023427610
1640836238.927350,-0.180420200,0.185296330,9.470764160,0.020028650,-0.079436610,-0.026214130
1640836238.931870,-0.078136200,0.481159330,9.125134470,-0.026385490,0.022651260,-0.026664140
1640836238.932570,-0.057057700,0.403448700,9.699726100,-0.086438650,0.028863550,-0.036938490
1640836238.936900,-0.207444160,0.359231560,10.337853430,-0.010184940,0.006349390,-0.032001730
1640836238.938990,-0.000373140,0.412882510,9.587823870,0.051772590,-0.075595090,-0.038185720
1640836238.941840,-0.364573840,0.286619340,9.771808620,0.027664010,-0.076979400,-0.023734570
1640836238.942720,-0.394196900,0.311342060,9.318486210,-0.032731900,0.011271240,-0.009323660
1640836238.946859,-0.353896290,0.063407740,9.720879550,-0.058652460,-0.023236870,-0.025635960
1640836238.948560,-0.516219790,-0.027651440,10.181745530,0.019052630,-0.005242230,-0.025434800
1640836238.953610,-0.036029780,0.292843820,9.413240430,0.057911870,-0.042571130,-0.039775670
1640836238.954130,-0.263568160,0.426772090,10.088532450,0.004996360,-0.043755760,-0.042161340
1640836238.956620,-0.253722010,0.681167720,9.685998920,-0.063803790,0.001463290,-0.026375060
1640836238.957140,-0.142115370,0.636255560,9.805425640,-0.056546930,-0.090822570,-0.024417040
1640836238.962639,-0.437970730,0.613198880,10.045115470,0.010101500,-0.039616220,-0.031892950
1640836238.964490,-0.061169730,1.016124370,9.144719120,0.005759300,-0.027222930,-0.028143820
1640836238.967450,-0.377468050,0.962807060,10.213438990,-0.083747510,-0.049389900,-0.012876090
1640836238.968500,-0.274590460,0.583240870,9.676088330,-0.123162570,-0.008493660,0.003649300
1640836238.971730,0.032736530,0.255415320,9.618000980,-0.042591990,-0.066548590,-0.029656290
1640836238.972220,-0.425966170,0.153814660,10.227944370,0.013716520,-0.012882050,-0.039318200
1640836238.979220,-0.090686510,0.343908550,9.225291250,-0.054186590,-0.056675090,-0.027452410
1640836238.980419,-0.119688720,0.132061840,9.774570470,-0.124481340,-0.059776020,-0.026871270
1640836238.981750,-0.067393190,-0.070971910,9.427701000,-0.102515530,0.041845440,-0.026229030
1640836238.986260,0.098685340,0.178273800,9.585395810,0.000149010,-0.037778930,-0.043244670
1640836238.987100,-0.334156810,0.220389370,10.353342060,0.003743170,-0.026972590,-0.036069750
1640836238.987870,-0.132912000,0.396743060,9.411203380,-0.069306800,-0.044839080,-0.017564000
1640836238.992120,-0.323875670,0.331726760,9.782980920,-0.083482270,-0.074261430,-0.028906760
1640836238.992740,-0.365326760,0.318079470,9.371429440,-0.067310040,0.019794700,-0.036270920
1640836238.996719,-0.121994230,0.492265080,9.403006550,-0.008887050,-0.000543890,-0.030879680
1640836238.997300,-0.371821140,0.302264000,10.409529690,0.001980360,-0.008924310,-0.033099950
1640836239.001819,-0.173010330,0.281608460,9.592398640,-0.034864250,-0.057855250,-0.009165700
1640836239.002730,-0.201106070,0.173163120,9.663393020,-0.036279850,-0.089526160,-0.011815130
1640836239.006680,-0.317352410,0.076984790,9.754240040,-0.078061240,0.019305950,-0.028041010
1640836239.007170,-0.278391810,0.247407380,9.836926460,-0.039796530,-0.036121900,-0.023379920
1640836239.011770,-0.356513890,0.312774240,10.077437400,-0.003594160,-0.067223620,-0.039975350
1640836239.012440,-0.063867960,0.568151530,9.330471990,-0.048004090,-0.032646960,-0.042036180
1640836239.017050,-0.060249740,0.881507160,9.606280330,-0.069980320,-0.016275050,-0.026488300
1640836239.017820,-0.218894730,0.740357580,10.200932500,-0.113056620,0.006008150,-0.031316280
1640836239.021680,-0.251954700,0.632970570,10.020760540,-0.061456860,-0.078445680,-0.017635520
1640836239.022140,-0.263612810,0.529814840,9.597671510,0.008755920,-0.107130420,-0.018663710
1640836239.027060,-0.160647180,0.502173190,9.320916180,-0.067178910,-0.001318750,-0.025032460
1640836239.027760,-0.188393010,0.552342890,9.707748410,-0.142960270,0.026699900,-0.001688300
1640836239.031740,-0.071179350,0.055769310,10.191325190,-0.149241130,-0.004798170,-0.017485030
1640836239.032430,-0.115190650,-0.160442130,10.133680340,-0.028291350,-0.050155820,-0.030319390
1640836239.036690,-0.091392240,0.085652230,9.337553980,0.038363050,-0.075839480,-0.030632320
1640836239.037170,-0.204070940,0.171445890,9.466639520,-0.100423400,-0.030124190,-0.028128920
1640836239.041700,-0.283266960,0.247985040,9.539775850,-0.179848090,0.033012030,-0.011730200
1640836239.042879,-0.122265380,0.145175310,9.729925160,-0.092758250,-0.014397500,-0.040476020
1640836239.046880,-0.361123090,0.213790030,10.360415460,0.030930340,-0.045514110,-0.035537780
1640836239.047380,-0.265161840,0.554950770,9.268406870,0.028701130,-0.039102140,-0.020577010
1640836239.051659,-0.349579690,0.426740530,9.791754720,-0.109435630,-0.070753690,-0.029686100
1640836239.053000,-0.476863060,0.267117140,9.941082950,-0.138391550,0.027272110,-0.005696710
1640836239.056690,-0.055227600,0.157339450,9.193888660,-0.040008130,-0.033165510,-0.023353100
1640836239.057250,-0.278268670,0.091323510,10.555080410,0.042635210,-0.036132340,-0.044555960
1640836239.061679,-0.098826590,0.547266720,9.528676030,-0.012990840,0.012020770,-0.023117670
1640836239.062110,-0.123984020,0.377544280,9.850677490,-0.104194890,-0.115975750,-0.020395220
1640836239.067139,-0.489855320,0.188048270,10.316259380,-0.105510650,-0.024068360,-0.015535950
1640836239.068009,-0.110416860,0.489690240,8.925766940,-0.024926660,-0.044567890,-0.027860700
1640836239.071699,-0.559725820,0.602385040,10.432176590,-0.004559760,-0.079250340,-0.032335520
1640836239.072229,-0.272997230,0.774101440,9.623590470,-0.082814710,0.030763450,-0.000500680
1640836239.076730,-0.037669320,0.560305830,9.584333420,-0.099016730,-0.070247040,-0.013808910
1640836239.077420,-0.452993570,0.309260310,10.774120330,-0.048895180,-0.032278900,-0.019843880
1640836239.082110,0.020774980,0.587202670,9.113906860,-0.044952330,-0.021199880,-0.010450180
1640836239.082899,-0.278694630,0.353309150,9.969864850,-0.065870590,-0.129359980,-0.000949200
1640836239.086730,-0.190793230,0.029701720,9.710370060,-0.084620720,0.004850330,-0.002901260
1640836239.087499,0.222916900,0.072926800,8.889750480,-0.043167180,-0.007487830,-0.021846590
1640836239.091699,-0.241482080,-0.062969870,10.537741660,-0.025250020,-0.023026770,-0.009755790
1640836239.092219,-0.015406800,0.055481650,9.877158160,-0.048451130,0.004784760,-0.000415740
1640836239.096650,-0.219382210,0.018991600,9.763505940,-0.025379660,-0.123278780,-0.008700790
1640836239.097270,-0.413656150,0.034354780,9.852234840,-0.037236520,-0.064441560,-0.019274650
1640836239.101729,-0.180092900,0.341326030,9.048406600,-0.024898360,0.037603080,-0.019988420
1640836239.102480,-0.498903720,0.243658290,10.100110050,-0.014376640,-0.013402110,-0.028736890
1640836239.107159,-0.314557080,0.292283740,10.259970660,0.000202660,-0.042001900,-0.013628600
1640836239.108189,-0.095193900,0.392111780,9.239363670,0.019721690,-0.055746730,0.000485780
1640836239.111709,-0.155107020,0.106167250,9.803907390,-0.011378530,-0.051450730,-0.004638730
1640836239.112280,-0.165550990,0.132250830,10.106802940,0.006178020,0.022812190,-0.002574920
1640836239.118039,-0.181269390,0.148550380,9.665990830,0.017921630,-0.041119760,-0.026746100
1640836239.119020,-0.225013960,0.134253500,10.188018800,0.014761090,-0.104638940,-0.021851060
1640836239.121760,-0.101329160,0.529619870,9.263486860,0.016471740,0.025588280,-0.012563170
1640836239.123040,-0.230960640,0.641038890,9.726225850,-0.041468440,-0.037936870,-0.024257600
1640836239.126700,-0.477039310,0.638507960,10.736100200,-0.032620130,-0.029481950,0.008708240
1640836239.127329,-0.265566020,0.617332940,9.322975160,0.029492380,-0.047272450,-0.009419020
1640836239.131960,-0.341164110,0.572378460,10.019533160,0.031365450,-0.106182700,-0.004455450
1640836239.132779,-0.198038620,0.879851640,9.820299150,-0.048726800,0.064475840,0.027625260
1640836239.136720,0.045790300,0.442668530,9.497119900,-0.104831160,-0.016219920,-0.001460310
1640836239.137420,-0.152309180,0.076710670,10.694068910,-0.010775030,-0.072152920,0.003811720
1640836239.141640,0.095009420,0.230342980,9.065090180,0.057806080,0.008997320,-0.008893010
1640836239.142109,-0.169881610,0.076383230,9.699267390,-0.003097950,-0.095567110,-0.005827840
1640836239.146720,-0.399851320,0.113888250,10.173330310,-0.079560260,0.007031860,0.022438160
1640836239.147490,-0.000523880,-0.006514700,8.933655740,-0.076322260,-0.008028750,-0.009629130
1640836239.152079,-0.310000570,0.002352540,10.340078350,0.027820470,-0.041168930,-0.015081470
1640836239.152560,-0.218838320,0.338397120,9.842458720,0.056700410,0.081212820,-0.005036590
1640836239.156620,-0.350743950,0.330679300,9.877956390,0.001625720,-0.103248670,-0.013236700
1640836239.157179,-0.561916110,0.269656810,10.087986950,-0.033706430,-0.105041290,0.023414200
1640836239.161680,-0.008793600,0.319146510,8.489521030,-0.031755870,0.028741360,-0.007313490
1640836239.162020,-0.314086050,0.200130130,10.097815510,0.028018660,0.011569260,-0.010681150
1640836239.166700,-0.246242250,0.315995340,10.498321530,0.060294560,0.038270650,0.006963310
1640836239.167400,-0.065340250,0.318124090,9.756715770,0.028225780,-0.105425740,-0.005279480
1640836239.171680,-0.316917390,0.094936070,9.860383990,-0.002303720,-0.090055160,0.016172230
1640836239.172140,-0.131065120,0.201170650,9.257092480,-0.004433100,0.035837290,0.000786780
1640836239.176740,-0.557710710,0.134170110,10.143295290,0.028967860,-0.021840630,-0.022353230
1640836239.177559,-0.468812140,0.335075970,10.101652150,0.054240230,-0.068598990,-0.001975890
1640836239.181820,-0.114144710,0.577970800,9.375301360,0.036622580,-0.048257410,-0.012652580
1640836239.182619,-0.269202710,0.502926830,9.838972090,-0.019720200,0.005066400,-0.013314190
1640836239.188310,-0.211942020,0.660041930,10.320604320,-0.019679970,0.005215410,0.009426480
1640836239.189030,-0.438284040,0.486135480,10.217794420,0.026331840,-0.079792750,0.000852350
1640836239.191700,-0.182099030,0.245144340,9.443018910,0.043557590,-0.123885290,0.011487310
1640836239.192330,0.012609960,0.389191360,9.268193240,0.037957720,0.009451810,0.014367700
1640836239.196620,-0.050520600,0.205882800,9.643283840,-0.035050520,0.072355580,0.008165840
1640836239.198200,-0.004961380,-0.028318060,10.536861420,-0.018332900,-0.047928090,0.016845760
1640836239.202080,-0.051061220,-0.117392910,9.917273520,0.066855560,-0.050373380,-0.016450880
1640836239.204079,-0.137961490,-0.089478730,9.229810710,0.084252650,-0.090697420,-0.020673870
1640836239.206720,-0.372301400,0.288130020,9.703453060,0.035475200,-0.015805660,-0.001183150
1640836239.207219,-0.353828550,0.202290220,9.371009830,-0.050604350,0.045441090,-0.023190680
1640836239.211650,-0.426372530,0.112042930,10.266913410,0.025057790,-0.053212050,-0.012414160
1640836239.212159,-0.320005980,0.388166250,9.974140170,0.138956310,-0.021249060,-0.006163120
1640836239.216879,-0.186243920,0.381019710,9.335941310,0.100788480,-0.063537060,-0.002144280
1640836239.217720,-0.279854600,0.533479750,10.060985570,0.022335350,-0.028426950,0.032331050
1640836239.221680,-0.123221800,0.307905940,9.695497510,-0.027713190,0.037144120,0.014416880
1640836239.222200,-0.110032420,-0.028129520,10.040563580,0.060679020,-0.071866810,0.002378230
1640836239.226719,-0.102800650,0.262184860,9.971508980,0.162099300,-0.009925660,-0.014682120
1640836239.227310,-0.110733550,0.548173610,9.495180130,0.063970670,-0.033491850,-0.032183530
1640836239.231680,-0.305493240,0.636561450,10.002851490,-0.039829310,-0.064772350,0.018671150
1640836239.232380,-0.145063520,0.408113570,9.556339260,-0.025741760,0.013311210,0.004294510
1640836239.237160,-0.263440130,0.311254110,9.956976890,0.092709060,-0.031781200,-0.012674930
1640836239.238040,-0.378868460,0.566707070,10.065546990,0.155836360,-0.023163860,0.011070070
1640836239.241590,-0.210152480,0.565373360,9.573809620,0.021222230,-0.043688720,0.007724760
1640836239.241989,-0.152668920,0.181412130,9.685529710,-0.058436390,-0.026996430,0.035803020
1640836239.246729,0.173694710,0.018102230,9.426980020,0.031514470,0.055620070,0.007624920
1640836239.247910,-0.005392850,-0.002145080,10.105772020,0.123658780,0.003489850,-0.014722350
1640836239.253719,-0.139275760,0.068094570,9.932067870,0.116559870,-0.034925340,-0.003246960
1640836239.254160,-0.072397460,0.070504640,9.510459900,0.038364530,-0.079727180,-0.010411440
1640836239.256590,-0.393814680,-0.099353000,9.663352010,0.013409550,0.006023050,-0.006182490
1640836239.257130,-0.176951380,0.142137390,9.282206540,0.068932770,0.027734040,-0.009107590
1640836239.261600,-0.493702560,0.309135710,10.456061360,0.115038450,0.010880830,-0.029700990
1640836239.261979,-0.368132770,0.542519330,9.807326320,0.095173700,0.001369420,0.000910460
1640836239.266909,-0.133516880,0.623407420,9.629435540,0.071103870,-0.066740820,0.003927950
1640836239.268119,-0.434851500,0.374735240,10.073678970,0.050760810,0.022679570,-0.007329880
1640836239.272240,-0.201160860,0.481647610,9.424170490,0.075966130,-0.007668140,-0.002503400
1640836239.272719,-0.399943050,0.411318330,10.344377520,0.095860660,-0.053898990,-0.000973050
1640836239.276620,-0.137075250,0.257858400,9.515392300,0.065745410,0.016172230,0.001247230
1640836239.277220,0.128784020,0.280672910,9.572984700,0.080916310,-0.021372740,-0.003787880
1640836239.281800,-0.254947100,0.232515450,10.492543220,0.067868840,0.036367770,-0.010000170
1640836239.282440,-0.004868620,0.354386900,9.551429750,0.034005940,-0.023929770,0.008854270
1640836239.287109,-0.302983220,0.190087080,10.093615530,0.077302750,-0.083427140,0.008258220
1640836239.288159,-0.305297640,0.219218720,9.369463920,0.089395050,0.005364420,-0.004039700
1640836239.291669,-0.054565250,0.531340180,9.009316440,0.078852490,0.000195210,0.005435940
1640836239.292029,-0.368370260,0.420210600,10.384694100,0.031374400,0.051519280,0.006397070
1640836239.297060,-0.153756070,0.345267800,9.924544330,0.031209000,0.017996130,0.006368760
1640836239.298390,-0.228583810,0.313398990,9.896877290,0.126299260,-0.096002210,0.003691020
1640836239.302610,-0.325450870,0.263255240,9.471525190,0.096285350,-0.013266500,-0.011770430
1640836239.303190,-0.038139890,0.380985590,9.070244790,0.036758190,0.037349760,-0.004510580
1640836239.306630,-0.264272330,0.146865990,10.133737560,0.045907500,0.037862360,-0.009927150
1640836239.307220,-0.166817640,0.140242650,10.057975770,0.080963970,-0.014522670,-0.010649860
1640836239.311720,-0.085641480,0.206813290,9.402011870,0.139018910,-0.057572130,0.008215010
1640836239.312450,-0.241932620,0.117315700,9.800085070,0.085467110,-0.005820390,-0.009840730
1640836239.317180,-0.312322440,0.223487900,9.989026070,0.055132810,0.032949440,0.000442560
1640836239.318199,-0.327904550,0.204463770,9.735095020,0.089809290,-0.024975840,-0.002799930
1640836239.322199,-0.271393870,0.347416130,10.008753780,0.095860670,-0.035919250,-0.014638900
1640836239.322650,-0.168462440,0.777552660,9.476470950,0.098213580,0.028112540,0.004401800
1640836239.326609,-0.160994990,0.766891000,9.748556140,0.038000940,-0.021642450,-0.006133320
1640836239.327119,-0.330658850,0.670268830,10.354563710,0.032854080,0.002042950,-0.001685320
1640836239.332110,-0.142746980,0.609776500,9.318223950,0.095139440,-0.012904410,-0.005510450
1640836239.333420,-0.303311140,0.521652100,10.196368220,0.078782430,-0.062817340,-0.017470120
1640836239.337200,-0.255038980,0.658915160,9.722143170,0.011049210,0.046713650,0.014649330
1640836239.337819,0.076532740,0.264050010,9.260635380,-0.002986190,-0.016097720,0.004826490
1640836239.341679,-0.247361350,0.002597330,10.618872640,0.057716670,0.007709860,-0.012569130
1640836239.342069,-0.014063870,0.335938810,9.167675020,0.093668680,0.041499730,0.000354650
1640836239.347280,-0.243234630,0.092872530,10.083341600,0.046688320,-0.094583630,-0.000324850
1640836239.348100,-0.397086410,0.147867220,10.026875500,0.012101230,0.029204790,0.012663010
1640836239.351719,0.168887230,0.261562590,8.608636860,0.010345880,-0.002060830,-0.007896130
1640836239.352399,-0.270229820,0.160595340,10.531481740,0.063535570,0.027915840,-0.010815260
1640836239.356639,-0.040151030,0.490914550,9.575661660,0.075671100,0.110521930,-0.006479030
1640836239.357220,-0.143475930,0.412037070,9.852192880,0.064192720,-0.115503370,-0.014881790
1640836239.361570,-0.539475200,0.275053770,10.058543210,0.047498940,-0.039480630,0.013132390
1640836239.361990,0.011218710,0.322162420,8.169907570,0.031766300,0.045819580,-0.005938110
1640836239.367139,-0.493864480,0.023734980,10.425974850,0.065287950,0.014968220,-0.026245420
1640836239.368070,-0.395428570,0.176416160,10.332467080,0.090423230,0.090239950,-0.025099520
1640836239.371760,-0.033171600,0.195862770,9.471585270,0.094111260,-0.080016240,-0.038579100
1640836239.372390,-0.445057120,0.109382530,10.308843610,0.059980150,-0.046378370,-0.016056000
1640836239.376670,-0.049028600,0.452653500,9.014698980,0.021384660,0.074498350,-0.010283290
1640836239.377450,-0.390966650,0.278100430,10.083028790,0.062170620,-0.035424530,-0.026905540
1640836239.381670,-0.440308270,0.415066360,10.316590310,0.098523510,-0.009050970,-0.009460750
1640836239.382140,0.050032940,0.745965660,8.992733960,0.093862420,-0.015512110,-0.010800360
1640836239.386870,-0.241290600,0.679978070,9.970527650,0.013574960,0.001381340,-0.003743170
1640836239.387430,-0.043693360,0.827019390,10.035781860,-0.033831600,0.100411470,0.014787910
1640836239.391579,-0.219195010,0.398911890,9.938922880,0.042970480,-0.040456650,-0.008793180
1640836239.391970,-0.337467490,0.148902850,9.882919310,0.119133320,-0.107276450,-0.021626060
1640836239.396930,-0.070297420,0.467099990,8.790124890,0.089192400,0.043083730,-0.015887620
1640836239.398530,-0.273047240,0.124154100,9.551835060,-0.037260350,0.060705850,-0.009819870
1640836239.401680,-0.219920460,-0.076498600,10.580849650,-0.032849610,0.032080710,0.004884600
1640836239.402140,0.002534600,0.007459030,9.526703830,0.098951160,-0.005583470,-0.028172140
1640836239.406590,-0.035053060,0.112384270,9.517370220,0.125038620,-0.039997700,-0.012746460
1640836239.407050,-0.184381920,0.478875880,9.821784020,0.059410930,0.067362200,0.016719100
1640836239.411680,-0.209909960,0.332230930,9.366612430,-0.022502240,0.025776030,-0.005574520
1640836239.412160,-0.248237940,0.285733910,10.089455600,0.028999150,-0.050814450,0.004553800
1640836239.416730,-0.143560620,0.572877880,9.512062070,0.101910550,0.084961970,-0.027135020
1640836239.417500,-0.240237430,0.601397990,9.830718990,0.064809630,0.006712970,-0.033643840
1640836239.421749,-0.426946580,0.830382650,10.521498680,0.017309190,-0.008822980,0.009517370
1640836239.422520,-0.167272910,0.504627290,9.186944960,-0.027722120,0.018277770,-0.010894240
1640836239.426839,-0.176769200,0.183484120,9.783275600,0.036068270,-0.027427080,-0.006425380
1640836239.428229,-0.291651010,0.447152140,9.983940120,0.101049260,0.087930280,-0.003786390
1640836239.431840,-0.126711120,0.364887890,9.614738460,0.012078880,-0.003810230,-0.012850760
1640836239.432540,-0.261240840,0.317822190,10.297533990,-0.027497120,-0.044232610,0.022591650
1640836239.436610,0.047416340,0.324869840,9.142317770,-0.015178320,0.064866230,-0.015582140
1640836239.437579,0.002689770,0.282578500,9.658630370,0.024141370,0.028346480,-0.007566810
1640836239.442299,-0.352276270,0.474424720,10.429419520,0.055497890,0.059013070,0.010058280
1640836239.443159,-0.147095670,0.339561100,9.486395840,0.012971460,-0.031432510,-0.011418760
1640836239.446669,-0.249616060,0.273347500,9.517360690,0.000774860,-0.058664380,0.019124150
1640836239.447240,-0.072887990,0.372235660,9.091309550,-0.017118460,0.127424300,0.002002720
1640836239.453689,-0.073552280,0.061897370,10.007127760,-0.007407370,0.090488790,-0.008313360
1640836239.454370,-0.324898150,0.070979670,10.619353290,0.083930800,0.004713240,0.004237890
1640836239.456889,-0.021730220,0.163880970,9.287246700,0.071813170,-0.033584230,-0.008025770
1640836239.458130,-0.350920260,0.045724570,9.493358610,0.010791420,0.003188850,0.002308190
1640836239.462750,-0.363815580,0.171200010,9.489562990,-0.010997060,0.067156560,0.002399090
1640836239.463960,-0.325029610,0.057839000,9.851868630,0.037890670,0.028175120,-0.020527840
1640836239.474890,-0.405393210,0.352857470,9.953466420,0.099682810,0.032916670,-0.008766350
1640836239.475410,-0.135564090,0.760716200,9.653553010,0.052680080,-0.004392860,-0.005227330
1640836239.475720,-0.335623410,0.687696520,10.053275110,-0.031711150,0.024260580,-0.006814300
1640836239.476029,-0.106151530,0.733408210,9.551564220,-0.034746530,0.025966770,0.015452500
1640836239.476760,-0.279105370,0.474736930,10.147279740,0.047773120,-0.013640520,-0.005863610
1640836239.478260,-0.272813890,0.458834140,9.601603510,0.081563000,0.031064450,-0.007671120
1640836239.481639,-0.038979490,0.749259000,9.470409390,0.001691280,-0.025103990,0.005121530
1640836239.482020,-0.268260930,0.371554940,10.138628010,-0.102272640,0.075106330,0.004290040
1640836239.488020,0.083026890,0.191538210,9.434834480,-0.051067770,0.038841370,0.003810230
1640836239.488850,-0.180020650,0.115290690,10.304967880,0.082401940,-0.034917890,-0.007800760
1640836239.491819,-0.319909810,0.239089830,9.626329420,0.041967640,0.050857670,-0.006182490
1640836239.492309,-0.162477720,0.446836980,9.295665740,-0.056423260,-0.051449250,0.011564790
1640836239.497570,-0.442884120,0.058824150,10.030982020,-0.080890980,0.034859780,0.002087650
1640836239.499549,-0.002800610,0.173594240,9.010934830,-0.000718240,0.084777180,-0.006219750
1640836239.503980,-0.203514280,0.326858040,10.244234090,0.076174740,0.003264840,-0.007320940
1640836239.505560,-0.299736440,0.270014520,10.160747530,0.019328300,0.057023770,-0.003597140
1640836239.506739,0.030956500,0.336097450,9.212199210,-0.022017960,-0.049495710,0.009877980
1640836239.508119,-0.331727120,-0.007664660,9.864314080,-0.011549890,-0.008566680,0.006243590
1640836239.512149,-0.133020090,0.104717410,9.034980770,0.004747510,0.082863880,-0.023919350
1640836239.514860,-0.309569000,0.264570560,9.384971620,0.061708690,-0.013192000,-0.017954410
1640836239.516690,-0.678273020,0.212560360,9.637524600,0.022415820,-0.004442040,-0.003162030
1640836239.517650,-0.691326440,0.531774220,8.717576980,-0.007283690,-0.052477430,0.025960810
1640836239.522660,-1.355858920,0.479887750,9.511535640,-0.019319360,-0.139054670,0.048981610
1640836239.523840,-1.350181220,0.627566460,9.234109880,-0.037188830,-0.063219670,0.039201980
1640836239.526690,-1.139480110,0.816948060,9.037029270,-0.000078980,-0.098080930,0.038594010
1640836239.527439,-0.937929390,0.639959570,9.780861850,-0.003488360,-0.099729000,0.050047040
1640836239.531649,-0.046378150,0.789006230,8.817521100,0.000590090,-0.036151710,0.055411470
1640836239.532199,0.191649120,0.633405150,9.074281690,-0.059139730,-0.133626160,0.051915650
1640836239.536630,0.565705000,0.379281010,8.995209690,-0.083184260,-0.098826010,0.085949900
1640836239.537200,0.685006920,0.038206030,8.184448240,-0.010883810,-0.106324270,0.068776310
1640836239.542060,0.218525560,-0.067625690,9.151610370,0.015991930,-0.151729600,0.067009030
1640836239.542919,0.014034990,0.226521210,8.723580360,-0.035150340,-0.083643180,0.080229330
1640836239.547570,-0.487993900,0.102786840,8.901173590,-0.123152140,-0.154693420,0.061082840
1640836239.548130,-0.716757660,0.203938620,9.329404830,-0.073949990,-0.113505150,0.068365040
1640836239.551590,-0.704785650,0.435661520,8.443891530,-0.003843010,-0.105763980,0.065791610
1640836239.551940,-0.724297520,0.434936310,9.049638750,0.010536610,-0.140196100,0.092658400
1640836239.556599,-0.304588970,0.430564940,8.625022890,-0.023457410,-0.059910130,0.114674880
1640836239.557190,0.157014860,0.063845090,8.507652280,-0.053314860,-0.107082720,0.096708530
1640836239.562610,0.412813750,-0.004493970,8.940304760,-0.003395970,-0.062361360,0.099670890
1640836239.563170,0.737047670,-0.029495530,8.457557680,0.007438660,-0.046254690,0.080651050
1640836239.566619,0.412353690,-0.036289700,9.219262120,0.016610330,-0.118902330,0.084884470
1640836239.567139,0.319743220,0.202220540,8.497566220,-0.016573070,-0.091689830,0.096815820
1640836239.571620,-0.152519260,0.172653230,8.613883970,-0.037398940,-0.113528970,0.101152070
1640836239.572059,-0.663807690,0.399484400,8.895730020,-0.012342630,-0.082775970,0.105518110
1640836239.576759,-0.916231220,0.625111580,8.866770740,-0.013111530,-0.122155270,0.093796860
1640836239.577479,-1.050840740,0.697931770,8.909404750,-0.010254980,-0.108952840,0.133332630
1640836239.581720,-0.620743330,0.651352640,8.695371630,-0.030747060,-0.095672910,0.130325560
1640836239.582140,-0.385488090,0.558482230,8.918730740,-0.021979210,-0.028742850,0.142118300
1640836239.587060,0.152565420,0.528772470,8.853644370,-0.029043860,-0.068388880,0.154426710
1640836239.587720,0.241464330,0.159576710,9.341953280,-0.036701560,-0.115755200,0.155518950
1640836239.591800,0.646467800,0.145950590,8.071882250,-0.009897350,-0.104561460,0.151623790
1640836239.592330,0.435545300,0.071169070,8.837172510,-0.030754510,-0.127418340,0.136287530
1640836239.596599,0.258330370,0.267613950,8.333444600,-0.069935630,0.020118060,0.141870990
1640836239.597180,-0.027629300,0.227713410,9.007038120,-0.080640620,-0.142650310,0.132079420
1640836239.601729,-0.717687190,0.194926320,9.432612420,-0.013840200,-0.078573830,0.149187450
1640836239.602840,-0.514159560,0.536393580,7.839232440,0.003996490,-0.153079640,0.142283740
1640836239.606639,-1.250864150,0.419648260,9.540287020,-0.049985950,-0.119921570,0.175751760
1640836239.608899,-0.487280880,0.585681740,7.828100200,-0.101026900,-0.002846120,0.184877220
1640836239.612300,-0.412828620,0.100429910,9.386488910,-0.053860260,-0.140444930,0.163306310
1640836239.612820,0.051487670,0.145736980,9.083167080,0.023569170,0.008559230,0.193518400
1640836239.616619,0.621720020,-0.045421910,8.481709480,0.032463670,-0.125522930,0.169175830
1640836239.617130,0.242994520,-0.180030820,9.583753590,-0.030054150,-0.075332820,0.200417640
1640836239.621630,0.660522340,-0.091947470,8.048846240,-0.060568750,-0.065885480,0.186973830
1640836239.621990,-0.052628250,-0.243184020,9.097866060,-0.021284820,-0.132362560,0.163301830
1640836239.626680,-0.186744470,0.430808160,8.701224330,0.038880110,-0.043076270,0.162126120
1640836239.627319,-0.755191740,0.773166420,9.071646690,-0.018337370,-0.122512880,0.162488220
1640836239.631580,-0.878356930,0.970791760,9.184413910,-0.071062140,-0.103522820,0.202125330
1640836239.631960,-0.810206060,0.894004820,9.062432290,-0.058099630,-0.086042270,0.199754550
1640836239.636600,-0.764074860,0.761846240,9.322727200,-0.005236270,-0.060793760,0.205910220
1640836239.637179,-0.326904510,0.720688340,9.218975070,0.018382070,-0.123037400,0.227612260
1640836239.641800,0.004491750,0.314878020,8.860644340,-0.065629190,-0.091008840,0.229379550
1640836239.642429,0.684417010,0.008466920,8.333691600,-0.070705990,-0.075872230,0.234845270
1640836239.646740,0.631661590,-0.315445300,9.238517760,-0.045183300,-0.032667820,0.214703400
1640836239.647490,0.675269070,-0.247730430,8.910691260,0.000266730,-0.014497340,0.219908400
1640836239.651640,0.099600050,-0.236308500,9.665143970,0.008581580,-0.164130370,0.214265320
1640836239.652439,-0.508339230,-0.064522400,9.165861130,-0.035841760,-0.127902600,0.218535940
1640836239.656630,-0.706618670,0.194648530,8.112547870,-0.029312070,-0.136311370,0.223390760
1640836239.657630,-1.273068310,0.425632030,9.410458560,-0.041370090,-0.059191880,0.212417540
1640836239.661749,-0.923762680,0.723858240,8.889249800,0.001706180,-0.013814870,0.226780770
1640836239.662200,-0.723094340,0.655823410,9.410277370,0.024001300,-0.158444050,0.227470740
1640836239.666730,-0.307069870,0.709269460,9.404418950,0.002345440,-0.074104970,0.258602200
1640836239.667359,0.342444840,0.442763000,8.429843900,-0.028046970,-0.063565380,0.268799100
1640836239.671620,0.272761970,-0.026175340,9.796171190,-0.022126730,-0.104285760,0.242193060
1640836239.672040,0.562739070,0.011938650,8.943943020,0.019806620,-0.047905740,0.247365220
1640836239.676760,0.587457540,-0.162827490,8.732633590,0.008925800,-0.149346900,0.234459340
1640836239.677520,0.044268150,-0.001040650,9.706503870,0.001455840,-0.038826470,0.246027160
1640836239.681630,-0.159285040,0.360657630,8.910249710,-0.051093100,-0.063410410,0.227259100
1640836239.683300,-0.890394510,0.375920830,10.033987050,-0.051385170,-0.186653450,0.241154430
1640836239.686620,-0.995690460,0.716096280,9.051477430,-0.000336770,-0.098051140,0.251790880
1640836239.687189,-0.936759530,0.881523010,8.859199520,-0.012028220,-0.123438240,0.233031810
1640836239.691779,-0.993286370,1.143639560,9.809094430,-0.050669920,-0.061820450,0.278957190
1640836239.692360,-0.277190720,0.914831100,9.017086980,-0.110879540,-0.081452730,0.278671120
1640836239.696590,0.011473040,0.411791180,9.522291180,-0.052778430,-0.134211780,0.270690050
1640836239.697070,0.446204330,0.425930260,9.082315440,-0.004155930,-0.075046710,0.267313390
1640836239.701609,0.516324220,0.087805210,9.277822490,-0.050532820,-0.114054990,0.268924270
1640836239.701980,0.368586840,-0.122215640,9.393610950,-0.087860230,-0.109438600,0.286953180
1640836239.707000,0.366790000,-0.235935300,9.086318020,-0.100272880,-0.124107290,0.262418330
1640836239.708200,-0.126017120,-0.218798430,9.183334350,-0.040730830,-0.069054970,0.274573300
1640836239.711680,-0.370731440,0.097711350,9.208983420,-0.015152990,-0.099833330,0.267797710
1640836239.712240,-1.012850280,0.196821060,9.990649220,-0.046451390,-0.125485660,0.267313450
1640836239.716620,-0.798615280,0.387687920,8.689772610,-0.045840450,-0.132639710,0.295914740
1640836239.717229,-0.886570220,0.349707160,9.460382460,-0.034756960,-0.163778630,0.281828640
1640836239.721590,-0.524495010,0.500350360,8.994444850,-0.025595730,0.007995960,0.288240610
1640836239.721989,-0.039645840,0.478393730,9.367797850,-0.013160710,-0.119917100,0.280803440
1640836239.726740,-0.131727350,0.239932240,10.303749080,-0.010354820,-0.116100900,0.298641620
1640836239.727840,0.806353330,0.247349520,7.994812010,-0.012107190,-0.116607550,0.314010710
1640836239.731660,0.248832390,-0.148235380,9.903374670,-0.020763280,-0.134576870,0.304044780
1640836239.732240,0.202981460,0.016188280,9.362678530,-0.019954140,0.005991760,0.313484610
1640836239.736580,-0.050182020,-0.000717370,9.352560040,0.001351540,-0.232730840,0.285860930
1640836239.737020,-0.649877970,0.118840230,9.860496520,-0.004439060,-0.138722360,0.297981500
1640836239.741690,-0.385869980,0.616729380,8.409585950,-0.023110210,-0.064505640,0.286902490
1640836239.742300,-1.166692140,0.626253900,10.373522760,-0.046406690,-0.141343470,0.291480150
1640836239.746990,-0.842568640,0.952611680,9.696253780,-0.046992300,-0.110179190,0.318633020
1640836239.749699,-0.498089190,0.827186640,9.061013220,-0.026585160,-0.183264910,0.299750270
1640836239.751619,-0.354491920,0.796780170,9.664433480,-0.029595190,-0.088314710,0.311510240
1640836239.752009,0.168042820,0.931653500,9.435243610,-0.066736350,-0.069019210,0.334353740
1640836239.757120,0.241181160,0.236044750,9.684077260,-0.104556980,-0.155633700,0.334680080
1640836239.758280,0.628997680,0.079771160,9.249361990,-0.039315220,-0.143541410,0.338622960
1640836239.763200,0.376977150,-0.007351130,9.237667080,-0.022621450,-0.073346500,0.314819810
1640836239.764150,-0.072950480,0.022349270,9.726588250,-0.075927390,-0.131805270,0.330659840
1640836239.766600,-0.421032310,0.109378320,9.812113760,-0.093509260,-0.198826210,0.329145790
1640836239.767020,-0.476675870,0.105170350,8.786673550,-0.100052380,-0.137360390,0.311034920
1640836239.771669,-0.440550660,0.450634060,9.107053760,-0.040477510,-0.078049310,0.326453150
1640836239.772030,-0.697696150,0.538387950,10.200873370,-0.037337840,-0.014500320,0.318500430
1640836239.776830,-0.337176140,0.594027220,9.645696640,-0.067168480,-0.153224170,0.330103960
1640836239.778290,-0.145399120,0.440181370,9.482601170,-0.049316880,-0.199528050,0.359758760
1640836239.781710,0.173368860,0.165470570,8.823219300,-0.076334190,-0.050327190,0.347106190
1640836239.782100,0.233352300,0.008456360,9.319256780,-0.024312740,-0.053140520,0.350619910
1640836239.786610,0.108061480,-0.165876790,10.021112440,-0.010059770,-0.098334250,0.339655610
1640836239.787119,0.236812560,-0.237522240,9.377097130,-0.029209260,-0.121921300,0.341594160
1640836239.791679,0.019807210,-0.272409800,9.163050650,-0.020575530,-0.120398420,0.347115160
1640836239.792300,-0.448231040,-0.266797570,9.945024490,-0.009454790,-0.097975160,0.324904980
1640836239.796660,-0.656394300,0.175466150,9.446203230,0.008381900,-0.093276810,0.323161540
1640836239.797240,-0.697034240,0.491164360,9.335765840,-0.010809300,-0.185421140,0.320534470
1640836239.801560,-0.718295400,0.698543790,9.788463590,-0.032253570,-0.074617560,0.336761800
1640836239.801970,-0.312651750,1.020489450,9.069046020,-0.029583280,-0.058045980,0.336213380
1640836239.807170,-0.465031060,0.841996250,10.609751700,-0.012183190,-0.172221680,0.360643860
1640836239.808020,-0.010891600,0.753864110,9.414460180,-0.009475650,-0.075110790,0.360812310
1640836239.813570,0.318584740,0.521470960,9.041329380,-0.040999050,-0.171513870,0.348138810
1640836239.814180,-0.055928070,0.311106090,10.426445010,-0.058776150,-0.062789030,0.376467410
1640836239.816589,0.323897810,0.227157910,8.967889790,-0.076290970,-0.074502850,0.363688230
1640836239.817090,-0.146129640,-0.213671640,10.182599070,-0.031585990,-0.229847450,0.347963010
1640836239.821630,-0.227705210,0.054217790,9.331040380,-0.005780160,-0.057330730,0.353421270
1640836239.822000,-0.234145760,0.161130610,9.027232170,-0.049254300,-0.129610300,0.341147210
1640836239.826759,-0.910242560,0.194058580,10.721414570,-0.069938610,-0.133851190,0.376729730
1640836239.829310,-0.318937960,0.470874040,9.024290080,-0.063838070,-0.132428110,0.358265700
1640836239.831600,-0.364340570,0.360166340,9.470725060,-0.023433570,-0.166583090,0.344646070
1640836239.832000,-0.083896650,0.711903870,9.594664570,-0.026442120,-0.023451450,0.368586240
1640836239.836609,0.231740920,0.521535630,9.661197660,-0.047965350,-0.076155370,0.356481970
1640836239.837040,0.079530710,0.201606040,10.099038120,-0.040565430,-0.148969890,0.377710160
1640836239.841709,0.399546920,0.241527870,9.130806920,-0.012719630,-0.132274640,0.387249890
1640836239.842579,0.010299070,-0.231135850,9.319480900,-0.024224820,-0.088001800,0.372751150
1640836239.846799,-0.131338920,-0.212695290,9.468021390,-0.014612080,-0.086678580,0.372681110
1640836239.847700,-0.336301390,-0.206744000,9.711724280,0.009261070,-0.115449740,0.348736350
1640836239.851590,-0.401747550,-0.189276520,9.378506660,-0.012898450,-0.086146600,0.351746380
1640836239.852000,-0.374400970,0.234076950,9.784288410,0.022408370,-0.117296000,0.352823760
1640836239.856959,-0.655878190,0.215498520,10.180265430,0.008775290,-0.072847310,0.341841610
1640836239.863080,-0.345057820,0.407017590,9.361864090,0.028069320,-0.156368330,0.357180860
1640836239.863479,-0.421697740,0.515057270,9.758786200,0.052927430,-0.147479760,0.357982520
1640836239.863760,-0.022512660,0.524969520,9.236648560,0.008973480,-0.044663260,0.358729150
1640836239.866619,0.128227340,0.629810570,9.867025380,0.009031590,-0.100311640,0.389312180
1640836239.867100,0.017389280,0.329386830,10.353571890,0.008629260,-0.096288320,0.378645960
1640836239.871600,0.326682840,0.256604140,9.433942790,0.030311940,-0.128613410,0.366146890
1640836239.871980,-0.061320700,0.275356470,9.769117360,0.055517270,-0.134469580,0.365543430
1640836239.879730,-0.360452530,0.329559180,9.766345020,-0.019359590,-0.100274380,0.356903700
1640836239.880430,-0.382338580,0.465100940,9.430599210,-0.037969650,-0.140146910,0.373423100
1640836239.881590,-0.469373080,0.410074650,9.718208310,-0.009827320,-0.122958420,0.355176660
1640836239.881970,-0.457207290,0.642902370,9.990872380,0.008715690,-0.061029200,0.362166760
1640836239.886610,-0.382071640,0.729209360,9.820583340,0.013941530,-0.104850530,0.376607450
1640836239.887050,-0.354892760,0.580339190,10.283411980,-0.041301550,-0.182013230,0.372867260
1640836239.891719,-0.020475110,0.613073470,9.393202780,-0.039334600,-0.089748210,0.397379760
1640836239.892640,0.349892110,0.436781670,9.017242430,-0.050455340,-0.102034220,0.399200620
1640836239.896750,0.240733800,0.151058850,10.462384220,-0.021074710,-0.033995510,0.397491480
1640836239.897440,0.549117450,0.111963640,9.280588150,0.018170480,-0.030976540,0.383891220
1640836239.901670,0.294033910,-0.070803310,9.971780780,0.006988650,-0.195127740,0.384677950
1640836239.902000,-0.121080000,0.051710450,9.894326210,-0.038215520,-0.034715240,0.415279000
1640836239.907019,-0.005566290,0.005800600,8.883479120,-0.061695280,-0.087247790,0.384721190
1640836239.907719,-0.700963500,-0.141233440,10.679076190,0.016698240,-0.114773210,0.373935700
1640836239.914770,-0.324226980,0.416775110,8.983577730,0.059312590,0.011101370,0.358575610
1640836239.915300,-0.278100400,0.319363590,9.584604260,0.024650990,-0.103774680,0.368677170
1640836239.916580,-0.538256470,0.394709500,10.531916620,-0.006131830,-0.020456310,0.399951610
1640836239.916980,0.069923410,0.475383610,8.929158210,-0.008715690,-0.097560870,0.390179400
1640836239.921820,-0.161355290,-0.015054650,9.979453090,0.042258210,-0.134673710,0.400270550
1640836239.922890,0.144730170,0.110907500,9.456636430,0.076900420,0.030857320,0.391696420
1640836239.926740,0.206480850,0.016143770,9.789619450,0.068035740,-0.044654320,0.369155500
1640836239.927490,-0.115820470,0.030465900,10.508177760,0.016781690,-0.088158260,0.394663240
1640836239.931579,0.184432040,0.258286860,9.274103160,0.010834640,-0.073680280,0.387357210
1640836239.932000,-0.236913470,0.025592060,9.716107370,0.051234670,-0.059765590,0.379651840
1640836239.936590,-0.426918630,0.388659860,10.116944310,0.090722740,-0.042194130,0.380995870
1640836239.937860,-0.522823210,0.655898750,9.760909080,0.068998360,-0.072120140,0.373405280
1640836239.942070,-0.496246340,0.628105100,9.781715390,-0.004227460,-0.093440700,0.392328230
1640836239.942730,-0.322735160,1.007150170,9.955091480,-0.010021030,-0.044840590,0.401969310
1640836239.946689,-0.292641190,0.762253460,9.902581210,-0.006262960,-0.020220880,0.381521940
1640836239.947330,-0.076364750,0.621450360,9.952925680,0.044322020,-0.104756650,0.398634370
1640836239.951599,-0.040224710,0.637115000,9.878849030,0.064472850,-0.065496570,0.404772160
1640836239.952010,0.179425630,0.320941480,9.327351570,-0.027576090,-0.041045250,0.401027500
1640836239.956720,0.088205660,0.220229390,10.143714900,-0.049750520,-0.072388350,0.436806770
1640836239.958410,0.063191320,-0.101016030,9.911255840,-0.013737380,-0.021809340,0.400137930
1640836239.961720,0.217815580,-0.110200030,9.507337570,0.048586730,-0.084103650,0.387457010
1640836239.962230,-0.057803110,0.276268330,9.903038020,0.055158140,-0.024025140,0.410588120
1640836239.966679,-0.212211730,0.173962340,9.851762770,-0.037738690,-0.009457770,0.392609890
1640836239.967100,-0.385912240,0.189448600,10.124682430,-0.008872150,-0.111499440,0.417721300
1640836239.971670,-0.362179910,0.284326490,9.438278200,0.043343010,-0.070486960,0.397163660
1640836239.972210,-0.189332840,0.338685240,9.284214020,0.041660670,0.006324050,0.386729870
1640836239.976699,-0.232749890,0.531848010,10.031435970,0.034955150,0.034894050,0.412221340
1640836239.977560,-0.075966240,0.330263730,10.161412240,0.004437570,-0.053830440,0.408384200
1640836239.981639,0.036948210,0.093622620,9.794703480,0.028593840,-0.081004200,0.411461260
1640836239.982020,0.155763400,0.021293230,9.261002540,0.075066100,-0.015750530,0.416414440
1640836239.986670,-0.156698610,-0.106012140,10.241441730,0.069271030,-0.011818110,0.388570130
1640836239.987249,-0.147196340,0.067799220,9.770261760,0.052820150,-0.008408730,0.394296740
1640836239.991740,-0.055748120,0.149940770,9.697597500,0.035791100,-0.093321510,0.389705600
1640836239.992480,-0.411298630,0.201708910,10.272648810,0.051094600,0.006426870,0.382523270
1640836239.996590,-0.131674240,0.678020360,9.436994550,0.071863820,-0.010757150,0.387860770
1640836239.996980,-0.595447000,0.702275450,10.752106670,0.055214770,-0.097598140,0.392405780
1640836240.001639,-0.325865330,0.768384460,9.556675910,0.026139620,-0.005005300,0.399914410
1640836240.002660,-0.044367600,0.816245020,9.451035500,0.037206710,-0.081133850,0.402531030
1640836240.007040,-0.429244820,0.702474590,10.593676570,0.025962290,0.011664630,0.412671270
1640836240.008149,0.300413400,0.729074840,9.180127140,-0.004272160,-0.011268260,0.413928900
1640836240.011690,0.075502990,0.227292280,10.346106530,0.007560850,-0.084596880,0.400757790
1640836240.012270,-0.007052180,0.103466750,10.019565580,0.038959090,0.035323200,0.400227340
1640836240.016579,0.216956850,0.172154200,9.393737790,0.040404500,-0.068803130,0.391870770
1640836240.017060,-0.358236640,-0.120329480,10.507386210,-0.000950690,-0.059773030,0.406856830
1640836240.021580,0.082642790,0.078109060,9.050781250,-0.010859960,0.025892260,0.409761010
1640836240.022210,-0.031610560,0.090923200,9.680566790,0.037243960,-0.017482040,0.386010140
1640836240.026850,-0.301379650,0.211634370,10.454993250,0.046171250,0.038260220,0.403125610
1640836240.027560,-0.034664720,0.448256310,9.738774300,0.048218670,-0.022327900,0.404877960
1640836240.031560,-0.229489030,0.169168110,10.051375390,0.049898040,-0.067926940,0.407035740
1640836240.032050,-0.121488190,0.301794500,9.635465620,0.038160390,0.022323430,0.402653220
1640836240.036620,-0.010619600,0.391522380,9.405034070,0.047123420,0.047942990,0.386935410
1640836240.037050,-0.196547690,0.130429730,10.394351010,0.035938620,-0.010041900,0.385293450
1640836240.041640,-0.082355210,0.274727280,9.957532880,0.073418020,-0.009781120,0.402663650
1640836240.042230,-0.008083690,0.019748950,9.356548310,0.086367140,-0.018770990,0.396694240
1640836240.046670,-0.347220240,0.019785270,10.412796020,0.068373980,-0.005480650,0.403645630
1640836240.047240,-0.379711990,0.366412910,9.897596360,0.055761640,0.033277270,0.404669340
1640836240.051600,-0.282684030,0.179708530,9.856281280,0.030228500,-0.075888630,0.396011800
1640836240.052039,-0.369290770,0.401045620,10.233938220,0.082620980,-0.004538890,0.404287960
1640836240.056739,0.035572990,0.694461110,9.109849930,0.101780880,0.046175710,0.376866730
1640836240.057469,-0.092634730,0.750531610,10.436157230,0.034467880,-0.014451150,0.394851000
1640836240.061570,-0.154572980,0.949827550,10.270948410,-0.006341930,0.035922230,0.431008640
1640836240.062049,0.128371540,0.466748710,9.450731280,0.016087290,-0.077173100,0.399856300
1640836240.066920,-0.250285690,0.360146310,10.339401250,0.088644040,-0.037343800,0.419080290
1640836240.067560,0.009913190,0.643438520,9.077776910,0.044094030,0.072589520,0.417336880
1640836240.071890,0.004513710,0.068847310,10.055702210,-0.031669440,-0.006207820,0.416354860
1640836240.073170,-0.200682830,-0.101174000,10.579292300,0.016853210,0.044897200,0.417591660
1640836240.076720,0.158103690,-0.086526460,9.309552190,0.092379750,-0.013700130,0.384022240
1640836240.077540,-0.318480610,-0.126316320,10.289517400,0.095066430,-0.049349680,0.413653340
1640836240.081730,-0.193147230,0.198910360,9.405253410,0.015354160,0.048621000,0.409016010
1640836240.082559,0.026113400,0.139178980,9.373497010,0.006484990,0.011928380,0.377002360
1640836240.086660,-0.174771490,0.241736250,10.415476800,0.071024890,0.051030530,0.387664140
1640836240.087100,0.069428380,0.622860790,9.717857360,0.109687430,0.054767720,0.388875570
1640836240.091709,-0.254176910,0.451735910,10.339679720,0.075988480,-0.053605430,0.384746520
1640836240.092270,-0.238625840,0.424151930,9.872101780,0.031559170,-0.014582280,0.421181410
1640836240.096599,-0.137583840,0.280412170,9.181980130,0.052312020,0.024230780,0.397002790
1640836240.097090,-0.361224030,0.081885230,10.047429080,0.083424160,0.034268200,0.386506320
1640836240.101590,-0.197531660,0.331256180,10.163250920,0.090403880,0.045794260,0.389395740
1640836240.101990,-0.297296080,0.351907790,10.098173140,0.055256490,-0.028154260,0.378580480
1640836240.106809,-0.140349860,0.176861270,9.865428920,0.034962590,-0.050878530,0.401087110
1640836240.107640,-0.100554170,0.375481100,9.666254040,0.081647940,0.041653210,0.386409460
1640836240.111680,-0.271623670,0.422539290,10.106601720,0.074015560,0.047902770,0.374323130
1640836240.112300,-0.232528220,0.597961780,10.543721200,0.051422410,-0.039458270,0.418168250
1640836240.116600,-0.160865840,0.645621180,9.735647200,0.040216750,-0.021831690,0.399325820
1640836240.117190,0.120932750,0.530269440,9.339331630,0.020509950,0.004391370,0.392882560
1640836240.121800,-0.043659240,0.747565570,10.310320850,0.044231120,0.079236920,0.411272080
1640836240.123250,-0.118688840,0.516389850,10.177440640,0.027312340,0.033602120,0.387005510
1640836240.126760,-0.045138810,0.301075220,10.140284540,0.034131110,-0.091460350,0.404235750
1640836240.127319,-0.103213100,0.436381490,9.445993420,0.045141580,0.020346050,0.412061840
1640836240.131620,-0.001958450,0.276439430,9.293069840,-0.010883810,0.048981610,0.399544860
1640836240.132010,-0.099029180,0.180652710,10.412232400,-0.000391900,0.053563720,0.416892770
1640836240.136580,-0.016888300,0.112297680,9.836825370,0.043818360,0.055623050,0.386311140
1640836240.137050,0.012853440,0.052946940,9.928644180,0.069148850,-0.049749020,0.378786030
1640836240.141710,-0.163672630,0.354953500,9.819964410,0.043143330,0.041431190,0.403256710
1640836240.142230,-0.036122380,0.289327740,9.309988020,-0.034427640,0.039042530,0.371374280
1640836240.147290,-0.203908190,0.154973400,10.160028460,0.006243590,0.040525200,0.393916700
1640836240.148540,-0.022691650,0.301069170,9.601536750,0.092747810,0.081747770,0.383020940
1640836240.151559,-0.058622680,0.269995690,9.914163590,0.095249710,0.020131470,0.394363700
1640836240.152020,-0.230540170,0.281459330,10.258165360,0.042319290,0.036996600,0.424157080
1640836240.157060,-0.171127990,0.144747150,9.597554210,0.008229910,0.014999510,0.410066550
1640836240.157750,-0.374699740,-0.072255780,9.982883450,0.057785220,-0.000962620,0.397956310
1640836240.161700,-0.141321730,0.233976220,9.552988050,0.109012430,0.084802510,0.388863710
1640836240.162320,-0.277138530,0.476412210,10.130499840,0.080473740,0.033777960,0.368194340
1640836240.166649,-0.318641810,0.517884730,10.301063540,0.023096800,0.016291440,0.387789340
1640836240.167310,0.029525630,0.667744280,9.595426560,0.015564270,-0.012870130,0.388503070
1640836240.171579,-0.307522060,0.545918110,10.168508530,0.048513710,0.032410020,0.387406320
1640836240.172070,-0.139314670,0.661812420,9.879299160,0.071713340,0.047563020,0.403925780
1640836240.176720,-0.217217880,0.651938380,10.203359600,0.052304560,-0.032602250,0.407736030
1640836240.177790,-0.101340620,0.371622560,9.747221950,0.008115170,0.026726720,0.418005940
1640836240.181640,0.269231740,0.383880790,9.525300980,0.012615320,0.047491490,0.405755670
1640836240.182240,-0.145452590,0.310200240,10.460211750,0.029833610,0.057753910,0.396341120
1640836240.186780,-0.058936430,0.249914240,10.017388340,0.028492510,-0.000259280,0.401447740
1640836240.187539,-0.095578620,0.253089900,9.876642230,0.048175460,-0.070023540,0.391843910
1640836240.192070,-0.195379420,0.270647230,9.399855610,0.018152600,0.045730170,0.397454230
1640836240.192700,0.134799290,0.485175190,9.420100210,-0.003001090,0.073578960,0.409179930
1640836240.196689,-0.082842520,0.322691890,10.508821490,0.012928250,0.095935170,0.400608870
1640836240.197549,0.051736120,0.283431740,10.096557620,0.041449070,0.012747940,0.394927000
1640836240.201740,0.050402100,0.352453170,9.749302860,0.090360650,-0.048354270,0.416217830
1640836240.202520,-0.249853070,0.259455110,9.377722740,0.023366510,0.033664700,0.395889550
1640836240.206889,-0.113581120,0.168063830,9.429958340,-0.025619570,0.045679510,0.395538000
1640836240.207950,-0.242639990,-0.017584310,10.154089930,0.040093060,0.084361440,0.385797050
1640836240.214040,-0.142483230,0.027501810,9.962665560,0.085406020,0.033941870,0.371818300
1640836240.214630,-0.098947850,0.189435650,10.109457020,0.106182700,0.007927420,0.404661950
1640836240.216699,-0.198417860,0.177542940,9.960534100,0.042706720,0.029866400,0.401289760
1640836240.217460,-0.287338610,0.091364820,9.971830370,0.023245810,-0.012835860,0.416657330
1640836240.222460,-0.231478320,0.184470710,9.606264110,0.103752320,0.023706260,0.402213630
1640836240.223750,-0.154934750,0.430823950,9.580109600,0.100410000,0.033552940,0.366799620
1640836240.227440,-0.296055470,0.818247440,10.237603190,0.059491400,0.038778780,0.384004440
1640836240.228880,-0.155264560,0.868641500,9.969297410,0.006580350,-0.000829990,0.388337670
1640836240.232120,-0.191881050,0.646909770,10.055339810,0.018750130,-0.040735310,0.375750660
1640836240.232810,-0.160096630,0.644846380,9.749538420,0.100991140,0.038525470,0.391907990
1640836240.236699,-0.087993560,0.580123010,9.856543540,0.074498360,0.031313300,0.393484560
1640836240.237380,-0.325147000,0.338832440,10.516876220,0.009194020,0.004100800,0.425882670
1640836240.241619,0.097741280,-0.024743720,9.337851520,0.010661780,-0.012665990,0.416879300
1640836240.242080,0.056725790,-0.183070030,9.581768990,0.057001420,-0.007615980,0.384119090
1640836240.246919,-0.101083080,0.011846640,9.793637280,0.085879860,0.091224920,0.399790700
1640836240.247920,0.001204140,0.051596790,9.886822700,0.059241060,-0.014011560,0.371132820
1640836240.251659,-0.364915460,0.129929600,10.484395030,0.043588880,-0.058954960,0.370837780
1640836240.252139,0.011214970,0.390085190,9.036569600,0.056789830,0.016468770,0.385558610
1640836240.256680,-0.199642120,0.447933320,9.922224040,0.059199340,0.021487480,0.362756910
1640836240.257350,-0.470427270,0.599524080,10.265577320,0.064131620,0.059276820,0.377017260
1640836240.261710,0.061931000,0.616939070,9.290931700,0.076971950,-0.064072020,0.381626130
1640836240.262430,-0.114300580,0.364958440,10.006757740,0.074075170,-0.016048550,0.394249020
1640836240.266690,0.108536270,0.245261890,9.500440600,0.064258270,0.088821340,0.412376200
1640836240.267239,0.087840210,0.062507410,10.289743420,0.085021560,-0.005185600,0.378695130
1640836240.271700,-0.227025940,-0.030458610,10.569841380,0.081242640,-0.001657010,0.375102550
1640836240.272369,0.215260970,0.166470530,9.125808720,0.075447560,-0.025036930,0.373527440
1640836240.277870,-0.185504080,0.331820700,9.990230560,0.066737830,0.001594420,0.354914370
1640836240.279600,-0.273098920,0.733060840,9.792175290,0.022633380,0.057923800,0.369374450
1640836240.281910,-0.166504110,0.888164340,9.850776670,0.041483350,-0.039921710,0.382237200
1640836240.282410,-0.481281010,0.766641080,10.404257770,0.062498450,-0.029620530,0.377380850
1640836240.286769,-0.161948900,0.903971310,9.541007040,0.064140540,0.003506240,0.389423910
1640836240.287639,-0.265885530,0.807942150,10.125856400,0.029130280,-0.006821750,0.398147140
1640836240.292450,-0.103760370,0.475709710,9.993127820,-0.038625300,0.023043150,0.407975940
1640836240.293140,0.313710120,0.187645320,9.449201580,0.024260580,0.000242890,0.391452010
1640836240.296670,0.198497620,-0.028314750,9.828584670,0.075946760,0.025022030,0.365860790
1640836240.297530,0.223906590,0.068546560,9.658537860,0.030371550,0.028295820,0.381024240
1640836240.301700,0.024860240,-0.037098140,10.020427700,0.005723540,-0.021421910,0.396357420
1640836240.302189,-0.105623950,-0.213292820,9.899065970,-0.007580220,-0.013560060,0.380772440
1640836240.306700,-0.198554660,0.065041890,9.675576210,0.059553990,0.012771790,0.366890490
1640836240.307220,-0.387761000,0.289049150,9.759280200,0.092209880,0.026267770,0.356495380
1640836240.311790,-0.447841730,0.423196700,9.979001050,0.029569870,0.000347200,0.355811450
1640836240.312719,-0.428730990,0.526629510,9.802010540,0.037187340,-0.026878710,0.382465150
1640836240.316589,-0.249682230,0.354398730,9.444968220,0.055834660,-0.039403150,0.372043340
1640836240.317070,-0.172882350,0.349781810,9.868804930,0.081209840,0.016987330,0.365603000
1640836240.321740,-0.022261650,0.465861800,9.927115440,0.080755360,0.042207540,0.368546040
1640836240.322810,0.045888120,0.277090130,10.342160220,0.025832650,-0.062559540,0.373651090
1640836240.326890,0.131013840,0.235015150,9.846328740,0.055998560,-0.026464470,0.388354060
1640836240.327560,0.251021410,0.246175870,9.322634700,0.078269850,-0.014989080,0.357511730
1640836240.331750,-0.279055480,0.320200890,10.358934400,0.061757870,-0.018352270,0.362385840
1640836240.332600,-0.387330440,0.478556660,9.794716840,0.051368780,-0.031845270,0.383786800
1640836240.337000,-0.364346090,0.316888840,9.806795120,0.039775670,-0.108432770,0.368352260
1640836240.337940,-0.517048840,0.510859790,9.952993390,0.068679470,0.000375510,0.370255200
1640836240.341840,-0.126953180,0.854576350,9.360770230,0.030481820,0.009098650,0.364291670
1640836240.342599,-0.176159980,0.541330990,10.544765470,-0.005912780,-0.024247180,0.370055500
1640836240.346779,-0.101176070,0.353021030,9.904807090,0.064264240,-0.009506940,0.378960370
1640836240.347770,0.278706760,0.219818490,9.323819160,0.108323980,-0.128655120,0.371718440
1640836240.351729,-0.038232530,0.278061780,9.711805340,0.046578040,-0.016303360,0.388677360
1640836240.352180,0.262780960,0.272337530,9.060408590,-0.050972400,0.022892660,0.395791170
1640836240.356890,0.134424880,-0.267492090,10.419794080,0.007975100,-0.024884940,0.365437630
1640836240.357720,-0.228146090,-0.209484460,10.240082740,0.153394090,-0.013387210,0.350122210
1640836240.361670,0.011180400,0.204518840,9.192326550,0.162629780,-0.117863720,0.356820170
1640836240.362310,-0.558314200,0.329962850,9.984838490,0.008273120,-0.044016550,0.362233910
1640836240.366670,-0.409327720,0.446130160,9.281291960,-0.070220250,0.017283860,0.376145600
1640836240.368409,-0.350359710,0.197228950,9.982182500,0.079452990,-0.075209150,0.358730580
1640836240.371660,-0.489887740,0.394789220,10.161814690,0.191173000,-0.025440760,0.334629450
1640836240.372210,0.048850720,0.950486180,9.231892590,0.123800360,-0.065206000,0.362496080
1640836240.376639,-0.167516220,0.691375670,10.294047360,-0.038091840,-0.051271920,0.382791490
1640836240.378830,0.011130070,0.425784200,9.808350560,-0.063084070,-0.011439620,0.387087460
1640836240.383010,0.205219950,0.206130000,9.738499640,0.113859790,-0.092998150,0.364659790
1640836240.383420,-0.225420160,0.269948930,10.209263800,0.170387330,-0.058241200,0.350786780
1640836240.386750,0.000218980,0.653171480,9.306675910,0.043514370,-0.069174180,0.378875490
1640836240.387359,-0.187414970,0.298024000,9.903697970,-0.062620650,-0.078734760,0.382544100
1640836240.391579,-0.150771010,0.173764120,9.777578350,-0.033587220,-0.016264620,0.371322040
1640836240.392740,-0.018377310,0.469704630,9.673157690,0.106340660,-0.050258640,0.360813830
1640836240.396720,-0.394326720,0.429203270,10.369493480,0.108459600,-0.066320600,0.359639560
1640836240.397300,-0.247538300,0.455594720,9.608552930,0.024008750,-0.107495490,0.386287300
1640836240.401589,-0.096953030,0.275875420,9.307437900,0.011383000,-0.101369630,0.382691650
1640836240.402190,-0.113703240,0.179057120,9.583470340,0.000783800,0.005975370,0.370043520
1640836240.406600,0.013002110,0.298554270,9.879087450,0.054799020,-0.038407750,0.378149750
1640836240.407270,-0.026912310,0.087710670,10.125640870,0.090216120,-0.088940560,0.361751020
1640836240.411670,-0.051221920,0.027492740,9.711155890,0.086447600,-0.124026840,0.379809740
1640836240.413290,-0.082529490,0.044220480,9.363897320,0.077249110,-0.079646710,0.387555390
1640836240.416630,-0.201999440,-0.045979780,9.705995560,0.025048860,-0.053104770,0.363588420
1640836240.417529,-0.348665920,0.097553040,10.090736390,0.056239970,-0.081923630,0.365774420
1640836240.421569,-0.131041570,0.230351180,9.547392850,0.122827300,-0.101611020,0.354020330
1640836240.422030,-0.198383230,0.441696410,9.832925800,0.095602880,-0.105421270,0.346641240
1640836240.426689,-0.263366220,0.722769380,9.776758190,0.064672510,-0.068247330,0.381892920
1640836240.427399,-0.219666930,0.625708100,9.802854540,0.016497080,-0.100949410,0.361934300
1640836240.431599,-0.434706630,0.557968800,10.237549780,0.046712160,-0.146476920,0.382368300
1640836240.432020,-0.141975600,0.522497650,9.255185130,0.119972240,-0.112962730,0.379493830
1640836240.436640,-0.119735900,0.600445270,9.728391650,0.079283140,-0.105439140,0.363601830
1640836240.437120,-0.130945590,0.727937760,9.980022430,-0.007419290,-0.065356500,0.410687950
1640836240.442839,0.231855030,0.246884380,9.614331250,-0.014659770,-0.117178260,0.388698310
1640836240.443420,-0.085081080,0.060775320,10.297447200,0.078061220,-0.139996410,0.363647970
1640836240.446689,-0.025304500,0.370596080,9.311511990,0.114315760,-0.116805730,0.377193060
1640836240.447260,-0.136607320,0.394567340,9.620518680,0.017301740,-0.171422970,0.371140270
1640836240.451730,-0.261080980,0.390708770,9.801028250,-0.060734150,-0.088819850,0.388398710
1640836240.452260,0.127366600,0.321598560,9.196370120,0.011086460,-0.088390710,0.367978300
1640836240.456620,-0.165322120,0.323269460,10.389216420,0.095577540,-0.116598610,0.358895960
1640836240.457199,-0.120687400,0.515472470,9.670906070,0.090710810,-0.103764240,0.389930610
1640836240.461820,-0.005377080,0.357112880,9.470556260,0.013417010,-0.199878230,0.393490490
1640836240.462639,-0.304244580,0.064365010,9.776537900,-0.017860530,-0.112302620,0.397013160
1640836240.466679,0.069896780,-0.003109430,8.846864700,0.033760070,-0.089009130,0.378738340
1640836240.467239,-0.179788190,-0.096142520,10.255598070,0.105750560,-0.125564650,0.355969400
1640836240.471590,-0.222562280,0.067990280,10.074766160,0.090038780,-0.094656650,0.366516500
1640836240.472070,0.032846770,0.244247350,9.532849310,0.043955450,-0.209517780,0.381904870
1640836240.476729,-0.363845650,0.089034660,10.115955350,0.025829670,-0.154797750,0.377641620
1640836240.477399,-0.132618830,0.338324580,9.172354700,0.050285460,-0.102758420,0.373665990
1640836240.481670,-0.331935170,0.480480670,10.090387340,0.098717230,-0.169582680,0.367267430
1640836240.482479,-0.426800640,0.577977120,9.952877040,0.078053780,-0.154061630,0.370289440
1640836240.486610,0.154472490,0.835193400,9.030277250,0.037921970,-0.196971000,0.383074610
1640836240.487100,-0.067289810,0.650178130,10.163705830,-0.000442560,-0.098229940,0.369988320
1640836240.491710,0.013210330,0.568800450,10.037534710,-0.001935660,-0.096333050,0.397174120
1640836240.492319,-0.003484760,0.315834700,10.154112820,0.085264470,-0.244145140,0.398066700
1640836240.496600,-0.206471370,0.006373890,9.588988300,0.094677530,-0.211349160,0.383034440
1640836240.497160,0.126230870,0.221684110,8.603085520,0.023777780,-0.160393130,0.390343340
1640836240.501560,-0.153740470,0.115061190,9.936502460,-0.033034380,-0.091767310,0.396122070
1640836240.502040,-0.014717820,-0.087413530,10.007886890,-0.020045050,-0.115001220,0.382144840
1640836240.506899,0.023677500,0.170050000,9.898237230,0.119192920,-0.236874850,0.367817310
1640836240.508479,-0.293989180,0.480392840,9.686948780,0.102557240,-0.199638350,0.376649230
1640836240.512110,-0.106625460,0.625340040,9.002929690,-0.035563120,-0.169245900,0.392968980
1640836240.513399,-0.284104530,0.438296440,9.812418940,-0.029492380,-0.136967020,0.377704200
1640836240.516640,-0.111401210,0.286039410,9.639568330,0.034618380,-0.134766100,0.368228580
1640836240.517120,0.143570380,0.428277940,9.587257390,0.119537130,-0.200139000,0.381478700
1640836240.521560,-0.042927780,0.451805440,9.917422290,0.053644180,-0.141866520,0.384724080
1640836240.522070,0.027506910,0.148141730,9.687482830,-0.046445430,-0.189234300,0.400674280
1640836240.526739,-0.148926590,-0.157709300,9.825513840,0.032807890,-0.212071880,0.402467010
1640836240.527439,-0.130012780,-0.189234500,9.348125460,0.087580090,-0.166749950,0.367465620
1640836240.531690,-0.183866230,0.181568610,9.646595000,0.095835330,-0.171481060,0.364065170
1640836240.532130,-0.296520680,0.586198930,9.999864580,0.001984830,-0.170916330,0.371126830
1640836240.536589,-0.039742680,0.462121280,9.630096440,-0.068698820,-0.216560080,0.368596610
1640836240.537060,-0.066409000,0.445586440,9.777959820,0.063480420,-0.182498980,0.369632270
1640836240.541679,-0.125467910,0.750467780,9.805527690,0.109531010,-0.170437990,0.356502860
1640836240.542250,-0.061917700,0.884757940,9.745792390,0.023730100,-0.233835010,0.393818410
1640836240.547259,0.040962670,0.712846760,9.530009270,-0.064896070,-0.201171670,0.421889220
1640836240.548499,0.362622980,0.182492210,9.303836820,-0.045554330,-0.149019050,0.397247050
1640836240.551600,0.174730880,0.065155560,10.052161220,0.078089540,-0.139366080,0.385311190
1640836240.552039,0.045020050,0.228525190,9.998731610,0.071747600,-0.192688410,0.377215530
1640836240.556630,-0.051639050,-0.082977700,9.636935230,-0.019629300,-0.265458320,0.391238990
1640836240.558270,-0.086406950,-0.132262530,9.292280200,-0.033694510,-0.211070480,0.385347010
1640836240.561669,0.130559300,-0.012928130,9.128446580,0.009872020,-0.110009330,0.364646350
1640836240.562060,0.008336030,0.092974600,10.057147030,0.060121730,-0.096428420,0.356572930
1640836240.566599,0.083253780,0.532112000,10.076167110,0.050683320,-0.160630050,0.371415940
1640836240.567200,0.053633380,0.439990880,9.505414010,0.013631590,-0.266152680,0.385247230
1640836240.571560,-0.107476950,0.288232150,9.149827000,0.010794400,-0.206594170,0.409816290
1640836240.572059,-0.107327360,0.441131590,9.109780310,0.024287400,-0.132809560,0.389438870
1640836240.576769,-0.310223790,0.124979160,10.048829080,0.040170550,-0.143703820,0.372143120
1640836240.577600,-0.135887860,0.300491960,10.095991130,0.050513460,-0.181008880,0.384172800
1640836240.582209,0.092759060,0.277326020,9.548027990,0.043191020,-0.201576990,0.379993080
1640836240.582810,0.018596430,0.090668790,9.697100640,0.004741550,-0.187981170,0.378717540
1640836240.586840,0.170318900,0.440848560,9.560700420,0.009545680,-0.153274820,0.384719610
1640836240.587390,0.170519050,0.237596910,9.516882900,0.031028690,-0.168634970,0.363883410
1640836240.591840,0.120762120,0.401989790,9.866342540,0.039137900,-0.196816040,0.368392410
1640836240.592500,0.060861790,0.885378840,9.569395070,0.028665360,-0.168883770,0.371919600
1640836240.596910,-0.097848600,0.710908470,9.731518750,-0.065046560,-0.200749930,0.383032890
1640836240.597820,-0.138433350,0.797623100,9.962185860,-0.063303110,-0.172972690,0.397162170
1640836240.601580,-0.116279990,0.589829090,9.495355610,0.010438260,-0.160253060,0.368867810
1640836240.602000,-0.268765540,0.420884610,9.949049950,0.029070680,-0.208105190,0.381217960
1640836240.606629,-0.278429960,0.804296970,9.612563130,-0.029559430,-0.182038560,0.389014180
1640836240.607309,0.015052620,0.209368590,9.211932180,-0.133474220,-0.208018750,0.392007890
1640836240.615120,0.224592940,-0.001381450,9.728088380,-0.070928040,-0.145214800,0.399766890
1640836240.616240,0.440725680,0.147520870,9.382947920,0.038754950,-0.103294860,0.356039490
1640836240.616649,0.423111530,-0.086136680,10.106486320,0.016190110,-0.178307310,0.373688340
1640836240.617190,0.149041910,0.246808190,10.031867980,-0.034455960,-0.185087340,0.398075610
1640836240.621569,0.115961410,0.037364060,9.022580150,-0.082930940,-0.244206220,0.368850020
1640836240.622030,-0.099398520,0.080732880,9.277624130,-0.053019830,-0.192187740,0.376346710
1640836240.626890,-0.180864570,0.437741040,9.086339000,0.015175340,-0.058284410,0.353334870
1640836240.627950,-0.143505020,0.322997360,10.079389570,0.002570450,-0.154946770,0.345552030
1640836240.631640,-0.232880530,0.532005430,10.210156440,-0.005720560,-0.189051000,0.396788150
1640836240.632300,0.134482200,0.249129160,8.882190700,-0.029729310,-0.192503630,0.384120670
1640836240.636570,-0.034819910,-0.112982480,9.873976710,-0.019416210,-0.157170000,0.395861300
1640836240.637159,-0.105963560,0.052720400,9.550995830,0.047048930,-0.093792380,0.390437250
1640836240.641719,0.178068340,-0.118346430,9.376327510,0.031305850,-0.226238410,0.358122590
1640836240.642360,0.071494450,0.131388410,9.738854410,0.002533200,-0.140275080,0.377178190
1640836240.646999,0.239025980,0.417974030,9.197566990,-0.018870830,-0.128267710,0.359529290
1640836240.648730,-0.066466300,0.452958050,10.491096500,-0.033074610,-0.203500700,0.354164810
1640836240.651589,-0.151466000,0.850284280,9.730661390,0.001436470,-0.164105010,0.374245640
1640836240.652010,0.037831570,0.833504260,9.191242220,0.000801680,-0.209088640,0.357636810
1640836240.656630,-0.314819480,0.906795260,10.030193330,-0.028166180,-0.125160830,0.387741630
1640836240.657240,-0.004604740,1.059942480,9.242391590,-0.082354230,-0.124871720,0.398652290
1640836240.661680,0.092120540,0.432596830,9.912731170,-0.091516990,-0.198797930,0.394211770
1640836240.662250,0.124562880,0.140696140,9.529343610,-0.009816880,-0.111202900,0.384517010
1640836240.666600,0.412531020,0.058179750,9.219551090,0.018174950,-0.149276840,0.367626550
1640836240.667209,0.024544340,-0.187464210,10.417669300,-0.044070190,-0.132085380,0.386422870
1640836240.671559,0.272978570,-0.207851590,9.269571300,-0.096581880,-0.147461890,0.370779660
1640836240.672210,0.359780400,-0.094880740,9.441187860,-0.058594350,-0.187535580,0.342130750
1640836240.677160,0.116087250,0.152990010,9.426191330,-0.015312440,-0.026483840,0.350144540
1640836240.677850,0.193188740,0.484416540,9.453294750,-0.000040230,-0.113202650,0.338773460
1640836240.682139,-0.283991930,0.631095710,10.308352470,-0.023806100,-0.176951330,0.351238310
1640836240.682570,0.016131460,0.550091510,8.833338740,-0.052547460,-0.151003910,0.380772350
1640836240.686770,0.051954590,0.456252840,9.326873780,-0.029844050,-0.102683920,0.364647870
1640836240.687460,-0.156262000,0.187666270,10.095767970,-0.016683340,0.002323090,0.348098580
1640836240.692010,0.176357980,0.144634770,9.734268190,-0.000987950,-0.144261140,0.345318020
1640836240.693390,0.188660470,-0.000619250,9.666832920,0.003588200,-0.143556310,0.350014870
1640836240.696720,0.344244360,-0.232197090,8.888341900,-0.023324790,-0.059866910,0.355544720
1640836240.697199,0.170854180,-0.120205450,9.850751880,0.007545950,-0.089983630,0.341257420
1640836240.701589,-0.082624200,0.024828120,9.832671170,0.011375550,-0.080393250,0.329409570
1640836240.702050,0.129873230,0.270537440,9.406926160,-0.008884070,-0.158754040,0.341185930
1640836240.706720,-0.113462910,0.653469860,9.810854910,0.011442600,-0.057823960,0.332602890
1640836240.707350,-0.053368400,0.909311890,9.539302830,-0.043009230,-0.057940190,0.320875640
1640836240.711799,-0.075279520,1.157773610,10.283893590,-0.047832730,-0.116683560,0.353801340
1640836240.713739,0.034102290,1.037514450,9.455559730,-0.038389850,-0.049507610,0.340111520
1640836240.716620,0.323875810,0.769162600,9.307122230,-0.036881880,-0.111325100,0.340004350
1640836240.717100,0.242114840,0.785728280,9.836331370,-0.028941040,-0.006286800,0.367517830
1640836240.721650,0.472868320,0.240775360,9.337100980,-0.093959290,-0.030124190,0.346352250
1640836240.722849,0.440271620,-0.108685010,10.082672120,-0.080624220,-0.100450230,0.365777340
1640836240.726719,0.438064580,-0.082293400,9.192593570,-0.029833610,0.012525920,0.340104100
1640836240.727399,0.281373950,-0.207928780,9.494222640,-0.052700940,-0.058914730,0.320969610
1640836240.731560,-0.296875860,0.177001420,10.247047420,-0.056657200,-0.033868850,0.348109070
1640836240.732070,-0.134486480,0.185433730,8.842660900,-0.083394350,-0.085106480,0.297670100
1640836240.736610,-0.233265790,0.321587120,9.514673230,-0.058948990,-0.075428180,0.321759280
1640836240.737110,-0.094376790,0.845302100,9.182074550,-0.036267940,0.112208730,0.327998430
1640836240.742040,0.099177900,0.628346090,10.047175410,-0.057893990,-0.020922720,0.315018000
1640836240.746640,0.017792580,0.608829020,10.466066360,-0.046682360,-0.054930160,0.355875580
1640836240.747130,0.565835120,0.293176350,8.580604550,-0.038205090,-0.034594540,0.331726700
1640836240.748800,0.323483940,-0.210497980,9.729876520,-0.022797290,-0.017794970,0.329309730
1640836240.751639,0.168150440,0.043847240,9.488490100,-0.015436110,0.090228020,0.327199730
1640836240.752080,0.280480120,-0.067782250,9.526721000,-0.064504150,-0.080630180,0.300467040
1640836240.756630,-0.036097070,-0.070837800,10.030360220,-0.063128770,-0.010825690,0.327612460
1640836240.757580,0.173778620,0.160662680,8.912530900,-0.002987680,0.045011940,0.288858950
1640836240.761720,-0.351283040,0.349912760,10.420751570,0.020574030,-0.036163630,0.296138230
1640836240.762149,-0.468462020,0.859071140,9.670620920,-0.030896070,0.009627640,0.333407490
1640836240.766590,-0.083498370,0.843813480,9.046754840,-0.086379060,-0.084093210,0.313869150
1640836240.767130,-0.145930380,0.810256240,9.807319640,-0.068999830,0.031764810,0.331035290
1640836240.771610,0.459128020,0.989120720,8.853836060,-0.038628280,0.115487000,0.324635210
1640836240.772080,0.429738400,0.590120550,10.425228120,-0.040434300,0.012752420,0.318439390
1640836240.776719,0.477396700,0.346657130,9.708581920,-0.057798640,0.047890840,0.335411760
1640836240.777300,0.797940970,0.095756020,8.856739040,-0.061579060,-0.060518090,0.332108140
1640836240.781580,0.195133540,-0.154362010,9.736150740,-0.079922370,0.052814190,0.332044040
1640836240.782080,0.442889600,-0.132577520,8.627413750,-0.079718220,0.098070500,0.318695570
1640836240.786820,0.077176500,-0.243517880,10.082403180,-0.035113100,0.036817790,0.276957450
1640836240.787360,-0.153494910,0.126804930,9.647678380,-0.012499100,0.102582590,0.280463700
1640836240.791819,0.037189440,0.579465870,9.051021580,-0.036133830,-0.014775990,0.297087460
1640836240.792630,-0.518029810,0.639323350,10.093003270,-0.104409460,0.059060750,0.297935340
1640836240.796589,-0.017038750,0.729154470,8.808944700,-0.092110050,0.084453820,0.311519240
1640836240.797089,0.051277980,0.538253130,9.705181120,0.016096240,0.048632930,0.305670560
1640836240.801980,0.215192210,0.545015690,9.658576010,0.014603140,0.171871470,0.304210130
1640836240.802590,0.658774670,0.669975280,9.492559430,-0.059761120,0.057104240,0.317746400
1640836240.806630,0.308945630,0.302236140,10.189142230,-0.144138980,0.070427370,0.317098290
1640836240.807550,0.602783020,0.043455130,8.893795970,-0.110462320,0.084069370,0.309547780
1640836240.812219,0.264514600,-0.080358870,9.620277400,0.024099650,0.062781570,0.280602310
1640836240.812830,-0.160035920,0.209192280,9.713511470,0.016351050,0.143677030,0.271403880
1640836240.816619,0.005086470,0.584017520,9.348431590,-0.103393200,0.048415370,0.310453770
1640836240.817170,-0.306768830,0.441314970,9.977138520,-0.163410650,0.102408250,0.313444500
1640836240.821580,0.022070780,0.477427900,9.162437440,-0.098113740,0.127346810,0.290223990
1640836240.822180,0.002335270,0.749528940,9.742238040,0.027042630,0.098755960,0.297006990
1640836240.826700,-0.083135720,0.756116690,9.679903030,-0.034978990,0.136114660,0.301826030
1640836240.827380,0.389809850,0.590829430,9.129271510,-0.132641240,0.052708390,0.326186480
1640836240.831570,0.364475430,0.290561770,9.410310750,-0.129349560,0.146269840,0.327546950
1640836240.832059,0.634753170,0.005262150,9.206188200,-0.094883150,0.204832870,0.306060910
1640836240.836619,0.453154740,-0.083046690,10.043714520,-0.002110000,0.135751070,0.298930730
1640836240.837149,0.270502810,-0.119800160,9.497386930,-0.020121040,0.117403290,0.289133220
1640836240.841719,0.318284660,-0.188985390,9.000227930,-0.079272690,0.082756580,0.307950410
1640836240.842310,-0.162073270,-0.086342510,9.342883110,-0.084051510,0.185120120,0.305761460
1640836240.846639,-0.200468640,-0.069033390,9.387723920,-0.062988710,0.158587070,0.265778630
1640836240.847180,-0.296732250,0.304759410,9.866373060,0.017066300,0.119617570,0.278729140
1640836240.851660,-0.199080010,0.744155050,9.317504880,-0.021654370,0.180235520,0.279586020
1640836240.852090,-0.061735890,0.743729470,9.604462620,-0.080323200,0.133597850,0.302934620
1640836240.856930,-0.085208970,0.829860930,9.749908450,-0.075474380,0.166107760,0.320234890
1640836240.858029,0.230956640,0.565787080,9.280452730,-0.059960790,0.136904390,0.290319260
1640836240.861570,0.218006220,0.458051920,9.728061680,-0.016629700,0.149643420,0.301478890
1640836240.862049,0.361925330,0.429472240,9.308877940,-0.039529800,0.185948640,0.282833010
1640836240.866680,0.339400350,0.213617860,9.789709090,-0.092424440,0.143232910,0.289176370
1640836240.867329,0.154018740,0.278250550,9.761341090,-0.102548290,0.160138320,0.312924410
1640836240.871549,0.179554600,0.069797240,9.244334220,-0.080350040,0.123825680,0.282222030
1640836240.872069,-0.095269710,0.271619470,9.650621410,-0.024971370,0.150781870,0.286947220
1640836240.876690,-0.126678320,0.675753710,9.205435750,-0.071468950,0.198850080,0.298397240
1640836240.877430,-0.162830590,0.570011620,9.836008070,-0.134021070,0.127673190,0.309810130
1640836240.881690,0.065075490,0.683250070,9.465682980,-0.112055230,0.184339300,0.312422160
1640836240.882480,0.458937140,0.685804550,9.007884030,-0.090952230,0.195676100,0.281655790
1640836240.886620,0.325611830,0.573482220,10.062946320,-0.073395680,0.237087940,0.304046300
1640836240.887070,0.415007860,0.431210700,9.569653510,-0.097148120,0.199084000,0.296764110
1640836240.891710,0.255825760,-0.064524110,9.603612900,-0.090180340,0.079353150,0.298026230
1640836240.892279,0.215184110,-0.126330300,8.979962350,-0.086951260,0.219687860,0.297999380
1640836240.896550,0.184465420,-0.159320580,8.984107970,-0.112180430,0.248728740,0.265276490
1640836240.897090,-0.251291100,-0.156485540,10.379745480,-0.080929680,0.224606710,0.272826880
1640836240.901569,0.003439260,0.166539340,9.352741240,-0.060853370,0.186219860,0.263984500
1640836240.902060,-0.168757170,0.316659450,9.508717540,-0.070412460,0.114248700,0.277106460
1640836240.906940,-0.166374100,0.588339030,9.383983610,-0.085891790,0.262083110,0.305852320
1640836240.907869,-0.143390420,0.659716430,9.469134330,-0.094814620,0.201858610,0.280664920
1640836240.911630,-0.339401130,0.632921040,10.226142880,-0.069579470,0.156405580,0.296430230
1640836240.912060,0.277376440,0.757547200,8.894375800,-0.073294360,0.198884350,0.292280380
1640836240.916570,0.147835140,0.665798070,9.671769140,-0.092750810,0.188486280,0.276088740
1640836240.917080,0.221065600,0.673688170,9.871185300,-0.127074110,0.247354780,0.306276920
1640836240.921569,0.439384580,0.337221530,9.322277070,-0.140205030,0.171099620,0.277784530
1640836240.922060,0.039973860,0.011015960,9.977257730,-0.070685150,0.164626540,0.285218690
1640836240.927389,0.220295000,0.208638770,9.063248630,-0.047124930,0.220467180,0.289881320
1640836240.927850,-0.283703300,0.238543960,9.733587270,-0.121571130,0.152330100,0.282058060
1640836240.931609,-0.270208930,0.329142660,9.595753670,-0.176616010,0.187969220,0.309604410
1640836240.932080,0.105318430,0.298782590,8.971799850,-0.141422450,0.208128990,0.275324310
1640836240.936580,-0.090190980,0.344781880,9.959172250,-0.054049500,0.237326370,0.288640020
1640836240.937100,0.175333430,0.612607120,9.672945020,-0.053860260,0.242511960,0.295285940
1640836240.941700,-0.015104950,0.435368480,9.804305080,-0.121095780,0.107434400,0.287084280
1640836240.942220,0.192719220,0.315136820,9.044165610,-0.159901380,0.157976150,0.309711720
1640836240.946900,0.383229640,0.111960500,8.719068530,-0.130285320,0.263023410,0.276020170
1640836240.948000,-0.060847880,-0.116854020,10.104251860,-0.047780580,0.269964340,0.276006760
1640836240.951570,0.048053500,0.070208010,9.812745090,-0.011463460,0.160898270,0.279824470
1640836240.952080,-0.135927200,-0.010815560,9.368105890,-0.083388400,0.092032570,0.284780560
1640836240.956720,-0.132063640,-0.145205650,9.048198700,-0.132487730,0.221431260,0.319209720
1640836240.957510,-0.256597970,-0.164538400,9.630405430,-0.059689590,0.233089950,0.283227860
1640836240.961560,-0.463039430,-0.009133170,10.083801270,0.023376940,0.169299530,0.268135960
1640836240.962230,0.020045690,0.564510580,9.166831020,-0.003729760,0.123582790,0.279846790
1640836240.966590,-0.136899770,0.656529310,9.568213460,-0.107733910,0.186777100,0.277650360
1640836240.967100,-0.087692800,0.715976240,9.700833320,-0.119005160,0.193977370,0.308553900
1640836240.971599,-0.169213520,0.658872600,9.986893650,-0.036668780,0.087590520,0.298631250
1640836240.972540,-0.131580840,0.518083810,9.396125790,0.001989310,0.129671380,0.296570300
1640836240.979950,0.189973550,0.583601650,9.076950070,-0.031436980,0.158524530,0.301261250
1640836240.981000,-0.227670940,0.371422020,10.276568410,-0.109952700,0.180061180,0.308768480
1640836240.981580,0.097658200,0.192951400,9.529710770,-0.132615860,0.129920260,0.313982370
1640836240.982090,0.016770660,0.022452520,9.790384290,-0.057226430,0.059451170,0.286072490
1640836240.986580,-0.134573270,0.103248430,9.477307320,-0.008572640,0.176994490,0.275118590
1640836240.987100,-0.051953900,0.554791810,9.227119450,-0.064232950,0.102090850,0.290492180
1640836240.991720,-0.532668470,0.481543690,10.232139590,-0.148233790,0.093334910,0.304035810
