# timestamp,accel_x,accel_y,accel_z,gyro_x,gyro_y,gyro_z
1640834613.946410,-0.104667680,0.333817900,9.398778920,-0.148589920,-0.037685040,0.093196340
1640834613.949970,-0.516421560,0.283124360,10.421772000,-0.136202570,0.017654890,0.100478540
1640834613.951310,0.129983600,0.312432970,9.396248820,0.063344840,-0.089608120,0.057193630
1640834613.953670,-0.089633260,0.383136480,10.150859830,0.162391380,-0.074127320,0.058990720
1640834613.957430,0.196806520,1.022842760,9.410669330,-0.003325940,0.059320030,0.076447430
1640834613.959220,0.089137800,0.714478250,10.288060190,-0.195401920,-0.043910740,0.087669490
1640834613.961350,-0.115055750,0.295269790,10.362950330,-0.138802800,-0.068126610,0.110189600
1640834613.963860,0.360631260,0.132200840,8.949671750,0.056795780,-0.086149590,0.063487890
1640834613.966359,-0.265417310,0.071937680,10.087955470,0.123824180,-0.016948580,0.055807830
1640834613.968770,-0.169857430,0.452694980,9.566792490,-0.048367670,0.023980440,0.094033790
1640834613.971289,-0.063056190,0.194287600,9.924290660,-0.209379210,-0.091999770,0.096580390
1640834613.973729,-0.061958400,-0.042246540,10.134259220,-0.132289530,0.003822150,0.096955900
1640834613.976600,0.284756540,0.158646330,9.332427020,0.053495180,-0.000487270,0.049915920
1640834613.978700,-0.235980510,0.310225640,10.300621030,0.101110340,-0.064186760,0.044222180
1640834613.981279,0.079845470,0.597581860,9.310853960,-0.058722500,-0.024001300,0.092118980
1640834613.985469,0.191452860,0.252974630,9.377786640,-0.180835990,-0.034397840,0.095006830
1640834613.986529,-0.019455090,-0.083260030,10.129770280,-0.095906860,0.032882390,0.096316640
1640834613.988799,0.334100010,0.138154510,9.531694410,0.047561530,-0.009782610,0.061860680
1640834613.991400,0.051330530,0.146050600,9.891510010,0.044038890,-0.016537310,0.069230800
1640834613.993719,0.028577500,0.028597460,9.811741830,-0.073860610,0.012320280,0.097939390
1640834613.997089,-0.232271880,-0.318306000,9.894136430,-0.083598490,-0.048245480,0.082370650
1640834613.998680,-0.275048260,-0.542610760,9.392754550,0.025074190,-0.052754580,0.062634050
1640834614.001370,-0.051619450,-0.017420770,9.259345050,0.071661180,0.009259580,0.045061120
1640834614.003759,-0.272283640,0.270278930,9.955948830,-0.015145540,0.085040930,0.057345630
1640834614.006340,-0.087401020,0.221060040,10.197902680,-0.057013330,-0.021748240,0.070093560
1640834614.008920,-0.161697630,0.251545910,10.166207310,0.036805870,-0.098441550,0.065356500
1640834614.011320,0.103609260,0.526804450,8.764834400,0.064602490,-0.034703310,0.055159630
1640834614.014109,-0.035701400,0.989431320,9.451946260,-0.008274620,0.006836650,0.056385990
1640834614.016549,-0.349142460,1.265014290,9.772331240,-0.130489470,0.041294100,0.061857700
1640834614.018679,0.062417900,1.293008800,9.262876510,-0.172172500,-0.094544890,0.047275420
1640834614.021279,-0.052504460,1.456849930,9.912592890,-0.108447690,-0.034403800,0.032992660
1640834614.023759,0.074628080,1.372404930,9.216932300,-0.112657260,0.052028890,0.004592540
1640834614.026270,-0.024525330,1.174724940,10.063883780,-0.166480260,-0.045494740,-0.011551380
1640834614.028610,-0.288610220,0.709161280,9.954757690,-0.226381420,-0.022399430,0.022466480
1640834614.031540,0.331326930,-0.034887410,8.575389860,-0.213815270,-0.051668290,0.029468540
1640834614.033720,-0.000385580,-0.366299840,9.724148750,-0.146353240,0.007648770,0.016301870
1640834614.036300,0.012570600,-0.250068750,9.181625370,-0.174118550,0.065007800,0.006270410
1640834614.038800,0.101479780,-0.170792100,9.580576900,-0.253054440,-0.069420050,0.006705520
1640834614.041290,-0.257923750,-0.126907910,10.120824810,-0.260438020,-0.002360340,0.008685890
1640834614.043619,0.152307510,0.120482990,8.977033620,-0.183214250,-0.029534100,-0.024132430
1640834614.046399,-0.112982030,0.590880270,9.786098480,-0.125384320,-0.041034820,-0.022824110
1640834614.048849,0.169738610,0.974925340,8.877830510,-0.217326020,0.096254070,-0.007766490
1640834614.052430,0.541947780,0.796352680,9.337748530,-0.300328460,0.055302690,0.021871930
1640834614.053670,-0.004720240,0.136988540,10.522510530,-0.213481520,0.059112910,0.033548480
1640834614.056320,0.377839950,-0.356707010,8.992851260,-0.078244510,-0.058129430,0.014978650
1640834614.058610,-0.032211370,-0.523466470,9.197793010,-0.050860650,-0.057476770,0.008697810
1640834614.061260,-0.222918270,-0.613446590,8.803267480,-0.211125610,0.125496100,-0.007425250
1640834614.063680,-0.234255820,-0.757472160,9.676340100,-0.263863740,0.042045110,-0.028565520
1640834614.066439,-0.696179150,-0.648356140,10.340205190,-0.123752660,-0.008310380,-0.045892600
1640834614.069160,-0.062131330,-0.127600910,8.738563540,-0.020238760,-0.062382230,-0.064529490
1640834614.071349,-0.386271770,0.405788330,9.640091900,-0.050130500,0.015825030,-0.039084270
1640834614.073700,-0.278315400,0.604717250,9.429602620,-0.187778470,0.102373960,-0.022350250
1640834614.076320,0.157417570,0.465023100,9.751155850,-0.167989700,-0.049220030,-0.000089410
1640834614.078689,0.130802720,0.455833700,9.731610300,-0.048239530,0.019490720,-0.002031030
1640834614.081420,0.668599250,0.462301250,8.789012910,-0.039796540,0.035405160,-0.021336970
1640834614.083690,0.069701820,0.341896650,10.189282420,-0.101456050,0.040796400,-0.011287630
1640834614.086310,-0.138865800,-0.005975440,9.657423970,-0.184562850,0.013051930,-0.032988190
1640834614.088620,-0.120068240,-0.306934980,9.482071880,-0.108063240,-0.110740960,-0.027024750
1640834614.091270,-0.531487290,-0.135501100,9.396282200,-0.028482080,0.031420590,-0.054153810
1640834614.093609,-0.358912680,0.338352080,9.094158170,-0.099687280,0.043605260,-0.057818000
1640834614.096269,-0.581931170,0.713691650,10.211279870,-0.183586750,0.005733970,-0.020983810
1640834614.098760,-0.213660700,0.704829630,9.528725620,-0.213259460,0.012937190,-0.032423440
1640834614.102270,0.129602360,0.619620620,9.719586370,-0.105533010,-0.041216610,-0.024399160
1640834614.103720,-0.101374650,0.712670740,9.752817150,-0.028266010,0.006186960,-0.048601630
1640834614.106289,0.413359020,0.670141760,8.895322800,-0.131255400,-0.023828450,-0.045295060
1640834614.108610,0.506791770,0.457384020,9.518171310,-0.241015850,0.064125660,-0.002264980
1640834614.111300,0.622735560,-0.112842900,9.393200870,-0.243452210,0.137333570,-0.016216940
1640834614.113970,0.363799300,-0.479836340,10.333539010,-0.090005980,-0.018592180,-0.038886070
1640834614.116340,-0.172229350,-0.299709020,9.568819050,-0.011666120,-0.054506960,-0.055317580
1640834614.118690,-0.241123480,-0.422936320,8.438357350,-0.124724230,-0.067403910,-0.054422030
1640834614.121310,-0.680501220,-0.320056530,9.403244970,-0.199528040,0.085748740,-0.030264260
1640834614.123590,-0.631375010,-0.273897920,9.365454670,-0.148013230,0.114540740,-0.068186230
1640834614.126250,-0.442163590,0.166608320,10.168528560,-0.027391310,-0.043264040,-0.075069070
1640834614.128620,-0.309963610,0.828076600,9.642394070,-0.042042140,0.025834150,-0.059798370
1640834614.131340,0.060960010,0.552513720,9.102929120,-0.149266440,-0.014558440,-0.052444650
1640834614.133950,-0.042856450,0.290855440,9.893747330,-0.100897260,0.005364420,-0.047814850
1640834614.136720,0.458387200,0.116490540,8.760913850,-0.030744080,0.051400070,-0.071905560
1640834614.138620,0.635432360,0.099297920,9.549932480,-0.024642050,0.010217720,-0.053003420
1640834614.141399,0.406443240,0.188300910,9.900073050,-0.119376200,0.141762200,-0.031214950
1640834614.143620,0.285932630,-0.284136980,9.753922460,-0.157834600,-0.021798910,-0.053726140
1640834614.146780,-0.464377050,-0.458529920,10.325962070,-0.014415390,-0.086009510,-0.051841150
1640834614.148759,-0.477068130,-0.289369140,8.407690050,0.039953000,-0.017619130,-0.099787130
1640834614.151620,-0.781162620,0.221777660,9.357894900,-0.038337710,-0.005322700,-0.077535210
1640834614.153649,-0.919734720,0.714434980,9.969692230,-0.164438770,0.125843300,-0.052163000
1640834614.156289,-0.224873500,0.557322920,9.692963600,-0.168736290,-0.030544400,-0.071164970
1640834614.158609,-0.152365390,0.648382660,10.532869340,0.006888810,-0.032091140,-0.060468920
1640834614.161270,0.288580090,0.709742550,9.099552150,0.039613250,0.050897900,-0.097618990
1640834614.163900,0.295864460,0.671241460,9.645112040,-0.070883330,-0.061772760,-0.067687020
1640834614.166319,0.222045420,0.449706700,9.665753360,-0.185102240,0.046986340,-0.028859080
1640834614.169139,0.811629770,-0.192017940,8.697195050,-0.177954150,0.007268790,-0.055487460
1640834614.171290,0.308038950,-0.365342800,10.201587680,-0.002433360,0.036226220,-0.054615750
1640834614.173669,0.120474890,-0.346190360,9.577314380,0.034897030,0.094868240,-0.092311210
1640834614.176250,-0.223453300,-0.373410170,9.840929030,-0.037084520,-0.082258900,-0.071750600
1640834614.178619,-0.777562860,-0.265884730,9.840709690,-0.112105920,-0.016967950,-0.059269380
1640834614.181399,-0.480674210,-0.319407220,8.487083440,-0.097236040,-0.007580220,-0.091809030
1640834614.183920,-0.659950610,0.104664430,9.566372870,0.014209750,0.016206500,-0.098432600
1640834614.186319,-0.293872420,0.510959740,9.464109420,0.010955330,0.126464640,-0.119511780
1640834614.188599,-0.012909490,0.360145390,10.072405820,-0.014238060,-0.019736590,-0.087565210
1640834614.191320,-0.095569220,0.191879050,10.289947510,-0.000719730,-0.044254970,-0.072750460
1640834614.193630,0.418277590,-0.003693040,8.745334630,0.014458600,-0.058944530,-0.070647900
1640834614.196669,0.278119920,-0.157727970,9.242254260,0.028824810,0.008401270,-0.050570070
1640834614.198720,0.195163550,-0.204054980,9.528564450,-0.009331110,0.130812820,-0.091353060
1640834614.202260,0.052954550,-0.445759300,10.081007960,0.022259360,-0.036728380,-0.085528200
1640834614.203630,-0.233057600,-0.402515950,9.993067740,0.111304230,-0.080172730,-0.096727890
1640834614.206329,-0.244933230,-0.054998740,9.021411900,0.085084150,-0.037853420,-0.118601340
1640834614.208700,-0.693627540,0.366873410,9.687243460,0.006750230,0.007617470,-0.093808770
1640834614.211279,-0.763483520,0.608462390,9.893356320,-0.037994980,0.018823150,-0.094622370
1640834614.214010,-0.584525050,0.554859460,9.793416020,0.050234810,-0.075282160,-0.082919000
1640834614.216500,-0.258542330,0.751666840,9.479923250,0.138762580,-0.054791560,-0.073331590
1640834614.218639,0.043827270,0.868636670,9.339554790,0.063154100,0.016750400,-0.088973350
1640834614.221249,0.181449700,0.719118650,9.700099950,-0.046724080,-0.003886220,-0.055006150
1640834614.223670,0.335858370,0.248289810,9.752500530,-0.066833200,-0.035445390,-0.060410800
1640834614.226260,0.307343130,-0.279682280,9.779009820,0.064180800,-0.054027140,-0.076659030
1640834614.228580,0.235653270,-0.316038430,9.334105490,0.150318490,-0.060234970,-0.091846300
1640834614.231580,-0.020049230,-0.173132810,9.396922110,0.052261360,-0.037321450,-0.098814090
1640834614.233840,-0.157133420,-0.104072200,9.343234060,-0.067822640,0.021858510,-0.070390100
1640834614.236300,-0.087021430,-0.241248070,9.656536100,-0.045114760,-0.012095270,-0.081615160
1640834614.238610,-0.459421660,-0.122959390,10.215250970,0.132474300,-0.041888670,-0.102421660
1640834614.241310,-0.232875880,0.451221560,9.014335630,0.184281170,-0.095696750,-0.095096230
1640834614.243640,-0.345054120,0.572731020,9.333396910,0.038284060,-0.050570070,-0.093516710
1640834614.246340,-0.299669210,0.470900300,9.441768650,-0.059896710,0.063683090,-0.070543590
1640834614.248680,0.032137980,0.114350770,9.728235240,0.028336050,-0.054995720,-0.094980000
1640834614.251350,-0.073409400,0.050719380,10.022907260,0.188691900,-0.057058040,-0.094696870
1640834614.253739,0.394236710,0.311981140,8.722555160,0.154855860,-0.035084790,-0.079941750
1640834614.256230,0.018981910,-0.110117450,9.964878080,0.006897750,-0.026679040,-0.067712370
1640834614.258590,-0.157676920,-0.343179880,9.856095310,0.009746850,0.016500060,-0.065383320
1640834614.261279,-0.006309140,-0.521396990,9.562077520,0.141231720,-0.150403400,-0.097063180
1640834614.263890,-0.360133350,-0.051343270,9.737774850,0.206422840,-0.032868980,-0.106245300
1640834614.266559,-0.087794680,0.671692190,8.932064060,0.087787200,0.018043820,-0.099180650
1640834614.268649,-0.386457500,0.648045900,10.455780980,-0.031960010,-0.057525940,-0.084881480
1640834614.271289,-0.242222890,0.837739590,9.736929890,0.027982890,-0.014455620,-0.077721460
1640834614.273710,0.082983870,0.733850480,9.451974870,0.146618530,-0.134965790,-0.099940610
1640834614.276360,-0.227891470,0.866818430,9.872212410,0.156311740,-0.012442470,-0.075456520
1640834614.279970,0.110012460,0.937260150,8.946042060,0.006741290,-0.031587480,-0.062316660
1640834614.281740,0.034039420,0.095175000,10.187313080,-0.071342290,-0.088109080,-0.039991740
1640834614.284040,0.236545830,-0.266875480,9.265868190,0.046977390,0.023965540,-0.061942640
1640834614.286310,0.254038930,-0.456753020,9.618365290,0.162771340,-0.096894810,-0.102774800
1640834614.288710,-0.243662630,-0.280555190,10.146901130,0.125844780,-0.016720590,-0.067795820
1640834614.291240,0.050324480,-0.119901990,8.802321430,-0.001853700,-0.074514730,-0.078377120
1640834614.293619,-0.351439570,-0.375299750,10.359237670,-0.010578340,-0.097042330,-0.073587890
1640834614.296310,-0.132461620,0.065670950,8.954297070,0.105834020,0.056996950,-0.085422400
1640834614.298750,0.018761620,0.410728420,9.394214630,0.165219580,-0.112286220,-0.109405820
1640834614.301400,-0.234876010,0.711363790,10.139804840,0.093853470,0.031301380,-0.062210850
1640834614.304720,0.299656540,0.729363560,8.747914310,0.008296970,-0.031358010,-0.075294060
1640834614.306239,-0.226673200,0.125698180,10.678296090,0.077237190,-0.146783900,-0.054976340
1640834614.308679,0.077172750,0.126722510,8.769392970,0.157953800,0.015623870,-0.078086560
1640834614.311499,0.130508120,0.014975070,9.166635510,0.128678980,-0.087709720,-0.104171040
1640834614.313690,-0.409762470,-0.165479760,10.676752090,0.060398880,0.053852800,-0.048832600
1640834614.316579,0.214544640,-0.225745220,8.946509360,0.059875850,-0.048932430,-0.084248190
1640834614.318689,-0.329539780,-0.465163920,10.515336990,0.150546430,-0.169411320,-0.082826620
1640834614.321290,-0.160802560,-0.031660720,9.069970130,0.172060740,0.041145090,-0.094361610
1640834614.323660,-0.123781770,0.209114780,9.307764050,0.125905890,-0.093151620,-0.112484380
1640834614.326269,-0.699649510,0.378765640,10.683701520,0.091439490,-0.049382450,-0.069484120
1640834614.328750,0.268080710,0.812758980,8.548654560,0.079292070,-0.058558580,-0.089511280
1640834614.331250,-0.083571560,0.751311420,10.123974800,0.115567450,-0.101478400,-0.072792180
1640834614.333870,-0.001649850,0.991569760,9.854942320,0.100362300,0.062267480,-0.066003210
1640834614.336589,0.173491850,0.753552850,9.603834150,0.086645800,-0.118090230,-0.071543480
1640834614.338650,-0.312066380,0.299746630,10.451621060,0.096529710,-0.131100390,-0.038057560
1640834614.341500,0.323020700,0.258291130,8.601324080,0.078456110,-0.035776200,-0.066612670
1640834614.343969,-0.035734240,-0.083143280,9.661005020,0.072279560,-0.069954990,-0.065934670
1640834614.346249,-0.071553990,-0.016865980,9.899921420,0.049592560,0.011596080,-0.052297120
1640834614.348980,0.193908130,-0.122463370,9.615282060,0.069227800,-0.060501700,-0.084722050
1640834614.351379,-0.294642090,-0.213564470,10.296656610,0.123485920,-0.106535860,-0.068274140
1640834614.353700,-0.038983970,0.290031020,9.152667050,0.121739490,-0.095164760,-0.072321290
1640834614.356249,-0.169633510,0.357782210,9.227396970,0.047270950,-0.060416750,-0.070795420
1640834614.358739,0.022795470,0.549301620,9.425290110,0.013186040,0.020782650,-0.040794910
1640834614.361280,0.143032100,0.482339080,9.986922260,0.081500400,-0.016759340,-0.061410670
1640834614.363649,0.116109160,0.398138850,9.806754110,0.141665350,-0.063677140,-0.060367580
1640834614.366730,0.192550330,0.546542640,9.384055140,0.104868430,-0.120343270,-0.048457090
1640834614.368660,-0.124579360,0.072285140,9.548737530,0.022700430,-0.020095710,-0.047418480
1640834614.371290,0.020742920,-0.277401780,9.245751380,0.033316020,-0.015769900,-0.059467550
1640834614.373710,-0.267083590,-0.363700030,10.121725080,0.140546280,-0.065091260,-0.074823200
1640834614.376690,-0.070704500,-0.135456170,9.264678960,0.153450680,-0.020265580,-0.069507960
1640834614.378680,-0.060620500,0.098802690,9.663002970,0.082358720,-0.085586320,-0.056286160
1640834614.381310,-0.535479840,0.029004300,10.140596390,0.032860040,-0.023046140,-0.051835180
1640834614.386479,-0.044828310,0.044365000,9.163193700,0.107024600,-0.105404850,-0.057868660
1640834614.387130,-0.423125510,0.203857230,10.051336290,0.200493680,-0.098280620,-0.071236500
1640834614.388630,-0.018431540,0.781813920,9.054843900,0.127744670,0.018452110,-0.070941460
1640834614.391610,0.129643600,0.891371850,9.929611210,0.007715820,-0.070361790,-0.060068060
1640834614.393659,-0.160301640,0.704074620,10.393511770,0.007732210,-0.046381350,-0.038418170
1640834614.396220,0.424052030,0.491956350,9.134529110,0.113937270,-0.121095800,-0.062347950
1640834614.398739,-0.210584240,0.346754220,10.190345760,0.165680070,-0.083827970,-0.072444980
1640834614.401360,-0.098203240,0.493882270,9.128375050,0.060838470,-0.020761790,-0.054444380
1640834614.404529,-0.041088480,0.085026610,9.863863950,-0.023983420,-0.126135320,-0.037777420
1640834614.406459,-0.161435380,-0.037185110,9.956052780,0.000143050,0.006195900,-0.032858550
1640834614.408710,0.311239480,0.047177270,9.351526260,0.093755130,-0.063152620,-0.071369120
1640834614.411300,-0.336444940,0.199098470,10.674736020,0.115855050,-0.086674100,-0.074376170
1640834614.413659,-0.018279890,0.660740850,8.959700580,0.018979610,-0.059655320,-0.050678860
1640834614.416570,-0.025503800,0.413600090,9.726606370,-0.030128660,-0.149235130,-0.044068700
1640834614.418700,-0.094514530,0.494842380,9.672609330,0.003296140,0.042024250,-0.040546050
1640834614.421239,0.571591200,0.744073090,8.940783500,0.051939500,-0.046655540,-0.054128480
1640834614.424049,0.085194970,0.416706650,10.786586760,0.042575600,-0.016130510,-0.032286350
1640834614.426250,0.497448270,0.289804460,9.237095830,0.004988910,0.029122830,-0.018171970
1640834614.428650,0.139664890,-0.314797700,10.055959700,0.052885710,-0.170969980,-0.028492520
1640834614.431310,-0.248305830,-0.342945160,9.596944810,0.059810280,-0.032761690,-0.023035710
1640834614.433840,0.261577160,-0.120022080,8.205647470,0.012555720,-0.023920840,-0.040344900
1640834614.436470,-0.460840280,-0.389378670,10.700029370,0.000253320,0.036089130,-0.041624900
1640834614.438779,-0.174524560,-0.035231450,9.889126780,0.051967800,0.036180020,-0.046694280
1640834614.441350,-0.105969590,0.103285020,9.675846100,0.131621960,-0.182068360,-0.062030560
1640834614.443689,-0.407147230,0.412405880,9.695978160,0.067105890,-0.038789210,-0.021533670
1640834614.446290,0.076883520,0.655356590,8.736064910,-0.005440410,0.031010810,-0.016209480
1640834614.449000,-0.243516880,0.163906770,10.261170390,0.024613740,-0.033371150,-0.028754770
1640834614.451370,0.118077050,0.332921800,9.855404850,0.116290170,-0.023160870,-0.026558350
1640834614.453680,0.426242020,0.417138730,9.326952930,0.132724640,-0.043058400,-0.039549180
1640834614.456460,0.040646440,0.287781120,10.194756510,0.012239810,-0.012312830,-0.019133090
1640834614.458670,0.003228650,0.333917080,9.871323590,-0.030922890,-0.032311680,-0.014996530
1640834614.461259,-0.116367250,-0.179225550,9.476852420,0.043404110,-0.093434740,-0.032152240
1640834614.463729,-0.201535460,0.089991430,9.685840610,0.130754710,-0.052018460,-0.036999590
1640834614.466640,-0.281668630,0.530351820,9.556204800,0.085963300,0.032450260,-0.036430360
1640834614.468750,-0.346965100,0.571023460,10.045131680,-0.054900360,-0.063684580,-0.005830820
1640834614.471580,-0.231187180,0.793136950,10.256015780,-0.064618890,-0.077623140,0.012964010
1640834614.473719,0.150648560,0.520191430,9.233513830,0.004622340,-0.006881360,-0.027567150
1640834614.476290,0.021647310,0.670935150,10.120501520,0.086691980,-0.034727160,-0.027036670
1640834614.478619,-0.171627880,0.874702630,10.152627940,0.034707780,-0.026302040,-0.014677640
1640834614.481279,0.337012200,0.512613530,9.034671780,-0.111408550,-0.102244340,0.003825130
1640834614.483820,0.195324600,0.387817410,9.768867490,-0.110624740,-0.038194660,0.009402630
1640834614.488010,0.322528630,0.038841220,9.440837860,-0.048144160,0.088496510,-0.015585120
1640834614.489380,0.335122880,0.086150420,10.131587980,0.039270510,-0.036709010,-0.019674000
1640834614.491330,-0.176766680,0.225257410,10.512256620,-0.003607570,-0.049826510,-0.002305210
1640834614.493700,0.161914560,-0.117570230,8.983274460,-0.089721370,-0.063887250,-0.000707810
1640834614.496260,-0.178276300,-0.093933640,9.605731960,-0.054787100,-0.047871460,0.017125900
1640834614.498839,-0.067165640,0.053251210,9.205182080,-0.030028820,0.088717040,0.000363590
1640834614.501390,0.260195050,0.180565770,9.720521930,0.000758470,0.027136510,0.001686810
1640834614.505220,-0.087823030,0.281527280,10.556690220,-0.003540520,0.021144740,0.003099440
1640834614.506440,0.223546430,0.126800850,9.491651540,-0.011879210,-0.050950050,0.000579660
1640834614.508900,-0.031263490,0.009642710,9.619366650,0.022484360,-0.065641110,0.004643200
1640834614.511299,-0.019998560,0.069073310,9.043163300,-0.013011690,0.060100860,-0.008307400
1640834614.513690,0.061561640,-0.001920190,9.582656860,-0.006072220,0.039727990,-0.009693210
1640834614.516600,-0.108639130,-0.039922130,10.191650390,0.010801850,0.044593210,0.000089410
1640834614.518700,0.237675880,0.026285170,9.491311070,0.039951510,-0.008106230,0.011289120
1640834614.521459,-0.079097800,0.004311190,10.047931670,0.056888170,-0.009863080,0.016479200
1640834614.523680,-0.161438020,0.085975130,9.755444530,-0.001294910,0.030815610,0.007873770
1640834614.526260,-0.122919840,0.081711230,9.656212810,0.039596860,-0.017072260,0.009649990
1640834614.528659,-0.112209110,0.236027820,9.680298810,0.057438020,0.013770170,-0.006616120
1640834614.531260,0.251373380,0.710824430,9.364854810,0.020898880,0.068557260,-0.004231930
1640834614.534390,0.019980040,0.751854000,10.151527400,-0.019918380,0.043557580,0.001762810
1640834614.536620,0.103555220,0.651283030,10.145336150,-0.046898430,0.004026290,0.006638470
1640834614.538760,0.105801120,0.424552710,9.621326450,0.057625770,-0.000439580,0.032119450
1640834614.541509,-0.076287690,0.256445740,9.752786640,0.067935890,-0.011289120,0.017429890
1640834614.543749,0.011373820,0.493727620,9.617801670,-0.028763710,0.073067840,0.043262550
1640834614.546440,0.016460940,0.446214800,9.473934170,-0.117559740,0.068263710,0.058282920
1640834614.548679,0.069231180,-0.079063650,10.383386610,-0.086639830,0.032243130,0.046288960
1640834614.551440,0.093134950,-0.111373540,9.763654710,0.091747940,0.086742650,0.027982890
1640834614.555009,-0.111030560,0.046255310,9.629581450,0.106790670,-0.076790160,0.000672040
1640834614.556389,-0.133090150,0.397347750,9.609761240,-0.055876380,0.017154220,0.037853430
1640834614.558790,0.200045030,0.468778760,8.617947580,-0.194729850,0.133416030,0.036635990
1640834614.561370,0.082080080,-0.039315220,10.702993390,-0.087538350,0.079029800,0.029426810
1640834614.563779,0.055011130,0.125177230,10.289126400,0.147269670,0.115700070,0.012594460
1640834614.566670,0.221514940,0.442646770,9.055777550,0.126585360,-0.097693530,-0.010944900
1640834614.568879,-0.186361690,0.492972050,9.819609640,-0.088632110,0.030183790,0.077280390
1640834614.571319,-0.032579810,-0.014467730,8.815554620,-0.203891140,0.177076490,0.047311200
1640834614.573760,-0.276096170,-0.660396460,10.426437380,0.001226370,-0.004969540,0.021591780
1640834614.576340,-0.337685850,-0.266453830,10.198991780,0.223149400,0.072602930,0.006277860
1640834614.578699,0.163201650,0.184600980,8.709263800,0.091075890,0.030647220,-0.017601250
1640834614.584080,-0.287295220,0.442250220,10.436673160,-0.139492750,0.054563590,0.057448450
1640834614.585590,-0.074679780,0.302918700,9.663691520,-0.175334510,0.126899780,0.032542650
1640834614.586560,0.055130060,0.035326470,9.786537170,0.070662800,-0.066295270,0.011257830
1640834614.589089,-0.184463840,0.634395000,10.013682370,0.218993460,0.047485530,0.013384230
1640834614.591709,0.049883950,0.973890360,9.085965160,0.013035540,0.105416770,-0.000306960
1640834614.594740,-0.356585560,0.882154230,10.466304780,-0.196383890,0.001023710,0.073722010
1640834614.596340,-0.097623060,0.504161360,9.919748310,-0.190114970,0.038242340,0.054979320
1640834614.601470,0.235204350,0.060570910,9.424443240,0.036694110,0.021758680,0.029739740
1640834614.602069,-0.137045260,0.277419750,10.124213220,0.155039100,0.066952410,0.016668440
1640834614.603850,-0.079009060,0.451803680,9.750606540,-0.031739480,0.049789250,0.026896590
1640834614.606720,-0.052418000,0.081396700,9.813668250,-0.204482670,-0.013817850,0.080727040
1640834614.613720,0.115537930,-0.209233460,9.615314480,-0.153182460,0.050333140,0.057004400
1640834614.615310,0.111200330,-0.133299720,9.753740310,0.042365490,0.077763210,0.027611850
1640834614.618780,0.078093920,0.285455320,9.646160130,0.095725070,0.049684950,0.025223200
1640834614.621199,0.009088010,0.481753110,9.870359420,-0.061380860,0.029745700,0.033892690
1640834614.622170,-0.223647300,0.164970190,10.069940570,-0.147056580,0.048221660,0.069718070
1640834614.622680,-0.114821330,-0.094399630,9.571947100,-0.070922080,-0.022888190,0.043649970
1640834614.625620,-0.209860300,0.108104590,9.653833390,0.056181860,0.034688420,0.016549230
1640834614.626439,0.069576700,0.540885210,9.171136860,0.018633910,0.130485030,0.039535770
1640834614.628710,0.041591540,0.174969660,10.430285450,-0.101716820,0.073632610,0.054496530
1640834614.633270,-0.133900200,-0.132178100,10.452440260,-0.054194040,0.044704970,0.067697460
1640834614.634699,0.223648760,-0.341449830,9.355015750,0.056681040,-0.075298560,0.044748180
1640834614.636279,-0.141848060,-0.243749930,9.739101410,0.079663110,0.052255390,0.036010150
1640834614.639469,-0.033078420,0.290708360,9.247600560,-0.031900410,0.135706340,0.038729610
1640834614.645350,-0.168506250,0.022650940,10.620472910,-0.099782640,0.016620750,0.038018820
1640834614.647580,-0.158381950,0.241888760,10.122869490,0.005695220,0.041964650,0.030504170
1640834614.654120,0.188823030,0.483290700,9.316952710,0.083135060,-0.037439160,0.014548000
1640834614.654780,-0.335846720,0.694174770,10.341145520,0.035701690,0.085484980,0.031080840
1640834614.655200,-0.167815790,1.073960070,9.412331580,-0.086133190,0.065548720,0.037609040
1640834614.655570,-0.125119370,0.450521290,10.342532160,-0.105151530,-0.060810150,0.077356390
1640834614.656299,0.084178280,0.278152640,9.601515770,0.008647140,0.107900800,0.071203700
1640834614.658910,0.390603660,0.265797820,9.467664720,0.061503050,0.033110380,0.035113100
1640834614.662130,-0.038269100,0.143262370,10.712379460,-0.019267200,0.074639920,0.064371530
1640834614.665109,0.353410150,0.217060130,9.118909840,-0.117348140,0.065068910,0.057394800
1640834614.669610,0.049436560,-0.395467640,10.473262790,-0.077681240,-0.062599790,0.059911620
1640834614.671100,-0.002176410,-0.256666660,9.597592350,0.056754050,0.117304910,0.045654170
1640834614.671569,0.297103550,0.065183570,8.941425320,0.066259500,0.016373400,0.004068020
1640834614.673859,-0.237974900,0.257227690,10.713524820,-0.032937530,0.103844700,0.046890970
1640834614.678840,0.210756760,0.480160120,9.180307390,-0.120876750,0.142928960,0.056770460
1640834614.680220,-0.224037750,-0.029319600,10.648517610,-0.022724270,-0.074845540,0.047470630
1640834614.683499,-0.406472240,0.207603510,9.883746150,0.116172430,0.042591990,0.055779520
1640834614.684549,0.204033730,0.449118580,8.323314670,0.057646640,0.014509260,0.031009320
1640834614.688360,-0.353252740,0.225895390,10.704113960,-0.076794620,0.135260840,0.066085160
1640834614.689440,0.124075670,0.176486360,9.934664730,-0.099410120,0.184108330,0.061714650
1640834614.691450,0.116262640,-0.190547050,10.528055190,0.054956980,-0.097662210,0.045084960
1640834614.695210,-0.034925930,0.074399920,10.022800450,0.120694940,0.023166840,0.058549650
1640834614.701660,0.396739780,0.364776970,8.535864830,0.007827580,0.087495150,0.033597650
1640834614.702360,-0.477577570,0.199945810,10.823180200,-0.091253220,0.067210200,0.057962540
1640834614.703359,-0.184318350,0.315359770,10.059034350,-0.055179000,0.069394720,0.070112940
1640834614.703840,0.084102630,0.172164510,9.631919860,0.072035190,-0.053413220,0.045867280
1640834614.708940,-0.196121260,0.463322820,10.218481060,0.091235350,0.091251730,0.069202490
1640834614.710320,0.068891210,0.764864560,9.436956410,-0.033414370,0.106348100,0.059098010
1640834614.714860,-0.191395240,0.410557360,10.328696250,-0.111375760,-0.004623830,0.082042820
1640834614.716250,0.024117070,0.127510200,9.969719890,-0.039532780,0.032095610,0.100271430
1640834614.719020,0.159120340,-0.064056180,9.506760600,0.097462540,0.014951830,0.051876910
1640834614.720150,0.086460960,0.012447180,9.733295440,0.090248890,0.065533800,0.058598820
1640834614.721320,0.269691500,0.258231130,9.694246290,-0.052323950,0.095465780,0.072668500
1640834614.723739,0.117234950,-0.182049590,10.085656170,-0.106014320,0.069150340,0.088594840
1640834614.730150,0.056507610,-0.426605580,10.155015950,0.031106180,0.017707050,0.084736950
1640834614.732750,-0.250174580,-0.193730130,9.859745980,0.168465080,-0.030997400,0.055065750
1640834614.734099,-0.181866880,0.111808370,8.974148750,0.097140670,0.017815830,0.061570120
1640834614.734540,-0.208796860,0.386674910,9.780231480,-0.071635840,0.102578100,0.070649390
1640834614.736300,-0.390584350,0.265844940,10.502009390,-0.082032370,0.135655690,0.065766260
1640834614.738850,-0.025717870,0.217234690,10.150148390,0.087444480,-0.052338840,0.059953340
1640834614.741410,-0.114065330,0.535024110,9.972730640,0.191015020,-0.050289930,0.065587470
1640834614.743960,0.203365420,0.648763180,8.729973790,0.037765500,0.103168200,0.080223380
1640834614.750280,-0.015628140,0.374646930,10.285982130,-0.096045430,0.070805860,0.111039000
1640834614.750880,-0.225344880,-0.022630580,10.723831180,-0.032047930,0.057487190,0.110064450
1640834614.751459,0.373813450,-0.175931480,9.378581050,0.126624120,-0.079682470,0.079953680
1640834614.753939,-0.140611890,0.200151190,10.170111660,0.155225400,0.004906950,0.062160210
1640834614.757099,-0.088111510,0.513729330,9.332221980,-0.045654180,0.126381220,0.060381000
1640834614.759110,-0.178772240,0.391654520,10.299293520,-0.120283660,-0.028030570,0.084334600
1640834614.761360,-0.480639850,0.248137650,10.660081860,-0.003702940,0.006897750,0.085061790
1640834614.764030,0.213217690,0.398694130,8.902166370,0.125354530,-0.014807280,0.070276860
1640834614.766430,-0.203265180,0.723989310,10.134148600,0.101253390,0.000870230,0.080667440
1640834614.768720,0.027195030,0.860719200,9.466825490,-0.109295570,0.115752240,0.108359750
1640834614.771350,0.397207830,0.356601660,9.781958580,-0.163669900,-0.001405180,0.124029820
1640834614.773870,-0.178215280,-0.163822810,10.967460630,0.018970670,0.010727350,0.104802850
1640834614.779529,0.340352590,-0.180572240,9.070337300,0.165070590,-0.024196510,0.070026530
1640834614.780249,0.036270030,0.028440070,9.550775530,0.089010620,-0.040502850,0.074154150
1640834614.781560,0.002133300,0.178118230,9.516537670,-0.158475370,0.161171000,0.095690800
1640834614.784170,0.230555530,-0.218970080,9.979035380,-0.150787830,0.062559560,0.102688390
1640834614.786620,-0.445114230,-0.434085220,11.079542160,0.106741510,-0.044851010,0.077778110
1640834614.789039,-0.046610250,0.050114690,8.892505650,0.222651690,-0.069624190,0.070723900
1640834614.791420,-0.247898700,0.332856150,9.189963340,0.071799760,-0.021478540,0.098431130
1640834614.794639,-0.331555960,0.293049130,9.783282280,-0.150568810,0.160956410,0.118136430
1640834614.796880,0.134439380,0.065598460,10.119796750,-0.075052660,0.039272010,0.103177120
1640834614.799059,-0.071492330,-0.018674680,10.784645080,0.159680840,-0.068825490,0.085821760
1640834614.801240,0.456492960,0.423051330,8.898430820,0.193943080,0.001758340,0.081500400
1640834614.803759,0.112790410,0.455886870,9.748408320,0.037169460,0.032158200,0.102481250
1640834614.806350,-0.269152670,0.192689930,10.317200660,-0.115917650,0.055670750,0.129885990
1640834614.809520,0.103838910,-0.006635970,9.603405000,-0.001916290,-0.068166850,0.106747450
1640834614.815640,-0.141527520,0.119893150,10.052688600,0.147214520,-0.028803940,0.084301820
1640834614.817799,0.104657780,0.564337070,9.373357770,0.097702450,0.105534500,0.091326240
1640834614.820420,-0.207489770,0.615957740,10.537222860,-0.017391150,0.010186430,0.096806880
1640834614.821050,-0.285350620,0.476221260,10.419966700,-0.081117450,-0.035174190,0.126765680
1640834614.823010,0.171794890,0.353188570,9.154805180,0.022500760,-0.057187680,0.100067270
1640834614.823850,-0.170463060,0.602176610,9.931331630,0.080820920,0.009232760,0.081326070
1640834614.826390,0.202037440,0.870160280,9.424193380,-0.027465820,0.098036230,0.114424530
1640834614.828729,0.335340260,0.573098360,10.145605090,-0.085702550,0.010092560,0.123371210
1640834614.831889,0.232128550,0.134488550,10.520087240,-0.060054660,0.025974210,0.128959100
1640834614.833680,0.432532340,0.063598510,9.395749090,0.043898820,-0.015215580,0.109964630
1640834614.836310,-0.167576190,0.011648270,10.012059210,0.057762870,-0.055694590,0.108928990
1640834614.838800,-0.066615940,0.052088350,9.266598700,-0.088101630,0.057899950,0.122909250
1640834614.841660,-0.042778250,-0.129435940,9.585483550,-0.087210520,0.045593080,0.105749060
1640834614.843770,-0.344871220,-0.183407290,10.513162610,-0.000573690,0.034119190,0.082331880
1640834614.847139,0.101718270,0.315415620,9.446636200,0.059975690,0.009052460,0.086055700
1640834614.849429,-0.193948750,0.529232920,9.963382720,0.013972820,-0.026772920,0.112289180
1640834614.851369,-0.124699770,0.276770860,9.814507480,-0.099454810,0.045549870,0.131671120
1640834614.853790,0.002810790,0.039529310,9.620690350,0.002489980,0.004518030,0.108858970
1640834614.856629,-0.195568080,0.060639110,10.023448940,0.091610870,-0.040881340,0.090117760
1640834614.858760,0.363428000,0.510959030,9.188037870,0.009295340,0.058163700,0.099129980
1640834614.861490,-0.011359200,0.509927930,10.243107800,-0.091892470,0.041405850,0.112572300
1640834614.863890,-0.076971220,0.060587380,10.593711850,-0.097310550,-0.013899810,0.100630520
1640834614.866279,0.068273370,-0.004675310,9.624484060,0.090228030,-0.055389110,0.092408070
1640834614.868690,-0.304472240,0.257605700,9.703497890,0.117163380,-0.050765280,0.087685880
1640834614.871379,-0.048498400,0.622610210,9.424504280,-0.081333520,0.084032130,0.108926000
1640834614.874379,-0.293190780,0.653539300,10.212638850,-0.167080730,0.026255850,0.117132080
1640834614.877080,-0.134119840,0.325287190,10.497035980,-0.081376730,-0.059939930,0.113396350
1640834614.878690,0.288623750,0.357076020,9.430623050,0.097522150,0.013946000,0.101806250
1640834614.881270,-0.137528420,0.638518870,9.980164530,0.080226350,-0.021044910,0.084024650
1640834614.883740,0.008151840,0.749192120,9.876865390,-0.155933220,0.017370290,0.128905480
1640834614.884240,0.145274490,0.293735650,9.562317850,-0.196562710,-0.008901950,0.147460400
1640834614.888949,0.099601250,-0.338988840,10.113206860,-0.047187510,-0.018250940,0.113458940
1640834614.889700,0.259952600,-0.280667330,9.624376300,0.120647260,0.058005750,0.093224650
1640834614.893910,0.039692320,0.149308470,9.718545910,0.067281720,-0.028403110,0.088119510
1640834614.896240,0.072487720,0.182588770,9.881833080,-0.183042910,0.019255280,0.131937860
1640834614.898800,0.005926020,-0.073926520,9.819891930,-0.181478260,0.032503910,0.129799560
1640834614.901270,-0.159739510,-0.341728960,10.118498800,0.037582220,-0.058135390,0.087566680
1640834614.903950,-0.097390850,0.034060670,9.468976970,0.174833830,-0.006425380,0.075016920
1640834614.906950,-0.118356940,0.658841550,9.304777150,0.049893560,0.016227360,0.091755400
1640834614.908800,-0.125506160,0.503856900,10.123641970,-0.196981430,0.048528620,0.125324740
1640834614.909449,-0.087616790,0.084091420,10.217065810,-0.127106920,0.009439890,0.133401170
1640834614.913760,-0.074764130,-0.091245620,10.011409760,0.126789510,-0.096563990,0.098089880
1640834614.914219,0.004155910,0.167065040,9.514956470,0.174650520,-0.012373920,0.084717560
1640834614.918749,-0.024267160,0.593651470,9.454966550,-0.018092990,0.038483730,0.093385560
1640834614.919309,-0.114875740,0.377887670,10.303209300,-0.211355090,0.022414330,0.112187860
1640834614.924000,0.066888840,0.096957650,10.150870320,-0.099596370,-0.021472570,0.113186230
1640834614.924810,0.176711310,0.185869020,9.771083830,0.141413520,-0.068333750,0.080068420
1640834614.928789,-0.055081580,0.495494480,9.895666120,0.120860340,0.023905930,0.067885230
1640834614.929230,-0.192409260,0.866686110,9.919799800,-0.072453920,-0.000914930,0.102421650
1640834614.933780,-0.276147310,0.514560280,10.115945820,-0.218173830,-0.059142710,0.125513990
1640834614.934480,0.003585730,0.146607590,9.637752530,-0.091573590,-0.019247830,0.109411780
1640834614.938820,0.107768480,0.233589250,9.682178500,0.119106490,0.019173330,0.086435700
1640834614.939590,-0.074764560,0.491442470,10.038115500,0.058019150,0.022365150,0.066813830
1640834614.943760,0.048242800,0.587950530,9.796642300,-0.132679910,-0.039933610,0.103984780
1640834614.944490,0.002544420,-0.015980970,9.881501200,-0.181695830,-0.043815370,0.123895700
1640834614.948840,-0.004458360,-0.363389880,9.777255060,-0.031177700,-0.011940300,0.078518690
1640834614.949730,0.034999830,-0.100492510,9.621577260,0.128866750,-0.043278930,0.062111020
1640834614.954170,0.082224900,0.237542600,9.519065860,0.019373000,0.034463410,0.066773590
1640834614.955170,0.172044660,0.190546110,9.956791880,-0.146737660,0.052762040,0.094790760
1640834614.958740,-0.007714010,-0.200402230,10.525674820,-0.091120610,-0.015833970,0.108909610
1640834614.959159,-0.103613910,-0.276889410,9.870054240,0.078578300,-0.097198780,0.076484690
1640834614.963719,-0.022201210,0.039739710,9.059834480,0.161452610,-0.074763600,0.072614850
1640834614.964160,-0.235188540,0.370942650,9.325366970,-0.009819870,0.087332730,0.073854630
1640834614.968750,-0.212615220,0.240111750,10.261275290,-0.142444710,0.045554350,0.080214460
1640834614.969260,-0.271137890,-0.099635600,10.670813560,-0.006276370,-0.076615820,0.078938900
1640834614.973850,-0.011534270,0.061913880,9.551032070,0.164036470,-0.099219390,0.055576860
1640834614.974650,-0.001544440,0.288095380,9.446961400,0.130563990,-0.019246340,0.063438720
1640834614.978730,-0.152386260,0.479030790,9.907274250,-0.043185060,0.064376000,0.086191300
1640834614.979470,-0.033752900,0.203725610,10.162759780,-0.100336970,-0.045780840,0.082103910
1640834614.983820,0.036632500,-0.017620470,10.198090550,0.054003310,-0.108371690,0.082404930
1640834614.984380,0.228424550,0.349529860,9.298230170,0.163887460,-0.029098990,0.060364610
1640834614.988780,0.043746820,0.625212130,9.884515760,0.058645020,-0.009377300,0.052003570
1640834614.989519,-0.185290860,0.741971370,10.545969010,-0.107373300,0.002512340,0.091283020
1640834614.993830,-0.018830580,0.450260430,9.976427080,-0.095704210,-0.093969700,0.076819960
1640834614.994959,-0.138614390,0.137380090,10.204854970,0.067749600,-0.110480200,0.060856330
1640834614.998839,-0.014491440,0.550201420,9.350025180,0.122432430,0.012953580,0.054483130
1640834614.999320,0.079767570,0.572873230,9.580060960,-0.020936130,-0.018060210,0.050789120
1640834615.003820,-0.027337270,0.381610130,10.485655780,-0.144967410,0.002098080,0.098189720
1640834615.004560,0.266145440,0.078785270,9.767643930,-0.070443750,-0.033432250,0.084587930
1640834615.010660,0.019894420,-0.236708540,10.423675540,0.088579950,-0.139689460,0.050027670
1640834615.011839,0.078118580,0.225389260,9.359933850,0.099086760,-0.016681850,0.059889260
1640834615.013759,0.312805980,0.267114010,9.106593130,-0.050017240,-0.013726950,0.050784650
1640834615.014330,0.046348430,0.017603290,10.690761570,-0.128699840,0.057239830,0.079137070
1640834615.018829,0.329895500,-0.038605550,9.786600110,-0.006973740,0.007978080,0.060042740
1640834615.019610,0.002957010,-0.084589650,10.259531970,0.142039400,-0.170806080,0.024855140
1640834615.023730,-0.174548720,0.318601700,9.331917760,0.084318220,-0.016424060,0.047291820
1640834615.024170,0.003187900,0.295767430,8.851178170,-0.065834830,0.005435940,0.040376190
1640834615.028900,-0.454677280,-0.209690960,10.918209080,-0.064694880,0.025345390,0.047019130
1640834615.029430,-0.041541060,-0.085780840,9.829837800,0.091369440,0.009231270,0.037689510
1640834615.033800,0.072913150,0.072398160,9.898242950,0.166001890,-0.141876940,0.026269260
1640834615.034540,-0.048568950,0.224686980,9.854452130,0.037470460,0.041078030,0.066655880
1640834615.039820,0.165666570,0.004835120,9.325514790,-0.043086710,0.009690220,0.061440470
1640834615.040220,-0.247941490,-0.372829350,10.827710150,0.070418400,-0.099422050,0.045967090
1640834615.043860,0.044884270,-0.007465730,9.376168250,0.171118970,-0.029098990,0.026340780
1640834615.044979,0.232540100,0.575213670,9.402168270,0.114803020,-0.063796350,0.009030100
1640834615.048890,-0.210322600,0.770425980,10.687012670,-0.053887070,0.079087920,0.040888790
1640834615.049830,0.113610480,0.759728610,9.911194800,-0.071775910,-0.028593840,0.027614830
1640834615.053870,-0.059412360,0.435921730,10.619802470,0.102090860,-0.149206830,0.030988460
1640834615.054920,-0.057532790,0.558139200,9.495289800,0.173120200,0.005950030,0.031277540
1640834615.059370,0.167623560,0.821133260,9.217581750,0.047490000,-0.057777760,0.047034030
1640834615.060619,-0.076400320,0.473056820,10.500061040,-0.127783420,0.041486330,0.079654160
1640834615.063769,0.333590300,0.034957990,9.647290230,-0.099165750,0.025153160,0.062555070
1640834615.064540,0.223319200,-0.340768720,10.479749680,0.132305940,-0.112722810,0.032925610
1640834615.069000,-0.103866540,-0.179000810,9.917781830,0.188432650,-0.012438000,-0.004540380
1640834615.069660,0.135306850,0.264998020,8.988673210,0.021027030,-0.094638760,0.017353890
1640834615.073809,-0.200662850,0.071790820,10.214694980,-0.127691030,0.004424150,0.042478740
1640834615.074479,0.137499970,-0.037679840,9.516694070,-0.076280540,0.076735030,0.002543630
1640834615.078790,0.128627240,0.135259360,10.403255460,0.157304080,-0.062669820,-0.006878380
1640834615.079890,-0.139981870,0.463953200,10.209842680,0.201441390,-0.025364760,-0.003537540
1640834615.084020,0.203164670,0.572064220,9.010200500,0.017984210,-0.069662940,0.029642880
1640834615.085539,-0.174052610,0.163077240,10.223229410,-0.081990660,-0.006455180,0.060105320
1640834615.089870,-0.076072250,-0.302448570,9.703786850,0.013238190,0.049169360,0.021141770
1640834615.090459,0.037850610,-0.212862880,10.113875390,0.192023810,-0.093477970,0.002861020
1640834615.093829,-0.102672540,0.294099120,10.027873990,0.167338550,0.005964930,-0.004136560
1640834615.094740,0.185544650,0.359715430,9.362748150,-0.042927270,-0.001239780,0.002375250
1640834615.099130,-0.251077800,0.241974340,10.756847380,-0.067825620,-0.034287580,0.033809250
1640834615.100350,-0.165169970,0.145429390,9.793296810,0.084319720,-0.037859380,0.009372830
1640834615.104610,-0.016794650,0.253532680,9.635291100,0.201582910,-0.124095380,0.007706880
1640834615.105810,-0.168133970,0.898934720,9.958633420,0.112783920,0.038398800,0.016431510
1640834615.108970,0.145884260,0.732008990,9.619395260,-0.097633910,0.029866400,0.022165480
1640834615.109990,0.087519310,0.362526240,10.806034090,-0.078918050,-0.061561170,0.041216620
1640834615.113829,0.319081460,0.254480720,9.765100480,0.114031140,-0.014349820,0.001998250
1640834615.114600,0.269056170,0.138954950,9.453784940,0.167095660,-0.100433830,-0.001773240
1640834615.119050,0.009978540,0.557407920,9.774223330,0.044791400,-0.001685320,0.022315980
1640834615.121610,0.174498920,0.196942780,9.359528540,-0.128790710,0.039249660,0.025765590
1640834615.123790,0.008229010,-0.371572050,10.603280070,-0.062581900,-0.029979650,0.036856540
1640834615.124529,0.037803950,-0.237067180,10.051027300,0.174465820,0.017546120,-0.014142690
1640834615.129060,-0.052405420,-0.084127020,9.557834630,0.199162970,-0.104241070,-0.025989120
1640834615.130169,-0.197341990,0.459511310,9.643661500,0.020383300,-0.035957990,0.021104520
1640834615.133730,-0.071892290,0.315066040,9.288295750,-0.121697780,0.050419570,0.014288720
1640834615.134250,-0.120261500,-0.204092850,10.413124080,-0.013624130,-0.030489270,0.008131560
1640834615.138820,-0.048336520,0.100244500,10.080129620,0.248034330,-0.014983120,-0.021353370
1640834615.139429,0.106033410,0.402534340,9.414715770,0.219886020,-0.086142110,-0.039993230
1640834615.145470,0.151434390,0.571560200,9.705389020,-0.028033550,0.004188720,0.031371420
1640834615.146940,0.097350080,0.200645210,9.818949700,-0.107856090,0.059896720,0.027285520
1640834615.149020,-0.039726850,-0.429161370,10.593615530,0.078707940,-0.090357660,-0.002534690
1640834615.149610,-0.055372430,-0.188981340,9.881284710,0.306592910,-0.080448390,-0.020177660
1640834615.154310,-0.072925720,0.377866150,9.227021220,0.198771090,-0.053079430,-0.027494140
1640834615.156639,-0.180403710,0.583029330,9.944038390,-0.098490720,0.032974780,0.011475380
1640834615.158820,-0.178064080,0.434032650,10.306356430,-0.112295170,-0.003771480,0.013679270
1640834615.159750,-0.046562440,0.291484530,10.329057690,0.114807500,-0.115975760,-0.019143520
1640834615.167470,0.109249640,0.557832180,9.645253180,0.270821150,-0.041916970,-0.023771830
1640834615.168340,-0.151460590,0.986096560,9.778814320,0.126479570,-0.036796920,-0.018888710
1640834615.168789,-0.184454890,0.849784790,10.000720020,-0.139585150,-0.047561530,0.022687020
1640834615.169819,0.198693440,0.294816850,9.732288360,-0.122921180,-0.060138110,0.038197640
1640834615.178429,0.266336590,0.023878140,9.968423840,0.100769110,-0.015293060,-0.006864970
1640834615.180210,0.329392050,0.197922440,9.911416050,0.192171350,0.026173890,-0.028826300
1640834615.180670,0.069030720,0.451573160,10.298351290,0.070701540,-0.073735420,-0.000342730
1640834615.180970,0.009525970,0.242543180,9.781764030,-0.127944350,-0.075776880,0.022459030
1640834615.184330,0.154867690,-0.184511050,9.319405560,-0.088956960,-0.069277000,0.016969440
1640834615.186640,-0.078820500,-0.123501610,9.845246320,0.123800360,-0.003281240,-0.010743740
1640834615.188789,0.072515730,0.364824890,9.478957180,0.153929010,0.022012000,-0.048357260
1640834615.189900,-0.027385610,0.643989740,10.353775020,0.008222460,-0.047659870,-0.013014680
1640834615.195410,-0.054162000,0.418033840,10.148152350,-0.114382800,-0.006067750,0.013066830
1640834615.197759,0.039860950,-0.095093390,9.675992970,-0.005018710,-0.100953880,-0.021223730
1640834615.199450,-0.202895090,0.068556430,9.858841900,0.167541240,-0.069279980,-0.022676590
1640834615.199960,0.146970720,0.387094650,8.820089340,0.117102250,0.028613210,-0.040492410
1640834615.204160,-0.031853930,0.330131980,10.338954930,-0.055290760,0.002373750,-0.020952520
1640834615.210709,-0.100526940,0.281885360,10.484219550,-0.097697990,0.013642010,0.003105400
1640834615.211939,0.173896480,-0.123178180,9.812111850,0.045749550,-0.140605870,-0.025549530
1640834615.212450,-0.245594890,0.037487620,10.248262410,0.185306370,-0.086383530,-0.020740930
1640834615.214439,-0.055335920,0.585376500,8.954031940,0.082978610,0.016978380,-0.032888350
1640834615.215770,-0.240375850,0.526425300,10.167412760,-0.103624170,-0.060512130,-0.015521050
1640834615.219570,-0.162551360,0.490022540,10.200426100,-0.103329140,-0.004145500,0.003272300
1640834615.220530,0.395712170,0.368875410,9.399517060,0.052592160,-0.064334270,-0.046342620
1640834615.224160,-0.092422460,0.385580210,10.709033970,0.156371300,-0.051712990,-0.044746690
1640834615.225479,0.153822530,0.759067000,9.193719860,0.040923060,-0.012595950,-0.023366510
1640834615.228799,0.143318650,0.311391950,9.774456980,-0.110471250,-0.110605370,0.003308060
1640834615.229529,-0.145585420,-0.106390170,10.260014530,-0.082525620,0.025759640,0.030018390
1640834615.233850,0.225017220,-0.177377360,9.182426450,0.073520850,-0.064224010,-0.030411780
1640834615.236610,-0.169007360,-0.146445240,10.370287900,0.132112210,-0.093019030,-0.043025610
1640834615.238750,0.100071820,0.392729100,9.040832520,-0.001680850,0.040701030,-0.032757220
1640834615.240690,0.099190590,0.167725500,9.862091060,-0.109836480,-0.053946680,-0.024327640
1640834615.245050,-0.336588320,-0.146993610,10.919342040,-0.013507910,-0.038464370,-0.011129680
1640834615.249060,0.244594450,0.134475570,9.000385280,0.141349420,-0.097544490,-0.055408480
1640834615.249640,-0.073563820,0.368141590,10.050309180,0.130081190,-0.075459480,-0.045908990
1640834615.250110,-0.082484010,0.579013820,9.677056310,-0.040577360,0.094145560,-0.026328870
1640834615.253780,0.082796720,0.374192120,9.933936120,-0.094354150,-0.083355600,-0.033801790
1640834615.254809,-0.196731840,0.171684520,10.609885220,0.030930340,-0.106152900,-0.021162630
1640834615.258880,0.366528600,0.343968420,8.738124850,0.129796580,-0.047081710,-0.036594270
1640834615.261340,0.033113100,0.461327610,10.115739820,0.068919370,-0.023229420,-0.036774580
1640834615.263860,-0.234020950,0.460171100,10.474123000,-0.075051190,0.043571000,-0.004059080
1640834615.265100,0.098828690,0.123992850,9.790796280,-0.076362490,-0.142182420,-0.003363190
1640834615.270059,-0.064214160,-0.014646700,10.240412710,0.060319910,-0.105831040,-0.014227630
1640834615.270749,0.297733400,0.233118240,8.897222520,0.095885980,0.044427810,-0.039318200
1640834615.276800,0.138811020,0.487588580,9.985631940,0.011251870,-0.012892480,-0.045830020
1640834615.280969,-0.045274780,0.621363760,10.362206460,-0.102613890,-0.002266470,-0.025644900
1640834615.283810,0.376681950,0.230742530,9.325278280,-0.080886480,-0.098772350,-0.016207990
1640834615.284790,0.124383860,0.154978540,10.103318210,0.066100060,-0.064273190,-0.018833580
1640834615.285179,0.165382420,0.267080610,9.296936990,0.090804710,0.046741960,-0.037379570
1640834615.285620,0.230191780,0.272804110,9.764176370,-0.016121570,-0.029814240,-0.020332640
1640834615.290099,-0.037774220,0.165567680,10.279882430,-0.096304720,0.050774220,-0.007702410
1640834615.291700,0.122060480,-0.320111270,9.677785870,-0.032927090,-0.050745910,-0.017628070
1640834615.294000,-0.273270640,-0.195417300,10.189179420,0.128749030,-0.105945770,-0.024415550
1640834615.298760,-0.138774280,0.003635660,8.864851000,0.118304790,0.007911030,-0.050158800
1640834615.299320,-0.030191300,0.167928080,9.596087460,-0.034283090,0.012984870,-0.028280920
1640834615.299690,-0.260094850,0.422882770,10.715499880,-0.075265770,0.080361970,-0.025326020
1640834615.304050,0.176467460,0.268772930,9.895519260,-0.003390010,-0.079262260,-0.050087270
1640834615.305339,0.177494450,0.606931570,10.021983150,0.109636790,-0.111988190,-0.031974920
1640834615.313900,0.191827850,0.726264060,9.233920100,0.078682610,0.069455800,-0.051362820
1640834615.314639,0.065407310,0.390437990,9.974512100,-0.051666810,-0.004351140,-0.028516350
1640834615.315130,-0.179868610,0.413619550,10.592367170,-0.037963690,-0.023835900,0.006653370
1640834615.315680,0.190674010,0.106896770,9.440091130,0.004710260,-0.067362200,-0.020754340
1640834615.318950,0.088142990,0.208315300,9.955715180,0.035691260,-0.027550760,-0.012689830
1640834615.320210,-0.087995710,0.442761030,9.884546280,0.008952620,0.070308160,-0.030913950
1640834615.323920,0.111529860,0.126726430,9.852152820,-0.066182020,-0.034727160,-0.035455820
1640834615.325039,-0.048997780,0.265027430,10.235540390,-0.011084970,-0.022485850,-0.008955600
1640834615.329100,0.089845870,0.348654570,9.510957720,0.015059110,-0.023141500,-0.038866700
1640834615.329779,0.096577770,0.484863850,9.708133700,-0.039857630,-0.038032240,-0.023590030
1640834615.333730,0.116039880,0.641595360,9.687576290,-0.058057910,0.038547820,-0.015254320
1640834615.334329,0.409309390,0.165389330,9.789676670,-0.054480140,0.054672360,-0.025728340
1640834615.338750,0.160806850,0.018650480,10.522812840,0.039823360,0.018818680,-0.003950300
1640834615.339140,0.126664850,0.150190090,9.799104690,0.065767770,-0.056812170,-0.026585170
1640834615.344270,0.261529480,0.132690500,9.137097360,-0.076606880,-0.053118170,-0.021529200
1640834615.345240,0.058965420,0.052323890,9.532616620,-0.114256140,0.083525460,-0.012683870
1640834615.348760,0.087400110,-0.396567260,10.044741630,-0.004957620,0.099547210,-0.052325430
1640834615.349210,-0.142218620,-0.273263040,10.506543160,0.130397100,-0.026732680,-0.059561440
1640834615.353770,-0.032559540,0.334492890,9.512809750,0.100265440,-0.061409180,-0.032958390
1640834615.354310,0.153297750,0.432336840,9.117529870,-0.109666600,0.046432020,-0.007362660
1640834615.358749,-0.235922770,0.194491700,10.237504960,-0.122576970,0.087326770,-0.003698470
1640834615.359190,-0.049201050,-0.137615160,10.115797040,0.091642140,0.017412010,-0.039716060
1640834615.364240,0.042758210,0.051555000,9.797789570,0.226411270,-0.053501140,-0.059875850
1640834615.364820,0.175479260,0.727823260,9.460048680,0.088530790,0.037644800,-0.029833620
1640834615.368749,0.166685820,0.737377170,9.792474750,-0.175853090,0.102353100,0.005233290
1640834615.369200,-0.116696490,0.441165210,10.562937740,-0.172011570,0.002004210,-0.013686720
1640834615.373710,0.058917970,0.164631580,10.051958080,0.091041630,-0.036266450,-0.030720230
1640834615.374260,0.015091040,0.313708040,9.593437190,0.231896360,0.001128020,-0.058312720
1640834615.378820,-0.207324330,0.762879610,9.881732940,0.058193510,0.044387580,-0.025878850
1640834615.379469,-0.050339480,0.801739450,9.892663000,-0.227685270,0.058887900,0.014145670
1640834615.383880,0.271980700,0.418159630,9.831509590,-0.235821350,0.026619440,0.008851290
1640834615.385089,0.286633460,-0.040394770,10.212373730,0.060577690,0.041376050,-0.019977990
1640834615.388739,0.209492150,0.270152060,9.873007770,0.220105070,0.041295590,-0.062783060
1640834615.389330,0.009280460,0.605900880,9.738116260,0.035049020,-0.038419660,-0.039067860
1640834615.393999,0.048138870,0.333249630,9.752680780,-0.244160010,0.044573850,0.012008850
1640834615.394820,0.360469220,0.041019100,9.463019370,-0.228734330,0.112171470,-0.004753470
1640834615.398790,0.200984510,-0.190387700,10.379777910,0.047315660,0.069247190,-0.038412220
1640834615.400179,0.279443030,0.296895650,10.003987310,0.178974870,0.066512820,-0.049737100
1640834615.403720,0.164200070,0.517735840,9.437225340,0.017173590,-0.008958580,-0.024239720
1640834615.404189,-0.166248560,-0.023629370,9.900324820,-0.191523150,0.031249230,0.013655430
1640834615.408759,0.048255250,-0.238422680,9.316902160,-0.121787190,0.096781570,-0.010988120
1640834615.409540,-0.083611010,-0.379251360,9.947836880,0.094254320,0.047501920,-0.060142590
1640834615.413820,0.059424930,0.134154590,10.146797180,0.118826350,0.115712010,-0.066386160
1640834615.415670,0.127996400,0.328773050,9.735452650,-0.007854400,0.091980410,-0.037556900
1640834615.418749,-0.120982880,-0.328096510,10.363898280,-0.090676550,-0.001826880,-0.025536120
1640834615.419139,0.022085080,-0.179287400,9.448363300,0.040479000,0.017148260,-0.016173720
1640834615.423709,-0.030435800,0.040956800,9.044535640,0.128364580,0.030726200,-0.043398140
1640834615.424160,-0.046781530,0.322963510,9.884031300,0.019787260,0.150351240,-0.039392710
1640834615.428799,-0.075308590,0.495401860,10.244662280,-0.025005640,0.126062350,-0.028894850
1640834615.429870,-0.146773320,0.108447450,10.641563420,0.014919040,-0.046113140,-0.050601370
1640834615.433780,-0.014519810,0.370482090,9.808632850,0.093772990,0.013054910,-0.034289070
1640834615.434540,-0.115798110,0.569460090,9.202597620,0.083932280,0.045546890,-0.049875680
1640834615.438720,-0.160152290,0.431582060,10.015986440,-0.041688980,0.098209090,-0.035974390
1640834615.439020,0.037669210,0.470243870,9.986005780,-0.031569600,0.096333030,-0.003401940
1640834615.444229,0.166806830,0.103834440,10.221626280,0.058545180,-0.017140810,-0.021885340
1640834615.445310,0.381131530,0.275481220,9.824958800,0.072133550,0.074253980,-0.023894010
1640834615.450440,0.307898400,0.601391020,9.542935370,0.013297800,0.078091030,-0.034335260
1640834615.451000,0.099115990,0.272186850,10.321502690,-0.089351840,0.062333050,-0.028325620
1640834615.453740,0.067175330,0.131052030,9.902577400,-0.005400180,0.056158010,-0.010934470
1640834615.454190,0.035648460,0.007882970,9.487915990,0.109073520,-0.022593140,-0.032560530
1640834615.458740,-0.052653410,0.252810360,9.512672420,0.047673280,0.099629170,-0.030882650
1640834615.459129,0.016507630,0.561211230,9.531458850,-0.058391700,0.113560270,-0.010572370
1640834615.464079,0.029039060,-0.009095560,10.362808230,-0.082387040,0.091357550,-0.008775290
1640834615.466220,0.038687550,-0.262308480,10.342545510,0.061212490,0.084595390,-0.024150310
1640834615.468710,0.128301860,-0.140693110,9.690885540,0.194360360,-0.013454260,-0.029933460
1640834615.469190,0.102817330,0.117292570,9.351195340,0.071179870,0.063666700,-0.028741360
1640834615.473760,0.184458900,0.321424600,9.267790790,-0.107017170,0.127863880,-0.014065210
1640834615.474380,0.139953520,-0.059552870,10.094298360,-0.069205460,0.136277090,-0.011603530
1640834615.479149,-0.053589810,-0.229770110,10.444898610,0.147451480,0.045257810,-0.045168400
1640834615.480250,0.047692120,0.219817800,9.552596090,0.258730350,-0.032308700,-0.033448640
1640834615.484099,-0.121059860,0.442884120,9.350209240,0.058163710,0.090946260,-0.009720030
1640834615.485250,-0.277939560,0.352482970,9.945093150,-0.127309560,0.138001160,0.007511680
1640834615.489100,-0.258905290,-0.020629070,10.446247100,-0.019726160,0.077156730,0.004135070
1640834615.489820,-0.175741520,-0.043203850,10.116571430,0.199709880,0.009255110,-0.038157410
1640834615.493870,0.049935750,0.527475180,9.376170160,0.222480300,0.027172270,-0.033198300
1640834615.494639,0.011277040,0.707424880,9.583510400,0.001531840,0.116285670,-0.008770820
1640834615.499300,-0.010807920,0.478589450,10.169089320,-0.146767500,0.096677270,-0.004571680
1640834615.499729,0.060327370,0.097846960,10.369952200,0.010597700,0.028947000,0.003856420
1640834615.503749,0.058135060,0.167267220,9.976618770,0.205564500,0.006659330,-0.024430460
1640834615.504150,0.103199790,0.590324400,9.493383410,0.161501750,0.031796100,-0.021615620
1640834615.508900,0.115481470,0.791464630,9.515045170,-0.072683400,0.113908950,0.003528590
1640834615.512620,0.163435070,0.568432870,9.921698570,-0.186023090,0.108729310,0.009697680
1640834615.513759,0.132464130,0.062268350,10.266304020,-0.002273920,0.053727630,0.005595390
1640834615.514240,0.054740750,0.032508610,9.874402050,0.206075620,0.017318130,-0.023959580
1640834615.518730,-0.102067910,0.266604870,9.598007200,0.145317630,0.007015470,-0.026245420
1640834615.519140,-0.058574960,0.247071560,9.427620890,-0.094291590,0.096051410,0.024580960
1640834615.523720,0.107582580,-0.022435970,9.696839330,-0.171995180,0.133146360,0.013142820
1640834615.524160,0.038071100,-0.418008710,10.490030290,0.031048060,0.089420390,-0.009717050
1640834615.528859,0.142427400,-0.137712940,9.849896430,0.237225040,0.024488570,-0.025814770
1640834615.530020,0.125205860,0.272543010,9.369661330,0.174269100,0.005395710,-0.024117530
1640834615.533759,-0.097807670,0.278940470,9.579957960,-0.074726340,0.103147330,0.017485020
1640834615.534200,-0.001343860,0.225461070,9.663125040,-0.132223980,0.105470430,0.010585790
1640834615.538750,-0.079384540,-0.173903760,10.385131840,0.077103090,0.050017240,-0.032068790
1640834615.539080,0.010600410,0.290164140,9.858504300,0.245290980,0.057990850,-0.039477650
1640834615.543910,0.024301180,0.806501870,9.485951420,0.131809680,0.035832810,-0.015899540
1640834615.545380,-0.170772600,0.423551260,10.067690850,-0.115297730,0.098362570,0.013828280
1640834615.550150,-0.154368240,0.148027140,10.001206400,-0.082884710,0.065119570,0.023563210
1640834615.551040,-0.148128540,-0.194387140,10.068645480,0.152650460,-0.030377500,-0.022698940
1640834615.553820,-0.057789910,0.165369820,9.617057800,0.215476750,0.059869890,-0.029917060
1640834615.554630,0.034760860,0.826706350,9.573962210,0.035145880,0.093378130,-0.011900070
1640834615.559270,-0.065463320,0.417287230,10.584963800,-0.156702120,0.080233810,-0.004073980
1640834615.560710,0.153997780,0.333382070,10.105148320,-0.055919590,0.027158860,0.011773410
1640834615.563779,0.232092260,0.292401160,9.676246640,0.173041240,-0.019586090,-0.015318400
1640834615.564410,0.016917960,0.456149700,9.868737220,0.148104130,0.087915370,-0.024825330
1640834615.568770,0.067644040,1.004256610,9.574444770,-0.043883920,0.064328310,0.016887490
1640834615.569320,0.032055940,0.365348520,10.169979100,-0.181977470,0.038914380,0.032989680
1640834615.573809,0.275857600,-0.047710240,9.813348770,-0.045697380,0.099945070,0.020304320
1640834615.575310,0.259502050,0.093943720,9.742613790,0.178208950,0.050191590,-0.017566980
1640834615.581730,-0.108854820,0.236208160,10.157519340,0.100444270,0.048145660,-0.017157200
1640834615.582950,0.065421970,0.421279610,9.317426680,-0.098811090,0.052030380,0.030022860
1640834615.583809,-0.115313590,-0.235327710,9.927332880,-0.133095650,0.053770840,0.015483800
1640834615.584360,-0.044220520,-0.370420100,9.961623190,0.017979740,0.092768670,-0.016944110
1640834615.588729,0.174597950,0.109840100,9.486236570,0.187593700,0.052596630,-0.023281580
1640834615.589130,0.014495640,0.362734020,10.040178300,0.054509940,0.093418360,-0.017350910
1640834615.593829,0.146352350,0.432833790,9.766480450,-0.118124490,0.099344560,0.042833390
1640834615.594610,-0.089218670,-0.132932690,10.092223170,-0.032928590,0.030225520,0.026366120
1640834615.598750,-0.170070380,-0.240187790,9.767161370,0.129118560,0.020444400,0.003176930
1640834615.599200,0.007171430,0.295030090,9.153873440,0.186441840,0.041024400,-0.002625580
1640834615.603710,-0.218113140,0.554438890,9.945370670,0.002452730,0.122308740,-0.009062890
1640834615.604159,-0.034942460,0.457760450,10.273805620,-0.146561830,0.106675920,0.001592930
1640834615.610819,-0.028263680,0.254681650,10.433544160,0.013835730,0.012882060,-0.004535910
1640834615.611760,-0.131673340,0.299775390,9.994481090,0.154715790,-0.002266470,-0.029020010
1640834615.613839,0.110849630,0.751337530,9.177060130,0.120857380,0.033858420,-0.006954370
1640834615.614420,-0.255383880,0.810652260,10.032855030,-0.075803700,0.094413760,0.017598270
1640834615.618889,-0.008930420,0.429994370,10.142459870,-0.170436500,0.085589300,0.043158240
1640834615.619590,0.213777900,0.079878050,10.083225250,0.021225210,0.013224780,0.027337670
1640834615.624050,0.066464580,0.069119650,10.139606480,0.155641110,0.040362770,-0.015422700
1640834615.625810,0.207263480,0.510340870,9.457957270,0.050678860,0.064328320,-0.022299590
1640834615.630640,-0.151986990,0.563834130,10.065266610,-0.129584970,0.018458070,0.011552870
1640834615.631090,-0.027045910,0.100166270,9.876384740,-0.168278810,0.053912400,0.018154080
1640834615.633880,0.167172030,-0.047240600,9.637926100,0.047336520,0.054468220,0.000177320
1640834615.634670,-0.139114380,0.258545580,10.145132060,0.154384990,0.041675570,-0.020307300
1640834615.638870,0.269428250,0.635054170,9.303221700,-0.004966560,0.082251420,0.001899900
1640834615.640020,0.001835450,0.465111760,10.102030750,-0.151079890,0.055316100,0.042445960
1640834615.644110,-0.139126290,-0.064866920,10.354973790,-0.111092630,0.041161480,0.028066340
1640834615.644990,0.142620860,-0.328385890,9.451680180,0.107662390,-0.018762050,-0.003109870
1640834615.648790,-0.042934150,-0.050602870,9.594128610,0.189514460,0.028483580,-0.020882490
1640834615.649220,0.211270930,0.337410870,9.276112560,-0.024567540,0.159212920,-0.008276100
1640834615.653720,0.018231820,0.141749460,10.317276000,-0.172899660,0.063686070,0.022934380
1640834615.654219,-0.107212450,-0.273109910,10.484030720,-0.037422780,0.004878640,0.007092950
1640834615.659000,0.047085040,-0.224127620,9.379820820,0.197289930,-0.037972630,-0.022843480
1640834615.660220,-0.290596750,0.253311280,9.609890940,0.204311300,0.010728830,-0.007617470
1640834615.663790,-0.158679040,0.623313780,9.401187900,-0.054061420,0.140874090,-0.001685320
1640834615.664280,-0.170831310,0.303704980,10.290607450,-0.156986710,0.048008560,0.011493270
1640834615.668710,-0.134190430,0.177843540,10.595636370,0.024415550,-0.011248880,-0.005531310
1640834615.669050,0.200105530,0.480515930,9.381021500,0.194279850,-0.031453370,-0.033000100
1640834615.673780,-0.073352250,0.736103120,9.691256520,0.128182780,0.009392200,-0.013925140
1640834615.674559,-0.055622340,0.913128970,9.686371800,-0.109636790,0.101217630,0.003480910
1640834615.679600,-0.003631950,0.417840810,10.161908150,-0.161176910,-0.008407240,0.016048550
1640834615.680260,-0.044692670,0.171226620,10.385931970,0.030286610,-0.026474890,0.006757680
1640834615.683719,0.285650520,0.431011860,9.266156200,0.145751240,0.020013750,-0.027821960
1640834615.684219,-0.017991690,0.505144120,9.938859940,0.023570660,0.014019020,-0.019197170
1640834615.688820,-0.067088190,0.615868570,10.003735540,-0.166761880,0.059688100,0.011217600
1640834615.689520,0.021340250,0.145238560,9.901416780,-0.139406340,-0.035603340,0.007155540
1640834615.694170,-0.253608350,0.057621170,10.174394610,0.036054850,-0.046385830,-0.015318390
1640834615.698300,0.104223400,0.659876290,8.981504440,0.074520710,0.022049250,-0.025877360
1640834615.698900,-0.015088350,0.635699150,9.704859730,-0.072546290,0.026850400,-0.011651220
1640834615.699299,0.076591360,0.615592480,10.084115980,-0.189408660,0.089824210,0.018566850
1640834615.704219,0.236405520,0.135591280,10.013530730,-0.092400610,-0.006051360,0.014913080
1640834615.705200,-0.143786060,-0.226440610,10.404816630,0.069183110,-0.080235310,-0.005759300
1640834615.713630,0.201880510,0.286989990,8.823797230,0.054502500,-0.011526050,-0.014404950
1640834615.716169,0.054575090,0.122863570,9.278841970,-0.121590500,0.049115720,-0.012803080
1640834615.717020,-0.124239240,-0.157490300,10.297439580,-0.178185110,0.110150870,0.002077220
1640834615.717480,0.099314980,-0.251946540,9.989263530,-0.005042550,-0.007748600,-0.036214300
1640834615.719159,-0.251033690,-0.111447070,10.160025600,0.125220400,-0.119113910,-0.040924540
1640834615.722820,0.029095430,0.470795300,8.879463200,0.012703240,0.011587140,-0.002244110
1640834615.724460,-0.179378350,0.258599640,9.613688470,-0.132279070,0.066463630,0.002790990
1640834615.725170,-0.481680690,-0.074760360,10.708007810,-0.101742160,0.021024050,0.006163120
1640834615.729499,-0.007482020,0.076985050,9.643161770,0.091233860,-0.068548320,-0.016611810
1640834615.731999,-0.068911790,0.356095220,9.605136870,0.126248610,-0.082242490,-0.025624040
1640834615.736480,0.175472710,0.781757590,9.359900470,-0.065028660,0.072610390,0.007583200
1640834615.737710,0.072253580,0.596478880,10.199810030,-0.163698170,0.040186950,0.004236400
1640834615.740160,-0.098525270,0.088768170,10.812970160,-0.056062630,-0.078743690,0.002069770
1640834615.740569,0.234835130,0.231607970,9.401144980,0.136259200,-0.085428360,-0.021290780
1640834615.743790,0.036788780,0.582345130,9.418338780,0.084260110,-0.038033730,-0.029177960
1640834615.745819,0.004974250,0.753606200,9.684346200,-0.172543540,0.073850150,0.004757940
1640834615.748750,0.054376870,0.596043880,10.079936980,-0.218603060,0.003917520,0.009906290
1640834615.749150,-0.089078230,0.040330440,10.461130140,-0.038377940,-0.070032460,-0.007508700
1640834615.753790,0.011322620,0.174966110,9.527497290,0.135467950,-0.051842630,-0.021317600
1640834615.754650,-0.172507180,0.592650710,9.636951450,0.051805380,-0.067766020,-0.015364590
1640834615.759740,-0.087692230,0.464916470,9.625225070,-0.218486800,0.024065370,0.029775500
1640834615.760730,0.259772630,0.238533410,9.731945040,-0.238649560,0.021506850,0.023795670
1640834615.764500,0.319581750,-0.202170800,10.380618100,-0.020147860,0.010451670,0.006766620
1640834615.765300,0.324860690,-0.122207670,9.863130570,0.155794610,-0.023511050,-0.025321540
1640834615.769250,0.133524850,0.416360140,9.600288390,0.075182330,-0.120113800,-0.016675890
1640834615.773680,0.059933170,0.392548830,9.074591640,-0.218793750,-0.014463070,0.018537040
1640834615.776500,0.141549600,0.083146100,9.367752080,-0.257751350,0.046657030,0.011181830
1640834615.778649,-0.035585920,-0.109565380,10.486997600,0.021928550,0.050202020,-0.032348930
1640834615.779179,-0.095280950,0.176990520,10.104268070,0.176130280,-0.047621140,-0.058817870
1640834615.779559,-0.078046950,0.725827990,9.528120990,0.046528870,-0.113350140,-0.006893280
1640834615.784560,-0.196647600,0.412079960,9.351992610,-0.230084340,0.035011760,0.024944540
1640834615.785560,-0.228192700,-0.166701000,9.803836820,-0.202560440,0.010593240,0.012010340
1640834615.788920,-0.183916420,-0.330708270,10.182838440,0.103308280,-0.060306500,-0.024232270
1640834615.792529,0.106791220,0.091803220,9.341320040,0.175803910,-0.037127730,-0.049711770
1640834615.793740,0.239612560,0.598093210,9.635348320,-0.029951330,-0.001959500,-0.014355780
1640834615.794289,0.053910740,0.490738120,10.411754610,-0.244022920,0.047561520,0.006856020
1640834615.798930,0.055821790,0.196028960,10.195862770,-0.155286510,-0.082629920,-0.012244280
1640834615.799719,-0.072175210,0.192547250,9.855849270,0.136411190,-0.137440880,-0.026890640
1640834615.803890,-0.107798680,0.720200360,9.029938700,0.125066940,-0.005649030,-0.046484180
1640834615.805169,-0.162899780,1.142531390,9.567550660,-0.135791290,0.004570190,-0.001479690
1640834615.808859,-0.222243160,0.739616690,10.542106630,-0.287017260,0.006127360,0.044499340
1640834615.809540,0.106169950,0.221657620,10.011534690,-0.143998860,-0.057303910,0.007881220
1640834615.813910,0.054388520,0.072540660,10.148030280,0.121019800,-0.099413120,-0.008760390
1640834615.815260,-0.034106160,0.328707990,9.571411130,0.078818200,-0.006102030,-0.025899710
1640834615.818920,0.077241090,0.354122100,9.375789640,-0.171676280,-0.060178340,0.001722570
1640834615.819700,0.080647360,-0.053627210,10.084808350,-0.275434580,-0.029331450,0.032594800
1640834615.823779,0.469468440,-0.228839280,9.445008280,-0.104577840,0.023210050,-0.007253890
1640834615.824380,0.274896680,-0.041457670,10.074276920,0.104509290,-0.057329240,-0.043104590
1640834615.828770,0.082696650,0.503712180,9.956562040,0.038877130,-0.023563210,-0.015187260
1640834615.829210,0.192090570,0.421946670,9.286206250,-0.167976330,-0.047145780,0.010269880
1640834615.833720,-0.194049150,-0.139245760,10.241967200,-0.184407830,-0.034007430,0.019764900
1640834615.834470,0.068691510,-0.091381370,9.417732240,-0.010725850,0.023703280,-0.004047160
1640834615.839409,0.037949000,0.127351630,9.583128930,0.093646360,-0.043532260,-0.041383520
1640834615.840020,-0.127679690,0.442634880,9.993600850,-0.032076240,0.019456450,-0.013689700
1640834615.843809,0.091710020,0.256079440,9.484258650,-0.156442840,-0.006112460,-0.008541350
1640834615.844660,-0.279041530,-0.434363370,10.347543720,-0.063917050,-0.078804790,-0.014200810
1640834615.849120,-0.005721770,-0.224917410,9.463707920,0.093504790,-0.029587750,-0.016893450
1640834615.850160,0.107404820,0.110850420,9.346980090,0.086273250,-0.002029540,-0.030784310
1640834615.854830,-0.216348310,0.192830340,10.462096210,-0.079540910,0.044861440,-0.004458430
1640834615.855749,0.022081360,0.282753500,9.984170910,-0.122454760,-0.045670570,0.003227590
1640834615.858760,-0.070241510,-0.023339330,9.849699020,0.024685260,-0.137296300,-0.022272770
1640834615.859650,-0.053088200,0.311810260,9.523956300,0.118833780,-0.024989250,-0.027254220
1640834615.863910,-0.097533360,0.836705800,9.483809470,0.040477510,0.010636450,-0.025863940
1640834615.865790,-0.350362720,0.722679080,10.517299650,-0.127561390,-0.036874420,-0.005847220
1640834615.869400,0.051630390,0.640634660,10.003275870,-0.128652170,-0.057238340,0.025957820
1640834615.871460,0.217992600,0.394205840,9.714288710,0.022278730,-0.065498060,-0.010800360
1640834615.878620,0.120405760,0.311473010,10.060491560,0.070253010,-0.009113550,-0.020910800
1640834615.879870,0.131164540,0.531674620,9.650889400,0.006245080,-0.018888710,-0.016616280
1640834615.880479,-0.071763630,0.137293890,9.957600590,-0.127083080,-0.096331520,-0.004653630
1640834615.881150,0.036953200,-0.061892110,9.734700200,-0.123278820,-0.062067810,0.027865170
1640834615.883999,0.220117480,-0.137515660,9.171389580,0.023221970,-0.026346740,-0.004018840
1640834615.884660,0.017156040,-0.044773510,10.066938400,0.051875420,-0.001595910,-0.029800840
1640834615.889360,0.231768280,0.530092600,9.879362110,-0.036135320,0.019508600,0.004933770
1640834615.889950,0.097230670,0.186324630,10.068674090,-0.103633130,-0.051878390,0.006490950
1640834615.893950,-0.088286330,-0.102724520,10.223498340,-0.048701470,-0.092025110,0.013881920
1640834615.896119,0.095834330,0.169017610,8.869931220,0.083135080,-0.067365170,-0.004087390
1640834615.898890,-0.042874210,0.199663180,9.213857650,0.029854480,-0.007243450,-0.025027990
1640834615.900590,0.077407140,0.441701020,9.874184610,-0.083453960,0.082479420,0.007277730
1640834615.903770,0.073938550,0.024407820,10.168766980,-0.068740550,0.006593760,-0.004443530
1640834615.904440,-0.069806130,-0.361296240,10.561816220,0.046271090,-0.132346170,-0.014409420
1640834615.920420,0.139220880,-0.060340930,9.163544650,0.146825580,-0.067354730,-0.019830460
1640834615.921130,-0.016793620,0.101547130,9.080916400,0.021544100,-0.000572200,-0.039578980
1640834615.923709,-0.112758250,0.197141830,10.143554690,-0.116994970,0.059255960,-0.007063150
1640834615.925740,-0.066454280,0.051257200,9.990785600,-0.022484360,-0.009071830,-0.008960070
1640834615.927719,-0.051282930,0.020487060,10.113477710,0.125896950,-0.141084190,-0.039646030
1640834615.931219,0.050579730,0.669410880,9.389156340,0.132891540,-0.021865970,-0.007997450
1640834615.933430,-0.140754920,0.794824420,9.506254200,-0.043505430,0.011143090,-0.018972160
1640834615.934020,-0.183135320,0.560788270,10.588690760,-0.141786080,-0.014387070,0.004650650
1640834615.934440,-0.008715520,0.318165270,9.975948330,0.012737510,-0.029315050,-0.006617610
1640834615.934980,0.097915940,0.285207720,9.657235150,0.144881010,-0.113491740,-0.026384000
1640834615.935779,0.180463460,0.651966990,9.419374470,0.044043360,0.023795660,-0.011871750
1640834615.940510,0.063519870,0.742928560,9.520734790,-0.146295150,0.031284990,0.002546610
1640834615.943730,-0.015946690,0.166858510,10.547766690,-0.172443700,-0.064522030,0.016076860
1640834615.945390,0.012861270,-0.216785520,9.901818280,0.052107870,-0.043441360,-0.003790860
1640834615.947650,-0.024857890,-0.029700150,9.426685330,0.176931920,-0.102944690,-0.038322810
1640834615.949380,-0.035771280,0.326214220,9.556095120,-0.000759960,0.016404690,-0.019532440
1640834615.949940,0.061888040,0.454741150,9.515723230,-0.208948550,0.057613850,0.005404650
1640834615.950330,0.090586940,-0.058056860,10.436384200,-0.149810310,-0.037537520,0.014719370
1640834615.955129,-0.008166750,-0.293670270,10.161264420,0.123262410,-0.040240590,-0.010855500
1640834615.955960,0.113521930,0.108920000,9.187842370,0.217556970,-0.108753160,-0.028695170
1640834615.965510,-0.023233900,0.406162620,9.441868780,-0.009647010,-0.000058110,-0.001358990
1640834615.967020,-0.056678370,0.260497480,9.536537170,-0.220759260,0.080297890,0.010220710
1640834615.967729,0.030638940,-0.130545790,10.334551810,-0.097608570,-0.048385560,-0.011587140
1640834615.968590,-0.208812670,-0.055390450,10.369280820,0.169630350,-0.064612930,-0.042404230
1640834615.972319,0.024636610,0.437278030,9.095569610,0.195738670,-0.091619800,-0.033940380
1640834615.972940,-0.192933290,0.588043870,9.783591270,-0.039622190,-0.006146730,-0.000236930
1640834615.973820,-0.230046900,0.326743190,9.979765890,-0.193846210,0.059878830,0.008493660
1640834615.975580,0.069657260,-0.097865340,10.192164420,-0.031191110,-0.082148620,-0.009053950
1640834615.979620,0.064592640,0.123565620,10.174637790,0.204324720,-0.053791710,-0.033742190
1640834615.980470,0.286902760,0.582997800,9.221934320,0.121605410,-0.010399520,-0.020207460
1640834615.987409,0.092047150,0.633431430,10.192867280,-0.101691480,-0.021122400,0.002434850
1640834615.989179,-0.074932640,0.349468950,10.276411060,-0.170724060,0.006197390,0.000669060
1640834615.990909,0.092831710,0.041503400,9.838006020,0.011387470,-0.114782160,-0.003288690
1640834615.993950,-0.073227820,0.413546290,10.025260930,0.170584020,-0.043386230,-0.023333730
1640834615.995900,0.083715920,0.715418820,9.512061120,0.022971630,0.055851050,-0.019910930
1640834615.996810,-0.013579760,0.627511740,10.690119740,-0.157043340,-0.026555360,0.025095050
1640834615.999230,-0.016461560,0.202157390,10.759917260,-0.125803070,0.008542840,0.020609800
1640834616.000249,0.164907740,-0.256221180,10.111801150,0.060495740,-0.083346670,0.005209450
1640834616.004979,-0.170387700,0.064025310,10.592692380,0.177302970,-0.078631940,0.012892480
1640834616.006240,-0.042197770,0.115891490,9.629461290,0.021791460,0.029361240,0.020134450
1640834616.011829,0.124752770,-0.179244440,10.286587720,-0.126221790,-0.028334560,0.069855150
1640834616.012770,0.057705140,-0.272111770,11.081984520,-0.036452710,0.067655730,0.054527820
1640834616.015040,0.426346540,-0.370233770,10.103518490,0.127403450,-0.015762450,0.004576150
1640834616.018920,0.238845780,0.263301340,10.724076270,0.173234950,-0.095564140,0.025863950
1640834616.020220,0.082435060,0.616561830,10.096480370,0.018607080,0.057201090,0.025311110
1640834616.021340,0.261177150,0.190962750,9.934093480,-0.098998850,-0.015144050,0.039066380
1640834616.024580,-0.223373440,0.117326110,11.267030720,0.059774520,0.010415910,0.048848990
1640834616.026909,-0.021243100,0.162078410,10.045334820,0.197036560,0.018158550,0.007571280
1640834616.030979,0.045910140,0.350004520,10.245100020,0.143277620,-0.068035730,0.034824010
1640834616.032280,-0.440140160,0.263136390,11.003206250,0.009198490,0.050386780,0.057002900
1640834616.033870,-0.003683130,-0.501676440,10.136901860,0.004379450,0.014081600,0.024020670
1640834616.034530,-0.279150100,-0.578815700,11.099437710,0.196734070,-0.091613840,0.025098030
1640834616.040439,-0.156948820,0.083207550,10.324770930,0.240685060,0.011418760,-0.005839770
1640834616.045650,0.268078180,0.483287720,9.795306210,0.056961190,0.019127130,-0.001786650
1640834616.048660,-0.194337890,0.569834830,11.649199490,-0.019964580,-0.007331370,0.036352870
1640834616.049520,0.130467150,0.425144200,10.777997970,0.094351170,-0.005577510,0.003036860
1640834616.050660,0.354200960,0.368353250,10.328950880,0.253228780,-0.093340870,0.004409250
1640834616.053040,-0.034297920,0.854474600,10.905352590,0.215534870,0.012479720,0.013570490
1640834616.055860,0.101134140,0.941603900,10.151764870,-0.004038210,0.046455860,0.021016600
1640834616.060320,-0.012789550,0.328983520,10.954271320,-0.054188080,-0.087997320,0.043106080
1640834616.061420,-0.069656900,0.123555410,10.842187880,0.117579110,-0.014007090,0.015880160
1640834616.063079,0.197181080,0.183551520,10.061248780,0.241264700,0.020128490,-0.020484620
1640834616.065050,-0.253703560,0.462659690,11.353214260,0.144806470,-0.022187830,-0.010624530
1640834616.065539,-0.310534600,0.733707670,10.924548150,-0.042815520,-0.021621580,0.022310020
1640834616.069470,0.107373220,0.335342200,10.134643550,-0.060829520,-0.098337250,0.030009450
1640834616.073170,0.049888230,0.265394810,10.670449260,0.108820210,-0.018766520,0.007846950
1640834616.077649,0.256865170,0.659646870,10.175276760,0.199143630,0.084793580,-0.022779410
1640834616.081339,0.337767960,0.766453030,10.727914810,0.081230700,-0.017735360,-0.021009150
1640834616.081820,0.191192970,0.630889120,11.185939790,-0.067281720,-0.019875170,0.021159650
1640834616.082209,0.384940180,0.139812010,10.195735930,-0.040119890,-0.022900110,0.005371870
1640834616.083930,0.074499190,-0.222744210,10.696969990,0.135555860,-0.056676570,-0.017049910
1640834616.086259,-0.036754320,0.015089300,10.231962200,0.180540980,0.039674350,-0.016103680
1640834616.089100,0.162839620,0.105313820,9.890946390,0.053401300,0.040082630,-0.017315150
1640834616.091440,-0.179455830,-0.225131210,11.256120680,-0.017444790,0.020372860,-0.005200500
1640834616.093850,-0.110838400,-0.216780510,10.459091190,0.063258420,-0.010250510,-0.026661160
1640834616.094590,0.024670140,-0.006477910,10.103324890,0.188978030,-0.103789570,-0.037349760
1640834616.098820,-0.227410020,0.191797350,10.505307200,0.163286940,0.050014260,-0.033953790
1640834616.101070,-0.054286630,0.331962560,10.256640430,0.066499400,0.075455020,-0.044518700
1640834616.104080,-0.028786210,0.159100620,11.076579090,0.089125340,-0.041474410,-0.033357740
1640834616.106880,0.027900910,0.206638990,10.533614160,0.155673920,-0.019150970,-0.042119620
1640834616.111050,0.429668690,0.443789180,9.617238040,0.172494350,-0.016447900,-0.042583050
1640834616.111869,0.038224200,0.235049680,10.867155080,0.138311100,0.040109460,-0.022716820
1640834616.113829,0.016342790,-0.037308990,10.653030400,0.118237750,0.036653880,-0.039415070
1640834616.115820,0.234982550,-0.179049610,10.328042030,0.199647290,-0.073169170,-0.046947610
1640834616.123649,-0.133823660,0.161905570,10.648601530,0.203698860,-0.010819730,-0.063088520
1640834616.124349,0.056205210,0.640550020,9.922163010,0.080199540,0.053173310,-0.070981700
1640834616.124780,-0.211109090,0.636197510,10.927951810,0.051552060,-0.020071870,-0.057137010
1640834616.125209,-0.392818540,0.532031770,11.020412450,0.148248670,-0.021053850,-0.073531270
1640834616.132239,0.000234450,0.584222730,9.853729250,0.232113940,-0.054891410,-0.084210930
1640834616.140010,-0.083106290,0.928708610,10.549973490,0.173726680,-0.013893840,-0.065377350
1640834616.141480,0.022291060,0.992650270,10.464796070,-0.006242100,0.092321650,-0.047932580
1640834616.143299,0.419006970,0.606080590,10.498358730,-0.041836510,-0.036495930,-0.055038930
1640834616.146400,0.375019430,0.362421360,11.022385600,0.123357780,-0.010453160,-0.069408100
1640834616.147509,0.497942420,0.278220710,9.973773960,0.211420670,0.044155120,-0.115966800
1640834616.151180,0.226980480,0.442209900,10.548831940,0.113871710,-0.038166350,-0.102023800
1640834616.152160,-0.149241570,0.531072970,10.567457200,-0.050909820,0.018940870,-0.065581500
1640834616.153129,0.114343810,-0.003677890,9.748505590,-0.074033450,-0.001618270,-0.076355040
1640834616.154790,-0.016518430,0.016243150,10.675626750,0.104685140,0.030770900,-0.088474150
1640834616.155720,-0.131981790,0.261512910,10.387900350,0.223153870,0.075885680,-0.122001780
1640834616.159880,-0.027007180,0.366151570,10.284535410,0.101655720,-0.034174330,-0.127235030
1640834616.161700,-0.173872710,0.572216330,10.643047330,-0.055940460,0.019299990,-0.086730740
1640834616.164060,0.036182630,0.059060640,9.896906850,-0.039964910,0.028645990,-0.106118600
1640834616.165680,0.093635000,-0.139470500,10.422200200,0.129732500,-0.012549760,-0.143362580
1640834616.166450,0.138468980,0.371002230,10.214044570,0.220060380,0.075814140,-0.155165790
1640834616.168920,0.232118930,0.396007450,10.121721270,0.079214570,0.043478610,-0.140745950
1640834616.170009,0.045286460,0.163413850,10.945150380,-0.049178300,0.002557040,-0.108316540
1640834616.173820,0.020119950,-0.034127710,10.226027490,0.050437450,-0.000666080,-0.117294500
1640834616.174759,-0.046851640,-0.150191680,10.139512060,0.187125800,-0.048586720,-0.140164790
1640834616.180159,-0.072078460,0.326514420,10.139427190,0.172445190,0.062306230,-0.145417450
1640834616.181120,-0.174031700,0.545178290,10.256320000,0.057266650,0.080692760,-0.160041420
1640834616.184340,-0.236643780,0.373179760,11.044559480,-0.001899900,-0.015203660,-0.151208090
1640834616.189060,-0.013705920,0.532622520,10.255603790,0.082096440,-0.033201280,-0.153790410
1640834616.189520,0.023587780,0.614314080,9.979349140,0.154604030,-0.017960370,-0.170542300
1640834616.190230,0.049483980,0.806846080,10.307760240,0.080896910,0.084428500,-0.168485940
1640834616.194020,-0.010646110,0.716744780,10.585509300,0.010240080,0.026410820,-0.149250050
1640834616.194800,0.047889440,0.308373690,10.808753970,0.029495360,-0.055989630,-0.141783070
1640834616.200450,0.379981220,0.371845840,9.768000600,0.078812250,0.037065150,-0.153447660
1640834616.201700,0.181642740,0.466863540,10.205829620,0.079555820,0.024460260,-0.172472020
1640834616.203820,0.058005000,0.572856490,10.604376790,-0.012832880,0.050337620,-0.180929940
1640834616.204550,0.176817030,0.415038790,9.990860940,-0.029286740,0.020591920,-0.170680850
1640834616.212669,-0.166185420,0.086676050,10.803451540,0.071169440,-0.044406950,-0.181023790
1640834616.214840,-0.090994390,0.360055120,9.926139830,0.093862410,0.048592700,-0.199395450
1640834616.216120,0.029184540,0.637674630,9.562287330,0.015574690,-0.005888940,-0.210431230
1640834616.216930,-0.214681430,0.648614820,10.662969590,-0.080390270,0.058814880,-0.189100190
1640834616.219319,0.198989360,0.518187580,9.854356770,-0.060391440,0.091283020,-0.215169790
1640834616.220039,-0.031066550,0.129014450,10.743021970,0.092782070,-0.080335130,-0.225560340
1640834616.224150,-0.153866950,0.229172380,10.359995840,0.144885480,0.004406270,-0.214384510
1640834616.224900,0.186116170,0.306954830,9.156058310,0.010912120,0.016394260,-0.224788530
1640834616.230320,-0.290048840,0.090665870,10.829099660,-0.110524890,0.031684340,-0.212243210
1640834616.231340,-0.025305980,0.023854960,10.178951260,-0.050951540,0.084401670,-0.223565120
1640834616.234040,0.134497110,0.008302160,10.231299400,0.117917370,-0.095221400,-0.265641540
1640834616.235770,-0.160899010,0.372857900,10.575319290,0.148701670,-0.004319850,-0.228402050
1640834616.238850,0.251769780,0.705419900,9.239306450,-0.012072920,0.065888470,-0.232169080
1640834616.239960,-0.237838750,0.487579080,11.019857410,-0.102660070,-0.023616860,-0.233410330
1640834616.243889,-0.248608570,0.617191430,10.570866580,-0.036808850,0.012011830,-0.232908130
1640834616.244830,0.194808620,0.786514580,9.436397550,0.067582730,-0.085291260,-0.267402770
1640834616.249480,-0.314152390,0.959232150,10.711620330,0.032649940,0.007651750,-0.267675520
1640834616.250170,-0.045999660,1.053513410,9.809537890,-0.103744860,0.078615550,-0.262217220
1640834616.253850,-0.001241650,0.512464230,10.658963200,-0.121802080,-0.082151600,-0.253155830
1640834616.254860,-0.135425370,0.242455650,10.788416860,-0.030253830,-0.001575050,-0.242830810
1640834616.258750,0.368587290,0.377450850,9.307597160,0.008419150,-0.026009980,-0.264538790
1640834616.259680,0.049941930,0.463935050,10.470184330,-0.077191000,-0.028720500,-0.257727500
1640834616.264320,0.244302380,0.420979680,9.897242550,-0.185412170,0.078876320,-0.255982610
1640834616.266199,0.470739420,0.184845760,9.926230430,-0.130367260,-0.018794830,-0.272281440
1640834616.268819,-0.013636510,0.192371990,10.900794030,0.002039970,-0.008429590,-0.289644330
1640834616.269420,0.195213960,0.567830620,9.515378000,-0.020016730,-0.011342760,-0.318165120
1640834616.274680,-0.053235640,0.830244720,10.037818910,-0.154525060,-0.039528310,-0.289003550
1640834616.275380,-0.266635810,0.539742290,10.234574320,-0.232504310,0.064812610,-0.289228560
1640834616.279090,0.005693290,0.209152910,9.770501140,-0.128290070,-0.000061090,-0.317649540
1640834616.281679,-0.136515220,0.264598880,10.295885090,0.031171740,-0.009478630,-0.319276780
1640834616.285509,-0.007441010,0.374713990,9.680310250,-0.031150880,0.023131070,-0.320842860
1640834616.286290,0.072472160,0.231889100,9.981073380,-0.200474280,-0.010807810,-0.289273290
1640834616.288770,-0.028192050,-0.092143590,10.322337150,-0.202733320,0.036212800,-0.291465220
1640834616.289240,0.097886720,-0.489932120,9.991375920,-0.042903420,-0.030809640,-0.338815180
1640834616.293840,0.019429960,-0.093226560,10.083530430,0.075987000,-0.030480330,-0.351716640
1640834616.294720,0.070261040,0.620880010,9.631887440,-0.054767740,0.047066820,-0.356797900
1640834616.299219,-0.051728440,0.624646540,10.320511820,-0.249409690,-0.002467630,-0.327599050
1640834616.300690,-0.108930980,0.796379450,10.375640870,-0.205703120,-0.014044350,-0.318366380
1640834616.303860,-0.015031230,0.656636240,9.922523500,-0.028693680,-0.062756260,-0.352007240
1640834616.305729,-0.204273970,0.766088370,10.197093010,0.025376680,0.003264850,-0.353412330
1640834616.311309,-0.191742990,1.118843200,9.916374210,-0.101055210,0.023098290,-0.336427990
1640834616.312150,-0.217034530,0.551262970,10.340507510,-0.259470910,-0.053909420,-0.318779080
1640834616.314090,0.153883250,0.207959560,9.834159850,-0.224851120,0.008715690,-0.313745440
1640834616.314849,0.400484620,0.003484340,9.814332960,-0.045101340,0.029942400,-0.352299210
1640834616.318840,0.051843490,0.036588130,10.646119120,-0.023414190,0.010618570,-0.367824820
1640834616.319890,0.232039930,0.481750730,9.749509810,-0.161115870,-0.044043370,-0.341484040
1640834616.323779,0.097250620,0.118588040,9.892676350,-0.264288490,-0.065997240,-0.330622520
1640834616.324659,-0.047546530,-0.011210080,9.922184940,-0.198690590,0.042112180,-0.347492100
1640834616.328920,0.142200630,0.366776050,9.713164330,-0.039242210,-0.002659860,-0.380040740
1640834616.330350,-0.275849520,0.687938570,10.417739870,-0.066110510,-0.006192920,-0.373518560
1640834616.333789,-0.049435940,0.743009920,9.725041390,-0.225934400,0.019405780,-0.344690680
1640834616.335120,-0.154914200,0.204399930,10.291697500,-0.220063340,-0.047871460,-0.344268950
1640834616.342180,-0.381513210,-0.059906700,10.145284650,-0.096498440,-0.023420160,-0.368729320
1640834616.343580,0.208306430,0.129180650,8.965669630,-0.034683950,-0.037702920,-0.382334020
1640834616.345650,-0.131255950,0.325632010,10.261203770,-0.137488540,0.044889740,-0.370556090
1640834616.347930,0.074364730,0.147849710,10.121764180,-0.252601560,0.071543480,-0.362199600
1640834616.348690,0.184740530,-0.228717010,10.407575610,-0.137923670,-0.108751670,-0.373801590
1640834616.349079,-0.116673920,-0.014585270,10.288048740,0.012508040,-0.063264370,-0.385047530
1640834616.354130,0.239165540,0.272276190,9.003664020,-0.054559120,0.007358190,-0.392393770
1640834616.354910,-0.352504940,0.535983980,10.643776890,-0.188319390,-0.008220970,-0.372801720
1640834616.358739,-0.273593220,0.500725570,10.290267940,-0.221253920,0.010763110,-0.368593630
1640834616.359599,0.215977760,0.295683830,9.608032230,-0.094589590,-0.103721030,-0.385083200
1640834616.363819,-0.124402730,0.717527210,10.386430740,0.001002850,-0.005261600,-0.389520850
1640834616.365049,0.099728730,0.858550970,9.536281590,-0.123760100,0.067448620,-0.400653480
1640834616.369060,-0.085007560,0.667800780,10.573428150,-0.239610660,-0.101585690,-0.360320450
1640834616.369959,-0.176710980,0.370968520,10.350873950,-0.189864620,-0.049692380,-0.356937920
1640834616.373809,0.320691560,-0.043163810,9.213099480,-0.073878470,-0.047092140,-0.400680330
1640834616.374689,-0.102602230,0.343002320,10.396478650,-0.036634510,-0.013564530,-0.395214590
1640834616.378790,0.102381120,0.537811700,9.579971310,-0.183549540,0.046186150,-0.400558110
1640834616.379560,0.355047700,0.061294200,10.008707050,-0.269547130,-0.041089950,-0.383330910
1640834616.383730,-0.136493370,-0.042245850,10.777855870,-0.127165020,-0.004811580,-0.380903510
1640834616.384270,0.146849530,-0.025686380,9.340823170,-0.010304150,-0.094875690,-0.423899320
1640834616.388790,-0.058962610,0.234135270,9.727614400,-0.068220480,-0.086523600,-0.408937070
1640834616.389410,-0.092259780,0.477679730,9.505253790,-0.218804210,0.105489810,-0.402364190
1640834616.393760,0.105772530,-0.017982190,10.185266490,-0.231845710,0.011692940,-0.417268370
1640834616.394379,-0.276203990,0.018861540,10.958642010,-0.041730700,-0.068554280,-0.419382720
1640834616.398779,0.124330340,0.392314520,9.011375430,0.020617250,-0.085110960,-0.434969370
1640834616.399220,-0.033847210,0.336654720,9.632925990,-0.121484700,-0.040699540,-0.409378140
1640834616.403920,-0.411333650,0.256180080,10.284504890,-0.210447640,0.077620160,-0.391279250
1640834616.404709,-0.063839960,-0.162993340,9.898064610,-0.114455830,-0.088563580,-0.424392580
1640834616.408820,-0.266887840,-0.035496120,10.397511480,0.028249630,-0.119744260,-0.430342640
1640834616.410270,0.085992830,0.600257690,9.101483350,-0.020758810,0.007626410,-0.435516330
1640834616.414610,0.043958750,0.559281050,10.146828650,-0.184938310,-0.016044080,-0.425495240
1640834616.415320,-0.368829790,0.478786800,11.009289740,-0.188498230,-0.034970060,-0.410190280
1640834616.418880,0.196847770,0.337531240,9.390484810,-0.041939320,-0.123386100,-0.433178310
1640834616.419620,-0.009402690,0.467588070,9.988965990,0.026050210,-0.086238990,-0.437903400
1640834616.424690,-0.117928270,1.025742170,9.744165420,-0.108851490,0.045564760,-0.410535960
1640834616.425830,0.178800490,0.756765780,9.760435100,-0.267195700,-0.067870330,-0.401888790
1640834616.428700,-0.063051570,0.404593170,10.651964190,-0.200739550,-0.070245560,-0.398851990
1640834616.429030,0.218571440,0.231903450,9.642691610,-0.037071110,-0.025603180,-0.424399970
1640834616.433820,-0.006232590,0.254951780,10.129307750,0.005692240,-0.108335930,-0.438927170
1640834616.434670,-0.229744690,0.530587790,9.953895570,-0.154426690,-0.041085490,-0.408656950
1640834616.438799,0.149196590,0.297556190,9.265128140,-0.299744400,-0.038975480,-0.391557870
1640834616.439329,-0.020000220,-0.061330230,10.424282070,-0.198301720,-0.046341130,-0.401967850
1640834616.443940,0.062801430,0.043884820,9.794871330,-0.008255240,-0.016418100,-0.440362190
1640834616.444530,0.259068940,0.465953620,9.477133750,-0.000025330,-0.108596700,-0.435644450
1640834616.448760,-0.074740170,0.655553040,10.056938170,-0.190156710,-0.026124720,-0.393214820
1640834616.449200,0.188082220,0.255256830,9.640212060,-0.295674800,-0.009970370,-0.399471880
1640834616.454140,0.132942910,-0.059649040,10.293880460,-0.119410480,-0.081740340,-0.417970180
1640834616.455140,0.023005200,0.029375550,9.714068410,0.046412660,-0.021615630,-0.450244640
1640834616.459040,0.221185520,0.407424060,9.322257040,-0.041356680,-0.051122910,-0.433313880
1640834616.459869,-0.273961450,0.313916270,10.260441780,-0.208051530,-0.024938590,-0.402180910
1640834616.463830,-0.184893160,-0.212235410,9.751878740,-0.222657670,-0.053896020,-0.416955410
1640834616.464429,-0.202882950,-0.224179160,9.941802980,-0.012727080,-0.138244060,-0.430430560
1640834616.470520,-0.252568480,0.138795290,9.582926750,0.055746750,-0.014019010,-0.453715090
1640834616.471160,0.063723580,0.503885450,9.680459980,-0.101740660,0.010107460,-0.448049600
1640834616.473840,-0.209145110,0.557395640,10.807931900,-0.199560850,-0.037796800,-0.408856660
1640834616.474880,0.084664560,0.258619820,9.761931420,-0.141359900,-0.117033740,-0.428927000
1640834616.478900,0.249960970,0.344827150,9.531220440,0.021389130,-0.130905230,-0.421008560
1640834616.479780,-0.143885660,0.692137660,9.798964500,0.012348600,0.017264490,-0.437699350
1640834616.483739,-0.024508740,0.711008250,9.858716010,-0.169099880,-0.043258070,-0.423792060
1640834616.484310,-0.147027610,0.564395840,10.486804960,-0.203105810,-0.110656030,-0.381934640
1640834616.489090,0.169089840,0.126833260,9.592341420,-0.109681470,-0.043405590,-0.429412750
1640834616.489580,0.151407750,0.299118460,9.895714760,-0.010322040,-0.057999800,-0.436134670
1640834616.493739,-0.266595690,0.661729810,10.169269560,-0.058294830,-0.053709750,-0.433293010
1640834616.494220,0.067929960,0.316339760,9.368723870,-0.211492210,-0.083982970,-0.428204300
1640834616.498750,-0.127499120,0.178794970,10.093383790,-0.181382890,-0.091937190,-0.395043220
1640834616.499169,-0.058039820,0.011751580,9.581782340,-0.048254430,-0.041739640,-0.426946610
1640834616.503749,0.206129340,0.122450850,9.481945990,-0.022883710,-0.078295170,-0.439649850
1640834616.504300,-0.044537180,0.683527110,10.116830830,-0.122420490,-0.019718710,-0.413328470
1640834616.508950,0.204972390,0.151979280,9.769539830,-0.221338900,-0.028733910,-0.417599170
1640834616.509740,-0.066863220,-0.236664710,10.545390130,-0.110791620,-0.138178470,-0.405944910
1640834616.514619,-0.032053180,-0.042838260,9.319188120,0.057853770,-0.093695540,-0.445993300
1640834616.515440,0.097510000,0.096284640,8.792978290,-0.017185510,-0.066335510,-0.449651480
1640834616.519820,-0.256961940,0.577793060,10.148171420,-0.189334170,0.004136560,-0.404480100
1640834616.521180,-0.011446960,0.073055450,9.873434070,-0.200018330,-0.004534420,-0.418567750
1640834616.523710,-0.240370810,-0.295047550,10.597658160,0.004567210,-0.191900150,-0.432249960
1640834616.524279,-0.263548200,0.271804360,9.607075690,0.134919580,-0.109797720,-0.436390940
1640834616.528800,-0.032255460,0.362949310,8.871040340,-0.043840710,-0.067685550,-0.442200990
1640834616.529300,-0.382299210,0.583132980,10.465520860,-0.226335260,-0.028367350,-0.405368270
1640834616.535240,-0.070016080,0.368507270,9.868960380,-0.170335220,-0.042282060,-0.429478350
1640834616.536250,0.056376220,0.148440730,10.099454880,0.028158730,-0.218309510,-0.441283050
1640834616.539130,0.066430850,0.757788660,9.648888590,0.101333860,-0.073879940,-0.424657700
1640834616.539630,0.131120820,0.720677730,9.267764090,-0.098407290,-0.034880650,-0.439886840
1640834616.543800,-0.265074520,0.437367440,10.886049270,-0.223271590,-0.132228450,-0.388918820
1640834616.544479,-0.014694850,0.161016290,9.667162900,-0.119183940,-0.111971800,-0.402061640
1640834616.548750,0.197379170,-0.003447860,9.414653780,0.030784310,-0.174993310,-0.439247550
1640834616.549120,-0.001774180,0.549987140,9.891484260,0.009366870,-0.028344990,-0.417354730
1640834616.554479,0.162744970,0.619011700,9.338527680,-0.155642630,-0.038003920,-0.433184240
1640834616.556409,-0.151617680,0.145372080,10.696253780,-0.198072240,-0.176937910,-0.402784440
1640834616.558719,-0.110843340,0.062376990,9.637953760,-0.047233700,-0.109887140,-0.402627890
1640834616.559090,0.044813730,0.033838890,9.070736890,0.046607860,-0.180479880,-0.440380010
1640834616.564370,-0.118530440,0.360621870,9.901226040,-0.025397540,-0.047256060,-0.405246110
1640834616.565230,0.322343350,0.523675200,9.209262850,-0.183990600,0.024990740,-0.404751300
1640834616.568889,0.178922980,-0.080381510,10.800168990,-0.160576450,-0.132717220,-0.398786430
1640834616.570479,0.065820370,-0.131815480,10.059474950,0.031554700,-0.106999280,-0.403288040
1640834616.574250,0.240090070,0.099199200,8.804952620,0.096970800,-0.208620770,-0.438475670
1640834616.575400,-0.231410730,0.137077970,9.708496090,-0.035002830,-0.096404560,-0.395803210
1640834616.578810,0.101983610,0.287253860,8.988965030,-0.193215910,0.042745470,-0.410530000
1640834616.579180,-0.074383360,-0.185480740,10.679511070,-0.092637520,-0.093445170,-0.426776710
1640834616.583969,-0.320741210,-0.080103870,10.729689600,0.107231760,-0.130264480,-0.419715110
1640834616.585270,0.201444420,0.466241510,8.727977750,0.115965330,-0.200288030,-0.427971870
1640834616.588960,-0.269862470,0.418274760,9.765305520,-0.068204100,-0.083358570,-0.385737360
1640834616.591009,-0.117315840,0.356549800,9.530096050,-0.176425290,0.016285480,-0.380431150
1640834616.593750,0.020850110,-0.016028760,10.258209230,-0.008693340,-0.141628090,-0.403943690
1640834616.594210,-0.142515670,0.132203710,10.400191310,0.147433610,-0.142692070,-0.413455130
1640834616.598860,0.443063080,0.826851550,8.768487930,0.056521600,-0.109139080,-0.403350590
1640834616.599510,-0.130348350,0.660337630,10.276213650,-0.138033940,-0.077307210,-0.378151210
1640834616.603730,-0.137958770,0.431129400,10.256041530,-0.181205590,-0.072996340,-0.361026880
1640834616.604679,0.049405710,0.174173850,9.707412720,0.048093500,-0.193116080,-0.389921670
1640834616.608719,-0.315560130,0.247524750,9.949134830,0.143358130,-0.146953760,-0.401762190
1640834616.609190,0.168617010,0.925146400,8.924901960,-0.027504570,-0.051900760,-0.378847180
1640834616.613770,-0.056956060,0.650973260,10.196395870,-0.217688050,-0.069366380,-0.365753500
1640834616.614460,0.150860670,0.195137410,10.328063960,-0.176389530,-0.078521650,-0.361554350
1640834616.618759,0.428215980,0.038708970,9.539363860,0.094433150,-0.138415400,-0.388145510
1640834616.619239,-0.087196260,0.112481180,9.889207840,0.153855990,-0.154411790,-0.400428560
1640834616.623920,0.180741970,0.522146220,9.017194750,-0.070914630,-0.097398470,-0.355198980
1640834616.624490,0.003393090,0.163787980,9.526213650,-0.220571470,-0.070840110,-0.340695710
1640834616.629089,0.029184100,-0.416698250,10.245807650,-0.132830460,-0.050038110,-0.374822380
1640834616.629720,0.096939380,-0.291803540,10.024099350,0.170947580,-0.081662830,-0.392430960
1640834616.633710,-0.228455480,0.159784330,9.896940230,0.181141540,-0.174631220,-0.398878810
1640834616.634280,-0.032567020,0.482828740,9.171478270,-0.093011570,-0.118239250,-0.353151620
1640834616.638820,-0.157683950,0.222790450,9.250749590,-0.202175990,-0.035706160,-0.354824900
1640834616.639530,-0.091450770,-0.352335900,10.014891620,-0.023317340,-0.065988310,-0.392313300
1640834616.643750,-0.021947880,0.007465930,10.029558180,0.256618860,-0.098766400,-0.405560520
1640834616.645429,0.028608050,0.664448620,9.394821170,0.187151180,-0.144547250,-0.395876260
1640834616.649129,0.174233120,0.651589450,9.662359240,-0.144366930,-0.076790150,-0.338453050
1640834616.649840,-0.067298120,0.300301130,9.995768550,-0.174906890,-0.028611720,-0.336571130
1640834616.653890,0.036818010,-0.334652330,10.043772700,0.096854560,-0.154426710,-0.386798380
1640834616.654680,-0.072642270,0.084910570,9.813681600,0.311559500,-0.130131890,-0.411285520
1640834616.658949,-0.071987470,0.970049740,8.917501450,0.111582890,-0.094254320,-0.393825800
1640834616.659459,-0.065940980,0.704110380,9.939888000,-0.225974630,-0.056625900,-0.351196560
1640834616.663760,-0.214589670,0.462787780,10.375014310,-0.158402320,-0.041469940,-0.341676210
1640834616.664280,0.008937530,0.130289470,9.985136030,0.161144170,-0.201632130,-0.389984310
1640834616.668730,-0.175372170,0.451430200,9.972719190,0.280471180,-0.140637160,-0.387646260
1640834616.669139,-0.026745730,1.159932140,8.863550190,0.020276010,-0.061668450,-0.360695990
1640834616.673669,0.067137450,0.639638360,10.074536320,-0.278891620,-0.087262690,-0.322270420
1640834616.674440,0.169134080,0.196147200,10.221918110,-0.143717230,-0.036434830,-0.327888130
1640834616.678810,0.578426120,0.070507390,9.284885410,0.172400490,-0.140234830,-0.395880700
1640834616.679809,0.176982950,0.422630880,10.145625110,0.212754340,-0.096069280,-0.397530260
1640834616.683960,0.095577870,0.954430280,9.124876980,-0.065372890,-0.046920780,-0.350137050
1640834616.684600,0.162501780,0.199002520,9.779680250,-0.269010660,-0.146605090,-0.319284140
1640834616.688720,-0.096263680,-0.204013360,10.239985470,-0.079941750,-0.014068190,-0.331421230
1640834616.689289,0.302519800,0.042934710,8.951090810,0.193777700,-0.069206950,-0.377140970
1640834616.693770,-0.078627650,0.332319440,10.295829770,0.152464200,-0.084792080,-0.373055040
1640834616.694350,0.026544340,0.651736680,9.382469180,-0.105308010,0.038988890,-0.321929160
1640834616.699000,0.142549660,-0.166915770,9.754886630,-0.175413470,-0.124797220,-0.336359380
1640834616.700179,-0.342278990,-0.379981580,10.514086720,0.051200380,-0.082425780,-0.354804100
1640834616.703680,0.361729770,0.188271970,8.240964890,0.200037690,-0.063867870,-0.391839530
1640834616.704210,-0.031194310,0.429560070,10.005685810,0.060583660,-0.039576000,-0.381554720
1640834616.708799,-0.105175060,0.578320260,10.038643840,-0.125707720,0.080886510,-0.336603910
1640834616.710820,0.330041320,0.060943830,9.638957020,-0.069138420,-0.152809920,-0.350101320
1640834616.713750,-0.281801670,-0.034253340,10.647347450,0.156143320,-0.118519370,-0.345443190
1640834616.714759,0.219220500,0.528648080,8.454542160,0.176802260,-0.013944510,-0.363746260
1640834616.718710,-0.173106850,0.562156260,10.036001210,-0.004109740,-0.066374260,-0.364260440
1640834616.719130,-0.338002090,0.546706140,10.395319940,-0.124144580,0.050936640,-0.322803880
1640834616.723670,0.369205270,0.289692220,9.339426990,-0.016972420,-0.105243940,-0.361219110
1640834616.724099,-0.151617810,0.355418950,10.707850460,0.151614860,-0.104017570,-0.367042510
1640834616.728760,0.349615510,0.866914090,8.796919820,0.090153520,0.040084130,-0.369994370
1640834616.729529,0.158412190,0.708379630,9.880218510,-0.070883340,-0.078220680,-0.349609640
1640834616.733860,-0.242347510,0.415975780,10.739196780,-0.108492380,-0.014981630,-0.306357440
1640834616.734570,0.503129840,0.182034150,8.887846950,0.013972820,-0.074550510,-0.337781040
1640834616.738700,-0.121716020,0.236241470,10.252499580,0.121213500,-0.079265240,-0.359709590
1640834616.739050,0.090720250,0.692033530,9.211994170,0.002127890,0.068077470,-0.357052740
1640834616.743759,0.309960420,0.525509600,9.549762730,-0.122542690,-0.051634020,-0.344316750
1640834616.744520,-0.182856440,0.071598360,10.726745610,-0.071889160,-0.014856460,-0.330230590
1640834616.748790,0.385058640,0.157878280,9.082221030,0.063550480,-0.030867760,-0.356258450
1640834616.749330,0.053005810,0.331920740,9.815285680,0.100891290,-0.094717730,-0.353604560
1640834616.753690,0.190879730,0.560949270,9.318719860,-0.075323900,0.086589180,-0.323648750
1640834616.754449,0.516690850,0.339148250,9.429762840,-0.135979060,0.048196330,-0.329250100
1640834616.758669,-0.057896250,-0.072223830,10.801158910,-0.007496780,-0.008267170,-0.336232810
1640834616.759029,0.309426490,0.237067700,9.121786120,0.113616890,-0.039397170,-0.359961360
1640834616.763749,-0.089752430,0.379679530,9.395983700,0.065946600,-0.055974730,-0.349527660
1640834616.764259,-0.336601850,0.243812680,9.626878740,-0.112944840,0.086945300,-0.333862010
1640834616.768770,-0.120197210,0.023701260,9.674168590,-0.075885660,0.029107930,-0.351598860
1640834616.769349,-0.319240180,-0.134591590,10.347189900,0.092083230,-0.039505970,-0.367936550
1640834616.773690,0.174982590,0.498282430,9.198447230,0.099563610,0.027449430,-0.364013020
1640834616.774129,0.060467390,0.739681960,9.699244500,-0.023169820,0.009392200,-0.325585900
1640834616.778890,0.002229800,0.406571420,10.079519270,-0.127977150,0.045470890,-0.330997940
1640834616.779549,0.200436730,0.349030110,9.771457670,0.005738440,-0.017380720,-0.345334410
1640834616.783720,0.061162180,0.414919200,9.851698880,0.121487690,-0.042535360,-0.348642500
1640834616.784420,0.257620570,0.811211590,9.215824130,0.019213560,0.057412690,-0.354354080
1640834616.788770,-0.073567950,1.039411780,10.130577090,-0.130698100,0.039745870,-0.338409840
1640834616.789759,-0.110736470,0.640566170,10.292804720,-0.174047100,-0.003096460,-0.333285420
1640834616.793759,-0.002817130,0.390347750,9.677517890,-0.001496080,-0.032104560,-0.347828870
1640834616.794200,-0.257842270,0.508642140,9.783514020,0.103731480,-0.022012000,-0.366824900
1640834616.798800,-0.116376270,0.835301520,9.425395970,-0.073428440,0.054152310,-0.338201170
1640834616.799320,-0.093292850,0.795536700,9.976534840,-0.224564970,0.004981460,-0.292959810
1640834616.803789,0.300101640,0.276902680,10.020726200,-0.203043220,0.041174890,-0.300817220
1640834616.804360,0.500295760,0.110318470,9.825431820,-0.001126530,0.062635550,-0.328324790
1640834616.808869,0.171578850,0.489809870,10.251970290,0.085912650,-0.014095010,-0.334005060
1640834616.809810,0.196862830,0.638084530,9.405459400,-0.137060880,-0.004291530,-0.308743120
1640834616.813710,0.123921490,0.513140080,9.341268540,-0.269362360,0.005678830,-0.287145380
1640834616.814550,0.100556750,0.097880680,9.769798280,-0.178253650,0.088219350,-0.306935610
1640834616.818699,0.084619480,0.075071420,9.831174850,0.012101230,0.085297220,-0.333754750
1640834616.819180,-0.090413120,0.576033350,10.064935680,0.045363610,-0.006304680,-0.320744510
1640834616.823820,0.035084570,0.456994350,9.676301000,-0.182679310,0.057257720,-0.287675860
1640834616.824430,-0.274420590,-0.002408950,9.945474620,-0.236503820,0.026626890,-0.257425040
1640834616.828689,-0.172269170,-0.325658110,9.644083020,-0.051905210,-0.010776520,-0.282019410
1640834616.829069,0.056063620,-0.211620900,9.145335200,0.072607380,0.049500160,-0.311823130
1640834616.833920,0.034403960,0.385258700,9.458299640,-0.005742910,0.107599790,-0.297716260
1640834616.835000,0.191140280,0.223813550,10.125659940,-0.184628380,0.093524160,-0.282478360
1640834616.838950,-0.023589200,0.000124720,10.484468460,-0.122424960,-0.002862510,-0.273582370
1640834616.839840,0.220333160,0.204086480,9.296508790,0.048375130,-0.048011540,-0.286378000
1640834616.843930,0.064530470,0.451017920,9.514139180,0.042347610,0.068585570,-0.301088420
1640834616.844740,-0.295902100,0.883349240,9.889530180,-0.085335980,0.134761630,-0.272671910
1640834616.848670,-0.128838150,0.573430180,10.123786930,-0.149767100,0.004214050,-0.267525050
1640834616.848960,-0.328297140,0.303536830,10.328910830,-0.049155960,-0.003752110,-0.261564580
1640834616.853780,0.084370780,0.616745950,8.830760000,0.039196020,0.021314620,-0.270748140
1640834616.854620,-0.180721790,0.531882580,10.121027950,-0.049445040,0.055781020,-0.265446310
1640834616.859120,-0.262135860,0.671950700,10.141394620,-0.143527980,0.118097670,-0.218544920
1640834616.861150,0.163857190,0.241365790,9.846703530,-0.126367820,-0.060056150,-0.239084680
1640834616.863710,-0.149583490,0.191678450,10.523206710,-0.019291050,0.004364550,-0.231994660
1640834616.864179,0.356080590,0.762407720,8.560894010,-0.035913290,0.068332250,-0.232034920
1640834616.868729,0.098811530,0.561629350,10.163326260,-0.146286160,0.014773010,-0.225110370
1640834616.869220,-0.055600660,0.487467910,10.294945720,-0.157970160,0.135183320,-0.192508070
1640834616.873760,0.293080360,0.089684350,9.435466770,-0.051639980,-0.051379210,-0.227460270
1640834616.874620,-0.352044700,0.084395350,10.675879480,0.030949720,-0.050957500,-0.212217910
1640834616.879099,0.213593200,0.683814230,8.396659850,-0.094556820,0.106665490,-0.199688970
1640834616.879599,0.090103140,0.377861590,9.826532360,-0.231327120,0.043073300,-0.185847280
1640834616.883659,-0.272627200,0.077387550,10.930903430,-0.153735280,0.148484110,-0.164622080
1640834616.884070,0.390540330,0.000801250,9.118076320,0.026981540,-0.015643240,-0.209122940
1640834616.888939,-0.282668350,0.121638280,10.315696720,0.077441340,-0.099347550,-0.172537570
1640834616.889890,0.074195300,0.479584250,8.850153920,-0.126092150,0.131928920,-0.155524920
1640834616.893890,0.077818890,0.009163710,9.484928130,-0.234965980,0.079274180,-0.156547110
1640834616.895000,-0.454458920,-0.265453220,11.152490620,-0.063170490,0.059641900,-0.148050490
1640834616.898680,0.329536940,0.116917630,9.182833670,0.108645840,0.002616640,-0.181336690
1640834616.899150,0.008929640,0.413557950,9.625909810,0.052250930,-0.016763810,-0.153227150
1640834616.903770,-0.066288670,0.639328120,9.851732250,-0.161291660,0.146618490,-0.113600500
1640834616.904610,-0.103129480,0.241624030,10.054300310,-0.179448740,0.056730210,-0.127309580
1640834616.910040,-0.308929620,0.012277050,10.255427360,0.028835240,-0.050410630,-0.125427560
1640834616.910930,-0.001366000,0.620711570,9.318074230,0.124913460,-0.010553000,-0.132523490
1640834616.914120,-0.153717520,0.806997900,9.383544920,-0.050650530,0.115141260,-0.107331580
1640834616.914840,-0.162381810,0.656557680,10.281961440,-0.213134290,0.074605650,-0.070199370
1640834616.918670,-0.286466240,0.281247140,10.978956220,-0.119745740,-0.010415910,-0.076021250
1640834616.918990,-0.055219580,0.165895920,9.430103300,0.061947110,-0.037805740,-0.098717210
1640834616.923720,-0.080340150,0.739798250,9.505811690,0.055952380,-0.058013210,-0.103683780
1640834616.924480,-0.256894530,0.933252270,9.759861950,-0.173011440,0.136817990,-0.065474220
1640834616.928730,0.260485020,0.670804140,9.448676110,-0.276358430,0.025568910,-0.040797890
1640834616.929149,-0.114884970,0.251703560,11.160985950,-0.094708800,-0.039394200,-0.036914650
1640834616.933730,0.192876700,0.276491370,9.370829580,0.063778460,0.056555870,-0.072388360
1640834616.934340,0.070187530,0.606979790,9.467201230,0.004395840,-0.098724660,-0.064831960
1640834616.938720,-0.452634600,0.565536560,10.421052930,-0.222434100,0.058944520,-0.007779900
1640834616.939070,0.279087840,0.304200200,8.949298860,-0.292606680,0.063677130,-0.014033910
1640834616.943910,-0.070040150,-0.073863890,10.530518530,-0.074663740,-0.038866700,-0.017821790
1640834616.944970,0.125283990,0.155576840,9.821484570,0.059631470,0.085353850,-0.034248830
1640834616.948680,0.389822540,0.498588710,9.187914850,-0.032038990,0.009737910,-0.029182430
1640834616.949090,-0.226096320,0.184955280,10.603132250,-0.225715380,0.014010070,0.033363700
1640834616.953680,-0.004218920,-0.125309850,9.805848120,-0.205342490,0.016905370,0.025001170
1640834616.954210,-0.040179820,-0.367783930,9.467633250,0.005118550,-0.026904050,-0.013674800
1640834616.958760,-0.121062750,0.126523290,9.666079520,0.076690320,0.038252770,-0.016559660
1640834616.959260,-0.045244650,0.681400180,9.661860470,-0.081010160,0.099001830,0.015397370
1640834616.963729,0.024209280,0.307048110,9.925677300,-0.237898530,0.045256320,0.046528880
1640834616.965740,-0.096633610,0.030684610,10.623015400,-0.089007620,-0.024624170,0.064076480
1640834616.968760,-0.077092290,0.044453640,9.491254810,0.093406450,-0.002603230,0.038304930
1640834616.969200,0.032470270,0.299124570,9.170576100,0.058579440,-0.025628510,0.040173530
1640834616.973690,-0.410791720,0.513542710,10.275469780,-0.123736270,0.086216640,0.060871250
1640834616.974160,-0.016795660,0.189149590,9.734278680,-0.206302140,0.060698400,0.049476330
1640834616.978860,-0.037906420,0.141900820,10.470988270,-0.017300250,-0.078043350,0.060464450
1640834616.979580,-0.114651110,0.494688150,9.993588450,0.092223290,0.023458900,0.048629940
1640834616.984120,0.198996900,0.715268370,9.264661790,-0.019122660,0.040358310,0.066539650
1640834616.985910,-0.273784130,0.691923200,10.532253270,-0.160139830,0.013695660,0.103543710
1640834616.988690,-0.081593610,0.273267000,10.103183750,-0.146821160,-0.009012220,0.109821560
1640834616.989320,0.113891270,0.270529900,9.528793330,0.013655420,-0.025722390,0.087970480
1640834616.993810,-0.152277830,0.678241370,9.945468900,0.015175340,0.015935300,0.089639430
1640834616.994590,-0.091922300,0.852903540,10.110592840,-0.144448880,0.043350470,0.105524060
1640834616.998860,-0.043660740,0.564831550,9.925314900,-0.201627630,0.022816660,0.129970910
1640834616.999899,-0.193767790,0.180905950,10.573630330,-0.095900890,-0.067538030,0.126077230
1640834617.003840,-0.048575510,0.458745660,9.730917930,0.027760870,0.017872450,0.121319320
1640834617.004650,0.180980350,0.731056870,9.109914780,-0.089076170,-0.003258880,0.127056260
1640834617.008700,0.184673520,0.532620250,10.359755520,-0.229910050,0.066928570,0.182008790
1640834617.009189,0.461291700,0.084817240,9.792119030,-0.181056560,0.126320140,0.156682730
1640834617.013909,0.176067860,-0.228803810,10.601610180,0.001841780,-0.097492330,0.137844680
1640834617.014819,0.002400750,0.349773410,9.706681250,0.033499300,-0.030715770,0.168745190
1640834617.018710,0.153453310,0.358511980,8.693113330,-0.172537570,0.021560490,0.164121400
1640834617.019209,-0.229903770,0.079007430,10.387894630,-0.251902640,0.093084570,0.206278260
1640834617.025750,-0.039213050,-0.164093930,10.135192870,-0.085382170,0.118032120,0.162374970
1640834617.026260,-0.083197750,-0.063382250,10.338044170,0.097399950,-0.067685550,0.138598680
1640834617.028659,0.046613170,0.639617260,9.380819320,0.014166540,0.007656220,0.192076010
1640834617.028990,0.072821560,0.387447660,9.416380880,-0.216482620,0.079937290,0.196485270
1640834617.034060,-0.211112250,-0.030308040,10.330261230,-0.196064990,0.074613090,0.211851300
1640834617.035140,0.260718730,-0.246196170,9.751426700,0.046829880,-0.006750230,0.195793820
1640834617.038760,-0.012338200,0.012642320,10.100716590,0.155119600,0.026617950,0.170178730
1640834617.039490,0.258785310,0.720755700,9.272866250,-0.048829620,0.102755430,0.223478690
1640834617.043710,-0.082654420,0.314351770,10.608490940,-0.252610530,0.029391060,0.245142010
1640834617.044309,-0.287889900,0.136081190,10.287800790,-0.134328020,0.049468870,0.234574090
1640834617.048849,0.109052430,0.193927350,9.404397010,0.107131900,-0.075034800,0.197821870
1640834617.049450,-0.472118470,0.490329890,10.254560470,0.114294890,0.074379150,0.197875500
1640834617.053740,-0.058038010,1.070809840,9.255680080,-0.115250060,0.102062530,0.229157510
1640834617.054360,-0.282166810,0.542175470,10.953346250,-0.253987340,-0.013256070,0.268192620
1640834617.058689,-0.027383120,0.355470210,10.043200490,-0.122274470,0.064894560,0.275395810
1640834617.059090,0.296169610,0.240870430,9.514001850,0.080043080,-0.042912370,0.226263700
1640834617.063900,-0.334623720,0.280121240,10.461377140,0.078263870,0.049430130,0.250761150
1640834617.064380,0.195805680,0.586009320,9.166707990,-0.129543240,0.053772330,0.277908150
1640834617.068719,0.001307830,0.043504170,10.393795010,-0.235360880,-0.000800190,0.303569440
1640834617.069340,0.279485670,-0.051789690,10.004516600,-0.109666590,0.109550360,0.302930210
1640834617.076300,0.392208310,0.083829550,9.920656200,0.067660220,0.008438530,0.250819330
1640834617.077100,-0.051205510,0.272202400,10.262063980,0.046542300,0.045576700,0.266099070
1640834617.078860,0.121624460,0.444059580,9.571207050,-0.106714670,0.024284420,0.308804210
1640834617.079360,-0.409608510,0.000688560,10.243225100,-0.164213780,0.017750270,0.320528450
1640834617.083670,-0.028871320,0.015098830,9.351437570,-0.058276960,0.048157580,0.315137240
1640834617.084149,-0.030972250,0.252307590,9.907461170,0.048461550,0.045654180,0.297760990
1640834617.088760,-0.018737580,0.405228610,9.912082670,-0.004854800,0.153861950,0.317820940
1640834617.089520,0.097891000,0.170755460,10.344917300,-0.073131930,0.025242570,0.331969590
1640834617.094610,-0.317688440,-0.304406050,10.655050280,-0.047062330,-0.023312860,0.340978770
1640834617.095350,0.187351210,-0.237927090,8.752614020,0.046880550,-0.022058190,0.326624600
1640834617.098680,-0.163338900,-0.176283870,9.712854390,0.065039110,0.058490040,0.315493350
1640834617.099020,-0.173185360,0.164075340,10.048779490,-0.042614340,0.172890690,0.318935540
1640834617.103740,-0.123317040,0.092257150,10.455815320,-0.022925440,-0.020366910,0.322489440
1640834617.104290,-0.322448850,0.021340580,10.516469000,0.058358900,-0.062620650,0.331422630
1640834617.108790,0.129186290,0.527442040,9.080113410,0.079219050,0.032022600,0.343275070
1640834617.109510,-0.274740100,0.574290390,10.008448600,0.009822850,0.073365890,0.354041220
1640834617.113950,-0.180387790,0.453040330,10.482222560,-0.049881640,0.043612730,0.355804000
1640834617.115219,-0.033031470,0.352835600,10.104521750,0.038471820,-0.015108290,0.353282780
1640834617.118660,-0.025348100,0.266808750,9.781887050,0.099280490,-0.043380270,0.343933790
1640834617.118960,0.021301250,0.519673290,9.887080190,0.052079570,0.036129360,0.360974730
1640834617.124410,-0.268351020,0.644894300,10.035194400,-0.063568380,0.061288490,0.355054500
1640834617.126010,-0.134561080,0.277908950,10.403404240,-0.081016130,-0.038109730,0.368502830
1640834617.128800,-0.203177540,0.098676130,10.355674740,0.075617430,0.010071700,0.371703590
1640834617.131610,-0.111533400,0.349139630,9.497804640,0.111949450,-0.014115870,0.339822500
1640834617.133669,-0.149899890,0.628652990,10.119808200,-0.000368060,-0.035254650,0.380544300
1640834617.134220,-0.057601630,0.644400600,9.713468550,-0.140410660,0.060035290,0.397206840
1640834617.138860,0.371021720,0.198118090,9.752259250,-0.095969450,0.010532140,0.396777750
