timestamp,accel_x,accel_y,accel_z,gyro_x,gyro_y,gyro_z
1640791813045489920,-0.092450110,0.237620060,9.942863460,0.013399130,0.001902880,0.003820660
1640791813046419968,-0.078627620,0.233284760,9.380559920,-0.043088200,-0.012154880,0.006648900
1640791813047040000,-0.119705540,0.164562580,9.208919530,-0.045679500,-0.004011390,-0.010833150
1640791813048049920,-0.086816590,0.514708160,9.174913410,-0.040847070,0.023074450,-0.030595070
1640791813048950016,-0.126927120,0.504609530,9.646633150,-0.049182770,0.017687680,-0.010719900
1640791813051620096,-0.081672810,0.390932230,10.089750290,-0.020052490,0.061529880,0.011992460
1640791813056619776,-0.173588870,0.503043650,10.196478840,-0.011478370,0.015601520,0.011093910
1640791813059609856,-0.292608830,0.432582710,10.139621730,-0.051465640,-0.039665410,0.042365490
1640791813061329920,-0.086407030,0.226578520,9.227117540,-0.081343950,0.007578730,0.038111210
1640791813063360000,-0.084262540,-0.068107590,9.125779150,-0.033345820,0.034184750,0.002196430
1640791813067169792,-0.064483430,-0.035873480,9.340657230,-0.000417230,0.068275640,0.002360340
1640791813068480000,-0.042575380,0.000194680,9.399268150,-0.034768880,0.033725800,-0.015138090
1640791813069039872,-0.236841470,-0.145462870,10.023312570,-0.048592680,-0.037674610,-0.003327430
1640791813076320000,-0.124427050,0.121546510,9.589697840,-0.052618990,-0.011147560,-0.004467370
1640791813077100032,-0.081112110,0.099221450,9.578280450,-0.038658090,0.020718580,-0.002841650
1640791813077469952,-0.111443090,0.036152460,10.062339780,0.015303490,0.093664220,0.017026060
1640791813078909952,-0.031567060,0.287734330,9.768348690,0.044088070,0.050444900,0.013336540
1640791813081719808,-0.336783950,0.256555740,9.868637080,-0.014953320,-0.071245430,0.019808120
1640791813084909824,-0.295954260,0.312038840,8.912918090,-0.058582430,-0.038921840,0.027589500
1640791813086269952,-0.393005280,0.294808950,9.015067100,-0.042733550,-0.017698110,-0.010186430
1640791813092669952,-0.349181740,0.424968060,9.968153950,-0.019665060,0.053580110,0.000204150
1640791813096249856,0.067643570,0.527553140,10.042095180,-0.008103250,0.108841060,0.005151330
1640791813096769792,0.019125900,0.185964670,10.896569250,0.003220140,0.016506020,0.002971290
1640791813097339904,0.115063290,0.371248630,10.041460040,-0.011622910,-0.024841730,0.017924600
1640791813099119872,-0.020654250,0.230738890,9.056641580,-0.046996770,-0.079995390,0.009472670
1640791813102520064,-0.258450570,0.038070760,9.079390530,-0.048851970,-0.011029840,0.011523070
1640791813106690048,-0.127450410,0.325478640,8.688991550,-0.032174590,0.066661830,0.009632110
1640791813109859840,-0.165352300,0.081257300,9.934338570,-0.029586260,0.038041180,-0.000113250
1640791813112079872,-0.009140240,0.177795800,10.266047480,-0.017611680,0.081031030,0.005809960
1640791813113390080,-0.004536370,0.170077070,10.199030880,-0.007197260,-0.007815660,-0.007139150
1640791813114509824,-0.194074810,0.086669770,10.198199270,-0.039580480,-0.065603860,0.000947710
1640791813117629952,0.041253690,0.197342620,8.729820250,-0.040426850,0.023648140,0.021797420
1640791813119239680,-0.097353740,-0.211158160,9.277504920,0.011086460,0.048924990,0.009776650
1640791813121319936,-0.153653290,0.000295470,9.695487020,0.028589370,0.094120210,0.020487600
1640791813124239872,-0.136837230,0.124837460,9.588353160,0.014796850,-0.008416180,0.012913350
1640791813127800064,-0.297940610,-0.136283980,10.089170460,-0.013555590,-0.053234400,-0.010330980
1640791813129319936,-0.155878650,0.325023410,9.251369480,-0.012786690,0.024470690,-0.023053590
1640791813131500032,-0.135328280,0.256644960,9.733799930,-0.003468990,0.029759110,-0.016891950
1640791813134759936,-0.015118730,0.152949690,10.157167430,0.022698940,0.106434530,-0.001053510
1640791813137110016,0.090413740,0.422754050,9.797520640,0.069217380,0.041973590,0.002229210
1640791813139170048,-0.366397980,0.255663070,10.244044300,0.018031900,-0.067673620,0.017313660
1640791813141649920,-0.381608900,0.416500870,8.924733160,-0.041735170,-0.058977300,0.027932230
1640791813143960064,-0.445047110,0.332197610,9.053065300,-0.029593710,-0.027343630,0.004673000
1640791813146380032,-0.388166040,0.322019550,10.000084880,-0.014460090,0.093121830,0.015783310
1640791813149390080,0.116427100,0.594357850,10.056032180,0.015686450,0.103150310,0.009199980
1640791813152439808,0.220675900,0.289265250,10.947653770,0.013473630,0.023302440,0.002269450
1640791813153910016,0.397863060,0.426921250,9.884243970,-0.022451580,0.005331640,0.002536180
1640791813156469760,0.193153830,0.477028730,9.087164880,-0.051544610,-0.062000750,-0.007373090
1640791813158969856,-0.148433770,0.103820530,9.083313940,-0.066956870,-0.004209580,0.020681320
1640791813161270016,-0.165100230,0.173963200,8.798930170,0.001649560,0.064051160,0.015883150
1640791813164049920,-0.434294340,0.116414080,10.102957730,0.006873910,0.031688810,0.016005340
1640791813166469888,-0.288392840,0.059958440,10.250089650,-0.037868320,0.059351330,0.034500660
1640791813170099968,-0.154027700,0.041669850,10.172769550,-0.017178060,0.012041630,-0.010296700
1640791813171330048,-0.207849030,0.097856630,10.093629840,-0.037039820,-0.007069110,-0.029452150
1640791813174710016,0.074164220,0.252910470,8.848423000,-0.010694560,0.024580960,-0.000770390
1640791813176920064,0.003211400,-0.008794790,9.224659920,0.018471480,0.039607290,-0.007294120
1640791813179319808,-0.116653410,0.088619460,9.554688450,0.013069810,0.057534880,0.010277330
1640791813181739776,-0.149915550,0.172668960,9.749002460,0.003625450,-0.023463370,0.019368530
1640791813184179968,-0.237812850,-0.073524240,10.075122830,-0.020703670,-0.018072120,-0.008326770
1640791813186359808,-0.098382170,0.227194070,9.691730500,-0.003027920,0.045952190,-0.020901860
1640791813188969728,-0.163625360,0.362229080,10.034177780,0.007705390,0.043840710,-0.021538140
1640791813191749888,-0.216013370,0.214864100,9.887488370,-0.002470610,0.031948090,-0.005999210
1640791813193929984,-0.202192400,0.344983970,9.431576730,0.044776500,-0.029189880,-0.005008280
1640791813196239872,-0.483742860,0.487463180,9.448533060,0.001020730,-0.054435430,-0.006385150
1640791813199379968,-0.361043510,0.580297050,9.137193680,-0.077973310,-0.005613270,0.009986760
1640791813201319936,-0.315212190,0.419858280,9.948463440,-0.040934980,0.053270170,0.002585350
1640791813204369920,-0.219404240,0.463819500,10.587192540,-0.011251870,0.033494830,-0.011228030
1640791813211500032,0.237889080,0.571923850,10.200587270,0.005194550,-0.003504750,0.013236700
1640791813212549888,0.289333610,0.301918150,9.867554660,-0.030227010,0.010217730,-0.004628300
1640791813213559808,0.281379520,0.302703260,9.299794200,-0.080738950,0.002859530,-0.009381770
1640791813215249920,0.203701390,0.272133890,8.987483020,-0.065499540,0.001427530,0.007030370
1640791813216389888,-0.126612220,-0.100148630,9.300275800,-0.050459810,0.010831660,-0.005969410
1640791813219309824,-0.208569180,0.065604220,9.684751510,0.001671910,0.025440750,0.008833410
1640791813221220096,-0.509927810,0.142844420,10.353066440,-0.023269660,0.024263560,0.011062620
1640791813224400128,-0.458932520,-0.011420650,10.331519130,-0.086869310,-0.013594330,0.001908840
1640791813226199808,-0.188700350,0.155774370,9.749090190,-0.032877920,0.027358540,-0.012077390
1640791813228920064,-0.175285100,0.143695340,9.425311090,-0.010408460,0.039379300,-0.037838520
1640791813231479808,0.018993390,0.224341540,9.208515170,-0.003321470,0.021053850,-0.011913480
1640791813234220032,0.052975420,0.258573410,9.237769130,-0.001719590,0.015170870,-0.003850460
1640791813236259840,-0.100160200,0.097201180,9.710906980,-0.040103500,-0.028948490,-0.000086430
1640791813241519872,-0.070080810,0.196667190,9.949647900,-0.035750860,-0.000970070,0.016248220
1640791813243919872,-0.131286470,-0.010373320,10.102746010,-0.020252160,0.046060980,0.008429590
1640791813244599808,-0.205714820,0.014936240,10.500766750,0.021217770,0.040455170,-0.006568430
1640791813246369792,-0.272356480,0.433079420,9.893930440,0.017552080,-0.002177060,-0.010269880
1640791813250180096,-0.405860420,0.317841620,9.364031790,-0.043505430,-0.065080840,-0.012651090
1640791813255149824,-0.282844720,0.505058530,8.959449770,-0.047440830,-0.010445710,-0.008097290
1640791813256450048,-0.348707350,0.727759420,9.249119760,-0.054833290,0.027123100,-0.010356310
1640791813256839936,-0.184666600,0.485095560,10.119776730,-0.051605710,0.021542610,0.007478890
1640791813259069952,0.116327300,0.484523650,10.209190370,0.003260370,0.054678320,0.007954240
1640791813261359872,0.031854610,0.358458370,10.464503290,-0.016340610,-0.008419160,-0.004225970
1640791813263969792,0.102486920,0.294741150,10.067832950,-0.061944130,-0.042237350,0.024944540
1640791813266619904,0.039071360,0.088207630,9.079694750,-0.060646230,-0.020612770,0.015707310
1640791813268859904,-0.030212560,-0.106721790,9.087789540,-0.042501090,-0.000357630,0.004279610
1640791813271579904,0.020399140,0.128655330,9.142669680,-0.014643370,0.073793520,0.007121270
1640791813274329856,-0.111876430,-0.028370630,9.756624220,-0.031687320,0.035624200,-0.002788010
1640791813276259840,-0.202820690,0.026598710,10.435223580,-0.031925740,0.004240870,-0.008735060
1640791813279759872,-0.280414670,0.464328860,9.968033790,-0.051450740,-0.028848650,-0.012218950
1640791813281479936,-0.221494020,0.200818940,9.745209690,-0.078335410,-0.034117700,0.000198190
1640791813284019968,-0.114666280,0.106531530,9.483562470,0.008739530,0.079959640,0.005538760
1640791813286759936,-0.233664780,0.238118080,9.450910570,0.045350200,0.047494460,-0.001831350
1640791813289039872,-0.292180120,0.142195420,9.872296330,-0.016729540,-0.037190310,0.022059680
1640791813291819776,-0.186634780,0.183982570,9.206467630,-0.058645010,-0.043317680,-0.005005300
1640791813294779904,-0.168901150,0.169609110,9.541189190,-0.072695310,-0.025862460,-0.019659100
1640791813296550144,-0.080444160,0.173123270,10.204927440,-0.027412180,0.070652370,-0.012107190
1640791813298949888,0.045303290,0.181978170,10.251861570,0.043389200,0.060974060,-0.015561280
1640791813301609984,0.042556230,0.197088900,10.528177260,0.041213640,-0.028517840,-0.002177060
1640791813303910144,-0.032658000,0.509949680,9.502573010,-0.037059190,-0.021333990,0.004051630
1640791813306700032,-0.273293910,0.332846430,9.117987630,-0.100244570,-0.056423240,0.015079970
1640791813308960000,-0.457921360,0.206699100,9.458781240,-0.036019090,-0.020690260,0.016938150
1640791813311369984,-0.384611820,0.539088430,9.325421330,0.031413140,0.011603540,0.001007320
1640791813313979904,-0.131534960,0.519228640,10.197779660,-0.037473440,0.031200060,0.007082520
1640791813316349952,0.102976660,0.298764770,10.551977160,-0.073027610,0.085069230,0.008890030
1640791813319459840,0.220950870,0.164602060,10.403192520,-0.041417780,-0.008976460,-0.025539110
1640791813322219776,0.192723540,0.067687260,9.818431850,-0.017963350,-0.063622000,-0.012592970
1640791813324299776,0.172734930,-0.010918960,8.516616820,-0.001537800,-0.008997320,0.005586450
1640791813326919936,-0.003703390,-0.130079300,8.939724920,-0.018328430,0.028243670,0.026142600
1640791813329030144,-0.290594820,-0.173573420,9.875512120,-0.027309360,0.074245040,0.043864550
1640791813331329792,-0.404087510,-0.217136830,10.213507650,-0.004121660,-0.010158120,0.012615320
1640791813334300160,-0.331099600,-0.024897340,10.318422320,0.013905770,-0.041463970,-0.023446980
1640791813336580096,-0.179493990,0.388530970,9.638097760,-0.001730020,0.036621090,-0.030985480
1640791813338959872,-0.031988400,0.422158570,9.693416600,-0.024148820,0.057776280,-0.027431550
1640791813341760000,-0.081444160,0.311221450,9.848139760,0.024591390,0.027596950,-0.008212030
1640791813344079872,-0.008562690,0.454349990,9.241348270,0.069458790,-0.041827560,0.012037160
1640791813346279936,-0.007048180,0.459851060,9.373929020,-0.000724200,-0.007663670,0.017526750
1640791813349169920,-0.204527410,0.264312860,9.856910710,-0.053493670,0.043042000,0.017476080
1640791813351749888,-0.148274870,0.223557110,10.347650530,-0.013810400,0.025874380,0.009627640
1640791813353890048,-0.112380040,0.350754290,10.389731410,0.002315640,0.018666690,-0.006099040
1640791813356259840,-0.003456440,0.335328610,9.959539410,-0.009857120,0.022383040,-0.009906290
1640791813359190016,-0.009917140,0.290403130,9.641325950,-0.009492040,0.026716290,-0.014638900
1640791813361619968,-0.140008750,0.366560310,9.356071470,-0.025503340,-0.024423010,-0.022174420
1640791813365419776,-0.153490280,0.485670090,9.133267400,-0.049914420,0.002552570,0.001874570
1640791813366200064,-0.112781700,0.366134820,9.559647560,-0.047631570,0.055699060,0.004559760
1640791813370169856,-0.263807650,0.331278230,10.455856320,-0.015331810,0.032655890,0.004525480
1640791813372000000,-0.017198450,0.393360350,10.358773230,-0.018474460,0.026828060,0.025080150
1640791813374359808,0.106134030,0.033886090,9.965194700,-0.029583280,0.018118320,0.004643200
1640791813376659968,0.111976390,0.016045890,9.656795500,-0.016139450,0.030471390,-0.009000300
1640791813379770112,0.228516060,0.167529870,8.943825720,-0.039638570,0.044046340,-0.016067920
1640791813381249792,-0.073449900,-0.200882420,9.305342670,-0.037503240,0.009770690,-0.003404920
1640791813384280064,-0.160641400,-0.143605550,9.531888010,0.022740660,0.027787680,0.001057980
1640791813386550016,-0.356514330,0.072983320,9.953231810,0.012287500,0.004129110,0.001816450
1640791813389179904,-0.369093750,0.065386340,10.480642320,-0.028257070,0.031219420,0.020836290
1640791813391990016,-0.211494010,0.106070240,10.192685130,-0.005680320,0.073160230,-0.000923870
1640791813394049792,-0.203107800,0.104473990,10.037798880,0.041717300,0.011378530,-0.021281840
1640791813396239872,-0.033395490,0.297288180,9.278663640,0.058498990,0.026454040,0.000961130
1640791813398979840,-0.130240720,0.308879880,9.051706310,0.030949710,-0.005459780,-0.019270180
1640791813402619904,-0.294273760,0.340130150,9.617535590,-0.010305640,-0.026595590,-0.008577110
1640791813404359936,-0.074173530,0.620456220,9.515590670,-0.035540760,0.029896200,0.004088880
1640791813411089920,-0.028425260,0.364849870,10.389421460,-0.028772650,0.055612630,0.002431870
1640791813413889792,0.034323210,0.323162260,10.853626250,0.045683980,0.105993450,0.022163990
1640791813414579968,-0.035034310,0.582982120,10.346789360,0.044757140,-0.016638640,-0.004050140
1640791813414919936,-0.188949670,0.405690640,9.606165890,-0.031845280,-0.085486460,0.023904440
1640791813416420096,-0.122488270,0.350125940,8.481200220,-0.057660050,0.006616120,0.009621680
1640791813418969856,-0.325614420,0.269515540,9.102606770,-0.049923370,0.020223860,-0.016069410
1640791813421399808,-0.201411130,0.248385430,9.912650110,-0.023981930,0.068852310,0.010374190
1640791813424310016,-0.001338150,0.265036170,10.150435450,0.014254450,0.075195720,-0.003291670
1640791813426609920,-0.089567450,0.054847520,10.984538080,-0.005002320,-0.014133750,-0.001740460
1640791813428829952,0.172535170,0.259779330,9.906997680,-0.040994590,-0.001496080,0.012671950
1640791813431330048,0.113920930,0.045332740,9.274588580,-0.044728820,-0.001692770,0.009022650
1640791813433949952,-0.009064680,-0.097220080,9.322134970,0.001299380,0.052858890,0.027552250
1640791813436319744,-0.012297840,0.183323140,8.993668560,0.033274290,0.055727360,-0.000262260
1640791813439739904,-0.369709250,0.048456870,9.905796050,-0.010566410,-0.009208920,-0.008925800
1640791813445789696,-0.376815740,0.192457880,9.929959300,-0.027775760,0.021982190,-0.007851420
1640791813448009984,-0.549803610,0.371108590,10.113945960,-0.029803810,-0.029608610,-0.047154720
1640791813448809984,-0.353525640,0.363093850,10.270772930,-0.039148330,0.007754560,-0.008872150
1640791813449309952,0.147611080,0.313217790,9.462163930,0.030870740,0.127409410,0.020477180
1640791813456179968,-0.014003530,0.075931810,10.398308750,0.063562400,0.046209990,0.004331770
1640791813457769984,0.117086250,0.306215290,9.762222290,0.018642850,-0.008240340,0.039500000
1640791813460059904,0.045653050,0.237079100,8.964305880,-0.041276220,-0.059708960,0.028212370
1640791813462240000,-0.271451620,0.137157070,9.729868890,-0.061811510,-0.013665850,0.003425780
1640791813463079936,-0.176253140,0.555938600,9.570219990,-0.027248270,0.066426400,0.005421040
1640791813464499968,-0.180739250,0.413834540,10.335750580,0.002881880,0.043521830,-0.007735190
1640791813466279936,-0.029688850,0.461767610,10.554339410,0.003778930,0.077298280,0.001150370
1640791813469399808,0.068529800,0.610445920,9.810733800,-0.003415350,0.007213650,0.004203620
1640791813472549888,-0.167741120,0.217853160,9.705977440,-0.059410930,-0.059443710,0.007838010
1640791813475579904,0.009647580,0.143546400,8.562376020,-0.038076930,0.025562940,0.039745860
1640791813477239808,-0.241370410,-0.125023170,9.392732620,0.024245680,0.051313630,0.020529330
1640791813480229888,-0.335651400,-0.210060050,10.310898780,0.002920630,0.046706200,0.022354720
1640791813483089920,-0.044632390,-0.008882520,9.837332730,-0.001572070,0.029331450,0.013308230
1640791813483879936,-0.214862750,-0.147340420,10.482204440,-0.016494090,0.010332470,-0.023370980
1640791813486749952,-0.056299540,0.356715920,9.761703490,-0.028468670,0.012144440,-0.018514690
1640791813489339904,0.062384150,0.345532660,9.115206720,0.008277600,0.002895300,-0.004194680
1640791813491309824,-0.000763520,0.123941110,9.575237270,0.033083560,0.066864490,0.008481740
1640791813494759936,0.068847810,0.490452620,9.503438000,0.049690900,0.081199410,0.026322900
1640791813496259840,-0.277326200,0.363894100,10.389052390,-0.003419820,-0.018630920,0.027464330
1640791813498939904,-0.280591790,0.340034840,9.974661830,-0.060680520,-0.016389790,0.027550760
1640791813501699840,-0.305508760,0.345421640,9.695698740,-0.002756710,-0.007346270,-0.005106630
1640791813504070144,-0.335223320,0.307860580,10.061231610,0.004461410,0.035767260,-0.017072260
1640791813508169984,0.057783190,0.521925630,9.604043960,0.004631280,0.093874350,0.002542140
1640791813510479872,0.050658340,0.356862570,10.216074940,-0.005048510,0.055380170,-0.010955330
1640791813511279872,0.103817280,0.403731970,9.812829970,-0.059083100,-0.006385150,-0.003713370
1640791813513900032,0.270971540,0.374267520,8.973547940,-0.040471550,-0.016395750,0.017599760
1640791813516790016,-0.010717070,0.005924490,9.558205600,-0.016745920,0.065374380,0.023643670
1640791813519439872,-0.132301270,0.126403090,9.886896130,-0.004048650,0.075988470,0.031024220
1640791813522060032,-0.200167540,0.092085880,10.351684570,-0.003279750,0.020678340,0.032055380
1640791813523939840,-0.170713980,-0.138018920,10.096973420,-0.043317680,0.033877780,0.010049340
1640791813526739712,-0.081591670,0.017043010,9.608742710,-0.007894640,0.045315920,-0.024721020
1640791813528950016,-0.275302830,0.158444050,9.674101830,0.011105840,0.045229490,-0.039598350
1640791813531229952,-0.210182880,0.272003560,9.197031970,-0.014114380,0.018751620,-0.021918120
1640791813534419968,-0.173580680,0.272109840,9.418702130,0.015106800,0.031192600,0.010718410
1640791813537580032,-0.255303710,0.281989630,9.879464150,-0.010164080,0.049039720,0.019903480
1640791813538899968,-0.082224200,0.356937110,10.152438160,-0.003892180,0.031530860,0.048993530
1640791813541959936,-0.046561690,0.150615170,10.425151820,0.023148960,0.073279460,0.042319310
1640791813544039936,-0.076601650,0.222218130,10.181340220,0.009118020,0.024086240,0.002498920
1640791813546200064,-0.062228010,0.405667540,9.699073790,-0.001838800,-0.010940430,0.008028750
1640791813548979968,-0.238854770,0.436081890,9.279924390,-0.036121910,0.025050350,-0.020077830
1640791813552470016,-0.292172010,0.640004870,9.385400770,-0.050158810,0.013092160,-0.029005110
1640791813555849984,-0.349605470,0.805940690,9.747457500,-0.043602290,0.026398900,-0.009267030
1640791813556419840,-0.195638060,0.591041390,9.868973730,-0.062781570,0.042797630,0.014232100
1640791813559099904,-0.113722080,0.337066980,10.430140500,-0.001338120,0.062239180,0.048665700
1640791813561740032,-0.190671550,0.250114680,10.378596310,-0.002875920,0.023056570,0.047560040
1640791813563920128,-0.006506840,0.067787550,9.777420040,-0.063468520,-0.035578010,0.049722200
1640791813566449920,0.059652980,-0.240500030,9.385601040,-0.055255000,0.041182340,0.027553740
1640791813569360128,-0.045080010,-0.215204670,9.314948080,-0.024762750,0.043269980,-0.032007690
1640791813575490048,-0.063255110,0.021291250,9.590552330,-0.006507340,0.008003410,-0.028131910
1640791813577080064,-0.099824830,0.197599570,9.577244760,-0.032217800,0.042092800,-0.020964440
1640791813579099904,-0.220346630,0.339086120,10.045546530,-0.061848770,-0.002218780,-0.023733090
1640791813580619776,-0.200914840,0.424099980,10.236856460,-0.033286220,0.005434450,0.024817880
1640791813581270016,-0.105249070,0.242227810,9.733637810,-0.001074370,0.039006770,0.033317510
1640791813583930112,-0.061717830,0.046120300,10.083105090,0.036148730,0.042596460,0.032062830
1640791813586720000,-0.222046140,0.128610540,9.906801220,0.026342270,0.055541090,0.030264250
1640791813589040128,-0.442254070,-0.020620710,9.622700690,-0.033222140,-0.067655750,-0.002668800
1640791813592140032,-0.460189760,-0.053974640,9.488757130,-0.022202730,-0.065733490,-0.015926360
1640791813593869824,-0.388270970,0.294605580,9.250797270,-0.006449220,0.027377910,-0.039123000
1640791813596230144,-0.170379280,0.536622940,10.177039150,-0.027342140,0.046642120,-0.012458860
1640791813599119872,0.139880080,0.475172640,10.662515640,-0.009937590,0.108246510,0.030523540
1640791813601409792,0.274124000,0.447757540,10.448410030,0.010783970,0.011159480,0.017496940
1640791813612039936,0.162328380,0.431006580,10.158612250,0.008897480,-0.076316300,0.044320520
1640791813612969984,-0.020588340,0.380004050,8.877080920,-0.023427610,-0.038394320,0.036960840
1640791813613379840,-0.257552800,0.275819330,8.958673480,-0.059618060,-0.019390880,0.016830860
1640791813614810112,-0.394527520,0.184773770,9.720708850,-0.041015450,0.065650050,0.024954980
1640791813615559936,-0.235189410,0.169956910,9.920907020,-0.012081860,0.058747830,0.003159050
1640791813616179968,-0.139254570,0.082303200,10.725315090,0.004880130,0.008133050,-0.013178590
1640791813619309824,-0.057429700,0.234265600,10.153388980,-0.013028090,0.015498700,-0.011201210
1640791813621229824,0.101384850,0.194187270,9.436922070,-0.063191350,-0.035421550,-0.007937850
1640791813624310016,0.053044080,-0.086265570,9.411191940,-0.019098810,0.027805570,0.025540590
1640791813626220032,-0.080575570,-0.028060670,9.137052540,0.044709460,0.043323640,0.025549540
1640791813628989952,-0.276127070,0.046953480,9.962628360,0.030665100,-0.027082860,0.020259620
1640791813631300096,-0.376195190,0.074712090,10.045424460,-0.026510660,-0.004808600,0.020958490
1640791813634759936,-0.239632900,0.229261770,9.820661540,-0.033083560,-0.003935400,-0.009757280
1640791813639439872,-0.204653530,0.433232900,10.423813820,-0.017800930,0.029835110,-0.020481650
1640791813641499904,0.007685490,0.555707510,9.969862940,0.003165010,0.056591640,-0.004041190
1640791813645839872,0.141170890,0.529187920,9.905054090,0.033591690,-0.005574520,-0.007283690
1640791813648409856,-0.009573190,0.624824400,9.681349750,-0.011540950,-0.019194190,-0.000213090
1640791813649989888,-0.025375740,0.508562090,9.077013970,-0.056120750,-0.014495850,0.020925700
1640791813650480128,-0.265062420,0.228693050,9.876592640,-0.054539750,-0.000953670,0.020311770
1640791813651259904,-0.370717590,0.189664410,10.084769250,-0.011704860,0.022362170,0.018782920
1640791813654340096,-0.169553860,0.197077240,10.128617290,0.000716750,0.012619790,0.014446680
1640791813656420096,-0.156480150,-0.038732280,10.394373890,-0.022591650,0.032787020,0.004500150
1640791813659069952,0.020765990,0.051061040,9.830263140,-0.014916060,0.018614530,-0.013729930
1640791813661319936,0.183397290,0.188680600,9.430978780,-0.033558900,-0.012916320,-0.014317030
1640791813664160000,0.117623150,0.087309750,9.274686810,-0.030550360,0.022394950,0.000217560
1640791813666220032,0.107835930,0.165536870,9.440982820,0.012582540,0.040067730,0.007613000
1640791813669309952,-0.226192620,0.169568690,10.179001810,0.016352540,0.006648900,0.022014980
1640791813671259904,-0.333456610,0.094006000,10.124830250,-0.008264180,-0.023902950,0.019180770
1640791813674039808,-0.156666460,0.139942510,9.840997700,-0.007134680,0.016278030,-0.001420080
1640791813679689984,-0.233549950,0.204857320,9.972627640,-0.012917820,0.039389720,-0.016489620
1640791813681339904,-0.081864430,0.285168230,9.806230550,-0.001803040,0.053860250,-0.008712710
1640791813682669824,-0.120532910,0.209945260,9.764311790,0.032769150,0.008217990,-0.004683440
1640791813683939840,-0.303603350,0.120299160,9.759243010,0.040367250,-0.040937960,0.004816060
1640791813686640128,-0.171339420,0.336878810,9.333779340,-0.001034140,-0.028914220,0.012889510
1640791813689080064,-0.289075910,0.255460650,9.889300350,-0.042472780,0.019522010,0.019451970
1640791813691299840,-0.227357820,0.239887300,10.488928790,-0.010138750,0.060322880,0.010646880
1640791813694080000,-0.054432900,0.559640880,10.360755920,0.026267770,0.019182260,0.000149010
1640791813696760064,-0.118933780,0.382142900,10.329851150,0.020511450,-0.034800180,0.021508340
1640791813699089920,0.102637030,0.423435600,9.324542050,0.006870930,-0.008417670,0.004033750
1640791813701269760,0.047936920,0.552686510,9.048921590,-0.045543910,-0.018876790,-0.013636050
1640791813704219904,-0.000907390,0.253952030,9.469606400,-0.057888040,0.044929990,0.011412800
1640791813706209792,0.113067800,0.114985200,9.687768940,0.009641050,0.074872370,-0.002911690
1640791813708930048,-0.253016020,0.007254820,10.768820760,0.037105380,-0.012834370,-0.004142520
1640791813711979776,-0.224404320,0.090535980,10.293189050,-0.003658240,-0.025320060,0.023441020
1640791813715579904,-0.256008650,-0.083649540,9.674746510,-0.040014090,-0.033262380,0.002878900
1640791813716509696,-0.330209050,-0.210885610,9.678869250,-0.009174650,0.017942490,-0.010769070
1640791813719480064,-0.132820960,0.112961250,9.136251450,0.032970310,0.069195040,-0.010684130
1640791813721789952,-0.285918240,0.001575360,9.876029010,0.046117610,-0.015179810,-0.014436250
1640791813725539840,-0.267618980,0.192905170,9.982532500,0.047189010,-0.033034390,-0.004106760
1640791813727299840,-0.147035960,0.638438340,9.557817460,-0.027528410,-0.066965820,-0.007432700
1640791813728889856,-0.104557040,0.334285800,10.262712480,-0.063315040,0.010691580,0.008983910
1640791813731360000,0.250546630,0.339495330,10.135705950,0.035217410,0.127583770,0.008018320
1640791813733939968,0.046547730,0.487781790,10.679614070,0.093989060,0.005501510,-0.009523330
1640791813736780032,-0.115669410,0.470144990,10.180798530,0.024396180,-0.067818160,0.021813810
1640791813738859776,-0.111251080,0.486240770,8.636415480,-0.038063530,-0.088290870,0.011487310
1640791813742779904,-0.432334240,0.250374050,9.182566640,-0.073216860,-0.039958970,0.004290040
1640791813743899904,-0.212369070,0.267006640,9.491407390,-0.034400820,0.107242190,0.002714990
1640791813746209792,-0.144862490,0.103083510,10.376573560,0.058902800,0.055904690,-0.013525780
1640791813748839936,-0.031609660,0.068025560,11.119659420,0.061717630,0.002597270,-0.003840030
1640791813752419840,0.307648780,0.392068000,9.869170190,-0.038446490,-0.001913310,0.005912780
1640791813754020096,0.112398470,-0.187128920,9.767823220,-0.065821420,-0.046521430,0.028909740
1640791813756229888,0.175243440,-0.565140900,9.116395950,0.054588910,0.045962640,0.022260840
1640791813759089920,0.180279300,-0.475376700,8.740004540,0.154046730,0.050458310,-0.004099310
1640791813763109888,-0.126128900,-0.610968950,10.095529560,0.109657660,0.043798990,0.001785160
1640791813763859968,-0.000023560,-0.469697920,9.962837220,0.059531630,0.063706930,0.003753600
1640791813766240000,-0.264910790,-0.175293920,10.434934620,0.046278540,-0.045396380,-0.008858740
1640791813769100032,-0.220008860,0.002654440,10.305454250,0.064070520,0.028543180,0.015209620
1640791813771719936,-0.027340390,0.286399160,9.376244540,0.168022500,0.095929210,0.002548100
1640791813774609920,-0.357129540,0.587370280,10.306140900,0.195106860,0.036704550,0.013302270
1640791813776259840,-0.257272330,0.867814180,9.684340480,0.095096240,0.025910140,0.044322030
1640791813778820096,-0.278460060,0.651232780,9.296019550,0.055818260,-0.046324730,0.034926840
1640791813781209856,-0.299178660,0.491771460,9.849509240,0.066192430,0.008133050,0.032797450
1640791813784199936,0.064501370,0.472226830,9.536831860,0.106321280,0.112245980,0.027984380
1640791813786209792,0.084145200,0.016788130,10.605606080,0.146766020,0.072123110,0.007858870
1640791813789110016,0.273185610,-0.034043760,10.458221440,0.143517570,0.064556300,-0.007537010
1640791813791299840,0.327139740,0.165452360,9.456835750,0.075705350,-0.007300080,-0.014686580
1640791813794050048,-0.047581150,-0.022692700,9.614074710,0.011771920,0.000901520,0.016364460
1640791813796219904,-0.286065580,-0.130754740,9.155728340,0.096930570,0.057436530,0.023071470
1640791813798830080,-0.525537190,0.013787710,9.631479260,0.183729830,0.003865360,0.018031900
1640791813801719808,-0.584666490,0.252584100,10.112267490,0.135371090,0.039061910,0.018028910
1640791813803899904,-0.255940770,0.412511170,9.812813760,0.077928610,0.070212790,0.001445410
1640791813806759936,-0.178858500,0.455895720,10.494876860,0.053137540,0.048781940,-0.003901120
1640791813808859904,0.093315260,0.512871560,10.008404730,0.083819030,0.052121290,0.006999080
1640791813811259904,0.272647560,0.386504470,9.404580120,0.166316350,0.007562340,0.003127750
1640791813813829888,0.029665820,0.410328890,9.529803280,0.148093720,0.019569700,0.013552610
1640791813816219904,-0.040207960,0.456067920,9.365652080,0.061896450,0.023135550,0.021500890
1640791813819150080,-0.238359210,0.182374480,10.000486370,0.025343900,0.019273160,0.010554490
1640791813823419904,-0.431075220,0.191999170,10.368208890,0.063675640,0.028558070,-0.015470390
1640791813824450048,-0.385495870,0.383518930,10.280647280,0.115396080,0.024054940,-0.023420150
1640791813826210048,-0.391661320,0.435897530,10.238969800,0.081712000,0.025671720,-0.008872150
1640791813828829952,-0.140295490,0.500149070,9.685674670,0.053575640,0.019361080,-0.009660420
1640791813831219968,0.045575500,0.622927840,9.346241000,0.032900270,0.027006870,0.000655650
1640791813834259968,0.163847040,0.529393850,9.327383040,0.003239510,0.041373070,0.030775370
1640791813836369920,0.137914140,0.187211990,9.803655620,0.076043610,0.060839950,0.029738250
1640791813839869952,-0.003927730,0.238918560,10.231276510,0.104361770,0.022244460,0.025027990
1640791813841299968,-0.008544530,0.217356190,10.277297020,0.040180980,-0.014081600,0.030407320
1640791813843889920,0.029575790,-0.036449750,9.917860980,0.006447730,0.066809360,0.005823370
1640791813846200064,-0.120847720,-0.024667270,9.678536420,0.031079350,0.065827370,-0.032697620
1640791813848849920,-0.268219230,0.016223270,9.690425870,0.092214350,0.042425100,-0.044430790
1640791813851739904,-0.366693170,0.229886520,9.204494480,0.091460330,-0.004126130,-0.029519200
1640791813854019840,-0.480229020,0.326098320,9.353158950,0.037036840,-0.033725800,0.004570190
1640791813856289792,-0.349364010,0.360846160,9.852156640,0.009039040,0.069041560,0.031386320
1640791813858990080,-0.133330550,0.244704630,10.336443900,0.031691790,0.091868640,0.040298700
1640791813861219840,-0.054559480,-0.057693690,11.104059220,0.139127670,0.058801480,0.028066340
1640791813863859968,0.049082860,0.265615580,10.169738770,0.145110500,0.013738870,0.003089010
1640791813866200064,-0.122050240,0.426441910,9.410577770,0.028099120,-0.075690450,0.003416840
1640791813869009920,-0.131453320,0.305577190,9.023815160,-0.027447940,-0.006937980,0.004163390
1640791813871449856,-0.123228380,0.525328640,8.883437160,0.009873510,0.063852970,-0.024408100
1640791813874509824,-0.184735040,0.680443940,10.304391860,0.064687440,0.057750950,-0.013320150
1640791813876279808,-0.068147410,0.648083090,10.697260860,0.065286460,0.094074030,0.014182930
1640791813878870016,-0.104770760,0.532772480,10.579941750,0.031152370,-0.014548000,0.003686550
1640791813881249792,-0.273944530,0.358442340,10.387637140,-0.005470220,-0.048084560,0.021526220
1640791813884199936,-0.209998640,0.164924230,8.976283070,-0.008402760,-0.009360910,0.026467440
1640791813886449920,-0.243695120,-0.094423640,9.102642060,0.041322410,-0.001665950,0.015419720
1640791813888939776,-0.085014700,-0.043826940,9.413261410,0.048337880,0.104095050,0.005984310
1640791813891320064,0.071573110,0.046836470,9.742151260,0.014713410,0.063432750,0.008732080
1640791813893879808,0.043918820,-0.084778070,10.841282840,0.013995170,-0.004492700,0.002068280
1640791813896209920,0.186534760,0.267082360,10.038088800,0.011895600,0.002464650,-0.011482830
1640791813898850048,0.180256690,0.340789410,9.757889750,0.011667610,-0.000143050,0.010280310
1640791813901669888,0.080277240,0.066112180,9.897033690,0.063230100,0.110395280,0.020115080
1640791813904140032,-0.093128090,0.262898860,9.476916310,0.095486650,0.065886980,0.014521180
1640791813906279936,-0.513739530,0.259149400,10.081412320,0.056646780,-0.053220990,0.016359990
1640791813909029888,-0.655355390,0.218397470,9.412174220,-0.015984470,-0.026658170,0.004053120
1640791813911289856,-0.628537060,0.353859450,9.367779730,-0.011229510,-0.026178360,-0.019370020
1640791813913869824,-0.489502130,0.416081400,10.424879070,0.020344560,0.073002280,-0.015020370
1640791813916250112,-0.016121720,0.497101520,10.248788830,0.040429830,0.124959670,0.001837310
1640791813919020032,0.187418400,0.407423650,10.773705480,0.061161820,0.017181040,0.013050440
1640791813921329920,0.270009190,0.304660800,9.976442340,0.026881690,-0.020976360,0.025476510
1640791813924909824,0.308069650,0.256933660,8.742845540,-0.005584950,-0.034676500,0.040343400
1640791813926230016,-0.141863390,0.064088310,9.524022100,-0.004224480,0.004926320,0.035472210
1640791813928829952,-0.210600140,0.145969210,9.535685540,0.017605720,0.060841440,0.024504960
1640791813931229952,-0.213927160,0.253502960,10.141507150,0.022251910,0.023584070,0.012215970
1640791813934109952,-0.335379540,0.222090020,10.764154430,0.009389220,0.062116980,0.000967090
1640791813936590080,-0.207754050,0.465300680,10.116977690,0.003556910,0.011025370,-0.018239020
1640791813938969856,-0.240957740,0.580432830,9.797982220,-0.013926630,-0.041054190,-0.002911690
1640791813941390080,-0.148854630,0.311172900,8.963897710,-0.019061560,0.032041970,0.029157100
1640791813943859712,-0.169225510,0.081947900,9.113987920,0.055384650,0.039686270,0.040361290
1640791813946199808,-0.368213420,-0.019917980,10.086968420,0.065693240,0.006997590,0.041338800
1640791813948959744,-0.187086220,-0.046957800,9.938258170,0.006787480,0.003173950,0.031815470
1640791813951249920,-0.105439750,-0.104112010,10.287944790,-0.025746230,0.003211200,-0.000032780
1640791813954010112,-0.108075480,0.022996160,10.335764880,-0.007449090,0.031074890,-0.035230830
1640791813956249856,0.155889750,0.281526510,9.741072650,0.037983060,0.035248700,-0.017169120
1640791813958889984,0.010710120,0.415118960,9.862005230,0.069950530,0.011806190,-0.013266500
1640791813961239808,-0.124192220,0.638056460,9.506040570,0.022211670,-0.019864740,0.010466580
1640791813963800064,-0.109416310,0.812307000,9.270761490,-0.043773650,-0.016260150,0.037436190
1640791813966579968,-0.395014320,0.516193990,9.978384970,-0.039589410,0.025764110,0.034232440
1640791813969179904,-0.383730470,0.505145670,10.334039690,0.021581350,0.033459070,0.017632550
1640791813971409920,-0.324556770,0.709036110,10.439033510,0.019468370,-0.008091330,0.016756360
1640791813975459840,-0.213385280,0.414401770,10.190841670,-0.048874320,-0.011675060,-0.000110270
1640791813976229888,0.088360490,0.346592340,9.420675280,-0.069813430,0.021769110,-0.010673700
1640791813978819840,0.028342920,0.322148380,9.359443660,-0.051610170,0.001604860,-0.011424720
1640791813981369856,0.150894000,0.094033420,9.373648640,-0.036950410,0.027602910,0.008450450
1640791813983879936,0.210805480,0.005496250,9.526618000,-0.003266330,0.046747920,0.031924240
1640791813986579968,-0.143175810,-0.142775740,10.540530200,-0.001196560,-0.010082120,0.024853640
1640791813988899840,-0.046685210,-0.010481780,10.179159160,-0.049951680,0.009679790,0.036613640
1640791813991239936,-0.173096940,-0.043478920,10.024702070,-0.047980250,0.002986190,0.016386810
1640791813993819904,-0.308018120,-0.069958480,10.060067180,-0.001449880,0.029805300,-0.030748540
1640791813996209920,-0.232720050,0.457079560,9.187865260,0.014933940,0.033313040,-0.023838880
1640791813998899968,-0.569916250,0.439985600,9.628733630,-0.010979170,-0.052329890,-0.034774840
1640791814001619712,-0.406664610,0.687300680,9.454381940,-0.050807000,-0.019268690,-0.015257300
1640791814003990016,-0.290336790,0.914666410,9.508999820,-0.083498650,-0.003434720,0.004874170
1640791814006249984,-0.249672550,0.446089950,10.775648120,-0.066602240,0.035306810,0.023832920
1640791814008889856,0.210773320,0.348958910,10.353532790,0.016592440,0.088153790,0.039035090
1640791814011229952,0.061642250,0.244157600,10.602174760,0.030407320,-0.045958160,0.014497340
1640791814013959936,0.050533730,0.209706570,9.844567300,-0.076235830,-0.056180360,0.013348460
1640791814016209920,0.074297350,0.164727200,8.573343280,-0.128015880,-0.042539840,0.000870230
1640791814019179776,-0.304939780,0.014119140,9.581768040,-0.092457220,-0.025586790,-0.036132330
1640791814021430016,-0.131071450,0.359480110,9.455086710,-0.049470370,0.075700890,-0.019399820
1640791814023799808,-0.176713050,0.373275310,10.193325040,-0.025969740,0.025473540,-0.010332470
1640791814026199808,-0.319927990,0.333665310,11.142563820,-0.046360500,0.004160400,0.003108380
1640791814029350144,0.015072580,0.586058320,9.709131240,-0.101557380,-0.020077820,0.028407580
1640791814031219968,-0.220483420,0.104343170,9.940254210,-0.089555970,-0.054912270,0.024351480
1640791814033890048,-0.105132680,-0.094158850,9.259742740,-0.022448600,0.048014520,0.021702050
1640791814036499968,-0.024692770,0.080452170,8.969715120,0.017724930,0.002551080,-0.004802640
1640791814039009792,-0.278451030,-0.054485940,10.106057170,-0.059063740,-0.011633340,-0.015951690
1640791814041319936,0.025664740,0.060667980,9.488473890,-0.094419710,0.021553040,-0.015279650
1640791814043840000,-0.170458640,0.098383740,10.424145700,-0.052037830,-0.046473740,-0.033834570
1640791814046520064,-0.114697580,0.265113920,10.496932980,-0.032627580,0.011272730,-0.012855230
1640791814048859904,0.129487280,0.331408260,9.495784760,0.006993120,0.024759780,0.014188890
1640791814051599872,-0.285652460,0.158610970,10.498722080,0.013206900,-0.009700660,0.011253360
1640791814053959936,-0.287323590,0.397985040,9.527005200,-0.052164500,-0.012005870,0.018675630
1640791814056649984,-0.433828920,0.293192740,9.350163460,-0.056891140,-0.116804250,0.020267070
1640791814058840064,-0.607921180,0.372366370,9.886805530,-0.057084860,-0.026699900,-0.006145240
1640791814061600000,-0.153954250,0.855492060,9.421771050,-0.079667580,0.044719870,-0.006999080
1640791814063840000,-0.105113390,0.538942580,10.829751010,-0.076091300,0.013668840,0.004372000
1640791814066200064,0.212747280,0.333131280,10.516723630,-0.028921670,0.028644500,0.003033880
1640791814069209856,0.439586970,0.409770190,9.564484600,0.008380410,-0.071746110,-0.002172590
1640791814072409856,0.053415010,0.127990370,9.689455990,-0.079794240,-0.061599920,0.022275750
1640791814075029760,0.039220970,-0.135272790,8.692600250,-0.101593160,-0.001442430,0.036840140
1640791814076220160,-0.347507800,-0.366300910,9.636662480,-0.023765870,-0.036340960,0.006642940
1640791814078850048,-0.620608330,-0.234771430,10.367814060,-0.019519030,0.009576980,-0.008556250
1640791814081229824,-0.382332980,0.073668820,9.904529570,-0.021412970,-0.035347040,-0.021608180
1640791814083809792,-0.480606020,0.276907680,10.564078330,-0.061200570,-0.034974520,-0.036804380
1640791814086400000,-0.126295190,0.610576450,9.691624640,-0.099015240,0.010332470,-0.014872850
1640791814088950016,0.172549660,0.453293140,9.451303480,-0.023232400,-0.011241440,0.012978910
1640791814091219968,0.074647850,0.357357440,9.928545000,0.044928490,0.008985400,0.015027820
1640791814093869824,0.251056250,0.680650650,9.402825360,-0.009372830,-0.031603870,0.026641790
1640791814096199936,-0.161831960,0.484761420,10.043014530,-0.105531510,-0.074088580,0.029505790
1640791814098850048,-0.253143940,0.195374270,9.978326800,-0.122234230,-0.023409730,0.018315020
1640791814101869824,-0.196385430,0.238663940,9.994919780,-0.029177970,-0.004205110,-0.006289780
1640791814103930112,-0.422430690,0.297217070,10.549894330,-0.010547040,-0.006939470,-0.014530120
1640791814110829824,-0.056696050,0.239168110,9.704178810,-0.047144300,-0.008967520,-0.015108290
1640791814111980032,0.015959590,0.204938810,9.589377400,-0.067152080,-0.029382110,-0.018563870
1640791814112550144,0.005891820,0.207401440,9.551765440,-0.104542080,-0.004258750,-0.006608660
1640791814113829888,0.144737500,0.069289430,9.423823360,-0.053316370,-0.003348290,0.023435060
1640791814116199936,-0.162680010,-0.030525580,10.081922530,0.012969970,-0.026761000,0.026488310
1640791814119160064,-0.162801590,0.117153530,10.078154560,-0.024428970,-0.037246940,0.019885600
1640791814121319936,-0.007522020,0.060741420,9.916910170,-0.060190260,-0.005863610,0.024212900
1640791814123839744,-0.174073950,-0.006053890,10.164337160,-0.053261220,0.014029450,-0.022073090
1640791814126309888,-0.018742110,0.181770400,9.795904160,-0.012581050,-0.000360610,-0.037828090
1640791814128859904,-0.108442390,0.292597500,9.535695080,0.005774200,-0.018526610,-0.030247870
1640791814131219968,-0.307410060,0.300906240,9.631426810,-0.013738870,-0.042806570,-0.014036890
1640791814133819904,-0.282008800,0.341484010,9.588204380,-0.028735400,-0.047861040,0.009062890
1640791814136359936,-0.387002740,0.383978070,9.852437970,-0.057642170,-0.027999280,0.012475250
1640791814138989824,-0.227556990,0.233035000,10.368947980,-0.048008560,0.021462140,0.016492610
1640791814143379968,-0.090057230,0.236036260,10.542765620,0.015151500,0.028702620,0.008350610
1640791814144780032,-0.144529740,0.432415720,10.440336230,-0.008417670,-0.068135560,-0.013387210
1640791814146210048,0.165910880,0.405148240,9.516789440,-0.057514020,-0.063544520,-0.002442300
1640791814148869888,0.099168350,0.435696300,8.952130320,-0.079771880,-0.011228020,-0.029890240
1640791814151739904,0.052971030,0.544417080,9.507896420,-0.074805300,0.002111490,-0.015372040
1640791814153949952,0.124489400,0.291096360,9.759388920,-0.036041440,0.043620170,0.011532010
1640791814156509952,-0.160200070,0.103530810,10.344579700,0.006489460,-0.027567150,0.006410480
1640791814159099904,-0.189928260,0.093992280,10.566513060,-0.020122530,-0.048421320,0.018395480
1640791814161209856,-0.172885220,-0.083339710,9.692555430,-0.065477190,-0.003492830,0.015215580
1640791814163800064,-0.319122370,-0.241498890,9.882429120,-0.046989330,-0.009562080,-0.015036760
1640791814166220032,-0.244436370,-0.065189120,9.582675930,0.005465750,0.019320850,-0.037963690
1640791814169159936,-0.316453490,0.157739120,9.236209870,0.009344520,-0.033010550,-0.044904650
1640791814171269888,-0.352707770,0.315736890,9.847929000,-0.028672810,-0.057029730,-0.038531420
1640791814177350144,-0.148979160,0.527259410,9.632830620,-0.058062370,0.000780820,-0.015343720
1640791814177809920,-0.007213210,0.601219770,10.242155080,-0.057050590,-0.013582410,0.005848710
1640791814178829824,0.256308670,0.325618540,10.565354350,-0.006702540,0.066976250,0.023832920
1640791814181219840,0.296509590,0.233405650,10.135187150,0.056037310,0.022146110,0.002017620
1640791814183820032,0.022963560,0.310701370,10.225823400,0.014230610,-0.079649690,0.000208620
1640791814186369792,-0.114140260,0.183338810,9.116896630,-0.075775380,-0.072070980,-0.001929700
1640791814188900096,-0.384475860,0.109880810,8.875024800,-0.087714200,-0.056327880,-0.021961330
1640791814191969792,-0.444331080,0.139890250,9.731946950,-0.035738950,0.028245150,-0.018413370
1640791814193879808,-0.282262360,0.103520520,9.973914150,0.015382470,0.069373850,-0.012625750
1640791814196229888,-0.149580020,0.169098260,10.725593570,0.043497980,-0.001429020,-0.011225040
1640791814198799872,0.053298210,0.376373110,10.308222770,-0.027532880,-0.023995340,0.001326200
1640791814201589760,0.216238570,0.297961710,9.323761940,-0.081257520,-0.050702690,0.028149780
1640791814203929856,0.127748280,-0.097842950,9.497356410,-0.022086500,-0.001162290,0.025026500
1640791814210240000,-0.019001740,-0.115091680,9.221670150,0.076225390,0.035423040,-0.000996890
1640791814211409920,-0.219551470,0.159043190,9.726915360,0.053237390,-0.034192200,-0.001914800
1640791814211920128,-0.406555920,0.187177320,10.163071630,-0.044591740,-0.023579600,-0.016269090
1640791814213789952,-0.375283240,0.290773720,9.829801560,-0.074277830,-0.031864650,-0.044578320
1640791814216219904,-0.314083960,0.532418190,10.244589810,-0.033606590,-0.010783970,-0.035281480
1640791814219079936,-0.145944860,0.434612070,9.922678950,0.028896330,0.056494770,-0.023940210
1640791814221349888,-0.083614070,0.475870250,9.946266170,0.065022710,-0.016449390,-0.013734400
1640791814224640000,-0.099911980,0.593980130,9.789073940,-0.002442300,-0.057099760,0.008472800
1640791814226199808,-0.121167980,0.332771750,9.188516620,-0.088910760,-0.057414180,0.029379130
1640791814228859904,-0.216910240,0.157901790,9.728315350,-0.067389010,-0.022400920,0.016418100
1640791814231229952,-0.249323490,0.110190590,10.125899310,0.010058280,0.015112760,-0.007699430
1640791814233889792,-0.057760020,0.161804960,10.197819710,0.029405960,-0.006692110,-0.016942620
1640791814236339712,0.137821820,0.273969620,10.148527150,-0.012682380,0.013728440,-0.025182970
1640791814239140096,0.175505040,0.266866450,9.708889960,-0.074151150,0.001716610,-0.036944440
1640791814241319936,0.127879080,0.305119250,9.399470330,-0.075490780,-0.043846660,-0.002428890
1640791814244060160,-0.060121240,0.123843910,9.250402450,-0.008158390,-0.024199490,0.008435550
1640791814246219776,-0.247397740,-0.102017940,9.423525810,0.053544350,-0.019176300,0.005751850
1640791814248849920,-0.395845530,0.149086910,10.121041300,0.025179990,0.003270810,0.016516450
1640791814251520000,-0.453161630,-0.008492910,10.438915250,-0.052577260,0.002264980,-0.003525610
1640791814254020096,-0.278104750,-0.063856620,10.202273370,-0.040170550,-0.030374530,-0.029708450
1640791814257989888,-0.172911540,0.256593380,9.736754420,0.022433700,-0.008638200,-0.046704710
1640791814258819840,-0.204324050,0.189422990,9.592982290,0.048105420,-0.013560060,-0.030919920
1640791814261220096,-0.061724670,0.528457340,9.385494230,0.029911100,-0.046744940,-0.012180210
1640791814263869952,-0.085121180,0.679800750,9.450246810,-0.040778520,-0.042584540,0.007861850
1640791814266209792,0.047231130,0.452510650,9.929021840,-0.084458280,0.022217630,0.029407440
1640791814269120000,0.029649180,0.438139590,10.554019930,-0.006382170,0.036029520,0.009779630
1640791814271399936,-0.203789470,0.254836560,10.861395840,0.055079170,-0.054568060,-0.016821920
1640791814276419840,-0.025931490,0.393891900,9.717023850,0.010356310,-0.066734850,-0.009490550
1640791814276949760,-0.159930990,0.359519510,9.212457660,-0.067995470,-0.026737150,-0.028315180
1640791814278829824,-0.234634250,0.113788620,9.407373430,-0.095161800,0.003074110,-0.019857290
1640791814281230080,-0.081153500,0.258367090,9.224365230,-0.026841460,0.006772580,-0.010083610
1640791814283879936,-0.214885500,-0.022789480,10.105867390,0.031183660,-0.011353190,-0.006864970
1640791814286429952,-0.044690810,0.092829560,10.231060030,0.021706520,0.011888150,0.003622470
1640791814288940032,-0.049241550,0.319852770,10.280583380,-0.045956670,-0.019258260,0.026762490
1640791814291859968,-0.134214940,-0.110702510,10.419207570,-0.078617040,-0.028395650,0.013571980
1640791814293839872,0.137427290,0.005732170,9.201834680,-0.002150240,-0.005045530,0.000056620
1640791814296219904,-0.091958430,0.036381960,9.332605360,0.069448350,-0.010041890,-0.025057790
1640791814298789888,-0.238190680,0.011865840,9.620537760,0.032824280,0.024704640,-0.016972420
1640791814301689856,-0.251513480,0.406809840,9.521301270,-0.017778580,-0.059263410,-0.015434620
1640791814304189952,-0.297313660,0.358064380,10.174293520,-0.078301130,-0.044478480,-0.005015730
1640791814306269952,0.011825960,0.260876830,10.026246070,-0.041398410,0.080770250,0.006663800
1640791814309120000,-0.169152360,0.168385940,10.756351470,0.093698520,0.027889020,-0.017648940
1640791814311329792,-0.317243310,0.293765040,10.610836030,0.088562070,-0.050501530,-0.019152460
1640791814313870080,-0.146731390,0.615772430,8.899261470,-0.039181110,-0.098475810,0.011560320
1640791814316219904,-0.411175190,0.384954090,9.228946690,-0.113321850,-0.065118070,0.007198750
1640791814319340032,-0.203400730,0.322666350,9.315772060,-0.069603330,0.039567050,0.004570190
1640791814321289984,-0.006392900,0.442888440,9.913769720,0.044819710,0.026525560,-0.006756190
1640791814324699904,0.033837080,0.231955330,11.185419080,0.055108960,0.017774110,-0.007136170
1640791814326210048,0.415803020,0.492513540,10.086660390,-0.023287530,-0.006113950,-0.003343820
1640791814328829952,0.121638950,0.306940850,10.037097930,-0.090202670,-0.080120570,0.002567470
1640791814331290112,-0.053136110,-0.052923240,9.480093960,-0.073005270,-0.016969440,0.010745230
1640791814334099968,-0.077498700,-0.004832950,8.549736020,0.042708220,-0.020322200,0.000400840
1640791814336679936,-0.442375150,-0.073484850,9.632293700,0.054106130,0.005351010,-0.012436510
1640791814339759872,-0.299414070,0.116489100,9.802453040,-0.033384570,0.071485340,-0.008891520
1640791814342170112,-0.353214290,0.225654420,10.492248540,-0.060163450,-0.049647690,-0.031672420
1640791814343859968,-0.227649840,0.264837680,10.535079000,-0.065174680,-0.029815730,-0.027403240
1640791814346220032,0.158769470,0.352437700,9.372943880,0.008137530,0.032141800,-0.003665690
1640791814349059840,-0.071219580,0.110328570,10.094493870,0.087425110,0.002722440,-0.002947450
1640791814351300096,-0.036051520,0.314875010,9.582900050,0.031097240,0.007648770,0.017455220
1640791814353969920,-0.069982860,0.323932890,9.251061440,-0.046895440,-0.070817770,0.029686100
1640791814356279808,-0.381762150,0.075108800,10.198931690,-0.084225840,-0.038068000,0.002868470
1640791814358799872,-0.135338080,0.372444450,9.660221100,-0.038854770,0.016009800,-0.013403590
1640791814361299968,-0.165523140,0.401659310,10.525393490,0.037024920,0.010022520,-0.017403070
1640791814363829760,-0.143991440,0.379286560,10.716414450,0.007964670,0.047004220,-0.034473840
1640791814366339840,0.118180830,0.657078030,9.566554070,-0.029896200,-0.053836410,-0.027441980
1640791814369230080,-0.168722560,0.445842180,9.673177720,-0.078290710,-0.059796870,0.007706880
1640791814371419904,-0.143537220,0.209419670,8.976165770,-0.073370340,0.013025110,0.016893450
1640791814374560000,-0.318533990,0.147493500,9.591966630,0.021037460,-0.039814410,0.027388340
1640791814376240128,-0.409032580,0.068747010,10.324565890,0.005969410,0.000295040,0.034883620
1640791814378850048,0.079094000,0.064254020,9.881692890,-0.061136500,0.040219720,0.017194450
1640791814381359872,0.082047050,-0.114139450,10.585726740,-0.050385310,0.022114820,-0.008396810
1640791814383869952,0.109584700,0.044569050,10.036368370,-0.032356390,0.011180340,-0.035877530
1640791814386319872,0.139128550,0.137090530,9.075230600,0.013914700,-0.074057290,-0.017395620
1640791814389299968,-0.196204330,0.086136390,9.249469760,0.010262430,-0.045779350,-0.006371740
1640791814391279872,-0.255216900,0.251027050,9.197153090,-0.032766160,0.020486120,0.006982690
1640791814393829888,-0.424999060,0.243614240,10.277684210,-0.034888090,0.012706220,0.017294290
1640791814396260096,-0.464871700,0.155472590,10.892869950,-0.016918780,0.013852120,-0.003747640
1640791814398899968,-0.198996110,0.358571440,10.204548840,0.014984610,-0.028851630,-0.009921190
1640791814401339904,-0.261308940,0.396241490,10.058421130,0.007887180,-0.029891730,0.009170170
1640791814403960064,-0.210531150,0.334686520,9.420445440,-0.025841600,-0.020356480,0.002162160
1640791814407899904,-0.013491780,0.506030980,9.127166750,-0.029563910,-0.057609390,0.013722480
1640791814408879872,0.042783140,0.571314160,9.498257640,-0.074777000,0.015240910,0.027242300
1640791814411320064,0.210383250,0.332357260,10.159595490,-0.056588650,0.059376660,0.017680230
1640791814413939968,0.023698180,0.365256670,11.040756230,0.010161100,0.002487000,0.015750530
1640791814416280064,-0.157383960,0.471867890,10.686059000,-0.022287670,-0.072239350,0.002907220
1640791814419200000,-0.153001710,0.476890240,9.593692780,-0.085903700,-0.087167330,0.009077790
1640791814421370112,-0.266082440,0.331895380,9.017498970,-0.102226450,-0.009246170,0.012923780
1640791814423820032,-0.193014980,0.114088710,9.091867450,-0.069583960,0.051842630,0.003221630
1640791814426259968,-0.099091770,0.043941600,9.710738180,0.007414820,0.054818390,0.023651120
1640791814428969984,-0.218153000,-0.060813350,10.439231870,0.001560150,-0.026518110,0.004164870
1640791814431379968,-0.052965510,0.100594960,10.317626950,-0.074233110,-0.066164140,0.012522940
1640791814433819904,0.021071910,0.036353190,9.855354310,-0.121122620,-0.005513430,0.030808150
1640791814436470016,-0.058485490,-0.321265340,9.994148250,-0.032235690,0.032833220,-0.010377170
1640791814441619968,-0.032257030,0.011330870,9.782931330,0.069051990,0.019672510,-0.024892390
1640791814442269952,-0.217164310,0.347166780,9.447021480,0.025452670,-0.044105950,0.000725690
1640791814443820032,-0.290518730,0.370559570,9.532541280,-0.078707940,-0.063957280,0.002151730
1640791814446349824,-0.236806200,0.551659520,9.584469800,-0.112591690,-0.010657310,0.007197260
1640791814448809984,-0.155551750,0.452907060,10.215804100,-0.054726010,0.028994680,0.010426340
1640791814451840000,-0.010602280,0.208119970,10.866030690,0.049087410,0.060378020,0.004683440
1640791814453929984,-0.041128640,0.428620340,10.492877960,0.052621960,-0.009121000,-0.002132360
1640791814457009920,-0.175993320,0.421660960,10.027511600,-0.058870020,-0.094589610,0.007829070
1640791814458849792,-0.233392580,0.177763190,9.075536730,-0.131166000,-0.068220500,0.020417570
1640791814461710080,-0.308771940,0.035359270,8.905167580,-0.066559020,-0.024482610,0.014700000
1640791814464369920,-0.209423450,0.105908920,9.905298230,0.024127960,0.042867660,0.015141070
1640791814466500096,0.054360510,0.235274400,10.288267140,0.010229650,0.076603880,0.027807050
1640791814468899840,0.120086250,0.253531430,10.913099290,-0.044849530,-0.012388830,0.003942850
1640791814472090112,0.187442380,0.293150600,10.392555240,-0.088545690,-0.043901800,-0.006121400
1640791814475440128,0.132867530,0.191554740,9.113102910,-0.061424070,-0.054025640,0.012011830
1640791814477210112,-0.090475020,-0.035105970,9.173350330,0.029051300,-0.008310380,0.011028350
1640791814479970048,-0.283476650,0.064046290,9.223223690,0.045017900,0.047607720,0.025543570
1640791814481459968,-0.357770860,0.160662290,9.800037380,-0.015048680,-0.010564920,0.023417170
1640791814483830016,-0.347314120,-0.002306130,10.473403930,-0.071585180,-0.004407760,0.003835560
1640791814486349824,-0.183009610,0.095696260,9.959569930,-0.045076010,0.003856420,-0.019995870
1640791814490949888,-0.179512610,0.201003580,10.259820940,0.020280480,-0.000795720,-0.019495190
1640791814491689984,-0.110620220,0.198962450,9.856314660,0.039032100,0.030718750,0.000014900
1640791814494079744,-0.027828080,0.348203870,9.266262050,0.026161970,-0.051294270,0.019629300
1640791814497779968,-0.057300520,0.426057960,9.561003680,-0.036676230,-0.033441180,0.030535460
1640791814498819840,-0.079375470,0.313534200,9.538464550,-0.075516110,0.038917360,0.043261050
1640791814501289728,-0.180547650,0.236775160,10.427350040,0.006428360,0.003749130,0.015380980
1640791814503849984,-0.243039610,0.502694850,10.729715350,0.024989250,-0.006298720,-0.012475250
1640791814506399744,-0.112021480,0.692959900,9.908007620,-0.035072870,-0.035171210,0.002588330
1640791814510319872,-0.108446900,0.586211500,9.835163120,-0.080268080,-0.018334390,-0.020316240
1640791814511510016,-0.023725840,0.545661030,9.283605580,-0.077839200,0.022502250,-0.017079710
1640791814513939968,0.029892360,0.384915530,9.213129040,-0.028137860,-0.004944200,0.012385850
1640791814517419776,-0.034429890,0.147818060,9.889365200,-0.005921720,0.012233850,0.022058190
1640791814518899968,-0.019955930,0.035218090,9.912701610,-0.039130440,0.019146500,0.037060670
1640791814521420032,-0.133437900,-0.022128860,10.533858300,-0.073426960,-0.012928250,0.032290820
1640791814524709888,-0.116081080,-0.294830500,10.253945350,-0.072902440,0.010627510,0.003793840
1640791814526769920,-0.026027390,-0.236803710,9.441776280,0.003321470,0.000435110,-0.020654500
1640791814528930048,-0.149095480,0.077843710,9.529677390,0.028969350,0.025804340,-0.028581920
1640791814531339776,-0.274563430,0.127609910,9.389415740,-0.025025010,-0.001233820,-0.017836690
1640791814533860096,-0.170991330,0.406102480,9.458200450,-0.051501400,-0.055058310,-0.000011920
1640791814536320000,-0.113246280,0.460794090,9.915700910,-0.063622010,0.038169320,0.021530690
1640791814538959872,-0.028011470,0.165200200,10.401416780,-0.016108160,0.087150940,0.024014710
1640791814543990016,-0.157732170,0.241797600,10.932297710,0.071167950,0.023324780,0.008794670
1640791814544600064,-0.308970270,0.322630110,10.182582860,0.027634210,-0.058771680,0.010226670
1640791814549149952,-0.250794350,0.410350080,9.021869660,-0.066252060,-0.085988640,0.019162900
1640791814550129920,-0.406919060,0.354812890,9.047414780,-0.093162070,-0.008523470,0.013157730
1640791814551369984,-0.302875880,0.183850800,9.451066970,-0.046737500,0.046402220,0.010360780
1640791814553839872,0.054885920,0.347850350,10.260659220,0.037147100,0.058396160,0.011304020
1640791814556359936,0.054072670,0.273878280,11.016656880,0.019918390,0.028692190,-0.004653630
1640791814561039872,0.229879050,0.370822760,10.332618710,-0.057235360,-0.032983720,0.002291800
1640791814562039808,0.026381960,0.466337890,9.664068220,-0.097306070,-0.056251890,0.005853180
1640791814563899904,-0.266056510,0.095316570,9.301423070,-0.070907180,-0.035467740,0.018744170
1640791814566279936,-0.162948380,0.158142790,8.772373200,0.025208290,0.003625450,0.032283370
1640791814568859904,-0.277095680,0.150530110,9.614084240,0.024732950,0.039936610,0.017493970
1640791814571369984,-0.133989140,-0.032110370,10.349657060,-0.051687670,0.073802480,0.020582970
1640791814571709952,-0.003262850,0.087262150,10.562946320,-0.058646510,-0.001105670,-0.008481740
1640791814577270016,-0.069982280,0.009386910,10.353712080,-0.042830410,-0.046303870,-0.038507580
1640791814578860032,0.154160450,0.129661560,9.303977010,-0.008966030,0.027334690,-0.009085240
1640791814581379840,-0.153101490,0.152592270,9.435021400,0.044439740,0.020225350,-0.002031030
1640791814583809792,-0.317172910,0.153845790,9.643588070,0.009286400,-0.009150800,0.018610060
1640791814586319872,-0.125212100,0.317930160,9.312638280,-0.044544040,0.007869310,0.034683950
1640791814588889856,-0.379267750,0.096723600,10.360787390,-0.045855340,0.002188980,-0.001275540
1640791814592649984,-0.169707060,0.228348120,10.467741970,-0.012704730,0.035780670,-0.010716920
1640791814593730048,-0.003734590,0.459240530,10.192857740,0.022408370,0.022090970,-0.016191600
1640791814596359936,-0.099333170,0.347946320,10.442680360,-0.007568300,0.000756980,-0.027559700
1640791814598779904,0.214508790,0.648323540,9.206180570,-0.041641300,0.006498400,-0.004789230
1640791814601349888,0.014058920,0.598919270,9.183140750,-0.069044540,-0.020241740,0.014831130
1640791814601670144,-0.104034320,0.284857240,9.696130750,-0.056116290,0.046902900,0.030753020
1640791814606520064,-0.134357900,0.365743520,9.803880690,0.007472930,0.010350350,0.032916660
1640791814608870144,-0.344833880,0.271939810,10.641596790,-0.011645260,-0.038176770,0.026975580
1640791814611439872,-0.007054270,0.171752170,10.129330640,-0.095513490,0.061954570,0.009728970
1640791814612140032,-0.057963710,0.163860130,10.027621270,-0.068545360,0.043784090,-0.022396450
1640791814616339968,-0.186515990,0.037441250,10.105935100,-0.036795440,0.000636280,-0.031127040
1640791814618889728,0.099289160,0.173842940,8.751837730,-0.006590780,0.007273260,-0.004717710
1640791814621409792,-0.181922530,0.043737690,9.415308950,-0.002802910,-0.010436770,0.013583900
1640791814622710016,-0.134721070,0.036614910,9.956431390,-0.056073070,0.053408740,0.037783390
1640791814626390016,0.035282950,0.144366890,10.077420230,-0.061213980,0.046983360,0.034241380
1640791814628929792,-0.159288440,-0.115799140,11.035959240,-0.010634960,0.027200580,0.005336110
1640791814631330048,-0.030834970,0.195092130,9.955048560,0.021374220,0.027266140,-0.017134850
1640791814631719936,-0.233483660,0.371015130,9.515525820,0.016859170,-0.049352640,-0.013035530
1640791814636320000,-0.434274080,0.285023930,9.443563460,-0.046792620,-0.002256040,-0.008666510
1640791814638880000,-0.311908130,0.481873180,8.956700330,-0.049532960,0.007990000,0.007472930
1640791814641449984,-0.409437450,0.327836450,10.282038690,-0.015810130,0.019390880,0.017547610
1640791814642649856,-0.146600860,0.283415680,10.691014290,-0.004303460,0.083768380,0.009143350
1640791814647300096,-0.010653360,0.430660960,10.675545690,0.019860270,0.014148650,0.000084940
1640791814648789760,-0.250705660,0.440605820,10.838452340,-0.041277710,-0.045923890,0.009751320
1640791814651350016,0.040402760,0.529076460,9.055897710,-0.092807410,-0.054283450,0.010232630
1640791814651719936,-0.037631080,0.452451140,8.885749820,-0.050841270,-0.042213500,0.011712310
1640791814656329984,-0.001955530,0.339947400,9.273129460,-0.036841630,0.101236980,0.018700960
1640791814659180032,0.105686570,0.272970410,9.935199740,-0.011812150,0.078991060,0.021189450
1640791814662230016,-0.124507610,0.105229150,11.188526150,-0.009511410,-0.016644600,0.022150580
1640791814663389952,-0.046385800,0.175097930,10.285737040,-0.080139940,-0.019855800,0.014802810
1640791814666269952,-0.246281590,-0.006091070,9.796327590,-0.069522870,-0.050340590,0.016881530
1640791814668939776,-0.418445200,-0.166904760,9.594255450,-0.017134850,0.009904800,-0.005812940
1640791814671389696,-0.203765790,0.067250270,8.770871160,0.024396180,0.049170860,-0.012028220
1640791814671809792,-0.288998660,0.082333180,9.753480910,0.012959540,0.023777780,0.009907780
1640791814677469952,-0.211977500,0.100119020,10.141094210,-0.050617760,0.011321900,0.005461280
1640791814678819840,0.007968850,0.230860500,9.985713960,-0.051099070,-0.046882030,0.006124380
1640791814681360128,-0.007610310,0.091606380,10.321595190,-0.007638340,0.028103590,0.022543970
1640791814681720064,0.001312930,0.014570460,10.116248130,0.049377980,0.057435040,-0.004623830
1640791814686429952,-0.128437650,0.248323840,10.043497090,0.066110490,-0.037054720,0.006221230
1640791814688809984,-0.286889880,0.378246160,9.515769960,-0.019149490,-0.035686800,0.021624570
1640791814691789824,-0.307202490,0.320532560,9.175269130,-0.057947640,-0.046892460,0.011201200
1640791814692719872,-0.405973550,0.472182690,9.784385680,-0.028976800,-0.004528460,0.011931360
1640791814696489728,-0.228602620,0.410107910,10.073624610,0.004354120,0.058810410,0.013540680
1640791814698819840,-0.038326600,0.214714740,10.747582440,0.048863890,0.033158070,-0.007392470
1640791814701400064,-0.026655270,0.434855610,10.626783370,0.025531650,-0.009007750,-0.011856850
1640791814702499840,-0.000768370,0.416656110,9.588670730,-0.062835220,-0.073800980,0.001586970
1640791814706329856,-0.141450810,0.312673930,9.145287510,-0.080297890,-0.051961840,0.016559660
1640791814709319936,-0.287642690,0.198936640,9.096679690,-0.013747810,-0.003185870,0.028853120
1640791814711369984,-0.173306060,0.117770380,9.666606900,0.039622190,-0.006845590,0.026713310
1640791814711899904,-0.020779150,0.261596740,10.263523100,0.009836260,0.052063170,0.036109980
1640791814716419840,0.095772620,0.139321790,10.628258710,-0.058515370,0.034944720,-0.004166360
1640791814716800000,0.068514110,0.065230090,10.540255550,-0.052139160,-0.031225390,-0.010345880
1640791814721369856,-0.057928520,0.053083120,9.488769530,0.002272430,-0.057631740,-0.007180870
1640791814721859840,-0.241746920,-0.154448730,8.946243290,0.066265470,-0.061842800,-0.008325280
1640791814726429952,-0.380582780,0.155241920,9.017403600,0.033736230,0.003403430,0.010490420
1640791814728979712,-0.322082460,0.274615260,9.642541890,-0.044964250,0.046133990,0.027020270
1640791814731289856,-0.269869390,0.039545570,10.838729860,-0.051456690,0.024373830,0.013902780
1640791814731619840,-0.124962960,0.243881510,10.594552990,0.025518240,-0.010214750,-0.016596910
1640791814736339712,-0.097166920,0.290563850,10.107645030,0.071251390,-0.050173710,-0.013282900
1640791814736709888,-0.181867550,0.325678110,9.610041620,0.041864820,-0.040872390,-0.000421700
1640791814741720064,-0.154481690,0.565690820,9.035823820,-0.028681750,-0.029310580,0.013433400
1640791814742379776,-0.126593220,0.345580220,9.569433210,-0.059406460,-0.014939910,0.022150580
1640791814746579968,-0.029948700,0.238213060,9.976102830,0.003159050,0.039196010,0.024507940
1640791814746949888,-0.025775180,0.404651940,10.555523870,0.064684450,0.004674490,-0.003914540
1640791814751430144,-0.206106720,0.506024180,10.892839430,-0.004617870,-0.049325830,-0.001539290
1640791814751909888,-0.175957470,0.522302870,9.785043720,-0.070087620,-0.075221070,0.006920100
1640791814756379904,-0.093887170,0.373861430,9.233148570,-0.063495340,-0.055156650,-0.014354290
1640791814757989888,-0.130102110,0.400027810,9.075691220,-0.026518100,0.041231510,0.008569660
1640791814761430016,-0.089276510,0.272489580,9.596942900,0.018709900,0.023530430,0.022803250
1640791814762129920,-0.083979770,0.056763100,10.405515670,0.003615020,-0.025708980,0.013841690
1640791814766350080,0.001172010,0.145243080,10.115249630,-0.054505480,-0.037418310,0.030674050
1640791814766809856,-0.038657560,-0.065949980,10.243145940,-0.063751620,-0.023713710,0.019907950
1640791814771369984,-0.156032900,-0.190077990,10.061900140,-0.019970540,-0.005544720,-0.007845460
1640791814771739904,-0.112917260,0.081616150,9.299330710,0.038065020,-0.024361910,-0.011596080
1640791814776759808,-0.231935430,0.042096580,9.474108700,0.025111430,-0.021615620,-0.011833010
1640791814777279744,-0.273086550,0.160044830,9.395102500,-0.017242140,-0.038236380,0.000095370
1640791814781509888,-0.055287050,0.392022460,9.686470030,-0.031967470,-0.033737730,0.013989210
1640791814782579968,-0.032408320,0.132437230,10.475283620,-0.031197080,0.058650970,0.026541950
1640791814786330112,-0.175298390,0.028516120,10.814598080,0.059293210,0.009530780,0.003534560
1640791814786659840,-0.266809340,0.254635070,10.413825040,0.102892530,-0.097405910,-0.015471880
1640791814791630080,-0.435025570,0.397586730,9.350428580,0.000394880,-0.101847950,0.002345440
1640791814792169728,-0.403157350,0.503683390,8.904178620,-0.079518570,-0.051037970,0.017930570
1640791814796359936,-0.345525290,0.462479050,9.581802370,-0.048854950,0.004929300,0.016953050
1640791814797019904,-0.085047710,0.250870110,10.193989750,0.031562150,0.026378040,0.029928980
1640791814801379840,0.197292300,0.221861530,10.707567210,0.096949940,-0.004208090,0.002761190
1640791814801740032,0.094879570,0.242754530,10.677371980,0.022147590,-0.052659210,-0.006683170
1640791814806860032,0.093477020,0.236150920,9.692394260,-0.077909230,-0.091506530,0.018519160
1640791814808300032,-0.101361550,0.055298380,9.264345170,-0.061517960,-0.065635140,0.013364850
1640791814812559872,-0.261348630,-0.043463190,9.147511480,0.028823320,-0.038634240,0.013659900
1640791814813239808,-0.109894390,0.220847460,9.430839540,0.089912120,0.009611250,0.030393900
1640791814816349952,-0.137726650,0.220178740,10.287597660,0.027164820,0.035166740,0.011347230
1640791814816859904,-0.101013880,0.214545470,10.584639550,-0.046902900,-0.038455430,-0.000420210
1640791814821369856,0.096131400,0.340169520,9.987050060,-0.028927630,-0.056266790,-0.003644820
1640791814821669888,-0.105049360,0.037393390,9.700991630,0.020204480,-0.036832690,-0.014482440
1640791814826520064,-0.144928870,0.076216150,9.422209740,0.093112870,-0.023275610,-0.000487270
1640791814827139840,-0.279120300,0.259341030,9.458181380,0.066931570,-0.049325830,-0.002712010
1640791814831399936,-0.255487170,0.185958180,9.749467850,-0.033004590,-0.025065250,0.023931270
1640791814831790080,0.011815590,0.324300440,9.972003940,-0.040714450,0.022242970,0.024653970
1640791814836359936,-0.155558270,0.294528900,10.629695890,0.001117590,-0.003609060,-0.003553930
1640791814836689920,-0.000821320,0.352694150,10.361337660,0.061036650,-0.034932800,0.002650920
1640791814841670144,-0.015353760,0.574369430,9.746761320,0.072000930,-0.056795780,-0.021286310
1640791814842489856,-0.150273410,0.673582910,9.471438410,-0.043118000,-0.069186090,-0.019598010
1640791814847159808,-0.004653820,0.635007140,9.154071810,-0.092332060,0.026741620,0.018335880
1640791814848480000,-0.238043350,0.323427380,10.059495930,-0.025451190,0.011223550,-0.005093220
1640791814851300096,-0.360079050,0.294497190,10.576135640,0.051556520,-0.049138060,-0.001800060
1640791814851680000,-0.106186770,0.545307040,9.893589020,0.025177000,-0.053358080,0.019243360
1640791814856689920,-0.150321010,0.273632170,9.927894590,-0.083670030,-0.023734570,0.004251300
1640791814857879808,0.115520950,0.174418940,9.622400280,-0.109940750,0.040330000,0.013197960
1640791814862360064,0.125177620,-0.023470520,9.497582440,-0.006483500,0.017246600,-0.002422930
1640791814863719936,-0.108780500,-0.307271480,10.078151700,0.073529790,-0.060443590,-0.008967520
1640791814866319872,0.023325810,0.089207650,9.396462440,0.043781100,-0.056700410,-0.001174210
1640791814866679808,-0.148623810,0.104416790,9.663695340,-0.077679750,-0.023931270,0.001397730
1640791814871359744,-0.203228560,-0.190951560,10.341124530,-0.097319490,0.052192810,0.008916860
1640791814871719936,-0.188192140,0.012688950,10.136545180,0.046388800,0.022168460,-0.030115240
1640791814876509952,-0.441213610,0.187548350,10.195311550,0.107516350,-0.080654030,-0.028929110
1640791814877280000,-0.329660390,0.420990850,9.197947500,0.035023690,-0.055959830,-0.004139540
1640791814881539840,-0.333878790,0.461086900,9.033491130,-0.052241980,-0.051504370,-0.003670160
1640791814882360064,-0.238618490,0.236526130,9.993715290,-0.074791920,0.002512340,0.009994210
1640791814886339840,0.059478820,0.116016430,10.223727230,0.039003790,0.070185970,-0.002935530
1640791814886639872,-0.012624010,0.146714200,10.917508130,0.116786380,-0.035265090,-0.040116910
1640791814891609856,-0.031847790,0.475904290,10.347887990,0.026653710,-0.057081880,-0.014637410
1640791814892289792,-0.135894690,0.524138210,9.254720690,-0.072370480,-0.095762320,-0.004827980
1640791814896839936,-0.254564490,0.350364150,9.281190870,-0.087787220,-0.069983300,-0.008563700
1640791814897399808,-0.021398210,0.555289450,9.000356670,-0.016415120,0.052972140,0.008358060
1640791814901360128,0.040448740,0.344554070,10.096064570,0.065584490,0.052677100,0.008596480
1640791814901719808,-0.002377180,0.258479360,11.057290080,0.033129760,-0.002159180,-0.007748600
1640791814907630080,0.118573370,0.402455300,10.218758580,-0.050920250,-0.067636380,-0.021196900
1640791814908329984,-0.192996250,-0.007638900,9.973311420,-0.097578770,-0.075913970,-0.017367300
1640791814912039936,-0.326743450,-0.133055450,9.320533750,-0.031916800,-0.026814640,-0.030799220
1640791814912669952,-0.293688570,0.050168170,8.940031050,0.065365440,-0.013545160,-0.026606030
1640791814916440064,-0.275257380,0.110173690,9.584680560,0.028002270,0.037394460,-0.004287060
1640791814916829952,-0.139227480,0.172627960,10.060083390,-0.034798690,0.008647140,-0.000084940
1640791814921360128,-0.029445600,0.089173180,10.397030830,-0.044335420,-0.050334640,0.009220840
1640791814921710080,0.051956260,-0.005843280,10.135520940,-0.005911290,-0.031247740,0.009709600
1640791814927129856,0.025525000,-0.069427000,9.966638570,0.083683430,-0.000159440,-0.024285910
1640791814928000000,-0.155353310,0.128474300,9.958153720,0.080171230,-0.020600860,-0.037452580
1640791814931479808,-0.310411630,0.420981590,9.531353000,-0.017078220,-0.051935020,-0.028614700
1640791814932099840,-0.379042570,0.468642680,9.547136310,-0.054982320,-0.062164670,-0.029063220
1640791814936359936,-0.303860870,0.583011210,9.626626010,-0.032970310,-0.022299590,-0.022190810
1640791814936749824,-0.145043400,0.628120840,10.152035710,0.024528800,0.023512540,-0.004290040
1640791814941859840,-0.004610030,0.482695700,10.647724150,0.050799560,0.046381360,0.013376770
1640791814942540032,0.027214820,0.335898430,10.433757780,0.017914170,-0.053931780,-0.000922380
1640791814946419968,0.077476640,0.297483240,9.604735370,-0.042523440,-0.088948000,0.008779760
1640791814947869952,-0.025266250,0.041934840,8.977999690,-0.063368690,-0.019603970,0.011450050
1640791814951360000,-0.280883250,-0.087190770,9.577187540,-0.003914540,-0.023190680,-0.012367960
1640791814951809792,-0.280866120,0.098401470,9.994867320,0.047786530,-0.003717840,-0.002545120
1640791814956389888,-0.085755610,0.223933120,9.984657290,0.003810230,0.006411970,-0.005888940
1640791814957639936,-0.016119960,0.305891040,10.594320300,-0.037990510,0.001099710,-0.027962030
1640791814961390080,0.104359220,0.352414550,9.913118360,-0.050747410,0.014245510,-0.008088350
1640791814961929984,-0.034539380,0.080146490,9.585031510,0.018054250,-0.058150290,-0.015647710
1640791814966400000,-0.130766140,0.077453140,9.447289470,0.074268880,-0.044304140,-0.014659760
1640791814966749952,-0.117575210,0.218562500,8.963500980,0.018800800,-0.015190240,0.000473860
1640791814971350016,-0.181703430,0.002221180,10.029056550,-0.041636830,0.018730760,0.010477010
1640791814971729920,-0.081587810,-0.178104250,10.421582220,-0.014197830,0.077985230,0.003744660
1640791814977259776,-0.175038080,-0.171058550,10.367602350,0.075684490,-0.034160920,-0.026831030
1640791814978380032,-0.272223290,-0.059029060,10.106041910,0.108422350,-0.077578430,-0.026276710
1640791814981479936,-0.216763650,0.265224870,8.866374020,0.031626230,-0.025175510,-0.013807420
1640791814982050048,-0.224785040,0.330804200,9.289364810,-0.027093290,-0.032944980,-0.007429720
1640791814986349824,-0.067303690,0.333969770,9.834209440,-0.010937450,0.073313710,-0.002023580
1640791814986670080,0.087649430,0.287175060,10.136166570,0.083337720,0.046724070,-0.018487870
1640791814991889920,-0.199766130,0.423656140,11.118543620,0.123979140,-0.061340620,-0.041033320
1640791814992839936,-0.179810990,0.802186310,9.875088690,0.007607040,-0.059892240,-0.012908880
1640791814996709888,-0.253206250,0.642876450,9.316958430,-0.083479310,-0.090101380,-0.000201170
1640791814997040128,-0.260188160,0.416142970,9.567374230,-0.044532120,0.015996400,-0.000816580
1640791815001279744,0.055181210,0.428313260,9.097303390,0.047543640,0.072573130,0.015534460
1640791815001570048,0.128467010,0.183015510,10.294775010,0.083346660,0.017647450,0.018160050
1640791815006969856,0.173455980,0.097154360,10.359943390,0.010916590,0.021925570,0.008787210
1640791815007830016,0.216529010,0.051338080,9.695538520,-0.062140830,-0.067558870,-0.008876620
1640791815013989888,-0.109936540,-0.266670760,10.012659070,-0.044064230,-0.030145050,-0.018917030
1640791815015120128,-0.191834810,-0.200996800,9.276525500,0.042456390,0.047433380,-0.035679340
1640791815016339968,-0.340601920,0.172044070,9.652101520,0.081481040,-0.019840900,-0.025610630
1640791815016699904,-0.362877640,0.313062220,9.931629180,0.001132490,0.025746230,-0.003905590
1640791815021499904,-0.109237480,0.404379900,9.407681470,-0.036756690,0.004558270,-0.006024540
1640791815022650112,-0.066283670,0.315644350,10.104819300,-0.007179380,-0.013816360,-0.008384880
1640791815026549760,0.154239620,0.139746410,9.775572780,0.037512180,0.079534960,0.003787880
1640791815027159808,0.127152680,0.005999280,9.977589610,0.100050870,0.021335480,-0.015151500
1640791815031299840,-0.159876020,-0.081740710,10.225478170,0.068219010,-0.030788780,-0.005905330
1640791815031749888,-0.141830500,0.033849220,9.159797670,-0.005808470,-0.033505260,0.004562740
1640791815036379904,-0.338039490,0.045580150,9.630809780,-0.014582280,-0.025166570,-0.014205280
1640791815036779776,-0.418084030,0.291547830,9.850839610,0.014868380,0.037486850,-0.016103680
1640791815041479936,-0.096532490,0.492550160,9.758001330,0.066342960,0.033906100,-0.008212030
1640791815043399936,-0.156807510,0.432699680,10.712379460,0.069409610,0.037267800,-0.013734400
1640791815046680064,-0.013919560,0.660493790,10.051168440,0.021004680,-0.009368360,-0.013755260
1640791815047430144,0.061883920,0.639647250,9.396511080,-0.029417880,-0.075553380,0.002349910
1640791815051299840,-0.106797370,0.281934080,9.361274720,-0.040321050,0.013154750,0.000219050
1640791815051669760,-0.041300810,0.254985330,9.376251220,0.039257110,0.054283450,0.003314020
1640791815056419840,-0.223771600,0.266981450,10.292263030,0.059063730,0.002765660,0.011579690
1640791815056709888,-0.106188900,0.179636450,10.163204190,-0.019939240,0.016003850,0.022254880
1640791815061369856,0.127917870,0.071068680,9.715494160,-0.040382150,0.023067000,0.001807510
1640791815061830144,-0.097596540,-0.070408550,10.032692910,-0.006246570,0.028565530,-0.007563830
1640791815066350080,-0.024452600,-0.096006530,9.486823080,0.048460070,0.020021200,-0.004930790
1640791815066759936,-0.052623750,-0.057615680,9.293131830,0.080795570,-0.031541280,-0.010468060
1640791815071349760,-0.201792970,0.035014250,9.586972240,0.011715290,0.009977820,-0.008188190
1640791815071820032,-0.061750460,0.154123430,9.798808100,-0.027604400,0.062336030,0.002887840
1640791815077070080,-0.211464700,0.034177780,10.481305120,0.021973250,0.027216970,-0.017140800
1640791815077789952,-0.121628820,0.170472740,10.041830060,0.079919400,0.015549360,-0.020241740
1640791815081760000,-0.046104190,0.387662800,9.408709530,0.093999510,0.014841560,0.003519650
1640791815082149888,-0.417360100,0.221862030,9.701395030,0.032192460,-0.017559530,0.001591440
1640791815086400000,-0.119327870,0.255693230,9.150574680,0.006052850,-0.026063630,0.019352140
1640791815086819840,-0.044340500,0.168266330,9.431825640,0.021032990,0.037629900,0.010816750
1640791815091790080,-0.125347020,-0.002501150,10.545030590,0.063295650,0.089478490,-0.011038780
1640791815093179904,-0.038134600,0.277824730,10.623557090,0.102923810,0.041134660,-0.022718310
1640791815096819968,-0.439604430,0.567644300,10.448929790,0.032547120,-0.089529160,-0.020070380
1640791815097309952,-0.318196360,0.706151010,9.271335600,-0.054849690,-0.079982010,-0.001706180
1640791815101750016,-0.194037680,0.701744560,8.589896200,-0.034494700,0.008285050,0.005880000
1640791815102720000,-0.253394930,0.547539350,9.676482200,0.018425280,0.052960220,0.010156630
1640791815106370048,0.195860730,0.490524050,10.041448590,0.069373840,0.096206350,0.034953650
1640791815106989824,0.156739590,0.347908680,10.516971590,0.029598180,-0.010690090,0.002634530
1640791815111429888,0.065478530,0.236400050,10.498913760,-0.067096950,-0.045597550,0.006876890
1640791815112199936,-0.027405900,0.049796220,9.402155880,-0.080557170,-0.023803120,0.008650120
1640791815116359936,-0.478112130,-0.257292270,9.421272280,-0.005696710,-0.043767690,-0.019799170
1640791815116899840,-0.381696050,0.010883180,9.106283190,0.053536890,0.037965170,0.008837880
1640791815121299968,-0.286156860,0.162067610,9.237445830,0.015956160,0.056025400,0.013478100
1640791815121649920,-0.333638730,0.040954680,10.580905910,-0.048582250,0.009773670,0.004722180
1640791815126439936,0.122335930,0.198883740,9.887480740,-0.035125020,-0.000305470,0.003546480
1640791815126939904,0.050427680,-0.000578430,9.876033780,0.030140580,-0.023020800,-0.004938240
1640791815131320064,-0.061203890,0.021121090,10.013270380,0.068090860,0.018848480,-0.017295780
1640791815131719936,-0.107741590,0.322301240,9.191160200,0.053149470,-0.019741060,-0.015856330
1640791815136410112,-0.396420630,0.308111220,9.550914760,-0.027798120,-0.072588030,-0.000940260
1640791815136879872,-0.206606700,0.392760340,9.332715990,-0.053745520,0.024279950,0.007180870
1640791815142530048,-0.218536790,0.377407400,9.758186340,0.007894630,0.028739870,0.001521410
1640791815144059904,-0.263502930,0.377020570,10.808937070,0.043925650,0.020492080,0.021855530
1640791815146380032,-0.022374400,0.406896500,10.106266020,0.046165290,0.002279880,0.022663180
1640791815147329792,-0.197272460,0.307860290,9.932382580,-0.005659460,-0.102554270,-0.000485780
1640791815151340032,-0.053311940,0.367500810,9.195305820,-0.064767900,-0.011241440,0.008964540
1640791815151779840,-0.074198390,0.231863740,9.030321120,-0.036565960,0.036099550,-0.007124250
1640791815156379904,-0.332383870,0.258517890,10.369443890,0.016553700,-0.012299420,-0.020760300
1640791815156669952,-0.109538180,0.570715190,9.913201330,0.004321340,-0.005713110,0.003296140
1640791815161419776,-0.133407040,0.431903630,10.003619190,-0.048817690,-0.051063300,0.004200640
1640791815162089728,-0.102546860,0.415305940,10.137398720,-0.084331640,-0.010843580,0.007946790
1640791815166479872,0.104227380,0.378908900,9.108187680,-0.054706640,0.014106930,0.014713410
1640791815167259904,-0.102474980,-0.048095980,9.777466770,0.002728400,-0.015325850,0.014978650
1640791815171289856,-0.048829150,0.009451900,9.693699840,0.027960540,-0.000199680,0.004003940
1640791815171660032,-0.057152430,0.065906820,9.456731800,-0.032483050,-0.055520250,0.007122760
1640791815176790016,-0.188943330,-0.140365470,10.140305520,-0.091174240,-0.003488360,0.004532930
1640791815177959936,-0.155808490,-0.134303240,9.792773250,-0.044995550,0.041788810,-0.023497640
1640791815181449984,-0.275712700,-0.014685890,9.910833360,0.036093590,-0.041119750,-0.025217230
1640791815183559936,-0.325000350,0.155463200,9.671530720,0.040739780,-0.024503480,-0.006330010
1640791815186339840,-0.242954490,0.304312080,9.119147300,-0.003314020,-0.053411710,-0.002279880
1640791815186679808,-0.208441910,0.386311560,9.629898070,-0.063715880,-0.041133170,0.019139050
1640791815191340032,0.013563290,0.164215190,9.825041770,-0.046139950,0.058692690,0.020405650
1640791815191969792,-0.044984720,0.011825980,10.583809850,0.068114700,0.005656480,-0.016056000
1640791815197089792,-0.264782790,0.310022120,10.706941600,0.072908410,-0.073160230,-0.021037460
1640791815199169792,-0.188196320,0.603336100,9.324911120,-0.038801130,-0.108589240,-0.003193320
1640791815201329920,-0.269352700,0.520077470,9.161804200,-0.120048230,-0.059475000,0.016282500
1640791815201759744,-0.138786260,0.428537940,9.319989200,-0.072273620,0.037184360,0.021591780
1640791815206419968,0.084428640,0.201328140,9.813671110,0.057396300,0.046297920,0.027869650
1640791815206939904,0.190295740,0.161419110,10.535823820,0.089213270,-0.000900030,0.020109120
1640791815211389952,0.196985770,0.195757760,10.208050730,-0.022129710,-0.050023200,-0.005500020
1640791815212009984,-0.017543430,0.051872920,9.877880100,-0.124092410,-0.077676780,-0.005376340
1640791815216480000,-0.327303830,-0.076163620,9.528592110,-0.083446500,-0.058282920,-0.019149480
1640791815216889856,-0.403357770,-0.079762410,9.143820760,0.049941250,-0.033609570,-0.026243930
1640791815221319936,-0.320775540,0.308100760,9.284048080,0.070536130,0.008273120,0.007872280
1640791815221669888,-0.206437050,0.364177730,9.921376230,-0.022928420,0.032311680,0.026609010
1640791815226500096,-0.005364290,0.191917300,10.274456020,-0.070931020,-0.016759340,0.022237000
1640791815227089920,0.152404580,0.145205410,9.963931080,-0.027811530,-0.038753450,0.021123890
1640791815231609856,0.149182260,-0.198672250,9.767662050,0.067421800,-0.015494230,-0.001809000
1640791815232079872,-0.038760330,-0.116024200,9.530076980,0.093731310,-0.013059380,-0.018192830
1640791815236389888,-0.282452080,0.170978840,9.418892860,0.019876660,-0.054076310,-0.017122930
1640791815236769792,-0.323452170,0.093675880,9.579291340,-0.066760170,-0.041787330,-0.004151460
1640791815242249984,-0.317562670,0.308555040,9.663563730,-0.041289630,-0.005540250,-0.020293890
1640791815243629824,-0.310332480,0.417357860,10.249781610,0.041489300,-0.002324580,-0.017942490
1640791815246549760,-0.216830360,0.396727860,10.321877480,0.074601160,0.012190640,0.010141730
1640791815249809920,-0.199764590,0.524227860,9.958075520,0.041578720,-0.070053350,0.002147260
1640791815251289856,-0.134093390,0.395262570,9.635193820,-0.041270260,-0.079035760,0.014813250
1640791815251559936,0.002945990,0.349796950,8.992724420,-0.066225230,0.002251570,0.018683080
1640791815256379904,-0.148660240,0.238510390,9.895660400,-0.005680320,-0.011706350,-0.016348060
1640791815256669952,-0.095306320,0.308555450,10.273718830,0.036367780,-0.018912550,-0.017367300
1640791815261649920,0.066900130,0.526846830,9.772843360,-0.001588460,-0.044387590,0.009198490
1640791815262480128,0.014276270,0.380080010,10.157730100,-0.065760320,-0.031094250,-0.001974400
1640791815267170048,0.062378330,0.407987360,9.518647190,-0.086155560,0.008350610,0.003999470
1640791815267629824,-0.119482230,0.165647390,9.447504040,-0.021113460,-0.052304570,0.013569000
1640791815271279872,-0.220248340,-0.194271730,9.660360340,0.040212280,-0.035336610,-0.003474950
1640791815271589888,-0.134735840,0.109843780,9.139049530,0.019578640,-0.019392370,-0.005619230
1640791815276829952,-0.261829730,0.070864710,10.155171390,-0.066718460,-0.026805700,0.002785030
1640791815277760000,-0.141761240,-0.097055730,10.244869230,-0.103016210,0.048170980,-0.009951000
1640791815283259904,-0.139103700,0.019827470,9.991280560,0.006587800,-0.030680000,-0.036047410
1640791815283859968,-0.252412080,0.033350080,9.880192760,0.075472890,-0.067713860,-0.023989380
1640791815286360064,-0.027544030,0.234146740,8.597639080,0.039468710,-0.028580430,-0.001887980
1640791815286690048,-0.117050660,0.245371420,9.280302050,-0.032003220,-0.039571530,0.001262130
1640791815291769856,0.058501140,-0.027259560,9.856414790,-0.067208710,0.031177710,0.022284690
1640791815292790016,0.189979990,-0.233234060,10.109220500,0.046089300,0.026626890,0.007593630
1640791815296470016,-0.189664930,-0.233097910,11.094418530,0.134775060,-0.032110510,-0.031286480
1640791815298769920,-0.321313590,0.261732100,9.777850150,0.057223440,-0.061744450,-0.024585430
1640791815301319936,-0.605262990,0.485934590,9.283115390,-0.044444200,-0.139570250,-0.018216670
1640791815301679872,-0.655743900,0.445428820,9.167318340,-0.077655920,-0.047868490,-0.014005600
1640791815306389760,-0.248375950,0.750642660,8.901327130,0.005367400,0.052030380,-0.000984970
1640791815306860032,-0.139101310,0.580468650,10.688977240,0.095200550,0.037951780,0.011612480
1640791815311499776,0.156780330,0.451501460,10.740468980,0.055140270,0.002825260,0.000531970
1640791815312229888,0.351141150,0.463952870,9.950080870,-0.022223590,-0.107796510,-0.000828500
1640791815316499968,0.031661470,0.054511330,9.835821150,-0.085948420,-0.074663760,-0.004580620
1640791815316999936,0.040061320,-0.142898750,8.808369640,-0.037243960,-0.029930480,-0.009988250
1640791815321349888,-0.234909770,-0.070573290,9.438945770,0.072868170,-0.040355330,0.002875920
1640791815321679872,-0.241116400,-0.022309600,9.835304260,0.043323630,0.022663170,0.013369320
1640791815326479872,-0.012798140,0.130122020,9.834819790,-0.017748770,-0.003191830,0.012098250
1640791815327620096,-0.169963720,0.127874730,10.556772230,-0.040157140,-0.032319120,-0.005206460
1640791815331630080,-0.022835660,0.109420520,9.622730260,-0.019857280,-0.025390090,-0.014430280
1640791815332320000,-0.068323500,0.089083590,9.424741740,0.081598780,-0.044083600,-0.028279430
1640791815336329984,-0.304708480,0.169765070,9.658928870,0.083482260,-0.024747850,-0.026233500
1640791815336640000,-0.058609320,0.414033500,9.096388820,-0.007264320,-0.016491120,0.000408290
1640791815341879808,-0.160639820,0.281884250,10.032590870,-0.047983230,-0.011095400,0.003553930
1640791815343369984,-0.039814440,0.047631960,10.042564390,-0.003440680,0.014369190,-0.011447070
1640791815346439936,0.115495760,0.081395810,9.935985570,0.089429330,-0.003635880,-0.005322700
1640791815347089920,-0.206973080,0.014011250,10.304069520,0.102700310,-0.029544540,-0.001789630
1640791815351310080,-0.078661640,-0.008955290,9.321255680,0.017811360,-0.063882770,-0.002533200
1640791815351699712,-0.137054040,0.178022030,9.245313640,-0.019349160,-0.049236420,0.002992150
1640791815356320000,-0.286353770,0.063542250,9.750619890,-0.010213260,0.031010810,-0.013415520
1640791815356930048,-0.225951660,0.352804480,10.062289240,0.074054300,0.010310110,-0.039859120
1640791815361489920,-0.390871700,0.876309510,10.478837970,0.071549420,-0.058487060,-0.031186640
1640791815362229760,-0.175676520,0.890932980,9.872564320,-0.035296380,-0.031849740,-0.001369420
1640791815366319872,0.020878550,0.932521940,9.585916520,-0.066086660,-0.013847650,0.008082390
1640791815366809856,-0.080126570,0.725237250,9.786563870,-0.028800970,-0.004978480,0.024831300
1640791815371289856,0.244583370,0.315622300,9.376659390,0.023442510,0.004072490,0.024950510
1640791815371670016,0.231735970,0.156551550,9.768314360,0.038693840,-0.002557040,0.005586440
1640791815376379904,0.021935410,-0.113816910,10.256708150,-0.041006500,-0.007118280,-0.011119240
1640791815377049856,0.071838470,-0.171033810,9.967534070,-0.079464930,-0.017531220,-0.016848740
1640791815381409792,-0.248465550,-0.127569210,9.967584610,-0.042191150,-0.033435230,-0.030381980
1640791815382880000,-0.268379090,-0.008731790,9.531307220,-0.008700790,-0.008101760,-0.019253790
1640791815386349824,-0.220856400,0.243998720,9.216503140,0.027291480,0.028279420,0.007477400
1640791815386729984,-0.359312830,0.202997360,9.844801900,0.013829770,0.000540910,-0.005331640
1640791815391379712,-0.019582680,0.388139960,9.763034820,-0.021973250,0.001105670,0.006753210
1640791815391869952,0.035954180,0.449090840,9.862044330,-0.038379430,0.016610320,0.020243230
1640791815396399872,-0.033220150,-0.026312740,10.389725690,-0.009275970,0.017099080,-0.008806590
1640791815396979712,0.008207090,0.085837840,9.780173300,0.063164530,-0.004847350,-0.026981540
1640791815401329920,-0.321292520,0.115606170,9.484465600,0.047533210,-0.056143110,-0.026622420
1640791815401870080,-0.242772490,0.100884830,9.352945330,-0.033371150,-0.014159090,-0.023774800
1640791815406319872,-0.191668530,0.402163800,9.342439650,-0.060890610,0.013923650,-0.006411970
1640791815406739968,-0.142712270,0.122917650,10.192482950,-0.020797550,0.036039940,0.017936530
1640791815411409920,-0.015648730,-0.106310230,10.542899130,0.093179950,0.050877030,0.009818380
1640791815412179968,-0.260235460,0.194325760,10.360594750,0.126019120,-0.070090590,-0.010640920
1640791815416309760,-0.352882530,0.363131340,9.821569440,-0.008055570,-0.098709780,-0.003229080
1640791815416679936,-0.257723030,0.553418820,8.902331350,-0.107148290,-0.022409860,-0.006106500
1640791815421609984,-0.340641380,0.629843950,9.515310290,-0.065948080,0.002376740,-0.017605720
1640791815423139840,0.016906560,0.673325120,10.111031530,0.034926840,0.059267890,-0.011342760
1640791815426779904,0.219400050,0.727994560,10.220561030,0.082421320,0.029423840,0.001145900
1640791815428109824,0.137976900,0.565419440,10.636274340,-0.011643770,-0.034061080,0.007300080
1640791815431330048,0.140656960,0.364715780,9.653544430,-0.107671310,-0.038631260,0.031962990
1640791815431799808,-0.168909510,-0.179089900,9.262556080,-0.076037650,-0.064839420,0.029622020
1640791815436349952,-0.323782380,-0.380991130,9.413311000,0.023983420,-0.019674000,-0.010290740
1640791815436940032,-0.283289550,-0.081897880,9.263271330,0.049448020,0.031524900,-0.010994080
1640791815441859840,-0.340107260,-0.028346140,10.321207050,-0.024113060,0.023941700,-0.009167200
1640791815443069952,-0.134169920,0.122416650,10.461732860,-0.086934860,0.018154080,-0.025393070
1640791815447209728,0.039209300,0.235167920,9.675865170,-0.032910700,-0.038288540,-0.011734660
1640791815447729920,0.046645160,0.155421810,9.626748090,0.038486710,-0.010386110,-0.002728400
1640791815451309824,0.066565190,0.193530890,9.134268760,0.070786480,0.028063360,0.003711880
1640791815451689984,-0.080453710,0.112205060,9.542050360,0.035329160,-0.032089640,0.014472010
1640791815456329728,-0.092377420,-0.062474180,9.911328320,-0.032600760,0.004400310,0.002527240
1640791815456780032,-0.096886140,-0.131895800,9.781393050,-0.002349910,0.010941920,-0.019784270
1640791815461390080,-0.242795970,0.003450520,10.336256030,0.048442190,-0.000377000,-0.030563780
1640791815462050048,-0.298110220,0.133537100,9.957345960,0.058215860,0.010429320,-0.018620490
1640791815466289920,-0.413818750,0.185686830,9.723609920,0.059112900,-0.055240090,0.005720560
1640791815466619904,-0.365870740,0.343072680,9.485290530,0.029639900,-0.046022230,0.013785060
1640791815471369984,-0.136897680,0.404086980,9.100827220,-0.003148620,0.019450490,0.027281050
1640791815471869952,-0.115669800,0.321844850,10.252909660,0.029399990,0.049452490,0.003662700
1640791815477550080,-0.086023520,0.461752150,10.653588290,0.056718300,0.015544890,-0.035631660
1640791815478329856,-0.060191720,0.655708610,10.186683650,0.030960150,-0.091116130,-0.024735930
1640791815481299968,-0.066568460,0.725428520,9.644223210,-0.031539790,-0.054484600,-0.025388590
1640791815481599744,-0.026355970,0.735048170,9.120922090,-0.074039410,0.008352100,-0.012460350
1640791815486439936,-0.019080750,0.580655460,9.452474590,-0.046534830,0.030262770,0.040046870
1640791815486990080,0.055421550,0.127720220,9.834519390,0.025175520,0.037570300,0.040504340
1640791815491760128,0.049776180,-0.119881530,10.050107960,0.053076450,-0.015731160,0.024826830
1640791815492940032,-0.037326220,-0.031909020,10.264164920,-0.012739000,-0.022771960,0.025177000
1640791815496829952,-0.156589640,-0.205687720,9.954397200,-0.091449920,-0.007785860,-0.012940170
1640791815497229824,-0.221512930,-0.219669520,9.685388570,-0.043453280,-0.027923290,-0.041976560
1640791815501639936,-0.124879570,0.218248490,9.192325590,0.034272670,0.027649110,-0.040628020
1640791815502390016,-0.146302340,0.338983680,9.311342240,0.031559170,0.041382020,-0.020030140
1640791815506419968,-0.112948570,0.635423060,9.870149610,-0.008527930,0.002405050,0.012505050
1640791815507219968,0.024459810,0.531304660,9.823279380,-0.048914550,-0.012202560,0.033161050
1640791815511440128,0.124734440,-0.059988190,9.943932530,-0.012263660,0.023731590,0.041948260
1640791815512130048,0.051543090,-0.201775250,10.137764930,0.087514530,0.065843770,0.017970800
1640791815516439808,-0.243545770,-0.330083730,10.063302990,0.095811490,-0.007040800,-0.022190810
1640791815516919808,-0.328609350,-0.074310060,9.532784460,0.002747770,-0.056527560,-0.015532970
1640791815521309952,-0.409814890,0.018773240,9.160844800,-0.049224500,-0.024911760,-0.030441580
1640791815521709824,-0.411990640,0.068310190,9.491638180,-0.011369590,0.015288590,-0.024245680
1640791815526379776,-0.097519700,0.501686280,9.937974930,0.077067320,0.083722180,0.018525120
1640791815526909952,-0.046207560,0.405879910,10.702079770,0.098726150,0.053495170,0.010524690
1640791815531299840,0.072979550,0.551075100,10.515072820,0.052954260,-0.011843440,0.016039610
1640791815531719936,0.043369410,0.694210230,9.681344030,-0.010198360,-0.060300530,0.025133780
1640791815536329984,-0.221969470,0.282012280,9.430117610,-0.028358400,-0.053279110,-0.000253320
1640791815536699904,-0.171403260,0.559539080,8.982822420,0.016614790,0.007434190,-0.007200240
1640791815541889792,-0.213967080,0.539999010,9.631651880,0.035068400,0.044319030,0.001430510
1640791815543360000,-0.074775110,0.232287680,10.398998260,0.001913310,0.078037390,0.001955030
1640791815547040000,0.154516030,0.400871220,10.257638930,-0.001543760,0.028902290,0.004965070
1640791815547719936,-0.057906260,0.013957430,10.304850580,-0.017745790,-0.040686130,0.015027820
1640791815551409920,0.001365360,-0.148340510,9.268915180,-0.000359120,-0.015136600,0.028553610
1640791815551820032,-0.206395360,-0.154345560,9.039564130,0.063028930,-0.013771660,0.024686760
1640791815556320000,-0.313480820,-0.292228520,9.599060060,0.045651200,0.026604540,0.018195810
1640791815556699904,-0.081671150,0.152037980,9.656558990,0.014977160,0.070191930,0.002351400
1640791815561400064,-0.176366580,0.233702390,10.502660750,-0.008831920,0.023448470,-0.031685830
1640791815561969920,-0.037129710,0.373902860,10.121611600,-0.000689920,0.025300690,-0.037762520
1640791815566429952,-0.121860230,0.526863690,9.509857180,0.071462990,-0.020182130,-0.019283590
1640791815566880000,-0.287173690,0.238695280,9.724617000,0.083856280,-0.035531820,0.003224610
1640791815571300096,-0.060321290,0.338178100,8.917556760,0.040821730,0.021629030,0.047051910
1640791815571709952,-0.116584930,0.012707630,9.731643680,0.015157460,0.043837730,0.043503940
1640791815576890112,-0.084462780,-0.353446510,10.578772540,0.035095220,0.078457580,0.022777920
1640791815577529856,-0.052006770,-0.047526640,10.112113950,0.103470690,-0.004772840,-0.022849440
1640791815581469952,-0.366664350,0.142984700,10.288360600,0.075162950,-0.064668060,-0.035664440
1640791815582609920,-0.261230410,0.507496120,9.243960380,-0.010448700,-0.009076300,-0.025251510
1640791815586319872,-0.264161170,0.871004940,9.095735550,-0.021280350,-0.012718140,-0.003875790
1640791815586659840,-0.134387940,0.747690320,9.849596020,-0.011041760,0.080230840,0.021994120
1640791815591849984,0.115373380,0.691259210,9.962777140,0.078101460,0.089091070,0.026699900
1640791815592839936,-0.177216130,0.517085910,10.938742640,0.087918350,-0.047616660,0.016622250
1640791815596400128,-0.049955450,0.404805930,9.959934230,-0.018031900,-0.028942530,0.023303920
1640791815596879872,-0.090867300,0.312875720,9.241340640,-0.063510250,-0.038693850,0.000116230
1640791815601329920,-0.256187290,0.039244530,9.648595810,-0.055995590,0.020979340,-0.011658670
1640791815601779968,0.083295190,0.154252160,9.005766870,0.002662840,0.091360520,-0.004503130
1640791815606329856,0.034133360,-0.013827620,9.956979750,0.088402640,0.038152930,0.005699690
1640791815606860032,-0.009510930,0.037817190,10.315867420,0.033201280,0.027441980,0.004220010
1640791815611409920,0.103083960,0.251677330,9.610085490,-0.045812130,-0.048977140,0.020834810
1640791815612079872,-0.167464970,-0.171469230,10.035489080,-0.048205250,0.009928640,0.016298890
1640791815616619776,-0.248430790,-0.196701570,9.484646800,0.040318080,0.063523650,-0.023466350
1640791815617329920,-0.394673080,0.191203670,9.558890340,0.127795340,-0.011856850,-0.046589970
1640791815621309952,-0.518695710,0.367543580,9.780337330,0.024959450,0.022053710,-0.040498370
1640791815621860096,-0.215908320,0.623172640,9.270668980,-0.071133680,-0.005011260,-0.026316940
1640791815626419968,-0.177879620,0.415883150,9.961862560,-0.040958830,0.025375190,0.010167060
1640791815627139840,0.058846480,0.058946460,10.022662160,0.060921910,0.097461040,0.020927190
1640791815631609856,0.104646970,-0.040241900,10.319374080,0.171721000,0.019836430,0.016438960
1640791815632249856,-0.192202840,0.027242550,10.251022340,0.081123420,-0.037123270,0.009205940
1640791815636329984,-0.126228080,0.088804290,9.042716030,-0.075303030,-0.061193110,0.009299820
1640791815636659968,-0.330919210,0.013671540,9.361421590,-0.050707160,-0.012740490,-0.008620320
1640791815641949952,-0.335720330,0.307852570,9.755657200,0.035056480,0.070308170,-0.045256320
1640791815643499776,-0.131534960,0.778606650,10.203977580,0.092482570,0.046074390,-0.023651120
1640791815646519808,-0.107415330,0.829657910,10.682611470,0.045610960,0.031058500,0.002473590
1640791815648559872,0.012432700,0.854492720,9.954033850,-0.055061280,-0.019451980,0.004598500
1640791815651320064,-0.022876050,0.650532480,9.490379330,-0.051283840,-0.043796010,0.039193040
1640791815651699968,-0.116148290,0.186905340,9.229876520,-0.005006790,0.023220480,0.018428260
1640791815656319744,-0.082296460,0.166712540,9.401292800,0.045554340,0.015024840,0.002756720
1640791815657059840,-0.143742000,0.173299000,10.047524450,0.011806190,0.038228930,0.016537310
1640791815661449984,0.001296000,-0.068321090,10.209488870,-0.072015810,0.046674900,-0.010691580
1640791815663630080,0.011225010,-0.016779300,10.250065800,-0.048196320,0.008352100,-0.022260840
1640791815666309888,-0.034844760,0.060904960,9.650538440,-0.002644960,0.014512240,-0.009380280
1640791815666710016,-0.124219310,-0.061418760,9.269672390,0.040283800,-0.000506640,-0.018809740
1640791815671299840,-0.161475760,0.160569770,9.376480100,0.040754680,0.013981760,0.012664500
1640791815671619840,-0.146692230,0.190626060,9.525789260,-0.023859740,0.045120710,0.017538660
1640791815676920064,-0.149557200,0.009125800,10.224268910,-0.018411870,0.036501890,0.000186260
1640791815677669888,-0.199165850,0.076803150,10.304177280,0.037498770,0.043927140,-0.019648670
1640791815682179840,-0.300332930,0.094476570,9.947487830,0.063419350,-0.007689000,-0.040209300
1640791815682739968,-0.393266470,0.222681640,9.560382840,0.055657330,-0.025872890,-0.020582980
1640791815686319872,-0.295601520,0.384132390,8.952136040,0.002650920,-0.005833800,-0.009977820
1640791815686579968,-0.084457750,0.228142460,9.384745600,-0.019377470,0.022679570,0.006394090
1640791815691490048,0.092519680,0.107327070,10.049175260,0.035528840,0.117960570,0.031769280
1640791815692160000,0.006236800,-0.138599110,10.742259030,0.123158100,0.032196940,-0.007277730
1640791815696659968,-0.138404790,0.070334140,10.606701850,0.110541290,-0.080999730,-0.028413540
1640791815697419776,-0.243878360,0.502005760,9.334572790,-0.008408730,-0.056730220,-0.024257600
1640791815701319936,-0.412988070,0.518984380,9.216752050,-0.073999150,-0.035476680,-0.027701250
1640791815701700096,-0.353756840,0.772059500,9.418071750,-0.030098860,0.044079130,-0.013656920
1640791815706609920,-0.038248240,0.872741100,9.658348080,0.057439510,0.071412330,-0.001901390
1640791815712000000,0.114556820,0.628644110,10.651812550,0.085049870,0.040631000,-0.000096860
1640791815712809984,0.164291920,0.697821560,10.251482010,0.003311040,0.004009900,0.002914670
1640791815713280000,0.087384690,0.343498740,9.883886340,-0.092396150,-0.059336420,0.011999910
1640791815716359936,-0.077505290,-0.211171720,9.549486160,-0.057779250,-0.003658240,0.021316110
1640791815716829952,-0.164939840,-0.194771260,9.135530470,0.052505740,0.021861490,-0.005535780
1640791815721380096,-0.215938550,-0.126850470,9.730276110,0.061884520,0.020042060,-0.005978350
1640791815721869824,-0.049864280,0.136804740,9.708029750,-0.029911110,0.079162430,-0.008732080
1640791815729260032,-0.007241330,0.277020900,10.237041470,-0.074651840,0.039535760,-0.026911500
1640791815730319872,-0.113627640,0.217135300,10.305655480,-0.031822920,-0.003406410,-0.024944550
1640791815731289856,-0.106062880,0.357408080,9.301445010,0.058606270,-0.027768320,-0.011570750
1640791815731619840,-0.285476570,0.310737130,9.468086240,0.072504590,-0.005525350,-0.007440150
1640791815736349696,-0.326083270,0.358908120,9.524208070,-0.011987980,0.049003950,0.026951730
1640791815736640000,-0.214818790,0.221101970,9.904254910,-0.036628540,0.036011630,0.021339950
1640791815741890048,-0.178276670,-0.038518660,10.369353290,-0.011414290,0.025755170,-0.009582940
1640791815742579968,0.009114440,0.212350560,9.807041170,0.041429700,0.034199660,-0.024476650
1640791815746510080,-0.112875830,0.292716560,10.085403440,0.038428600,0.005479160,-0.018325450
1640791815748129792,-0.197354840,0.277178230,9.787158970,-0.015020370,-0.013186040,-0.006692110
1640791815751319808,-0.039658960,0.486903160,9.160687450,-0.023236870,-0.024284420,0.005009770
1640791815751619840,-0.104872660,0.356388060,9.749328610,-0.036560000,0.055858500,0.011369590
1640791815756429824,-0.094906050,0.344868450,10.163603780,0.001168250,0.076909360,0.008748470
1640791815758080000,-0.209281500,0.511397600,10.661227230,0.034125150,-0.004602970,-0.014907120
1640791815761400064,-0.292367430,0.564900280,10.198584560,-0.036674740,-0.038796670,-0.012932720
1640791815762749952,-0.141563970,0.586273130,9.240956310,-0.076258180,-0.024509430,-0.001980360
1640791815766340096,-0.062417500,0.449403050,9.351810460,-0.067880750,0.051952910,-0.016614800
1640791815766769920,0.115906770,0.370098860,9.433199880,-0.048340850,0.101217630,0.009045000
1640791815771299840,0.160907790,0.092751380,10.082342150,0.020155310,0.044409930,0.016760830
1640791815771770112,0.117020520,-0.195667190,10.205866810,0.009468200,-0.011412800,0.000840430
1640791815776899840,0.129999640,-0.027463460,9.614748950,-0.049833950,-0.005319720,0.011694430
1640791815777720064,-0.151908070,-0.182199450,9.913992880,-0.068807610,0.042517480,0.001941620
1640791815781889792,-0.382725300,-0.274046300,9.784920690,-0.036031000,0.034561750,-0.027854740
1640791815782299904,-0.291369140,0.116461140,9.322463990,0.054350500,0.010895730,-0.021117920
1640791815786350080,-0.431690540,0.198884770,9.683209420,0.033685570,0.045225020,-0.035844750
1640791815786659840,-0.311735870,0.516358320,9.616722110,-0.037199260,0.006346400,-0.018443170
1640791815791899904,-0.067878920,0.558806540,9.820932390,-0.050055990,0.027729570,0.012914840
1640791815792960000,0.040576120,-0.009622360,10.061606410,-0.003603100,0.084219860,0.009050970
1640791815796769792,0.077619200,0.007572590,10.254034040,0.113095340,0.051769620,-0.001922250
1640791815797230080,-0.168896020,0.075462940,10.103174210,0.094671550,-0.032851100,-0.008425120
1640791815801339904,-0.206205530,0.057054290,9.171292300,-0.035867100,-0.042486190,0.001072880
1640791815801619968,-0.221566530,0.221226450,9.252753260,-0.068871680,0.011238460,-0.000810620
1640791815806419968,-0.342228030,0.190851440,9.871150020,-0.013943020,0.062406060,-0.011983510
1640791815806959872,-0.129756700,0.461263780,10.211475370,0.070995100,0.056515630,0.002565980
1640791815811460096,-0.154551540,0.585681080,10.608160020,0.083881630,0.023049120,-0.003638860
1640791815812219904,-0.261877630,0.604800340,10.077184680,-0.019669530,-0.045423210,-0.010897220
1640791815816349952,-0.149233520,0.713003700,9.224642750,-0.082007050,-0.046712160,0.023488700
1640791815816879872,-0.398805560,0.206224380,9.371987340,-0.046053530,0.015613440,0.010429320
1640791815821440000,-0.292758140,0.212909190,9.526446340,0.039164730,0.015886130,-0.002120440
1640791815822449920,-0.037206900,0.377999930,9.845347400,0.059711930,0.024992230,0.018472970
1640791815826609920,0.113516100,0.035764510,10.192594530,-0.041513140,0.061574570,0.004978480
1640791815827319808,0.273378970,0.205935140,10.076660160,-0.070357310,0.033058220,0.012685360
1640791815831319808,0.021352230,-0.089117920,9.848003390,-0.024066870,-0.019057100,0.010913610
1640791815831660032,-0.131208750,-0.397340120,9.259014130,0.053030260,-0.052832080,-0.009907780
1640791815836339968,-0.212091950,0.105181080,8.931469920,0.092594330,-0.011765960,-0.004652140
1640791815836689920,-0.444163470,0.028187170,9.628358840,-0.014138220,0.041438640,0.006017090
1640791815841529856,-0.274141820,0.114021700,10.205545430,-0.055234130,0.063736740,0.009584430
1640791815842219776,-0.377034250,0.233372430,10.574601170,0.016807020,0.022438170,-0.013588370
1640791815846479872,-0.381586020,0.150284040,10.097273830,0.081713510,-0.052864850,-0.022374090
1640791815846979840,-0.224188150,0.514771160,9.157275200,0.100180510,-0.046512480,-0.005467240
1640791815851339776,-0.290611330,0.530707480,9.126941680,-0.001458820,-0.020480160,-0.004012880
1640791815851729920,0.138829830,0.418972910,9.276999470,-0.069054960,0.034485750,0.022512670
1640791815856320000,0.247896550,0.201748640,10.068343160,0.007568300,0.089225180,0.011070070
1640791815856679936,0.040572240,-0.168622360,10.923402790,0.106205050,0.009441370,-0.016102190
1640791815861430016,-0.012402960,0.286947790,10.263537410,0.102666010,-0.074408950,-0.018297130
1640791815861949952,-0.489293930,0.454225870,9.548954960,-0.028233240,-0.104002660,-0.002275410
1640791815866370048,-0.483363180,0.332295420,8.965400700,-0.122097140,-0.043162700,0.019980970
1640791815866849792,-0.282427940,0.484119590,8.932807920,-0.025983150,0.065711150,0.018000600
1640791815871419904,-0.198372010,0.296647580,10.152678490,0.089140240,0.073552130,0.007364150
1640791815871959808,0.191702140,0.472247780,10.385987280,0.104241100,0.024989250,0.000707810
1640791815876809728,0.264323350,0.613060060,9.978771210,-0.011560320,-0.053748490,-0.007240470
1640791815877689856,0.240052360,0.127913850,9.709644320,-0.126071270,-0.017058850,0.011809170
1640791815881389824,0.113085600,-0.031225800,9.231125830,-0.029021500,0.025637450,0.009538230
1640791815881829888,-0.295367990,-0.154743780,9.553369520,0.095100710,-0.025723880,-0.006148220
1640791815886370048,-0.153775480,0.051772160,9.362183570,0.092457230,0.019489230,0.013461710
1640791815886769920,-0.196074980,0.224893050,9.594448090,-0.017590820,0.055313120,0.007106360
1640791815891939840,-0.310971650,-0.011350740,10.414623260,-0.088793040,0.021609670,-0.003613530
1640791815893080064,-0.144997580,-0.012380960,9.914471630,0.007720290,0.012142960,0.011771920
1640791815896780032,-0.277697470,-0.068057910,9.690268520,0.137397650,-0.038486720,-0.022810700
1640791815897289984,-0.263407470,0.216458250,9.548649790,0.112552950,-0.018292670,-0.018985570
1640791815901710080,-0.155592050,0.630504370,9.055545810,-0.005720560,0.016403200,0.012421610
1640791815902390016,-0.154060740,0.346431430,9.996478080,-0.091399260,0.038838390,0.011940300
1640791815906329856,-0.014453780,0.456275220,10.226385120,-0.000627340,0.049600010,-0.006243590
1640791815906759936,-0.043406940,0.627793910,10.097159390,0.108058750,-0.028748810,-0.016100710
1640791815911490048,-0.169199530,0.616423790,10.029323580,0.064124170,-0.025920570,-0.000032780
1640791815912229888,-0.138179560,0.754268770,9.113065720,-0.041303040,-0.028227270,0.020304330
1640791815916359936,-0.157993760,0.352180240,9.367296220,-0.102813540,-0.004225970,0.029979650
1640791815916999936,-0.054384550,-0.057244360,9.787014010,-0.020539770,0.088158260,0.013622640
1640791815921349888,-0.181874310,-0.004444320,10.242517470,0.106111180,0.010357800,-0.019530950
1640791815921739776,-0.238457560,0.222864140,10.406640050,0.039939580,-0.051149720,-0.019244850
1640791815926459904,-0.105548670,0.340261760,9.403335570,-0.083133580,-0.019726160,0.007481870
1640791815927119872,-0.102904190,0.178552570,9.408402440,-0.098067520,0.010567900,0.003279750
1640791815931350016,0.041187990,0.122728240,9.503926280,-0.014136730,0.079418720,0.015108290
1640791815931739904,0.163122920,0.133446260,9.485290530,0.116030870,0.033771990,0.015284120
1640791815936409856,0.083697150,0.206081060,10.015988350,0.073972350,-0.018522140,0.002770130
1640791815936879872,0.159330670,0.392812220,9.454025270,-0.068132590,0.000227990,0.013032560
1640791815941509888,-0.135745170,-0.048372070,9.809692380,-0.094558280,0.016456840,0.027646120
1640791815942119936,-0.368037220,-0.338579450,10.100031850,0.027954580,0.024980310,-0.017020110
1640791815946400000,-0.520809230,-0.040625980,9.568543430,0.146161020,-0.025725370,-0.025168060
1640791815948410112,-0.549884970,0.236349340,9.474560740,0.073842700,-0.024591380,-0.011290610
1640791815951340032,-0.320272420,0.372364340,9.312192920,-0.074186930,0.036598740,0.000959630
1640791815951709952,-0.091686440,0.243079540,9.679201130,-0.060497220,0.044579800,0.015181300
1640791815956300032,0.069895000,-0.041246160,10.279035570,0.073853140,0.055515780,0.012275580
1640791815956649984,0.055848890,0.009847430,10.145312310,0.183993580,-0.007735190,-0.007931890
1640791815961509888,-0.037762660,0.413361370,9.825930600,0.095234810,-0.067497800,0.001725550
1640791815962149888,-0.091141610,0.460954280,9.244583130,-0.092166660,-0.017176570,0.017401580
1640791815966759936,-0.268404750,0.272429790,9.601889610,-0.076490650,0.017395620,0.010579820
1640791815967449856,-0.278031710,0.478145480,10.020977970,0.059653820,0.024949020,-0.010566410
1640791815971309824,-0.232879940,0.730148320,9.951704030,0.121207540,0.000858310,-0.003865360
1640791815971639808,-0.250271710,0.793248590,10.055296900,0.036634500,-0.019815560,0.014458600
1640791815976739840,-0.058732250,0.758853440,9.475543980,-0.100892800,-0.014227630,0.018252430
1640791815978179840,-0.003279250,0.218744040,9.413713460,-0.085829210,0.004671510,0.035560120
1640791815982959872,0.036735520,-0.097183410,9.732124330,0.045692920,0.036090610,0.011792780
1640791815983689984,0.014640050,-0.013626440,9.795228000,0.101692980,-0.008793180,-0.010697540
1640791815986320128,-0.005075250,0.108765450,9.868203160,0.004775820,-0.023080410,0.021572410
1640791815986559744,0.084775610,0.070217030,9.611025810,-0.105422750,0.042787200,0.015699870
1640791815991329792,0.005211000,-0.058629050,9.777000430,-0.061769790,0.009644030,0.007915500
1640791815991729920,-0.019311670,0.125354190,9.611587520,0.056263810,0.032435360,0.015287100
1640791815996780032,-0.077493150,0.217648770,9.331641200,0.103101150,0.001233820,-0.003999470
1640791815999369984,-0.163092540,0.360541790,9.657496450,0.028434400,-0.019027300,0.010176000
1640791816001379840,-0.125390400,0.387389420,9.512352940,-0.069718060,0.046648080,0.025151670
1640791816001789696,-0.266026020,-0.205827010,10.049729350,-0.013187530,0.035244230,0.013865530
1640791816006350080,-0.379824580,-0.187047440,10.199571610,0.105522580,0.020307300,-0.011172890
1640791816006739968,-0.349183980,0.134995120,9.487401960,0.116251420,-0.033135710,-0.021649900
1640791816011409920,-0.351352070,0.083901080,9.445425990,0.023178760,-0.035852190,-0.003807250
1640791816012130048,-0.103269350,0.361871480,9.164781570,-0.050748900,0.034825510,0.000961130
1640791816016609792,0.055088030,0.211200030,9.735705380,-0.014941400,0.045956680,0.021442770
1640791816017159936,0.109462860,0.043968850,10.439568520,0.110220910,0.070229180,0.018817180
1640791816021379840,0.028164790,0.365230590,10.238468170,0.148184600,-0.014321510,-0.014650820
1640791816021719808,-0.304978880,0.493108480,10.032386780,0.040920080,-0.116662670,0.005450850
1640791816026649856,-0.330708980,0.662111400,8.986638070,-0.077837710,-0.035215910,0.016213960
1640791816027569920,-0.431402210,0.564720510,9.334098820,-0.060008470,0.012104210,-0.003772970
1640791816031649792,-0.368988160,0.579121950,10.143015860,0.041593610,0.059704490,0.016732520
1640791816032219904,0.007887200,0.701234700,9.995305060,0.102734570,0.038342180,0.010211770
1640791816036359936,0.068710890,0.398568720,10.379356380,0.028207900,-0.042136010,0.002028050
1640791816036720128,0.258861720,0.424985320,9.402106290,-0.079131130,-0.005094710,0.020688770
1640791816041479936,0.184556340,-0.055289860,9.194487570,-0.076547270,-0.015734140,0.011613970
1640791816042119936,-0.052654900,-0.424895440,9.720415120,0.034917890,0.008301440,0.001011790
1640791816046499840,-0.079118940,0.025637400,9.472041130,0.109121200,0.005504490,-0.008475780
1640791816047139840,-0.293678640,0.078471880,10.124616620,0.019533930,-0.020372870,0.011706350
1640791816051349760,-0.267198000,0.174055350,9.942029000,-0.070618100,0.022090970,0.009995700
1640791816051780096,-0.268157480,0.271494870,9.631154060,-0.036703050,-0.002500410,-0.004039710
1640791816056329984,-0.315941070,0.112336870,9.812273980,0.048886240,-0.004847350,-0.001461800
1640791816056739840,-0.156029600,0.321616650,9.132714270,0.129270550,0.003048780,-0.013017660
1640791816061549824,-0.214160030,0.434756340,9.621650700,0.051306190,-0.060464450,-0.011505190
1640791816062510080,0.053623140,0.283901960,9.476468090,-0.067013520,0.025345390,0.035257640
1640791816066829824,0.147096100,-0.077109680,9.889386180,-0.014393030,0.082154580,0.018605590
1640791816067309824,-0.275702030,-0.331048310,10.996824260,0.111365320,-0.004002450,-0.002968310
1640791816071329792,-0.271167870,0.135670020,9.615436550,0.151185680,-0.089293700,0.008079410
1640791816071719936,-0.488616880,0.315837410,9.082569120,0.030227010,-0.119066250,-0.006906690
1640791816076699904,-0.418627350,0.540738700,9.029901500,-0.103057930,0.012651090,0.012731550
1640791816078449920,-0.079880150,0.646465900,9.415199280,-0.042717160,0.095295910,0.020848210
1640791816081389824,-0.082004990,0.399349450,11.099824910,0.096884380,0.037047280,-0.010031460
1640791816082180096,0.091055470,0.787431540,10.443019870,0.140604390,-0.039877000,-0.006356840
1640791816086350080,0.015630440,0.854335730,9.780967710,0.014337900,-0.120200220,0.009039040
1640791816086629888,-0.216758760,0.419898570,9.359426500,-0.138239580,-0.053802140,0.043572490
1640791816091349760,-0.122358900,0.200892610,8.784906390,-0.059789420,0.005571540,0.048615040
1640791816091800064,-0.122199520,-0.077950160,9.684000970,0.076298420,0.014497340,0.023984910
1640791816096410112,0.083806630,0.026997610,9.892706870,0.090137130,0.049105290,0.015772880
1640791816096920064,0.180241060,0.186608280,10.208097460,0.007973610,-0.010740760,-0.007086990
1640791816101430016,-0.063985170,0.074720420,10.270176890,-0.115075710,-0.047685210,-0.010690090
1640791816101840128,-0.082866120,0.089165380,9.237858770,-0.063103440,-0.057916340,-0.000841920
1640791816106339840,-0.358169440,0.048630070,9.399323460,0.069673370,-0.033871830,-0.019319360
1640791816106700032,-0.477918890,0.294442530,9.288825990,0.082691010,0.012044610,-0.004540380
1640791816111830016,-0.258079920,0.585117100,9.527371410,0.008970500,0.008837880,0.023216010
1640791816112869888,-0.162830160,0.274155860,10.227902410,-0.082631410,0.017806890,0.017531220
1640791816116480000,0.141313910,0.179104600,9.835721970,-0.026337800,0.006107990,0.009827320
1640791816116940032,0.103717310,0.077387330,9.979282380,0.090226540,-0.010684130,0.004927810
1640791816121349888,-0.099447700,-0.057890630,9.745353700,0.090761480,-0.044329460,-0.010092560
1640791816121659904,0.030901010,0.376126020,9.009406090,0.010700520,-0.058956450,-0.002893810
1640791816126919936,-0.140884640,0.308816080,9.509391780,-0.093744700,0.033329430,0.010889770
1640791816128480000,-0.312905100,0.137284160,10.076024060,-0.048606100,0.033767530,-0.000925360
1640791816132320000,-0.357036650,0.478917510,10.481755260,0.084216890,-0.043484570,-0.014875830
1640791816132779776,-0.496972080,0.646421020,10.178662300,0.050887470,-0.056841970,0.000943240
1640791816136369920,-0.281353060,0.865404310,9.380468370,-0.042974950,-0.050345070,0.023984910
1640791816136639744,-0.141878870,0.783034680,9.301521300,-0.104039910,-0.004690890,0.022414330
1640791816141680128,0.107338560,0.328097610,9.378708840,-0.077757240,0.031292440,0.032728900
1640791816143169792,0.368555040,0.143302130,9.841665270,0.060252850,0.039330120,0.010414420
1640791816146479872,0.158859630,0.062874290,10.280373570,0.056064130,-0.029346350,-0.012201070
1640791816147049984,0.269346420,0.119120170,9.702486040,-0.062114010,-0.064100350,0.019353630
1640791816151340032,0.051881160,-0.138296770,9.683079720,-0.121858730,0.019855800,0.019899010
1640791816151660032,-0.369307400,-0.449616940,9.842981340,-0.053443020,-0.001652540,-0.003622470
1640791816156559872,-0.294035940,-0.121953910,9.313460350,0.089846560,-0.021442770,-0.003580750
1640791816157899776,-0.480233310,0.139105800,9.326102260,0.075824570,-0.003126260,-0.017470120
1640791816161449984,-0.354005340,0.507730960,9.545744900,-0.053040680,-0.013862550,-0.003485380
1640791816162119936,-0.130143630,0.739862680,9.732473370,-0.112018000,0.016179680,0.011482840
1640791816166319872,-0.109613340,0.240640710,10.178730960,-0.037062170,0.020413100,0.000797210
