# timestamp,accel_x,accel_y,accel_z,gyro_x,gyro_y,gyro_z
1640784242.294600,-0.301231710,0.269140960,10.288488390,-0.024788080,-0.025768580,-0.013205410
1640784242.296880,0.055178280,0.173082170,9.280816080,-0.032834700,0.002066790,-0.007921460
1640784242.299490,0.053689850,0.273728700,10.019151690,-0.002685190,0.017759210,-0.014872850
1640784242.301790,-0.080236650,0.286957380,10.175991060,0.000827010,0.060121720,-0.032141800
1640784242.304590,0.286675270,0.372489300,9.725507740,-0.018736720,0.003573300,-0.014665720
1640784242.306810,-0.016796640,0.388119610,10.289046290,-0.014892220,-0.014519690,-0.010241570
1640784242.310109,-0.003941810,0.389685150,9.652810100,-0.060182820,0.013677780,-0.011901560
1640784242.311659,0.151944500,0.440637200,9.384452820,-0.049002470,-0.015169380,0.007289650
1640784242.317299,-0.053138390,0.281261380,9.832639690,-0.022244450,0.063735250,-0.019404290
1640784242.317940,0.317852020,0.284875510,9.687510490,-0.041629370,0.087635230,-0.009983780
1640784242.319530,0.122802330,0.165291640,10.292007450,-0.031699240,0.037747620,-0.003406410
1640784242.321709,-0.031208980,-0.039807170,10.170681000,-0.051186990,0.008724630,-0.013466180
1640784242.324659,0.173905540,0.017047490,9.413812640,-0.034244350,-0.008215010,0.009523330
1640784242.329470,-0.123559000,-0.240229740,9.746331210,-0.026844450,0.044266880,-0.021874900
1640784242.331080,0.023222310,-0.125184210,9.613546370,-0.027211010,0.104016070,-0.028119980
1640784242.332480,-0.073366200,0.163336280,9.946769710,-0.000749530,0.063632430,-0.019462410
1640784242.334699,-0.072465110,0.086624740,10.172599790,-0.047177080,0.023914870,-0.016167760
1640784242.336760,0.046371910,0.333328460,9.793342590,-0.032541150,0.034037230,0.005197530
1640784242.339530,-0.266819540,0.191942690,9.783020970,0.005750360,0.017109520,-0.008516010
1640784242.341910,-0.173203300,0.040188910,9.775259970,0.009752810,-0.009179120,-0.019353630
1640784242.344669,-0.099720890,0.185186010,9.402822490,0.021538140,0.083099320,-0.021360820
1640784242.347110,-0.111140940,0.092540160,9.985796930,-0.018399950,0.079575190,-0.027494130
1640784242.349540,-0.179876890,0.302663950,10.642465590,-0.046493110,0.020128490,-0.011695920
1640784242.351709,-0.026610670,0.274275570,9.497671130,-0.030379000,-0.022669140,-0.015917420
1640784242.355100,0.098351430,-0.040605500,9.812976840,0.018677120,-0.001788140,-0.015893580
1640784242.357859,-0.253743530,0.176810550,10.110770230,0.069208450,0.122921170,-0.024664400
1640784242.359449,-0.186993020,0.359719100,9.805522920,0.005190070,-0.045138600,-0.018998980
1640784242.361690,-0.123730320,0.507899880,10.125261310,-0.091618310,-0.028082730,0.010469560
1640784242.364940,0.016960030,0.594545070,9.255724910,-0.102211540,0.098195680,0.010511280
1640784242.368280,-0.040676660,0.352594940,10.428539280,-0.023825460,0.001129510,-0.009937580
1640784242.369530,-0.218345630,0.394695820,10.517254830,0.064733620,0.019139050,-0.017473100
1640784242.371899,0.174774860,0.457167270,9.113713260,0.019995870,-0.024501980,-0.006815790
1640784242.374580,-0.005250100,0.449994150,10.279486660,-0.126063820,0.008535390,0.015726690
1640784242.376829,0.121606360,0.307458820,9.617254260,-0.181445460,0.098296990,0.020544230
1640784242.379550,0.502670110,0.060243330,9.653985980,-0.053270160,-0.001427530,0.010183450
1640784242.381899,0.108612000,0.080672290,10.542970660,0.062531240,0.064878170,-0.001040100
1640784242.384500,0.345091700,0.244653360,9.277096750,-0.015917420,0.053519010,0.000293550
1640784242.386989,0.034489220,0.159030010,10.243574140,-0.128191690,-0.009393690,0.029252470
1640784242.389510,-0.132584840,0.005286640,9.823816300,-0.129698230,0.077933070,0.024661430
1640784242.391739,0.322828350,0.075924240,9.120428090,-0.063122820,0.044316050,0.004112720
1640784242.396979,-0.045269200,0.137039870,10.402812000,0.011324880,0.117595500,0.003270800
1640784242.397760,0.142031040,0.146168770,9.633398060,-0.001575050,0.116506230,0.009799000
1640784242.400329,0.042438890,0.134631720,10.147166250,-0.056865820,-0.012311340,0.029337410
1640784242.401820,-0.188503490,-0.119265600,9.871107100,-0.100097050,0.064583110,0.025160610
1640784242.404620,0.194138040,-0.340621710,9.114167210,-0.033269820,0.062753260,0.008070470
1640784242.407009,-0.126503020,-0.108025250,10.098281860,0.061158840,0.117169330,-0.012794140
1640784242.409600,0.045212880,0.048858470,9.781375890,-0.006394090,0.117047140,-0.016593930
1640784242.411749,0.156065260,0.064458570,10.179985050,-0.039345030,0.045266750,0.025151670
1640784242.414590,-0.164004760,-0.005276460,10.083410260,-0.023905930,0.066064290,0.012600420
1640784242.416730,-0.019381360,-0.053198340,9.517648700,0.020220880,0.007122760,0.009790060
1640784242.419700,-0.296318020,0.109603960,9.842877390,0.058202450,0.077356390,0.009731950
1640784242.421960,-0.211397350,0.088846940,9.683429720,0.021536650,0.102423140,-0.016193090
1640784242.424569,-0.234152940,0.366538350,10.420998570,-0.016351050,0.050424040,-0.006145240
1640784242.426780,-0.199827920,0.491270780,9.875707630,-0.044429310,0.042140480,-0.004895030
1640784242.429479,0.128689010,0.247057290,9.700664520,-0.012020770,0.023372470,-0.004507600
1640784242.432190,-0.118893140,0.359671000,10.333951950,0.057737530,0.111339990,0.010819730
1640784242.434870,-0.035918020,0.307852120,9.754503250,0.035665930,0.033204260,0.006259980
1640784242.436760,-0.023789050,0.112760390,10.243640900,-0.015659630,-0.012166800,0.033454600
1640784242.439630,0.042389340,0.222234290,9.491680150,-0.034330790,0.099796080,0.032664840
1640784242.441660,0.093404660,0.122051540,9.788354870,-0.024524330,0.030180810,0.011892620
1640784242.444510,-0.068285730,0.177137480,10.410007480,0.007009510,0.074842580,0.004588070
1640784242.446760,0.111476640,0.357711910,9.300632480,0.023186210,0.058047480,0.007449090
1640784242.449550,-0.121812460,0.185688420,10.475852010,0.006510320,-0.013685230,0.014510750
1640784242.452970,-0.139188590,0.199410500,9.763013840,-0.031581520,0.097979610,0.014887750
1640784242.454460,0.107771620,0.114321780,9.319482800,-0.008510050,0.007851420,0.015999380
1640784242.456699,-0.140496850,0.033294850,10.468493460,0.015051660,0.082369150,0.014707450
1640784242.459750,0.209797920,0.133257660,9.211760520,0.003616510,0.117090340,0.011807680
1640784242.461700,0.032805460,-0.033397020,10.354603770,0.022368130,-0.006236140,0.017106530
1640784242.464619,-0.176055120,-0.178911850,10.029969220,0.028181080,0.074659300,0.027459860
1640784242.467620,0.122849840,-0.043589930,8.967409130,0.021167100,-0.015969570,0.015376510
1640784242.469790,-0.292533370,-0.198797550,10.465675350,0.023654100,0.056412820,0.003856420
1640784242.471700,-0.074779090,-0.061239570,9.406242370,0.045418730,0.140488130,-0.015877180
1640784242.474490,-0.174242210,0.268910260,10.304680820,0.069712100,-0.018972160,-0.008833410
1640784242.476879,-0.270630420,0.306414100,10.376319890,0.025767090,0.053693360,-0.012233850
1640784242.479450,0.135453050,0.455668840,9.038527490,0.013373790,0.031201550,0.002792480
1640784242.481950,-0.383689850,0.403555720,10.582137110,0.044502320,0.027355550,0.005538760
1640784242.484690,-0.123629860,0.350713760,9.587556840,0.034633280,0.073577470,-0.005234780
1640784242.486790,0.009950240,0.346100840,9.804666520,0.054979340,-0.029939420,0.001728540
1640784242.489450,-0.252674190,0.320965740,10.503255840,0.017745790,0.081236660,0.008840860
1640784242.491700,0.153119580,0.278554710,9.478849410,-0.028318170,0.027930740,0.010655820
1640784242.494530,-0.095752830,0.137886580,10.403052330,0.012527410,-0.008141990,-0.003230570
1640784242.496960,-0.041380250,0.164643110,9.849021910,0.039851670,0.093697030,-0.005701180
1640784242.503150,-0.085812230,0.247403470,9.898255350,0.040091580,-0.023651120,-0.000925360
1640784242.503880,-0.323518750,0.264144630,10.193679810,-0.007577240,-0.014023480,-0.003565850
1640784242.504429,0.204735490,0.329255910,8.975130080,-0.030706820,0.043508410,0.005050000
1640784242.506670,0.002937410,0.365607380,10.322353360,0.004105270,0.077675280,0.020289420
1640784242.509740,0.028647440,0.383389560,10.353008270,-0.001360480,0.097586220,-0.000020860
1640784242.511700,0.153914140,0.287301930,9.982492450,0.022439660,-0.046625740,0.010700520
1640784242.514609,-0.019611540,0.164512990,9.876828190,0.029827660,0.016751890,0.016371910
1640784242.516759,0.109592890,0.083343040,9.179883960,-0.030519070,0.063176450,-0.003208220
1640784242.519480,-0.051205080,-0.140790250,10.125816350,-0.020608310,0.036551060,-0.007608530
1640784242.521659,0.000961960,-0.166755540,9.764203070,0.034682450,0.109410290,-0.020951030
1640784242.524500,-0.001339090,-0.092022140,10.067166330,0.057137010,0.010593230,-0.027430050
1640784242.527050,-0.257848680,-0.087946780,10.467237470,0.026041270,0.028003760,-0.003233550
1640784242.529620,-0.128611640,-0.167044610,9.375460620,0.032547120,0.018312040,-0.007878240
1640784242.532320,-0.385098010,-0.255893110,10.005519870,0.076302890,-0.021280350,-0.018259880
1640784242.534760,-0.239172950,0.059973510,9.449069980,0.062161690,0.093661260,-0.014778970
1640784242.536780,-0.049787260,0.203942210,9.801699640,0.058688230,0.042095780,-0.021751230
1640784242.539440,-0.275342400,0.198859270,10.839235310,0.058360410,0.037205220,-0.019773840
1640784242.541730,0.033450930,0.458953350,9.616516110,0.058096660,-0.000695880,-0.019101800
1640784242.544979,-0.107392280,0.280807730,10.244433400,0.077068810,-0.036837170,-0.031697750
1640784242.549950,-0.204749910,0.311398330,9.970036510,0.075054170,0.079375510,-0.033815210
1640784242.551760,-0.131307630,0.597339690,9.698511120,0.052666680,-0.023841860,-0.022970140
1640784242.552320,-0.293504300,0.358478070,10.390535350,0.000123680,-0.012499090,-0.015427170
1640784242.554450,0.118538220,0.308045830,9.226526260,0.021053850,0.058265020,-0.000818070
1640784242.556690,-0.085995100,0.257525440,10.474476810,0.085622070,0.003619490,-0.015631320
1640784242.559450,-0.206770700,0.153072520,10.491423610,0.049069520,0.023673470,-0.018712880
1640784242.562130,0.172627790,0.310564610,9.416053770,0.027573110,-0.050714620,-0.016564130
1640784242.564570,-0.091611630,0.236168530,10.408884050,-0.008574130,0.019499660,-0.027763850
1640784242.566860,0.205949870,0.314150510,9.551309590,-0.023670500,0.089366730,-0.017720460
1640784242.569530,0.122459140,0.303568840,10.045444490,0.054995730,-0.021454690,-0.032781060
1640784242.571709,0.118807680,0.283541620,9.956106190,0.058327630,0.049345200,-0.036376720
1640784242.574499,0.263902190,0.402977710,9.445261960,0.014984610,0.031918290,-0.000713770
1640784242.577590,-0.149634150,0.081232210,10.541226390,-0.013720990,0.021381680,0.002661350
1640784242.579800,0.084450780,-0.123142030,9.733286860,-0.002072750,0.046163800,-0.018407410
1640784242.581840,-0.010837920,0.049197680,9.801116940,0.070334960,0.009410080,-0.030489270
1640784242.585019,-0.099624430,0.070341760,10.009421350,0.033807750,0.090301040,-0.037390000
1640784242.586730,0.128857970,0.149981290,9.633424760,-0.001390280,0.062751760,-0.042380390
1640784242.589450,-0.237717570,0.154351740,10.304609300,0.019970540,0.023031230,-0.044073160
1640784242.591679,-0.012888600,0.155929670,9.597733500,0.021818280,0.012478230,-0.032413010
1640784242.594900,-0.050601540,0.000333850,9.756495480,0.067648290,0.039719050,-0.038900980
1640784242.599290,-0.126461060,0.107166440,9.976141930,0.076125550,0.108049800,-0.056877730
1640784242.600299,-0.100187580,0.326381680,10.064546590,0.034004450,0.037629900,-0.042685870
1640784242.602030,-0.201072920,0.266649750,10.173635480,-0.009401140,0.003552440,-0.029343370
1640784242.604580,0.064530120,0.139283110,9.556917190,0.014808770,0.053264200,-0.053741030
1640784242.606819,-0.281769100,0.087850550,10.222252850,0.111250590,0.043736400,-0.068786750
1640784242.609710,-0.358234670,0.240701850,10.161617280,0.095154370,0.013013190,-0.063182410
1640784242.612059,-0.014804490,0.475307610,9.602838520,0.009858610,0.010991100,-0.052744150
1640784242.614660,-0.179170400,0.418484060,10.360929490,-0.042955580,0.054290890,-0.044801830
1640784242.617780,0.013575740,0.466087610,10.148223880,-0.005131960,0.059555480,-0.060726710
1640784242.619599,0.046523140,0.497406240,10.075572010,0.078453120,-0.014197830,-0.070665780
1640784242.621699,-0.056960800,0.431259630,10.088364600,0.070625560,0.016821930,-0.062356900
1640784242.624460,0.077698860,0.654006540,9.653225900,-0.006558000,0.051273410,-0.049930820
1640784242.627230,-0.253173350,0.512920440,10.376891140,-0.087510050,0.003805760,-0.050435970
1640784242.629930,0.064075490,0.353356720,9.832414630,-0.071495770,0.027146940,-0.046868630
1640784242.631729,0.199617860,0.434133230,9.862729070,0.033724310,0.066505380,-0.047078730
1640784242.635100,-0.026810430,0.179822000,10.613552090,0.020398200,0.086548920,-0.063177930
1640784242.636760,0.203226340,0.275094540,9.905557630,-0.022053710,0.039017200,-0.044824180
1640784242.639449,-0.061951530,0.182482970,10.157493590,-0.056172910,-0.013980270,-0.042994320
1640784242.641780,0.072893460,0.055289110,9.675268170,-0.089237090,0.046736010,-0.035893920
1640784242.644879,0.118507550,0.205138240,9.594561580,-0.031723070,0.071825070,-0.042833380
1640784242.646760,0.042086140,0.078924090,10.294895170,0.009708110,0.114332160,-0.073602800
1640784242.649770,0.206710580,0.361359030,10.101119040,0.011883680,0.095924750,-0.041671100
1640784242.651690,-0.017517940,0.395624940,10.307210920,-0.055012110,0.035491590,-0.045636300
1640784242.654520,0.027421620,0.011883390,10.045031550,-0.096774120,0.030431160,-0.036914660
1640784242.656829,-0.209166020,-0.013861320,9.729179380,0.013643500,0.039565560,-0.036770110
1640784242.659469,-0.109331500,-0.063043610,9.470541950,0.045448540,0.084546220,-0.076937680
1640784242.662079,0.038514490,0.019322310,10.074296000,-0.016130510,0.135819610,-0.053623330
1640784242.664600,-0.276922700,0.089435070,10.494308470,-0.022420290,0.096122920,-0.048428780
1640784242.668059,-0.089495410,-0.030623770,10.211402890,-0.016765300,-0.035835800,-0.053285070
1640784242.669430,-0.175082030,0.077610690,9.902310370,0.008507070,0.037649280,-0.046682360
1640784242.671720,-0.203033210,0.030342170,9.612081530,0.058743360,0.111010670,-0.062152750
1640784242.674510,-0.294194640,0.216965910,10.436145780,0.047343970,0.049227480,-0.068204110
1640784242.676770,-0.290019960,0.670723080,9.995187760,-0.035858160,0.047393140,-0.066018110
1640784242.679510,0.099040630,0.619664610,9.729815480,-0.084039570,0.027833880,-0.058192020
1640784242.681810,-0.103654030,0.520187020,10.645510670,-0.011616950,0.075468420,-0.051739820
1640784242.684500,-0.096288490,0.526998280,9.938112260,0.051628050,0.052633880,-0.064003480
1640784242.686760,-0.027016610,0.404949990,10.194248200,0.025016070,-0.018906600,-0.055830180
1640784242.689499,-0.148494470,0.208906670,10.121625900,-0.033792860,0.082363190,-0.029373170
1640784242.691789,-0.003259540,0.213048150,9.879713060,-0.090351700,0.056290630,-0.040075180
1640784242.694690,-0.149501530,0.131582800,10.655793190,-0.061798110,0.015583640,-0.045871730
1640784242.696879,0.003278600,0.008826630,9.627950670,0.010591750,0.040049850,-0.057856740
1640784242.699570,0.210307360,0.344988170,9.813618660,0.029958780,0.036916130,-0.057625760
1640784242.701730,-0.143243550,0.407218370,10.540740010,-0.058427460,0.118818880,-0.046584010
1640784242.708210,0.085320000,0.319023940,9.907579420,-0.101783880,0.009819870,-0.036270920
1640784242.709110,0.054263080,0.415723350,10.293018340,-0.036814820,-0.018423800,-0.032681230
1640784242.710260,0.196648300,0.365542710,9.495681760,-0.031778220,0.111565020,-0.029630960
1640784242.712139,0.300979880,0.277572070,9.900985720,-0.021247560,0.091285990,-0.024516880
1640784242.714460,-0.046725830,0.157491620,10.669373510,-0.013789530,0.098836420,-0.030164420
1640784242.716899,0.180550130,0.110543980,9.673582080,-0.058096650,0.012700260,-0.025376670
1640784242.719540,0.034686610,-0.016172070,10.018401150,-0.072476280,0.021821260,-0.022111830
1640784242.723060,-0.077677110,-0.311059830,9.716665270,-0.025865440,0.148034100,-0.055645420
1640784242.724449,-0.170755460,-0.167869060,10.035536770,0.054728980,0.046586990,-0.057725610
1640784242.726790,-0.328570460,0.143895730,10.285390850,0.021654370,0.069083280,-0.048908590
1640784242.729470,0.016650010,0.115584520,9.647741320,-0.080679360,0.083366040,-0.045946240
1640784242.733270,-0.362768710,0.104143330,10.698415760,-0.029735270,0.045874720,-0.014601650
1640784242.734530,-0.238971810,0.110384900,9.802207950,0.050359970,0.051386660,-0.055359300
1640784242.736850,0.004546180,0.214134020,9.703853610,0.062552090,0.018039350,-0.065429510
1640784242.739470,-0.181663810,0.444757580,10.342851640,0.014729800,0.139881670,-0.039190050
1640784242.741720,0.100176760,0.436900560,9.981790540,-0.057873140,0.066949430,-0.048142670
1640784242.744690,0.013727440,0.323856470,10.552435870,-0.051321090,-0.001804530,-0.043377270
1640784242.746790,0.147450610,0.246289660,9.764775280,0.020626190,0.091515480,-0.049236420
1640784242.750249,-0.041631860,0.118308100,10.165567400,0.085303190,0.036607690,-0.052483390
1640784242.751750,-0.419626060,0.232747440,10.471601490,0.021530690,0.026768450,-0.051309180
1640784242.754480,-0.054064910,0.387216720,9.280497550,-0.077410030,0.027227400,-0.022134180
1640784242.756719,-0.216033440,0.174605760,10.459431650,-0.070850550,0.063052780,-0.024314220
1640784242.759450,-0.095175510,0.260824680,10.307112690,-0.004091860,0.119011110,-0.030177830
1640784242.761950,0.042470840,0.467209990,10.085290910,0.056268280,0.003936890,-0.045605000
1640784242.764570,-0.141690840,0.336949710,10.477739330,0.022250410,0.030037760,-0.033773480
1640784242.767680,0.153022920,0.565407810,9.528556820,-0.062580430,0.056572270,-0.012306870
1640784242.769640,-0.039835960,0.434292110,10.271152500,-0.092780590,0.028206410,-0.010131300
1640784242.771900,0.175136730,0.153322880,9.916504860,-0.062057380,0.102345650,-0.019297010
1640784242.774439,0.405883790,0.332844110,9.652361870,0.045254840,0.082924980,-0.016231840
1640784242.776780,0.014855370,0.066270610,10.819553380,0.022308530,0.103823860,-0.018960240
1640784242.779539,0.103282620,-0.027946060,10.150645260,-0.053043670,0.049823520,-0.006026030
1640784242.781770,-0.259645430,-0.104704800,9.967736240,-0.031863160,-0.027695300,-0.021457670
1640784242.784530,-0.147918280,-0.252127260,9.523164750,-0.035881990,0.069178650,-0.026048720
1640784242.786890,-0.033508810,0.073281660,9.513846400,0.005252660,0.161153080,-0.025402010
1640784242.789460,-0.332137610,0.074196090,10.730245590,0.030380490,0.125578060,-0.041058660
1640784242.791740,-0.145933810,0.220611110,10.467661860,0.011254850,0.012777750,-0.016543270
1640784242.794680,-0.112720740,0.327126830,9.657228470,0.000721220,-0.000254810,-0.003148620
1640784242.796860,-0.008306320,-0.044583160,9.771553040,-0.012150410,0.083851810,-0.005212430
1640784242.799520,-0.195148750,0.016174450,10.327723500,0.064772370,0.121976440,-0.024102630
1640784242.802460,-0.084329400,0.250837890,9.813134190,0.064866250,0.042040650,-0.038969520
1640784242.804700,0.151878670,0.230661710,10.193032260,-0.020706650,0.031985340,-0.033476950
1640784242.806730,-0.013740970,0.244252040,10.190948490,-0.012212990,0.134374200,-0.019350650
1640784242.809470,-0.173267710,0.035040890,10.373764040,0.042507060,-0.005541740,-0.042153900
1640784242.812160,-0.382059540,0.234111490,10.465871810,0.080132480,-0.022992490,-0.039702650
1640784242.814540,-0.181333050,0.390570130,9.099567410,0.039356950,0.071418290,-0.018690530
1640784242.816939,-0.272355050,0.333769170,10.475446700,-0.014063720,0.067387530,-0.017890340
1640784242.819419,-0.442024140,0.391860130,10.861381530,-0.021079180,0.092144330,-0.009487570
1640784242.821730,0.093396630,0.355645120,9.574140550,0.035546720,-0.040262940,-0.015626850
1640784242.824450,-0.013683560,0.279571740,10.506321910,0.080652530,0.025555500,-0.009471180
1640784242.826750,-0.024263280,0.445145700,9.793948170,0.016599900,0.116404910,-0.013531750
1640784242.829569,0.030947060,0.489773600,10.153831480,-0.042659050,-0.037498770,-0.003133710
1640784242.835800,-0.129427050,0.264645130,10.576557160,-0.041288140,0.030137600,-0.014030940
1640784242.836640,0.348624410,0.380407510,9.211882590,0.008928780,0.069886450,-0.015665590
1640784242.837390,0.089933160,0.352326840,10.672141080,0.032907730,0.049020350,-0.008760390
1640784242.839439,0.000257280,0.191289190,10.362369540,-0.002990660,0.126205380,-0.003866850
1640784242.841770,0.154091460,0.268516390,9.766206740,-0.008592010,-0.036887830,0.019134580
1640784242.844730,-0.223471360,0.066916130,10.489876750,-0.031282010,0.018334390,0.013846160
1640784242.846840,0.159754990,0.023375860,9.125140190,-0.033733250,0.123994070,0.001072880
1640784242.849710,0.004468080,0.055919550,10.268451690,0.042887030,0.064556310,-0.014783440
1640784242.852820,-0.002865130,0.130824160,10.404044150,0.029942400,0.107990210,-0.008130070
1640784242.854410,0.368902420,0.200725670,9.624268530,-0.014203790,0.064584620,0.003136690
1640784242.856799,-0.046626250,-0.022799070,10.544692040,-0.005263090,0.066581370,0.011879200
1640784242.859449,-0.090814840,-0.118223310,9.943286900,0.043663390,0.039990250,0.008492170
1640784242.862010,0.076337020,0.011897100,9.443490030,0.072199110,0.034025320,-0.000901520
1640784242.866340,-0.018055890,-0.026011830,9.958576200,0.022521620,0.169381510,-0.019900500
1640784242.867600,-0.145067440,0.126606540,10.432484630,0.032456220,0.109566760,-0.015982990
1640784242.869920,-0.196887690,0.272793170,10.205705640,0.048308070,0.001710650,-0.008337200
1640784242.871860,-0.048007150,0.148557800,9.737367630,0.034488730,0.029453640,0.000478330
1640784242.874440,-0.377574830,-0.018332670,10.138615610,0.101837520,0.109015410,-0.004896520
1640784242.876780,-0.257868830,0.074225670,9.828673360,0.108103460,0.062349450,-0.006018580
1640784242.879560,-0.275710310,0.186695170,10.249022480,0.052809720,0.046524410,-0.006604190
1640784242.881909,-0.154382320,0.146597150,10.001477240,0.020465250,0.113260750,0.001059470
1640784242.885229,-0.041617680,0.220239490,10.326294900,0.061447930,0.024664400,-0.005024670
1640784242.886750,-0.374087210,0.239715470,10.560701370,0.105842960,0.016930700,-0.014336410
1640784242.889439,0.055519830,0.251363310,9.306111340,0.098770850,0.028762220,-0.010009110
1640784242.891710,-0.226831900,0.311195910,10.461222650,0.081612170,0.058563060,-0.000925360
1640784242.894760,-0.332961830,0.483763130,10.417517660,0.024761260,0.074937950,-0.001412630
1640784242.896950,0.066123360,0.569574530,9.976698880,-0.001139940,-0.037382540,0.017705560
1640784242.900050,-0.106355570,0.489557680,10.278481480,0.046575060,0.055469580,0.007958710
1640784242.904700,0.092123990,0.529100120,9.916443820,0.070591260,0.077408540,0.008153920
1640784242.905439,-0.075564590,0.626406070,10.553606030,0.047631570,0.006555020,0.020499530
1640784242.908120,-0.205320860,0.421731830,10.220130920,-0.013828280,0.012007360,0.013248620
1640784242.909520,0.196672570,0.425645140,9.608845710,-0.036847590,-0.008098780,0.025434790
1640784242.911780,-0.019205910,0.474728730,10.232078550,-0.023061040,0.076249250,0.030198690
1640784242.914660,0.168746690,0.213671070,10.166426660,-0.016230350,0.095959020,0.024266540
1640784242.916970,0.138419080,0.346576300,10.457077980,0.029397020,0.032222270,0.035767260
1640784242.920410,-0.100149650,0.334867860,10.266900060,-0.006531180,-0.002840160,0.038747490
1640784242.921730,0.113948250,0.153945010,9.743742940,-0.078870360,-0.010834640,0.062553580
1640784242.924440,-0.066778370,0.008096870,9.933755870,-0.036223230,0.093297670,0.049194690
1640784242.926820,0.036390750,-0.030883330,9.961147310,0.021554530,0.068524480,0.026781860
1640784242.929610,0.216637790,0.208421720,10.323840140,0.019466880,0.072972480,0.043103090
1640784242.936159,0.180418420,0.185309930,10.072838780,-0.043798990,0.126864020,0.040680170
1640784242.936810,-0.015638580,0.006541000,10.594881060,-0.030134620,-0.014659760,0.046722590
1640784242.938180,-0.294034540,0.067097940,9.971156120,0.023758410,-0.016944110,0.047019120
1640784242.939430,0.046352050,0.045429540,8.732171060,0.013217330,0.031670930,0.030486290
1640784242.941690,-0.263273690,0.050628990,10.509466170,0.004859270,0.154018400,0.043042010
1640784242.944860,-0.149906720,0.184726660,10.241534230,-0.009168690,0.149954870,0.038343670
1640784242.947280,-0.066789150,0.076564040,10.560421940,-0.006754700,-0.052431220,0.043655930
1640784242.949540,-0.175733950,-0.109580170,10.436155320,0.041042270,0.036060810,0.052320960
1640784242.952010,0.022372670,-0.133393110,9.134978290,0.077196950,0.062118470,0.044074650
1640784242.954429,-0.433737700,0.061649980,10.511661530,0.054652990,0.002068280,0.039522350
1640784242.956760,-0.058717060,0.255944610,9.592659000,-0.036014630,0.111064330,0.053672500
1640784242.959460,0.103548500,0.264824750,10.003565790,-0.008074940,0.043442850,0.043481600
1640784242.961959,-0.408548770,0.263574930,11.405007360,0.054730480,0.042603920,0.033445660
1640784242.964680,-0.029610200,0.481342670,9.646119120,0.073505960,-0.001296400,0.039634120
1640784242.966960,-0.289567290,0.419205070,10.163274770,0.060686470,-0.051869450,0.043103100
1640784242.969679,-0.347756860,0.435261790,10.085425380,-0.032696130,0.097255410,0.062842670
1640784242.971730,-0.046553420,0.511999670,9.674252510,-0.050057470,0.030535460,0.072252750
1640784242.974470,-0.222520080,0.237000440,10.763793950,0.008317830,0.014077130,0.059175500
1640784242.976899,0.207798640,0.310155720,9.848418240,0.054821380,0.061374910,0.056658690
1640784242.979730,0.142906650,0.431152910,10.146185870,0.033651300,0.008820000,0.062504410
1640784242.981779,-0.085686010,0.145670220,10.633252140,-0.063860420,0.031736490,0.062075270
1640784242.984500,0.174342260,0.197212060,9.662688260,-0.039742890,0.011636320,0.071612000
1640784242.986780,-0.029104810,0.080104260,10.039858820,0.003688040,0.006175040,0.060327360
1640784242.989440,0.063695650,0.158921540,10.025776860,-0.014920540,0.084111090,0.060714780
1640784242.991740,0.027802150,0.261842130,9.902017590,0.010018050,0.072424120,0.065764780
1640784242.994639,-0.148887470,0.085737270,10.417060850,-0.007972120,0.006768110,0.066652890
1640784243.000140,-0.041154990,0.188727660,10.027675630,-0.024507940,0.014925010,0.077083720
1640784243.000779,-0.075909910,-0.005857560,9.688210490,-0.006435810,0.062601280,0.076690320
1640784243.001720,-0.119022120,-0.234521150,10.365805630,0.033764550,0.033923980,0.061939670
1640784243.004480,-0.194445280,-0.030826190,10.221584320,0.066962850,0.058738890,0.050920250
1640784243.006780,0.110499840,-0.095300760,9.518394470,0.008510050,0.027754900,0.059992080
1640784243.009970,-0.072214720,-0.074214330,10.452567100,0.002206860,0.045233960,0.074085580
1640784243.011760,-0.178137500,0.069925200,9.881380080,0.028117000,0.063420820,0.080257650
1640784243.014510,0.017263680,-0.030499270,9.931937220,0.061117120,-0.049775840,0.075455020
1640784243.016790,-0.270064320,-0.057321220,10.422708510,0.091141460,0.085693610,0.067898630
1640784243.019470,-0.131993170,0.127913860,9.715327260,0.073124450,0.070212770,0.043778120
1640784243.021760,-0.411831860,0.416936640,10.797235490,0.023333730,-0.055047880,0.055992610
1640784243.024439,-0.262002830,0.410182090,9.847808840,-0.013341010,0.028808410,0.047713510
1640784243.026840,0.037242640,0.360288530,9.691563610,0.045333810,0.018529590,0.056993970
1640784243.029709,-0.480912030,0.345673320,11.005083080,0.116156050,0.027814500,0.060541930
1640784243.032009,-0.071217330,0.305178340,9.733706470,0.070932510,-0.002664330,0.061410670
1640784243.034550,0.012259790,0.340318140,10.228785510,0.017578900,-0.029855970,0.103487100
1640784243.037540,-0.242051940,0.203407260,10.467992780,-0.016611820,0.056524570,0.089001660
1640784243.039450,0.223724870,0.153379460,9.779538150,0.004144010,-0.036779050,0.076860190
1640784243.042130,0.017370620,0.285874010,10.368093490,0.087435540,0.000570710,0.073581940
1640784243.044479,0.020855830,0.305480000,9.956569670,0.065281980,0.064224000,0.064438580
1640784243.047510,-0.040910340,0.440293610,10.419046400,0.009256600,-0.044378640,0.089079150
1640784243.049470,-0.324417590,0.396059450,10.302879330,-0.017462670,-0.024726990,0.089688610
1640784243.051780,0.043571030,0.226796870,9.459580420,0.002968310,-0.033201280,0.087007880
1640784243.054459,0.013227200,0.385572110,10.178639410,0.047513840,0.057841840,0.099690260
1640784243.057040,0.094113270,0.248499800,10.119376180,0.015488270,0.109133130,0.084379300
1640784243.059440,0.191430450,0.092709690,10.622173310,0.021377210,-0.002641980,0.101356210
1640784243.062039,-0.013733840,0.060891300,10.258778570,0.024920700,-0.012104210,0.108730800
1640784243.066749,0.106411040,-0.162599860,9.417761800,0.002942980,-0.066711020,0.098298490
1640784243.067590,-0.117677540,-0.303338830,9.934500690,0.047382720,0.049601500,0.096772620
1640784243.069429,-0.065337460,-0.088257230,9.545639040,0.064933300,0.102940190,0.071327400
1640784243.072000,-0.135482890,0.036732620,10.789379120,0.047484040,-0.004962090,0.084896390
1640784243.074540,-0.177571190,-0.027915570,10.546606060,0.024524330,0.032411520,0.095005330
1640784243.076769,-0.118791890,-0.099702570,9.700703620,0.081495960,-0.051732370,0.081883380
1640784243.079490,-0.524916710,-0.114465590,10.399962430,0.135234010,-0.048322980,0.086030360
1640784243.081869,-0.183428290,0.059100770,9.063776020,0.082848950,0.061002380,0.071778880
1640784243.084479,-0.113460050,0.179713520,10.066970830,0.065882500,0.013816360,0.078676650
1640784243.086890,-0.277024210,0.119046840,10.911564830,0.058895360,0.053724650,0.079417240
1640784243.089939,0.096765290,0.212984530,9.628118520,0.090630370,-0.063304600,0.077393670
1640784243.091930,-0.148831190,-0.008454360,10.606569290,0.144335640,-0.057449940,0.071486840
1640784243.095019,-0.211666490,0.012524270,9.900876050,0.134266910,0.066243110,0.075177860
1640784243.100720,-0.235785410,0.301809940,9.967400550,0.094744560,-0.075188290,0.082729770
1640784243.101480,-0.353047670,0.208439390,10.488004680,0.043286390,-0.014190380,0.080400720
1640784243.101830,0.057473980,0.364118400,9.374793050,0.060997910,0.020237270,0.079435120
1640784243.104529,-0.287706200,0.460266980,10.851158140,0.131449120,-0.047244140,0.072215500
1640784243.106900,-0.229596260,0.367366250,10.355351450,0.112883770,-0.019836430,0.078107440
1640784243.109470,0.068491550,0.430274900,9.545127870,0.105120260,-0.078894210,0.095137970
1640784243.112030,-0.316027670,0.440363500,10.690807340,0.053870680,-0.013342500,0.084219880
1640784243.114560,0.035095580,0.510372220,9.771559720,-0.007896130,0.001519920,0.094771400
1640784243.116880,-0.003992520,0.410888820,10.248574260,0.043629110,-0.085695090,0.080180180
1640784243.119459,0.069569420,0.304232390,10.254918100,0.087413190,0.029289720,0.077028580
1640784243.121909,0.185551390,0.327485110,9.912695880,0.079642240,-0.022934380,0.080333670
1640784243.124500,-0.192306160,0.140665870,10.632279400,0.048814710,-0.065974890,0.087969010
1640784243.127349,0.094842810,0.081239360,9.573355670,0.008265670,-0.029383600,0.088007750
1640784243.129510,0.052384570,0.101540600,9.869382860,0.013951960,-0.033973160,0.094980010
1640784243.131909,0.025891020,-0.016823470,10.286319730,0.034399330,0.065736480,0.082172440
1640784243.134519,0.190301910,-0.003153870,10.010831830,0.081405050,0.008462370,0.061850260
1640784243.136839,-0.155250890,0.093397100,10.571987150,0.112938880,-0.070472070,0.070843100
1640784243.139459,0.055825200,0.149859380,9.549996380,0.028182570,-0.029821700,0.071144100
1640784243.141780,-0.002901150,-0.064555120,9.771469120,0.017413500,-0.008778270,0.062899300
1640784243.144480,-0.223785190,-0.133518000,10.405588150,0.095342100,0.047367810,0.056469440
1640784243.146849,0.046815900,0.157068240,9.792799000,0.123572360,0.009132920,0.044721370
1640784243.149809,-0.155348820,0.147281940,10.480061530,0.088441370,-0.044119360,0.046674910
1640784243.151800,-0.049803600,0.146738950,9.882469180,0.038404770,0.026817620,0.073389720
1640784243.154539,-0.136997730,0.046659260,9.893725400,0.082483870,-0.040079650,0.066584340
1640784243.156819,-0.410438720,-0.202727500,10.477363590,0.121608380,-0.039491060,0.055433820
1640784243.159730,-0.005671380,-0.020302330,9.380949020,0.148104130,0.028492510,0.042350590
1640784243.161749,-0.292858540,0.068059470,10.537604330,0.124093910,-0.017550590,0.032693150
1640784243.164600,-0.299819320,0.318080040,10.446244240,0.040242080,-0.010654330,0.044955320
1640784243.167760,0.016790660,0.429188970,9.615117070,0.058345500,-0.070409480,0.050361450
1640784243.169540,-0.241148340,0.253637610,10.560190200,0.119298710,-0.017815830,0.038827960
1640784243.171860,-0.130018430,0.558709080,9.934082030,0.149682150,0.008088350,0.039499990
1640784243.174440,-0.164033380,0.626209260,10.121459010,0.103874510,-0.091972950,0.050792100
1640784243.177270,-0.221551210,0.490295140,10.311079030,0.004410740,-0.009955470,0.062362850
1640784243.179440,-0.067034040,0.569959520,9.908869740,0.010260940,-0.032782550,0.059859460
1640784243.181790,-0.243718000,0.286648600,10.529639240,0.060088930,-0.061982860,0.051414970
1640784243.184470,0.024571380,0.220046190,9.762360570,0.092808900,-0.022667650,0.038966540
1640784243.186810,0.021958730,0.260878830,10.143391610,0.108727810,-0.022031370,0.039809940
1640784243.189479,-0.147618590,0.252583980,10.611475940,0.008232890,-0.033192340,0.047037010
1640784243.191769,0.101645850,0.279517590,9.834826470,-0.048139690,-0.084204970,0.051042430
1640784243.194440,0.047596400,0.136487010,10.003438000,0.011061130,-0.047987700,0.035092240
1640784243.196900,0.199522960,0.291961400,9.704653740,0.074245040,0.021688640,0.038339200
1640784243.199550,0.121575660,0.335308220,10.271551130,0.074572860,-0.003901120,0.037088990
1640784243.201949,-0.004814320,0.207470920,10.439135550,0.019580120,0.000290570,0.052507230
1640784243.204700,0.033578920,0.155032020,9.908674240,0.000481310,-0.089293730,0.069251660
1640784243.206790,-0.151811780,-0.086075380,10.155706410,0.009864570,-0.055137280,0.045771900
1640784243.209760,0.061084620,-0.222278040,9.571271900,0.045017900,0.069707640,0.030621890
1640784243.211720,-0.106813640,-0.099497350,10.258732800,0.113251830,0.002460180,0.018189850
1640784243.214520,-0.212082360,-0.007280870,10.384974480,0.059171020,-0.004258750,0.019514560
1640784243.216830,0.096138160,0.043465500,9.485366820,0.001987810,-0.039607280,0.040051340
1640784243.219550,-0.314021110,-0.260573090,10.513074870,0.060439120,-0.034692880,0.027146940
1640784243.221809,-0.271935700,-0.183581960,9.882465360,0.132599470,-0.000901520,0.012570620
1640784243.224460,-0.093876690,0.164247940,9.685978890,0.141480540,-0.059893730,0.011448560
1640784243.226820,-0.189934810,0.088523630,10.523262980,0.058321650,0.054816900,0.004805620
1640784243.229410,0.054878300,0.364874240,9.924518590,0.040395560,0.012177230,0.017933550
1640784243.232260,-0.269320760,0.360784080,10.566270830,0.084657970,-0.122602300,0.020663440
1640784243.234840,-0.076748220,0.068376080,9.671671870,0.104855010,-0.035391750,0.007659200
1640784243.237200,-0.055492470,0.126315300,9.486177440,0.163866590,-0.011426210,0.008502600
1640784243.239460,-0.483879800,0.050489810,10.832736020,0.120973610,-0.010217730,0.000652670
1640784243.242070,-0.078839900,0.215061190,9.866048810,0.032074750,-0.033676620,0.016686320
1640784243.244439,-0.244044010,0.294744850,10.423665050,0.047558550,-0.095088790,0.020051010
1640784243.246860,-0.251262900,0.231751670,10.426241870,0.081101060,-0.009204450,-0.001753870
1640784243.249750,-0.184933630,0.458460870,9.798758510,0.126056360,-0.079929830,-0.001159310
1640784243.252679,-0.321509030,0.369220170,10.403211590,0.129663960,-0.076656040,0.008080900
1640784243.254429,-0.002447980,0.512235820,9.657284740,0.044415890,0.002019110,0.006876890
1640784243.256810,-0.144211130,0.702183370,10.457921030,-0.010041890,-0.081206870,0.014200800
1640784243.259650,0.012825140,0.381691720,10.439558030,-0.007905070,-0.019544360,0.025747720
1640784243.261730,0.231087830,0.237161590,9.750411030,0.095732520,-0.052498280,0.004097820
1640784243.264600,-0.129586710,0.285580460,10.612851140,0.142438720,-0.074599690,0.007434190
1640784243.267140,0.038270130,0.341892930,9.738961220,0.015537440,-0.015299020,0.022105870
1640784243.269709,-0.019149850,0.156091330,10.030306820,-0.058096650,-0.092618170,0.023463370
1640784243.271870,-0.129231360,0.065789760,10.405773160,-0.015674530,-0.010083610,0.020319220
1640784243.274870,0.280622570,0.173055740,9.524041180,0.064384940,-0.002378230,0.002211330
1640784243.276790,-0.036879270,0.041504260,10.744361880,0.109189760,-0.031171740,0.012421610
1640784243.279430,-0.052673380,0.166413960,10.096007350,0.057463350,0.004029270,0.013461710
1640784243.282199,0.077913930,0.277401510,9.617283820,-0.024084750,-0.126594320,0.018344820
1640784243.286039,-0.057262330,-0.058426880,10.061909680,-0.039140880,-0.008948150,0.032447280
1640784243.288090,0.284701820,-0.062488170,9.284848210,0.053596500,0.106011330,0.004160400
1640784243.291530,-0.105359800,0.023384170,10.910637860,0.144033130,-0.037747630,-0.020705170
1640784243.292699,0.005980570,0.202080370,10.080506320,0.056640800,-0.019755960,0.009982290
1640784243.294950,0.277993410,0.055270320,9.240516660,-0.010387600,-0.032244630,0.025068230
1640784243.298020,-0.348838030,-0.368760260,10.797518730,0.026018920,0.007677080,0.009970370
1640784243.300150,-0.139852960,-0.194725110,9.474502560,0.127136720,-0.003677610,-0.011570750
1640784243.302019,-0.165149260,-0.010927150,9.878351210,0.150258840,-0.038233400,-0.026422740
1640784243.304489,-0.268891930,0.161104070,10.274036410,0.053408750,0.081953410,-0.021143260
1640784243.306890,-0.127606170,0.389647570,9.988119130,0.016751890,-0.037176910,-0.003099440
1640784243.309530,-0.243446050,0.183201640,10.335432050,0.054481640,-0.078961250,-0.010116400
1640784243.311839,-0.029954770,0.139629240,9.495881080,0.120791820,0.028288360,-0.015671550
1640784243.314590,-0.207142790,0.118791300,10.283441540,0.174063440,-0.009799000,-0.021792950
1640784243.317550,-0.324184630,0.217758660,10.235384940,0.089408460,-0.034749510,-0.014680620
1640784243.319480,-0.017524130,0.394315090,9.524510380,-0.014224650,-0.066261000,-0.010664760
1640784243.323969,-0.189263400,0.139931140,10.358781810,0.014020500,-0.001353030,-0.017200410
1640784243.324470,-0.175979380,0.213468570,10.156597140,0.121930260,-0.016516450,-0.031523410
1640784243.327240,-0.199487020,0.407536750,10.270261760,0.160807370,-0.089712450,-0.040128830
1640784243.329609,-0.286227880,0.436907080,10.120023730,0.070908670,-0.017824770,-0.009456280
1640784243.331980,-0.104612630,0.493858280,9.841856000,-0.009022650,-0.059661280,-0.001776220
1640784243.334550,-0.234934930,0.516146960,10.600042340,-0.017434360,-0.042174770,-0.014060740
1640784243.336789,0.054184980,0.500788990,9.705833440,0.043517350,-0.013367830,-0.012815000
1640784243.339399,0.082697620,0.481516120,10.216281890,0.108781460,-0.093697000,-0.025506320
1640784243.341760,-0.049976970,0.558480260,10.320313450,0.049354140,0.009112060,-0.009834770
1640784243.344920,0.193872590,0.521546300,9.469626430,-0.054976350,-0.040677200,0.008481740
1640784243.350060,-0.242522270,0.148828090,10.943673130,-0.056780880,-0.080089270,-0.001557170
1640784243.350950,-0.028039160,0.164126930,9.512704850,0.019787250,-0.029803810,-0.001534820
1640784243.351889,0.177135740,0.236415940,9.572075840,0.053428110,-0.065536800,-0.006823240
1640784243.354420,-0.209549680,0.105613970,10.771743770,-0.006556510,0.086087000,-0.014826660
1640784243.356760,0.097970020,0.218019070,9.683977130,-0.033873320,-0.033214690,-0.002923610
1640784243.359429,-0.114201870,0.116269340,10.659835820,-0.015001000,-0.145664830,-0.003483890
1640784243.362399,0.021318090,0.050976010,9.428493500,-0.020919740,0.031916800,-0.009280440
1640784243.364550,0.071388010,0.068029340,9.484147070,0.030812620,-0.042419140,-0.028875470
1640784243.367010,-0.326278540,0.073157740,10.642395970,0.040601190,-0.000616910,-0.039474670
1640784243.369650,0.225115970,0.195293640,9.154634480,-0.018177930,0.001698730,-0.027863680
1640784243.371770,-0.140775700,0.067151830,10.721157070,-0.018997490,-0.052794810,-0.023001430
1640784243.374440,-0.299545910,-0.071484500,10.283313750,0.017869470,-0.009222330,-0.025317080
1640784243.377080,-0.098656390,-0.031413960,9.296231270,0.061561170,-0.122270000,-0.033903120
1640784243.380200,-0.469130010,-0.087623170,10.243511200,0.055062780,-0.000388920,-0.037109860
1640784243.381870,-0.182134150,-0.029689020,9.656484600,0.013712050,0.025542080,-0.033158070
1640784243.384770,-0.248666940,0.181588530,10.585231780,0.020755830,-0.104178500,-0.025272370
1640784243.386790,-0.103927710,0.207685470,10.004244800,0.002174080,-0.021064280,-0.029423830
1640784243.389429,0.107968350,0.237807290,9.742572780,0.037388500,-0.060631330,-0.036971260
1640784243.391810,-0.337966050,0.298526050,10.818864820,0.085209320,-0.057345630,-0.044256460
1640784243.394549,-0.090816180,0.460584280,9.476124760,0.041046740,-0.080296400,-0.049600010
1640784243.397210,-0.095930870,0.567729120,9.906263350,-0.019691890,-0.110380370,-0.025841600
1640784243.400100,-0.216551040,0.586001340,10.195572850,-0.049890580,0.022439660,-0.021441280
1640784243.402360,0.000486910,0.446161570,9.973816870,-0.008963050,-0.071623920,-0.026369100
1640784243.404470,-0.360824230,0.252990010,10.951420780,0.056459010,-0.109215080,-0.037175420
1640784243.406790,-0.197390290,0.323090400,9.536167140,0.041307510,-0.059680650,-0.031831860
1640784243.409920,-0.186497260,0.249373330,9.978285790,-0.024594370,-0.141808390,-0.014740230
1640784243.412089,-0.334623720,0.304579910,10.246907230,-0.097501260,-0.022658710,0.000575180
1640784243.414490,0.304542960,0.285938770,9.241067890,-0.068950660,-0.041159990,-0.014239550
1640784243.416910,0.126978350,0.197059740,10.873871800,0.029335920,-0.066111990,-0.025366250
1640784243.419469,0.197864000,0.389000830,10.025840760,0.039374830,-0.007101890,-0.023294990
1640784243.421810,0.362992970,0.318857550,9.772461890,-0.026300550,-0.140519460,-0.021329520
1640784243.424460,-0.085169750,0.243260460,10.371259690,-0.093141210,-0.064437100,-0.013831260
1640784243.426859,0.385107990,0.321404430,8.794428830,-0.097276270,-0.011388960,0.002896790
1640784243.429849,0.095834430,0.000206310,10.488368990,-0.015810130,0.004239380,-0.004062060
1640784243.431910,-0.136844550,-0.045914870,10.438969610,0.037465990,0.039772690,-0.022347280
1640784243.435959,-0.038742470,0.002734660,9.755083080,0.047382720,-0.148865630,-0.004121660
1640784243.436800,-0.384004470,-0.128191080,10.044953350,-0.051841150,-0.082500280,-0.002968310
1640784243.439469,-0.027159730,-0.124815170,9.011016850,-0.112035890,0.037561360,-0.006124380
1640784243.441990,-0.176900910,-0.238171250,10.460912700,0.010965760,0.013579430,-0.035370890
1640784243.444500,-0.088811520,0.015318210,10.225479130,0.095717610,-0.005629660,-0.041620440
1640784243.446849,0.251945500,0.300281730,9.588680270,0.053101780,-0.072667000,-0.022356210
1640784243.451040,-0.085227680,0.137688760,10.302549360,-0.024449830,-0.013001260,-0.000241400
1640784243.451799,-0.137573600,0.155196160,9.642895700,-0.039128960,-0.068277130,-0.002564490
1640784243.454429,-0.127303850,0.034497420,9.727640150,0.037434700,-0.087800630,-0.019127130
1640784243.456849,-0.077727300,0.051841240,9.674427030,0.079347200,0.056809190,-0.044997040
1640784243.459540,-0.277330910,0.261963960,10.439009670,0.070360310,-0.033158060,-0.032728910
1640784243.461959,-0.399879630,0.327124210,10.492779730,-0.001272560,-0.083351140,-0.018222630
1640784243.468150,-0.120160230,0.332614510,9.389426230,-0.059071180,-0.080995260,-0.017996130
1640784243.469010,-0.350046630,0.141192020,10.344124790,0.026704370,-0.052236020,-0.012032690
1640784243.469519,-0.297177400,0.210913550,9.978511810,0.093495840,-0.005722040,-0.023157890
1640784243.471900,-0.027104410,0.548223200,9.737047200,0.049671530,-0.105422740,-0.021404020
1640784243.474480,-0.111338830,0.434865330,10.505838390,-0.035530330,-0.039264560,-0.003145640
1640784243.476960,0.259545770,0.487330500,9.446935650,-0.063212220,-0.020535290,-0.008837880
1640784243.479940,0.080322950,0.483272080,10.477270130,-0.009708110,-0.112298150,-0.007580220
1640784243.481799,0.016031860,0.316681210,10.160318370,0.027030710,-0.002469120,-0.013741850
1640784243.484439,0.155752840,0.448069870,9.521129610,0.045180320,-0.088538240,-0.019076470
1640784243.486790,-0.330196560,0.516606090,10.797233580,-0.051653390,-0.086469960,0.007452070
1640784243.489800,0.107031620,0.407369080,9.217187880,-0.135256350,0.013068320,0.020112100
1640784243.491789,-0.030992390,0.212347220,10.234214780,-0.058941550,-0.077016670,-0.002878910
1640784243.494500,-0.213694240,0.133881110,10.555600170,0.028815870,-0.015378000,-0.000594560
1640784243.498070,0.314032760,0.188743220,9.032858850,0.016924740,-0.048775960,0.002007190
1640784243.499470,-0.137410220,0.044846190,10.742024420,-0.059589750,-0.059981640,0.007343290
1640784243.502139,0.126836510,-0.019545610,9.571576120,-0.102408230,0.015495720,0.020271540
1640784243.504500,0.341714740,0.077351060,9.589104650,-0.057061020,-0.078557430,0.008030240
1640784243.506929,-0.004247710,0.036701500,10.590745930,-0.024650990,0.058659910,-0.004860760
1640784243.509440,0.222970500,0.187881570,9.524323460,0.009913740,0.001294910,-0.007432700
1640784243.512159,-0.223116010,0.210379360,10.470810890,0.007803740,-0.122222320,-0.004954640
1640784243.514480,-0.147009600,0.094510950,9.453030590,-0.072307890,0.009109080,-0.000044700
1640784243.517680,-0.057580290,-0.065202300,9.526138310,-0.044345860,-0.001674890,0.002236660
1640784243.519450,-0.394008220,-0.047755600,10.674412730,0.028553610,0.037740170,-0.017571450
1640784243.521849,0.034495990,0.202014760,9.566981320,0.007759040,-0.011554360,-0.022394960
1640784243.524479,-0.096465420,0.160619650,10.238510130,-0.018787380,-0.045521560,0.004504620
1640784243.526840,-0.116199110,-0.103171600,10.053652760,-0.015626850,0.026644770,-0.008806590
1640784243.529500,-0.067669150,-0.192970310,9.764421460,0.057485700,-0.081713500,-0.016543270
1640784243.532050,-0.173996750,0.027080570,9.822660450,0.052969160,-0.020223860,-0.011803210
1640784243.535519,0.132802380,0.191109730,9.397756580,-0.012755400,0.053982440,-0.020883980
1640784243.536980,-0.237458330,0.265209110,10.989985470,-0.013360380,-0.031432520,-0.007075070
1640784243.539490,-0.217638730,0.376165870,10.206106190,0.014376640,-0.062358390,-0.004157420
1640784243.541880,-0.101962030,0.271584360,9.563558580,0.056028370,-0.097174950,-0.010418890
1640784243.544780,-0.529165570,0.270382760,10.402404790,0.062029070,-0.022517150,-0.013248620
1640784243.546860,-0.321437180,0.473967550,9.513397220,0.006723400,-0.002922120,-0.009389220
1640784243.549569,-0.416241110,0.394484040,10.342399600,-0.040791930,-0.098831950,-0.020512940
1640784243.551770,-0.192471500,0.419634310,9.966176990,-0.039936590,-0.012929740,-0.013652440
1640784243.554479,0.204659860,0.488572570,9.638248440,0.018279260,-0.041453540,-0.011487310
1640784243.556790,-0.188817040,0.356760920,10.956562040,0.022870300,-0.055879360,-0.006936490
1640784243.559460,0.073531720,0.447631240,9.553584100,-0.025919080,-0.046941630,0.002545120
1640784243.562100,-0.009070540,0.339890180,10.058709140,-0.048568850,-0.138565900,0.004324320
1640784243.564580,-0.104256410,0.251155730,10.037892340,-0.071857850,-0.006780030,0.010669230
1640784243.568019,0.180114980,0.343608020,9.435677530,-0.047396130,-0.010135770,-0.005763770
1640784243.569680,-0.191058220,0.307599900,10.971791270,-0.022475420,-0.052098940,-0.023257730
1640784243.571920,-0.001892540,0.443329270,9.805035590,-0.042963030,-0.038872660,-0.002044440
1640784243.574430,-0.030702230,0.415454980,9.828821180,-0.076478720,-0.103348490,0.005538760
1640784243.576789,-0.325540040,0.102099840,10.355072020,-0.093658270,-0.005607310,0.002102550
1640784243.579399,-0.014906410,0.193405730,9.394174580,-0.043627630,-0.062459720,0.000199680
1640784243.581879,0.032686550,0.135594900,10.042564390,-0.020855670,-0.035956510,0.007712840
1640784243.584499,0.301302730,0.034285740,9.771973610,-0.088468190,0.095105170,0.001624230
1640784243.586809,0.164787500,0.002735400,10.507629390,-0.059477990,-0.034660090,-0.000819560
1640784243.589419,0.004779560,-0.128542720,10.337705610,-0.014965230,-0.089254970,0.002382700
1640784243.591800,0.175125520,-0.000569770,8.968695640,-0.036542120,-0.074748700,0.001758340
1640784243.594839,-0.140834260,-0.031996180,9.873969080,-0.046037140,0.022010510,-0.006929040
1640784243.598150,-0.043269680,0.034320640,9.716102600,-0.050409140,0.075091430,-0.029498340
1640784243.600750,-0.049496200,0.252747420,10.276237490,-0.023597480,-0.042569640,-0.014761090
1640784243.601800,-0.138225700,0.089997170,10.361228940,-0.014396010,0.014071170,-0.007216630
1640784243.604720,-0.096243400,-0.020895590,9.710586550,0.009331110,-0.046867140,-0.017331540
1640784243.606969,-0.353537680,-0.129571690,10.117379190,0.038212530,-0.076580030,-0.004562740
1640784243.609769,0.002320900,-0.100281520,8.944008830,-0.007854400,0.064027290,-0.013673310
1640784243.611800,0.021216790,-0.064013560,9.995989800,-0.007340310,0.013275450,-0.009150800
1640784243.614519,-0.207215830,-0.142465200,10.884052280,0.023043160,0.028115510,-0.021776560
1640784243.617839,0.105689720,0.111620810,9.517600060,0.048488380,-0.079201160,-0.029549000
1640784243.619540,-0.243971410,0.063184720,10.244425770,0.063306100,-0.090296570,-0.023105740
1640784243.621790,-0.255169990,0.188378870,9.685304640,0.029011070,0.048276780,-0.029218200
1640784243.624450,-0.175061550,0.495256070,9.698444370,0.016888970,-0.059941410,-0.020639590
1640784243.626920,-0.486355660,0.516302230,10.684784890,-0.004820530,-0.017295780,-0.015948710
1640784243.629599,0.065796380,0.672480290,9.384044650,-0.006066260,-0.009216370,-0.012317300
1640784243.632040,-0.184998210,0.498494180,10.647195820,0.047421460,-0.075232990,-0.016865130
1640784243.635140,-0.345550330,0.399843420,10.462013240,0.026942790,-0.013555590,-0.025120380
1640784243.638430,0.058336190,0.470303680,9.209113120,-0.001934170,-0.095796590,-0.014352800
1640784243.639400,-0.375070300,0.299954350,10.526092530,-0.046747920,-0.058604770,-0.016596910
1640784243.641860,0.008725590,0.370190140,9.439246180,-0.062747310,0.016976890,-0.005625190
1640784243.644430,0.016644820,0.298741730,10.122635840,-0.000594560,-0.068718200,-0.009752810
1640784243.646870,-0.202730250,0.197989050,10.699443820,0.005173680,-0.015074010,-0.013715030
1640784243.649720,0.173066790,0.305977200,9.464868550,-0.005877020,-0.072394300,0.003077090
1640784243.652789,-0.272048440,0.283032540,10.545157430,-0.057888030,-0.077737880,0.000138580
1640784243.654430,-0.125695150,0.346896740,9.827612880,-0.116533030,0.002676250,-0.000789760
1640784243.656800,0.006084480,0.273515820,9.811483380,-0.036855050,-0.098545850,-0.006367270
1640784243.659420,0.007499180,0.294980560,10.047297480,0.001066920,-0.006657840,-0.007297100
1640784243.662050,0.357534140,0.386607290,9.584400180,-0.051261490,0.054904830,-0.000062580
1640784243.665190,-0.034939460,0.166037230,10.779598240,-0.055903200,-0.040099020,0.011907520
1640784243.667490,0.007437100,0.069115910,9.925277710,-0.058913220,-0.100532180,0.007759030
1640784243.670940,0.163938820,0.022736020,9.207386970,-0.057828430,-0.077770660,0.002975760
1640784243.672590,-0.019709240,-0.225941910,9.796190260,-0.036437810,0.077199940,-0.005698200
1640784243.674440,-0.056842990,-0.173858370,10.037861820,0.016650560,0.020618740,-0.029262900
1640784243.676890,-0.177257910,0.015025120,10.418409350,-0.005903840,-0.066176060,-0.018803780
1640784243.679630,-0.026959370,-0.015831780,9.668474200,-0.082406410,-0.019726160,0.004139540
1640784243.682230,-0.223625530,-0.267377880,9.989456180,-0.012081860,-0.041943780,-0.010003150
1640784243.685590,-0.428027390,-0.275581390,10.117255210,0.067113350,-0.028106580,-0.031594930
1640784243.686810,-0.083179550,0.186209350,9.222792630,0.061449420,-0.018076600,-0.027488180
1640784243.689450,-0.181541410,0.150398460,10.280658720,-0.010591740,0.004689400,-0.021725890
1640784243.691810,0.010736590,0.220136090,10.058248520,-0.042279060,0.007867810,-0.016288460
1640784243.694739,0.049347590,0.254412560,9.952131270,0.044816730,-0.087574130,-0.013168160
1640784243.697110,-0.097630900,-0.035972050,10.184912680,0.087417660,-0.037230550,-0.013253090
1640784243.700130,-0.052474750,0.154761640,9.589500430,0.095476230,-0.009484590,-0.014755130
1640784243.701880,-0.393141630,0.245698290,10.348818780,0.022487340,-0.072069470,-0.019833450
1640784243.704510,-0.237204810,0.140012680,9.766054150,-0.060579190,-0.024315710,-0.016345090
1640784243.706900,-0.163304340,0.299749200,9.760604860,0.021556020,-0.050556660,-0.038965050
1640784243.709400,-0.421719910,0.233246800,10.704627040,0.074060270,-0.044359270,-0.051870950
1640784243.712309,-0.163703280,0.417748330,9.654867170,0.070509320,-0.047458710,-0.028824810
1640784243.714619,-0.312226440,0.425308590,10.129952430,0.022107360,-0.108377660,-0.030234460
1640784243.716859,-0.154494150,0.366766750,10.059367180,-0.055710980,-0.018449130,-0.010739270
1640784243.719430,0.057608940,0.502336200,9.735197070,-0.030548870,-0.062970820,0.009730460
1640784243.721809,-0.028228030,0.215298710,10.545296670,0.017693640,-0.050441920,-0.010906160
1640784243.724419,0.319725130,0.298334960,9.575841900,0.037281220,-0.026483830,-0.019149480
1640784243.726889,0.138617680,0.384138410,10.035847660,0.030252330,-0.074422350,-0.006733830
1640784243.729509,0.017294680,0.208839070,10.171199800,-0.060401860,-0.018361210,-0.008703770
1640784243.734720,-0.017644800,0.243412410,9.688735010,-0.070409480,-0.090147560,-0.006268920
1640784243.736480,-0.215710330,0.155187060,10.059003830,0.002701580,-0.088760260,-0.025634470
1640784243.737640,0.083167770,0.262614490,9.373031620,0.010825690,0.026741630,-0.023907420
1640784243.739420,-0.118510010,0.245651560,10.277870180,0.007699430,0.014205280,-0.013984740
1640784243.741880,-0.221784590,0.119423020,10.558384900,-0.028258570,-0.027607390,-0.010700520
1640784243.745000,0.011481070,0.099944120,9.640743260,-0.026986000,-0.132521990,0.007998940
1640784243.747210,-0.020302240,-0.140099150,9.571824070,-0.011384490,-0.041261320,-0.003369150
1640784243.749470,0.203809070,-0.171031500,9.492712020,0.010870400,0.079746550,-0.027897960
1640784243.751799,0.019033590,-0.116909790,10.420001980,0.069919240,-0.021725890,-0.027416650
1640784243.754429,0.058406660,0.057727620,10.110597610,0.018744170,-0.032448770,-0.024642060
1640784243.756800,0.215641080,0.180295240,9.559221270,-0.041438640,-0.043930120,-0.007383530
1640784243.759470,-0.424360480,-0.179744360,10.437016490,0.020180640,-0.051324070,-0.019308920
1640784243.762210,-0.309288140,-0.027800190,9.408690450,0.097079580,-0.056676570,-0.032317630
1640784243.764920,-0.330458430,0.155247410,9.434407230,0.093223150,-0.042319290,-0.033861390
1640784243.768220,-0.491775100,0.144650010,10.380961420,0.011967120,0.029571360,-0.023569170
1640784243.771119,-0.131821020,0.359886530,9.919702530,0.000166890,-0.035128000,-0.013598800
1640784243.771780,-0.286784710,0.179598050,10.373292920,0.032770630,-0.103515390,-0.025044380
1640784243.774430,-0.071935550,0.186488850,9.771031380,0.076267120,-0.031621750,-0.030530990
1640784243.777119,-0.084706080,0.223470240,9.716799740,0.120329860,-0.052775450,-0.036640460
1640784243.779749,-0.340790120,0.180527550,10.286998750,0.047214340,-0.074656330,-0.029398510
1640784243.781950,0.110841480,0.417582270,9.313389780,-0.029905150,-0.035321710,-0.010624530
1640784243.784659,-0.124289570,0.260392640,10.350499150,-0.008146470,-0.051771120,-0.019070510
1640784243.786880,-0.182997720,0.303249930,10.458263400,0.044439730,-0.040534140,-0.013591350
1640784243.789410,-0.163171100,0.477362330,9.715043070,0.088796030,-0.111755730,-0.024800000
1640784243.791810,-0.451218190,0.300926330,10.238994600,0.028897820,-0.116847460,-0.037027890
1640784243.794489,-0.176363390,0.526207570,9.538096430,-0.020229810,-0.033082060,-0.000973050
1640784243.797410,-0.186249460,0.609354560,10.117396350,-0.049173830,-0.063735250,-0.007569790
1640784243.799980,-0.022346550,0.459024460,10.375788690,-0.057752430,-0.031919780,-0.015771390
1640784243.802990,0.202678490,0.562428180,9.803071980,0.029709940,-0.075963150,-0.019225480
1640784243.804440,0.112229030,0.335331350,10.109746930,0.036415460,-0.085008140,-0.018215180
1640784243.806800,0.082567640,0.240121740,9.818048480,-0.047434870,-0.046329200,-0.002305210
1640784243.809680,-0.025621150,0.160865350,9.797334670,-0.060404850,-0.089497860,-0.004267690
1640784243.811839,0.184788350,0.051392350,9.665006640,-0.063806770,-0.045463450,0.001737480
1640784243.814630,0.196240190,0.140311720,9.864728930,-0.027348100,0.027957560,0.005370380
1640784243.817989,-0.094739530,-0.074481740,10.546140670,0.005327170,0.009284910,-0.013262040
1640784243.819399,-0.194484400,-0.028772750,10.267692570,0.020857160,-0.132799150,-0.001095240
1640784243.821900,-0.166002290,0.042795140,9.319035530,0.009521840,-0.129847200,-0.005470220
1640784243.824580,0.121316910,0.154076070,8.880101200,-0.078080590,0.053638220,-0.009566550
1640784243.826910,-0.028750410,0.221625630,10.262100220,-0.059786430,0.070646400,-0.004713240
1640784243.829510,0.005829470,0.181867110,10.577136040,0.026185810,-0.009024140,-0.026416780
1640784243.832080,0.283558730,0.286745550,9.776844020,0.048062210,-0.102204080,-0.015404820
1640784243.834590,-0.125007630,-0.043033860,9.866907120,0.033372640,-0.052966180,0.000077490
1640784243.837100,-0.159597640,-0.243703190,9.471637730,-0.006495420,-0.011762980,-0.012047590
1640784243.839450,-0.225172470,-0.150376100,9.643777850,0.003233550,-0.033621490,-0.021135800
1640784243.842150,-0.377198990,-0.243148420,10.082226750,0.017760700,0.017294290,-0.035698720
1640784243.844460,-0.111235070,-0.069899890,9.971402170,0.050258650,-0.004765390,-0.031144920
1640784243.847080,-0.479562430,0.064753440,10.468658450,0.096221280,-0.090046230,-0.023148960
1640784243.849520,-0.300405350,0.072031150,9.671231270,0.046668950,-0.087440020,-0.011737640
1640784243.852000,-0.066653370,0.251823010,9.342907910,0.027351080,-0.027433040,-0.010249020
1640784243.854410,-0.358900010,0.188376550,10.441931720,0.050538770,-0.002783540,-0.033243000
1640784243.857270,0.078698050,0.505876720,9.852248190,0.054335610,-0.046715140,-0.045782330
1640784243.859460,0.012723030,0.756154420,9.900680540,0.050441930,-0.093372180,-0.038413700
1640784243.861830,-0.081196280,0.551258150,10.211626050,-0.006783010,-0.057078900,-0.034371020
1640784243.864859,0.040388770,0.706511260,9.707907680,0.008484720,-0.052739680,-0.022390490
1640784243.868320,-0.390245140,0.377081810,10.346357350,0.034649670,-0.094485290,-0.033672150
1640784243.870240,-0.217480180,0.345801410,9.915822980,0.020436940,-0.053685910,-0.023484230
1640784243.871919,-0.223113550,0.592722120,9.803570750,-0.003452600,-0.078257930,-0.016218420
1640784243.874460,-0.286696310,0.213325950,10.320372580,-0.075706850,-0.054101650,-0.009398160
1640784243.876819,-0.016523280,0.297445860,9.825592040,-0.043633580,-0.037997960,-0.005938110
1640784243.879400,-0.026733500,0.222364720,9.984464650,0.030975050,-0.097365690,-0.009500980
1640784243.882050,0.095289370,0.305095880,10.013480190,-0.001089270,-0.047966830,-0.004340710
1640784243.885160,0.092781450,0.553203460,9.788246150,-0.068141520,-0.039102140,0.002637510
1640784243.886880,0.045871790,0.327311520,10.230044360,-0.102615360,-0.083760920,-0.002835690
1640784243.889609,0.146064940,0.498625550,9.852023120,-0.051161650,-0.059348350,0.001843270
1640784243.891960,0.256850510,0.505420390,9.449747090,-0.014244020,-0.022511180,0.000673530
1640784243.894460,0.099751130,0.288092110,10.155746460,-0.047944480,-0.006018580,-0.001434980
1640784243.897220,-0.103166450,0.376433190,10.103836060,-0.056272760,-0.056108840,0.011149050
1640784243.899479,0.000123380,-0.006888070,9.500967030,-0.080460300,-0.080490100,0.021381670
1640784243.903499,-0.109984750,-0.279165060,10.011261940,-0.059486940,-0.020074840,0.014351310
1640784243.904790,-0.142034810,-0.236306310,9.851069450,0.009971860,0.029735270,-0.013864040
1640784243.906940,0.104773650,0.011482860,9.750321390,-0.023800140,-0.034525990,-0.019104780
1640784243.909400,0.046980560,0.220723450,10.159977910,-0.091721120,0.003157560,-0.005526840
1640784243.911840,0.109610970,-0.026234420,9.681833270,-0.069631640,0.016601390,-0.007790330
1640784243.914899,-0.099729870,-0.049725290,10.043999670,0.040158620,-0.115068260,-0.016486640
1640784243.916999,-0.238238510,0.088487710,9.407327650,0.067128240,-0.031168760,-0.020924210
1640784243.919450,0.025441820,0.164943080,9.134407040,-0.025627020,0.036099560,-0.003813210
1640784243.922250,-0.293616530,0.169007300,10.687169080,-0.065657500,0.035274030,-0.007882710
1640784243.924480,-0.081193090,0.133076040,10.065345760,-0.036275390,-0.018645820,-0.011709330
1640784243.926930,-0.005761170,0.018974200,9.934967990,0.044241550,-0.089626010,-0.004844370
1640784243.929390,-0.299051820,-0.162515610,9.925906180,0.112287710,-0.016033650,-0.024464730
1640784243.932910,-0.131047680,-0.017117890,9.315901760,0.056602070,-0.028587880,-0.019435590
1640784243.934540,-0.230490920,0.354513730,9.791782380,-0.042882570,-0.041291120,-0.003595650
1640784243.938170,-0.029528480,0.268383380,9.856255530,-0.104369220,0.036883360,-0.022819640
1640784243.939980,0.111426770,0.459686930,10.407288550,0.002941490,-0.004523990,-0.017820290
1640784243.941880,-0.367954520,0.519123380,10.712151530,0.116410860,-0.086326880,-0.029487910
1640784243.944419,-0.170325580,0.443465770,9.530818940,0.053271650,-0.126719490,-0.023986400
1640784243.946830,-0.185566920,0.638750730,9.255266190,-0.036443780,-0.041575740,0.013591350
1640784243.949760,-0.392513160,0.301781030,10.057346340,-0.114190580,0.027954580,0.000971560
1640784243.952010,-0.076738660,0.413182380,10.095468520,-0.067493300,-0.024288890,0.008887050
1640784243.956370,-0.125329760,0.474438160,10.224148750,0.027489660,-0.076384850,-0.007078050
1640784243.957029,0.090784650,0.337736610,9.973118780,0.005146860,-0.070078660,-0.007094440
1640784243.959430,0.097051460,0.504780230,9.764373780,-0.055252020,-0.019082430,0.015959140
1640784243.961799,-0.131533670,0.186631800,10.159193040,-0.108285260,-0.039723520,0.000591580
1640784243.964490,0.075940870,0.308464170,9.929887770,-0.077080730,-0.068587060,0.008517500
1640784243.967399,0.106297370,0.557440880,9.488192560,-0.039525330,-0.037273760,0.014550990
1640784243.969519,0.134913220,0.406433640,9.793224330,-0.089780990,-0.000433620,-0.000560280
1640784243.972479,0.039356630,0.431482850,10.139695170,-0.085103520,0.004436080,0.015506150
1640784243.974540,-0.064829680,0.210667820,9.818553920,-0.046619780,-0.064538430,0.006811320
1640784243.976879,-0.037720110,0.176307020,9.904873850,-0.079397860,-0.070869930,0.016053020
1640784243.979420,-0.139832030,0.151411070,9.701503750,-0.102530430,0.035601850,0.030329820
1640784243.981920,-0.179081920,-0.219121950,9.965671540,-0.077220800,-0.043134400,0.002774600
1640784243.984619,-0.140077320,-0.035239730,10.104181290,-0.034412750,-0.048153110,0.010095540
1640784243.987089,0.203891170,0.026585550,8.995183940,-0.051346430,0.032830240,0.011232500
1640784243.990219,0.104363590,-0.129536330,10.284260750,-0.067709390,0.007662180,0.011964140
1640784243.991930,-0.187369450,-0.007793810,10.343025210,-0.024935610,-0.021596250,0.020213430
1640784243.994400,0.181695490,-0.062317390,8.988018040,-0.018073620,-0.104722400,0.013075770
1640784243.996909,-0.080979010,-0.011320670,10.048193930,-0.020708140,-0.004027780,-0.000524520
1640784243.999539,-0.241150420,0.123213010,9.707377430,-0.014169520,0.069266560,-0.005906820
1640784244.002030,-0.158968810,0.318553330,9.975550650,-0.028440350,-0.090508150,-0.009228290
1640784244.004530,-0.361872640,0.229721800,10.193737980,-0.035506490,0.000463430,-0.001753870
1640784244.007660,-0.202035490,-0.012944400,9.422227860,0.004570190,-0.016722080,0.002692640
1640784244.009379,-0.489095780,-0.102565500,10.339900020,0.082974160,-0.096812860,0.012232370
1640784244.011920,-0.338664080,-0.090790380,9.287233350,0.028197470,-0.008817020,-0.006596740
1640784244.014420,-0.004854900,0.051182660,9.517896650,-0.049348190,-0.036373740,0.012692810
1640784244.017310,-0.199505730,0.077492980,10.708845140,-0.027413670,0.034870210,0.003549460
1640784244.023759,0.134745580,0.103914450,9.880207060,0.017650430,-0.063748670,-0.014355780
1640784244.024469,0.019822030,0.369924990,10.136738780,0.079520040,-0.127024950,-0.003117320
1640784244.024910,-0.182570470,0.389004950,9.666045190,0.037187340,-0.029620530,-0.020433960
1640784244.026909,-0.148610930,0.566692470,9.574395180,-0.032661860,-0.084613260,0.006034970
1640784244.029389,-0.518404960,0.811983470,10.224040030,-0.068476800,-0.059731320,0.008596480
1640784244.032240,-0.126217690,0.557641800,9.531016350,-0.067988040,-0.040076670,-0.008639690
1640784244.034740,-0.125612410,0.654934050,10.230250360,0.017723440,-0.072798130,0.012263660
1640784244.037299,-0.258424940,0.452680410,10.216247560,0.021435320,-0.028626620,-0.006198880
1640784244.039440,-0.015712860,0.167454230,9.890789030,-0.046269590,-0.099736460,0.015094880
1640784244.041900,-0.197176220,0.245970320,10.074571610,-0.064100330,-0.098690410,0.022140150
1640784244.044450,0.037111080,0.073155010,9.429867740,-0.098997360,-0.061199070,0.004909930
1640784244.046900,0.216674940,0.214240570,9.821623800,-0.075462470,-0.030708310,0.016868120
1640784244.049729,0.114393590,0.275453510,10.078888890,-0.024135410,0.003035370,-0.009565060
1640784244.052980,0.327904610,0.311268450,9.979057310,-0.029100470,-0.086547430,0.000126660
1640784244.054469,0.098187020,0.457934140,10.060009000,-0.070017580,-0.052031890,0.023402270
1640784244.057430,-0.094884920,0.247958760,9.651370050,-0.105611990,-0.056244430,0.002597270
1640784244.059430,-0.213171410,0.179822920,10.029806140,-0.069937120,-0.101622950,0.016604360
1640784244.061820,-0.167448000,0.246574820,9.220526700,-0.032942000,0.009122490,0.011289120
1640784244.064450,0.072958980,0.082558330,9.673927310,-0.063611570,0.015380980,-0.003059210
1640784244.067649,-0.166989880,0.080202620,10.597126010,-0.058302290,0.018379090,0.012935700
1640784244.069710,-0.014375420,-0.027018070,9.514904980,-0.053103280,-0.097794850,0.007084010
1640784244.071980,0.029689750,-0.242177580,9.846181870,-0.050728020,-0.119504340,0.013963880
1640784244.074460,-0.142138630,-0.302806140,9.426741600,-0.013504920,0.043970350,0.016178190
1640784244.076830,-0.060263750,-0.193352120,9.715538980,0.011403860,-0.039657950,-0.022359200
1640784244.079419,-0.246301580,0.232368960,10.504410740,-0.037398940,-0.028046970,-0.011447070
1640784244.082090,0.013776030,0.403834130,9.365393640,-0.089827190,-0.019964580,0.004772840
1640784244.084890,-0.080212380,0.243243370,10.270764350,-0.025655330,-0.076287990,-0.000411270
1640784244.088080,-0.365425830,0.247592570,9.981719970,0.053709750,-0.028389690,0.008328260
1640784244.090109,-0.036735010,0.336718020,9.068177220,0.039577480,-0.089770540,0.024442370
1640784244.091790,-0.277508650,0.234038290,10.358033180,-0.026533010,-0.000175830,0.020447380
1640784244.094390,-0.264139740,0.251233310,9.857171060,-0.084112590,-0.008241830,0.015382470
1640784244.097070,-0.189963670,0.313433290,10.186361310,-0.050859150,-0.141283880,0.020892920
1640784244.099520,-0.255307970,0.193953600,10.027162550,-0.002449750,-0.041596600,-0.006337460
1640784244.102320,-0.077828820,0.382113100,9.494000430,0.018411880,-0.061859190,-0.011463460
1640784244.104519,-0.299974380,0.525313970,10.357618330,-0.024457280,-0.067815180,0.018316510
1640784244.107380,-0.131147830,0.306931940,9.644724850,-0.104396060,-0.054588920,0.017131870
1640784244.109400,-0.002637000,0.400965270,9.883067130,-0.067840520,-0.114293400,0.028540200
1640784244.111930,-0.068039160,0.407125560,10.134439470,-0.022029880,-0.034131110,0.034201140
1640784244.114470,0.283110860,0.223106220,9.465590480,-0.039096170,-0.042802090,0.023382900
1640784244.116950,0.165422840,0.505805250,10.175659180,-0.052861870,-0.043626130,0.019538400
1640784244.120090,0.192567080,0.265276910,9.841395380,-0.086222590,-0.006932020,0.024910280
1640784244.123250,0.171344650,0.135011200,9.973635670,-0.074110930,-0.107185550,0.025981660
1640784244.124410,-0.177290220,0.283852430,9.830392840,-0.039415060,-0.061108170,0.014105440
1640784244.126850,0.042319100,0.011509310,8.981831550,-0.052496780,-0.063940890,0.016622250
1640784244.129660,-0.110628850,0.158170910,9.966487880,-0.054594870,0.008650120,0.040814280
1640784244.132020,-0.020892400,0.044814950,9.847192760,-0.068396330,0.067695980,0.022779410
1640784244.134539,0.055433570,-0.132899210,10.423988340,-0.042566660,-0.076588980,0.029672680
1640784244.137189,-0.211758170,0.170921650,10.088336940,-0.014160570,-0.068207080,0.031533830
1640784244.140519,0.217053640,-0.052489390,8.817694660,-0.059762600,-0.054848200,0.013564530
1640784244.141880,-0.113431300,-0.098200040,10.028529170,-0.039453800,0.030428170,0.015228990
1640784244.144470,-0.025576700,0.107281110,9.508367540,0.002209840,0.052639850,-0.002793970
1640784244.147009,0.103111260,0.149562970,10.095339780,-0.012357530,-0.086188300,0.004063550
1640784244.149459,-0.121854870,0.276489700,10.145457270,-0.047415490,0.007335840,0.020304320
1640784244.152150,0.014424310,0.097948480,9.464926720,-0.031968950,-0.011231010,0.009970370
1640784244.154480,-0.414507900,0.048037320,10.535324100,0.023962560,-0.083218510,0.019721690
1640784244.158579,-0.213398500,0.248458520,9.042134280,0.013896820,0.001889470,0.008025760
1640784244.159380,-0.111650050,0.267219600,9.694738390,-0.029946870,-0.016663970,-0.004725160
1640784244.162230,-0.504288610,0.337535830,10.627156260,-0.042946630,0.005003810,0.012053550
1640784244.164480,-0.115153950,0.362749160,9.350415230,-0.037217140,-0.074160090,0.003473460
1640784244.166970,-0.122132340,0.320145640,10.226513860,0.001449880,-0.086449090,0.005865100
1640784244.169940,-0.178556220,0.380201910,9.798563000,0.006264450,0.041626390,0.020809470
1640784244.171880,0.044392000,0.409888800,9.884272580,-0.028397140,-0.064051160,0.018599630
1640784244.174440,-0.132908610,0.383287610,10.445805550,-0.064221030,-0.054945050,0.024236730
1640784244.177350,0.286911340,0.381602380,9.221900940,-0.063954280,-0.017294290,0.036418430
1640784244.179890,0.222545040,0.465048580,10.091562270,-0.036890800,-0.032201410,0.028514860
1640784244.181850,-0.049662410,0.372100440,10.051958080,-0.045408310,0.015901030,0.026042760
1640784244.184759,0.047035680,0.352338020,9.698532100,-0.041510160,-0.082701440,0.032839170
1640784244.186950,-0.256695240,0.314231040,10.174046520,-0.045856840,-0.062729420,0.045418740
1640784244.190349,-0.099189650,0.197339360,9.373616220,-0.103203950,-0.005121530,0.043268510
1640784244.191929,-0.029021160,0.183166430,9.941117290,-0.076566640,0.011272730,0.039622190
1640784244.194730,-0.028464490,0.108150330,10.012024880,-0.033774980,0.040070720,0.037814680
1640784244.196930,0.294977900,0.153525370,9.748554230,-0.034740570,-0.041605530,0.045894090
1640784244.199479,0.172450600,0.139783900,9.915043830,-0.040906660,0.011315940,0.041936340
1640784244.201830,0.133161650,-0.017247570,9.430624010,-0.058303770,-0.008107720,0.036582350
1640784244.206580,-0.014936880,0.075761020,9.949107170,-0.031329700,-0.037476420,0.050699720
1640784244.207280,-0.060188550,0.006593640,9.534713750,-0.031653050,0.061027710,0.032652910
1640784244.209460,-0.085780870,-0.044762280,9.908591270,-0.022003050,-0.007617470,0.016126040
1640784244.212319,-0.336151150,0.290847360,10.271922110,0.003929440,0.020782650,0.022433700
1640784244.214500,-0.099503540,0.203730370,9.285716060,-0.041510160,-0.025707480,0.022801760
1640784244.216859,-0.279403630,-0.001730910,10.254138950,-0.020518900,-0.034844880,0.032809380
1640784244.219560,-0.269457580,0.002712530,9.524394990,0.038158890,0.068710750,0.005756320
1640784244.222380,-0.191724420,0.038776820,9.755832670,0.024332100,-0.080882000,0.001315770
1640784244.224419,-0.180081560,0.316870570,10.085805890,-0.019058590,0.028282410,0.022362170
1640784244.226960,0.150845440,0.251990590,9.304389950,-0.052426760,0.048603120,0.022093950
1640784244.229410,-0.256648600,0.191077200,10.996854780,0.002665820,-0.057709220,0.029069190
1640784244.232070,-0.161872190,0.355654630,9.640743260,0.041882700,-0.020496550,0.023327770
1640784244.234500,0.077121480,0.216036660,9.183181760,0.032649930,-0.086328390,0.025689610
1640784244.236930,-0.446624130,0.379262570,10.514009480,-0.006939470,0.032335520,0.028309230
1640784244.239640,-0.083841820,0.608736520,9.180818560,-0.074227150,0.007434190,0.024661420
1640784244.242159,-0.142770830,0.480369750,10.499176030,-0.053209070,-0.093200800,0.032733380
1640784244.244459,-0.199576330,0.599112030,10.113184930,-0.004787740,0.052164510,0.031535330
1640784244.246889,0.190261960,0.599396290,9.408439640,-0.001694260,-0.053569680,0.028902300
1640784244.249420,-0.290498470,0.413567330,10.714426990,-0.038978460,-0.038266190,0.043061380
1640784244.252410,0.007736340,0.349171520,9.172715190,-0.076836350,0.008279090,0.039468710
1640784244.254429,0.057303370,0.246104420,9.897727970,-0.079606470,-0.081002700,0.044725830
1640784244.256909,-0.227267830,0.145629700,10.195736890,-0.070102510,0.036107010,0.035673380
1640784244.259960,0.284173640,0.174302340,9.085961340,-0.046008830,-0.017800930,0.021705030
1640784244.261880,0.017452380,0.224518120,10.461439130,-0.026614970,-0.022721290,0.045877700
1640784244.264490,0.059787640,0.212616130,9.854356770,-0.082486860,0.052943830,0.039394190
1640784244.266960,0.143018440,0.124277710,9.883042340,-0.075651690,-0.060988960,0.051374730
1640784244.269580,-0.231528740,0.006360020,10.012590410,-0.021164120,-0.030197210,0.040248040
1640784244.272019,0.157799150,-0.007224780,8.926905630,-0.029636920,0.003632900,0.032472610
1640784244.274500,0.034420630,0.044031970,9.899977680,-0.034481290,0.064972040,0.032734870
1640784244.276939,-0.077320160,0.081511650,10.087493900,-0.050152830,0.066839140,0.018201770
1640784244.279430,0.085110320,0.201971130,9.961630820,-0.049684940,-0.054588910,0.035990770
1640784244.281900,-0.210934500,0.178188060,9.862308500,-0.038048630,-0.023703270,0.026942790
1640784244.284489,-0.057633900,-0.149180100,9.369632720,-0.004823500,0.012870130,0.028540190
1640784244.287040,-0.323754820,-0.018106580,10.003096580,0.054650010,0.031894450,0.028978290
1640784244.289970,-0.368827250,0.111173910,9.693934440,-0.005717580,-0.000101330,0.013798480
1640784244.293429,0.009160470,-0.015573490,9.735289570,-0.065791610,-0.024521360,0.041207670
1640784244.294440,-0.135014950,0.017224550,9.901978490,-0.011247400,0.064997380,0.026874240
1640784244.296919,-0.071907850,-0.040802520,9.894590380,0.051093110,-0.032074750,0.014255940
1640784244.299549,-0.065093690,0.085718460,10.055359840,0.075708330,-0.038878620,0.031547250
1640784244.302230,-0.049488910,0.223846320,9.310667040,0.028206410,0.028681760,0.001557170
1640784244.308930,-0.137548940,0.363931270,10.122062680,-0.050300360,-0.025969740,0.018729270
1640784244.309810,-0.244626330,0.545797710,9.958390240,-0.053076450,0.015497210,0.022859870
1640784244.310299,-0.047983330,0.416135520,9.565130230,0.007185340,-0.042043630,0.006063280
1640784244.311930,-0.319174680,0.522054260,10.481744770,0.067095460,-0.012633210,0.031287970
1640784244.314400,-0.263225790,0.485707910,9.423889160,0.017043950,0.002351400,0.026196240
1640784244.316969,-0.164452220,0.304650870,9.993668560,-0.059270870,-0.069412610,0.019861760
1640784244.319500,-0.235025000,0.264927720,10.021707530,-0.054483120,0.046096750,0.045906010
1640784244.322199,0.052186090,0.207465010,9.520882610,-0.028751800,-0.026550890,0.015449530
1640784244.325420,-0.011927520,0.282628450,10.393359180,-0.017860530,-0.035542250,0.008057060
1640784244.326910,0.131898980,0.302109120,9.304587360,-0.014112890,0.016470260,0.025679170
1640784244.329460,0.274081440,0.294999510,9.735109330,-0.045855350,-0.021779540,0.026676060
1640784244.332010,-0.013708490,0.351814570,10.446608540,-0.083872680,0.058454290,0.035268070
1640784244.334489,-0.013456510,0.197969200,9.729009630,-0.044976180,-0.040398540,0.042290990
1640784244.338189,-0.008128380,0.226376300,9.858838080,-0.001811980,-0.081968330,0.035142910
1640784244.339690,-0.046160760,0.254223410,9.278667450,-0.039771200,0.070834160,0.020386280
1640784244.343570,0.140002130,0.254754630,9.566744800,-0.074124330,0.060029320,0.031082330
1640784244.344319,-0.088147250,0.140986190,10.471383090,-0.048752120,0.066655870,0.018504260
1640784244.346949,0.038294880,0.090432550,9.767554280,-0.034818050,-0.032247610,0.018420820
1640784244.347400,0.106526580,0.087517340,9.671007160,-0.013196470,-0.036722420,0.033670660
1640784244.352310,-0.138294740,-0.199371490,9.665600780,-0.002887850,0.069548190,0.012606390
1640784244.353230,-0.086547180,-0.092808960,9.689418790,-0.019866230,0.014820700,-0.000645220
1640784244.359320,-0.088512050,0.167295260,9.814329150,-0.033815210,0.031620270,0.018560890
1640784244.359949,0.089678680,-0.167720810,9.635470390,-0.036095090,0.057752440,0.000184770
1640784244.361940,-0.145638330,0.228443030,10.224908830,0.033931440,0.011985000,0.014019010
1640784244.362360,-0.311251220,0.201139720,9.811156270,0.037446610,-0.030878190,0.019523500
1640784244.366989,-0.072770210,-0.082071280,9.381052970,-0.005067880,-0.024889420,0.021713970
1640784244.367519,-0.302969780,0.202279360,9.850138660,0.026372080,0.100244580,0.014914570
1640784244.372130,-0.313420770,0.054189060,10.088370320,0.006470080,0.030986970,-0.007317960
1640784244.373050,-0.211407290,0.386743930,10.112656590,-0.006943940,-0.046245760,0.003606080
1640784244.377070,-0.180424030,0.451466920,9.483441350,0.009621680,0.009407100,-0.009049480
1640784244.377750,-0.159421730,0.171225380,9.790918350,0.006783010,-0.015214090,-0.000049170
1640784244.381940,-0.243237990,0.514417590,9.866170880,0.021262470,0.007392470,0.009422010
1640784244.382279,-0.070543870,0.203565600,9.684605600,0.005984310,0.011883680,0.011421740
1640784244.387230,-0.110923080,0.261514310,10.364400860,-0.003656750,-0.011847910,0.015418230
1640784244.388739,-0.079536680,0.545230690,9.844695090,-0.028501450,-0.004234910,0.006431340
1640784244.392000,0.259890440,0.259095370,9.576012610,-0.047345460,-0.017061830,0.007776920
1640784244.392890,0.050145960,0.393084820,9.859059330,0.007508700,0.051189960,0.016841290
1640784244.399850,0.072212000,0.315640720,9.696896550,0.016644600,0.018116830,-0.001145900
1640784244.401010,0.072925550,0.264305560,9.904654500,-0.035662950,-0.022922460,0.023861230
1640784244.402240,-0.174153360,0.244913380,9.763280870,-0.032718480,0.007763510,0.036045910
1640784244.403139,0.088051400,0.079749600,9.404582020,-0.043138850,0.016833840,0.028987230
1640784244.407050,-0.048202980,0.138890800,9.973131180,-0.030639770,0.052984060,0.008842350
1640784244.407689,-0.034266920,0.029417740,9.831851960,0.007127230,0.065501040,0.006258490
1640784244.412000,0.128779860,0.144505950,9.694795610,0.007043780,0.004170830,0.010502340
1640784244.412789,-0.124851410,0.163888110,9.895397190,-0.034843390,0.006558000,0.009110570
1640784244.417240,0.012179120,-0.120847490,9.453145980,-0.049616400,0.037726760,0.021769110
1640784244.418450,-0.042108030,-0.188436230,9.647112850,0.044153630,0.022394960,-0.000758470
1640784244.422070,-0.141896780,-0.008979030,9.808457370,0.051476070,0.052101910,-0.003416840
1640784244.422770,0.219976480,0.128019740,9.511645320,-0.018565360,0.088761750,0.019255280
1640784244.426940,-0.176541210,0.066601720,10.380835530,-0.013607740,0.031410160,0.002193450
1640784244.427430,-0.227821010,0.133696450,9.966878890,0.004605950,-0.011056660,0.013470650
1640784244.432070,-0.033141460,0.152358860,9.018797870,0.064083930,-0.019577150,0.011482830
1640784244.432619,-0.426465210,0.054352520,9.945108410,0.073504460,0.062693660,-0.021111970
1640784244.437000,-0.246126160,0.424516290,9.617569920,0.019219520,0.097660740,0.004683430
1640784244.438680,-0.365254940,0.580688120,10.105499270,-0.033117830,-0.048442190,0.004383920
1640784244.442060,-0.125120570,0.359436810,9.975497250,-0.056400900,0.014607610,0.009070340
1640784244.442760,0.104235630,0.422683300,9.360815050,0.056910530,0.071559850,0.021453200
1640784244.446940,-0.413437010,0.297117470,10.616859440,0.090023880,-0.020971900,-0.004866720
1640784244.447379,-0.063299320,0.392553720,9.506556510,-0.009082260,0.004227460,0.030307470
1640784244.452000,-0.014210790,0.357927920,9.387677190,-0.051273400,-0.024427480,0.037527080
1640784244.452499,-0.243899690,0.113751260,10.434285160,-0.068861250,0.057205560,0.016281010
1640784244.458089,0.113458700,0.320325460,9.513986590,-0.005553660,0.024607780,0.003018980
1640784244.458700,-0.080836230,0.336214330,10.145434380,0.042727590,-0.046680870,-0.012148920
1640784244.461930,-0.004793870,0.457245530,9.703246120,-0.028987230,0.063550460,0.022725760
1640784244.462220,-0.014182980,0.432558180,9.595788960,-0.072290010,-0.000323360,0.028547650
1640784244.467110,-0.290899690,0.198672150,10.299412730,-0.078703470,-0.017896290,0.021687150
1640784244.467990,0.132412370,0.238226190,9.001645090,-0.013959410,0.018467010,0.028304760
1640784244.472190,0.091446960,0.129525830,9.658620830,0.009389220,0.032345950,0.005364420
1640784244.472760,0.084310920,0.130351870,10.054919240,-0.049622360,0.112260880,0.008507070
1640784244.476950,0.077816160,0.046769900,9.983526230,-0.040040910,-0.003819170,0.019800660
1640784244.477440,-0.194796550,-0.065183920,10.048517230,-0.034827000,-0.054050980,0.008979440
1640784244.481969,0.027199270,-0.022380010,9.039001460,-0.040300190,0.007057190,-0.003890690
1640784244.482460,-0.234745070,-0.138116660,9.620102880,0.003477930,0.069485630,-0.011861330
1640784244.487300,-0.266652490,0.133789300,9.800987240,0.012554230,0.075681510,-0.013376770
1640784244.488659,-0.119381140,0.315085890,9.888851170,-0.030903520,-0.017513330,-0.003576280
1640784244.492050,-0.192506070,0.308370260,10.059336660,-0.060574710,0.014457110,0.006461140
1640784244.492550,-0.063934190,0.267468810,9.492219920,-0.006899240,0.019988410,0.010715420
1640784244.497150,-0.372918280,0.153515820,10.211700440,0.042539830,-0.029863420,-0.003348290
1640784244.498629,-0.220923170,0.367219240,9.452680590,0.007294120,0.024759770,0.002627070
1640784244.501960,-0.029326560,0.283155830,9.575859070,-0.038935240,0.005142390,0.003992020
1640784244.502339,-0.376883210,0.256440700,10.567796710,-0.056567790,0.031076370,0.002186000
1640784244.508119,0.045823700,0.475249350,9.269169810,-0.037121780,-0.043044980,0.002971290
1640784244.509240,-0.014323340,0.173255770,10.056813240,-0.000114740,-0.030386450,-0.003178420
1640784244.511979,-0.194156870,0.324182570,9.944954870,0.001578030,0.091217450,0.002734360
1640784244.512460,-0.068611000,0.477656870,9.847264290,-0.033612550,-0.068177290,0.011946260
1640784244.516980,-0.276462170,0.203629000,10.371944430,-0.089430810,-0.049565740,0.020007790
1640784244.517480,0.247441720,0.448868930,8.665607450,-0.076633700,0.030639760,0.016926230
1640784244.522199,0.060679360,0.341896800,10.164422040,-0.038908420,0.019167360,0.014087560
1640784244.522859,-0.019005530,0.152374420,10.120960240,-0.029881300,0.080297890,0.004190210
1640784244.526939,0.213200270,0.258116690,9.418528560,-0.000846390,-0.069366400,0.009649990
1640784244.527420,-0.270699140,0.128608520,10.289371490,-0.060844430,-0.042641160,0.022089480
1640784244.532080,0.074802730,0.102093030,8.758774760,-0.128000970,0.034222010,0.012397770
1640784244.532590,-0.094820950,-0.069474990,9.988074300,-0.049367550,0.018720330,-0.003843010
1640784244.536880,-0.232380630,-0.117858930,10.147553440,0.010766090,0.076980890,-0.013113020
1640784244.537420,0.129226890,0.167920720,9.498140340,0.007371610,-0.038090350,-0.001013280
1640784244.543020,-0.235648530,-0.031224410,10.262224200,-0.040471550,-0.000451510,0.016334650
1640784244.543500,-0.190021840,-0.132889630,9.133041380,-0.054129960,0.000928340,0.014756620
1640784244.546960,-0.267319050,-0.014357830,9.601114270,-0.005331640,-0.050245230,0.005567070
1640784244.547469,-0.225908820,-0.067638130,9.616088870,0.009372830,0.066867470,-0.016923250
1640784244.551950,-0.096962240,0.153121310,9.751528740,0.023712220,0.009727480,-0.012125080
1640784244.552280,-0.260787700,0.424489110,10.491063120,0.000001490,-0.011128190,-0.004975500
1640784244.557010,-0.055719500,0.339535740,9.517545700,-0.065228350,-0.039982790,0.001475210
1640784244.557659,-0.147063260,0.257532840,9.852512360,-0.001713630,-0.049431620,0.014868380
1640784244.562060,-0.240296690,0.282285450,9.541799550,0.040407480,0.039936600,-0.010716920
1640784244.562640,-0.166993080,0.356242000,9.657554630,0.006556510,-0.051929060,-0.000911950
1640784244.567000,-0.198136990,0.424261720,10.154584880,-0.037704410,-0.010612610,0.010800360
1640784244.567479,0.053538670,0.365450500,9.381833080,-0.059339400,0.006160140,0.003513690
1640784244.572059,-0.094870630,0.253194630,10.403400420,-0.034290550,-0.055614120,0.015777350
1640784244.572640,-0.016395620,0.248800960,9.617551800,0.003437700,0.021775070,0.001053510
1640784244.577119,0.137278440,0.192631650,9.467479710,0.014558440,-0.057587040,0.010231140
1640784244.579030,-0.291917770,0.210723980,10.390133860,-0.030252340,-0.003860890,0.028219820
1640784244.581940,0.032741130,0.201727630,8.888957980,-0.084413590,-0.028175120,0.000071530
1640784244.582320,0.046312300,0.077973700,9.841457370,-0.050622240,-0.063599650,0.011760000
1640784244.586969,0.006365770,0.244606240,9.723498340,0.002485510,0.124758480,0.007840990
1640784244.588600,0.220514370,0.303116590,9.719993590,-0.009235740,-0.030426680,0.008866190
1640784244.593590,-0.188482300,0.094950850,10.731211660,-0.021572410,-0.058166680,0.027811520
1640784244.594910,0.071298740,0.069679200,8.697249410,-0.024777650,-0.012491640,0.012820960
1640784244.597030,-0.013816660,0.019016340,9.501114850,-0.036814810,-0.054399670,0.020049510
1640784244.597620,-0.200128180,-0.116914300,9.800022130,-0.021263960,0.118403140,0.005221370
1640784244.601879,0.133319060,0.021574170,9.319128990,0.006067750,0.007326900,-0.014780460
1640784244.602239,-0.284711360,0.138940070,10.720583920,0.012612350,-0.061176730,0.004720690
1640784244.607040,-0.016948130,0.020339040,9.083951000,-0.035342580,0.019790230,-0.002455710
1640784244.607859,-0.057476290,-0.105217080,9.586026190,0.005404650,-0.046177210,-0.009365380
1640784244.612120,-0.520094220,-0.046974190,10.044302940,0.055281820,0.035269560,-0.013110040
1640784244.612710,-0.028339210,0.152099640,8.896018980,0.015890600,-0.023473800,-0.017525260
1640784244.617010,-0.294564900,0.265434440,10.261928560,-0.009055440,-0.008288030,-0.004161890
1640784244.617699,-0.212819920,0.093743060,9.764397620,-0.013971330,0.038012860,-0.014647840
1640784244.622120,-0.108117540,0.112605300,9.874267580,0.049334760,-0.098316390,-0.006289780
1640784244.622680,-0.318162500,0.137730990,9.964466090,0.079554330,-0.011605020,-0.022940330
1640784244.627300,0.008539440,0.166543450,9.244696620,0.031788650,0.000132620,-0.025899710
1640784244.628700,-0.245593210,0.560236690,10.155179020,-0.012996790,-0.041897600,-0.004963580
1640784244.632059,-0.170925020,0.455675180,9.652273180,-0.059963760,-0.032821290,-0.022660190
1640784244.632599,0.171701950,0.446559970,9.482007030,-0.005406140,-0.044748190,-0.011503700
1640784244.637320,-0.257754500,0.530178190,10.286189080,0.076019770,0.009545680,-0.026354200
1640784244.639040,-0.160616820,0.396252480,9.894802090,0.012664500,-0.063240540,-0.021022560
1640784244.642120,-0.129513110,0.528533520,9.692837720,-0.050812960,-0.097166010,0.014770030
1640784244.643230,-0.103134060,0.274460020,9.493808750,-0.070549560,-0.015528500,-0.007441640
1640784244.647019,0.129217360,0.212833790,9.683844570,-0.049301990,0.020235780,0.002969800
1640784244.647519,0.014825760,0.312988880,9.889665600,0.004269180,-0.007867810,-0.017414990
1640784244.651970,0.199128450,0.161365690,9.729420660,-0.006300210,-0.043164200,-0.028565530
1640784244.652360,0.112736820,0.290840510,9.684139250,-0.036828220,-0.032219290,0.010080640
1640784244.657050,-0.082214560,0.159456180,9.557573320,-0.082132220,-0.034812100,-0.012904410
1640784244.658779,0.149354010,-0.032465610,9.567258830,-0.077050920,-0.018532580,-0.005829330
1640784244.663040,0.023240520,0.060612120,9.547088620,0.027437510,0.033335380,-0.015868250
1640784244.663590,0.102039820,0.083666500,9.725427630,0.015477830,0.011548400,-0.041353700
1640784244.666940,0.097984870,0.192566750,9.946216580,-0.056137160,0.017216800,-0.012847780
1640784244.667590,-0.210516020,0.073368090,9.686202050,-0.040425360,-0.043284890,-0.018545980
1640784244.672649,-0.070737960,0.039271850,9.359082220,-0.035335130,-0.059981640,-0.019018350
1640784244.673420,-0.120059840,0.076741320,9.420748710,0.000442560,0.052289680,-0.033748150
1640784244.677250,-0.152432290,-0.059243160,9.847422600,0.034399330,0.070756660,-0.054006270
1640784244.678510,-0.126056480,0.302640530,10.135774610,0.008215010,-0.014740230,-0.042806570
1640784244.682010,-0.153166150,0.267704400,9.777235980,-0.050343570,-0.051960350,-0.018639860
1640784244.682469,0.041365870,0.107811970,9.369975090,-0.046148890,0.000864270,-0.012366470
1640784244.687019,-0.293150040,0.059427620,9.939026830,0.054429480,0.006163120,-0.029315060
1640784244.688200,-0.275173340,0.135588710,9.773152350,0.059174000,-0.027763850,-0.039403140
1640784244.692160,0.054354530,0.423792240,9.359666820,-0.017356870,0.018474460,-0.029790400
1640784244.692730,-0.231777740,0.266609100,10.360731120,-0.057113170,0.012260680,-0.022925440
1640784244.696920,-0.074431990,0.374967040,9.950210570,-0.038072470,-0.009542700,-0.034557290
1640784244.697460,0.112003960,0.499208690,9.352657320,0.016534330,-0.064675530,-0.031350560
1640784244.701949,-0.077498560,0.324511530,9.853794100,0.014643370,0.022719800,-0.016166270
1640784244.702319,0.115574130,0.451232850,9.423689840,-0.016206500,0.058293350,-0.007757540
1640784244.707490,-0.301924290,0.287652160,10.313696860,-0.052878260,-0.084060440,-0.017598270
1640784244.708590,-0.033781230,0.188669350,9.468194010,-0.075617430,-0.025630000,-0.016766790
1640784244.711939,0.243765830,0.283796880,8.963672640,-0.029796360,0.022681060,-0.021848080
1640784244.712360,-0.173232020,0.074237940,10.518968580,-0.025688110,0.051310660,-0.035990780
1640784244.716940,0.184362710,0.192650360,9.484055520,-0.018858910,0.037613510,-0.017903750
1640784244.717500,-0.017071320,0.018362190,9.884791370,-0.004626810,-0.079128160,-0.020238760
1640784244.722770,-0.101863800,-0.053968700,9.640756610,-0.053435560,0.004972520,-0.008694830
1640784244.724500,0.156638400,0.042928270,8.826598170,-0.040113920,0.024843220,-0.025478000
1640784244.726899,-0.230257870,-0.140790980,10.139118190,-0.001907350,0.033891200,-0.038364530
1640784244.727429,-0.032452040,0.164966420,9.583890910,0.019465390,0.050772730,-0.035519900
1640784244.732030,0.049644120,0.263801900,9.667561530,-0.009427960,-0.018340350,-0.040361280
1640784244.732560,-0.200106490,-0.011600660,10.132390020,-0.046624250,0.033509740,-0.025336440
1640784244.737200,-0.129103060,0.078276580,9.383137700,0.015564260,-0.011709330,-0.029951340
1640784244.739300,-0.210814360,0.032743310,9.587043760,0.037875780,-0.027060510,-0.043880940
1640784244.743909,-0.050261580,0.039741970,9.379908560,0.004425640,0.071384020,-0.039334600
1640784244.744520,-0.109665420,0.080017590,9.818351750,0.018100440,0.030712790,-0.039602820
1640784244.746950,-0.192227390,0.093051270,10.124285700,0.009354950,-0.030781330,-0.028622150
1640784244.747409,0.030043260,0.202268410,9.451195720,0.003188850,-0.021420420,-0.029368700
1640784244.751900,-0.183711770,0.118446040,9.885726930,0.025343890,0.039239230,-0.040805340
1640784244.752310,-0.322455820,0.292143910,9.981653210,0.032903250,-0.011332330,-0.045375530
1640784244.758280,-0.222638530,0.459820960,9.625983240,0.008955600,-0.061845780,-0.042736530
1640784244.759140,-0.020070490,0.436813890,9.301407810,-0.029872360,0.035610800,-0.029130280
1640784244.762030,-0.026186970,0.530865670,9.908593180,-0.019800660,0.030255320,-0.021120910
1640784244.762590,-0.104544830,0.411767420,10.302006720,-0.004887580,-0.000767410,-0.017516320
1640784244.767040,0.076837450,0.317681310,9.444360730,0.009243190,-0.030571230,-0.014381110
1640784244.767660,-0.170093100,0.169389460,9.997461320,0.029094520,-0.050859160,-0.016240770
1640784244.772740,-0.165405060,0.205111340,9.538518910,-0.028790540,0.021323570,-0.012251740
1640784244.773360,0.075867940,0.294466410,9.205753330,-0.063492370,-0.026203700,-0.013297800
1640784244.776909,-0.038710190,0.147772400,10.201943400,-0.046885010,0.053139030,-0.017835200
1640784244.777480,0.222069400,0.298929360,9.385148050,-0.000227990,0.058011710,-0.020575520
1640784244.781950,-0.065318580,0.164029880,10.350002290,0.026099390,-0.075091430,-0.023584070
1640784244.782300,-0.106088420,0.101803640,9.637041090,-0.008839370,0.003030900,-0.010174510
1640784244.787979,0.147871020,0.251068410,8.715629580,-0.024957950,-0.043092670,-0.008441510
1640784244.788620,-0.161278500,0.064028640,10.178481100,-0.063773990,0.073511910,-0.007671120
1640784244.792310,0.276482940,0.051313590,9.223819730,-0.029177970,0.117480750,-0.016085810
1640784244.792820,0.088457700,0.060996360,10.358826640,0.069619710,-0.042447440,-0.027306380
1640784244.796900,-0.201173170,0.067841320,10.000069620,0.033766030,0.020028650,-0.008806590
1640784244.797430,0.114542870,0.119945320,8.599592210,-0.038202110,-0.059719390,-0.005874040
1640784244.802140,-0.394935550,-0.223717330,10.103271480,-0.035040080,0.036114450,-0.030550360
1640784244.803460,-0.084135650,-0.076714750,9.028133390,0.018973650,0.108793380,-0.041636830
1640784244.807030,-0.154807300,0.116206170,9.997238160,0.077313170,-0.031216440,-0.046515460
1640784244.807809,-0.227578860,-0.000289980,10.157640460,0.025215740,0.050795070,-0.042873620
1640784244.811890,0.011646490,0.247635020,9.130519870,0.017799440,-0.034481280,-0.020168720
1640784244.812240,-0.399127870,0.052000810,10.143193240,0.016458330,-0.052136180,-0.016286970
1640784244.817210,0.040654350,0.019302520,8.946990970,0.025297700,0.071178360,-0.028258560
1640784244.818750,-0.045483040,0.262236450,9.845091820,0.087331240,0.014546510,-0.033967200
1640784244.822360,-0.243584390,0.354051530,10.358216290,0.037640330,0.042137510,-0.044573840
1640784244.822899,0.137177850,0.531316700,9.281517980,-0.027066470,-0.065898920,-0.026530030
1640784244.826939,-0.209436330,0.325180560,10.123620990,0.005169210,-0.028745830,-0.019429620
1640784244.827520,-0.176065070,0.225136550,9.461853030,0.041235980,0.048623980,-0.040833660
1640784244.832080,-0.272087400,0.449856940,9.836821560,0.062175090,-0.064313400,-0.026758010
1640784244.832749,-0.289910320,0.369444970,9.849205020,0.000528990,0.021259490,-0.013254580
1640784244.836979,0.067930180,0.392823490,9.277218820,-0.047416990,0.005193060,-0.012113150
1640784244.842399,-0.210032980,0.422078550,10.478295330,-0.028227270,-0.024831300,0.001031160
1640784244.842900,0.138604520,0.215932650,9.393601420,0.003392990,0.020121040,-0.019241870
1640784244.843240,0.110242270,0.191939100,9.796836850,0.055001670,-0.044384600,-0.022387500
1640784244.846979,-0.050928070,0.492809980,10.020195960,0.011639300,0.029757620,-0.006037950
1640784244.847469,0.286774810,0.397308260,9.223355290,-0.093375150,-0.020551680,-0.004076960
1640784244.851940,0.017985270,0.313935370,10.175703050,-0.075998900,-0.023210050,0.002780560
1640784244.852350,0.248760480,0.408980820,9.215162280,-0.019264220,0.079999870,-0.009980800
1640784244.856979,0.113841250,0.180152480,10.028405190,0.025953360,-0.014035400,-0.008530920
1640784244.857740,-0.196880340,0.237187500,10.166567800,0.006398560,0.040629500,0.002153220
1640784244.861990,0.033235520,0.104256290,9.067241670,-0.050164760,-0.028993190,-0.006127360
1640784244.862380,-0.272789810,-0.098937290,10.045952800,-0.071837020,-0.018365680,-0.002010170
1640784244.867720,0.056789100,-0.036302910,8.857494350,-0.049006940,0.119954360,-0.018340350
1640784244.868260,0.029664310,-0.103731520,9.988880160,0.032754250,0.034831460,-0.040656330
1640784244.872049,-0.253426250,0.235152810,10.327214240,0.038729610,0.039108100,-0.025115910
1640784244.872759,0.226587060,0.352419140,8.799318310,-0.056643790,-0.040054330,-0.012369450
1640784244.876960,-0.036857390,-0.073469880,10.054811480,-0.072589510,0.017969310,-0.004549320
1640784244.877460,-0.133834660,-0.129269840,9.402106290,0.033497810,0.123415890,-0.017695130
1640784244.882230,-0.060135230,0.113841300,9.748515130,0.082264840,-0.053016850,-0.037941340
1640784244.882810,-0.298326020,0.201153920,10.065017700,-0.003729760,0.044205790,-0.025871400
1640784244.887320,0.058780480,0.264194970,8.921133040,-0.057980430,0.048635900,-0.020597880
1640784244.888680,-0.314453480,0.035346120,10.485991480,-0.011213120,-0.009064370,-0.027188660
1640784244.892160,-0.241077130,0.102739830,9.605474470,0.052669650,0.045578190,-0.032879410
1640784244.892959,-0.013627900,0.308173360,9.409806250,0.082121790,-0.018823150,-0.036257510
1640784244.897090,-0.343319710,0.402525480,10.240181920,-0.015653670,0.050611810,-0.036136810
1640784244.898579,-0.007364080,0.525416550,9.237488750,-0.087675440,0.008310380,-0.014899670
1640784244.902040,0.019823720,0.295052140,10.012377740,-0.019922850,-0.016155840,-0.024038560
1640784244.902480,-0.139056000,0.269178510,9.863630290,0.060784820,0.063376130,-0.031362480
1640784244.906989,-0.053713840,0.517056760,9.658908840,0.046759840,-0.043956940,-0.031237310
1640784244.907709,-0.201941420,0.377353100,9.949353220,-0.055360800,0.014877320,-0.019323820
1640784244.911919,-0.006385910,0.318492740,9.387550350,-0.093916040,0.037415330,-0.000435110
1640784244.912330,-0.092658270,0.297030570,10.294660570,-0.022527580,0.008711220,-0.006933510
1640784244.916930,-0.058477280,0.265399750,9.782391550,0.002467630,0.033116330,-0.017817320
1640784244.917460,0.217851390,0.438715520,9.465080260,-0.009146330,-0.007441640,-0.006198880
1640784244.922150,0.030592200,0.312303540,9.983096120,-0.041343280,0.089083610,0.004047160
1640784244.922700,0.044543150,0.218299360,9.714900970,-0.076949600,0.001814960,-0.005471710
1640784244.926940,0.043846940,0.336911170,9.924512860,-0.039590900,-0.027202070,-0.006619100
1640784244.927490,0.163882790,0.354003340,9.120475770,-0.045786800,0.088557600,-0.015234950
1640784244.932030,0.171443520,0.259901670,9.817751880,-0.056976080,0.044618550,0.001667440
1640784244.932469,0.011223080,0.132317990,10.162635800,-0.031366950,0.110568130,0.003939870
1640784244.937350,0.122657190,-0.092423010,9.408135410,-0.019678480,0.000005960,-0.012533370
1640784244.938490,-0.213603440,-0.060278010,10.143489840,-0.016899410,-0.030985480,0.021463630
1640784244.942020,-0.018652180,-0.181444390,8.790395740,-0.056517120,0.110322230,0.007416310
1640784244.942610,-0.044481350,-0.365122350,9.752625470,-0.025415420,0.054542720,-0.022073090
1640784244.947019,-0.343618450,0.022111530,10.399511340,0.022333860,0.125749390,-0.011983510
1640784244.947610,0.129909020,0.241984310,9.100730900,-0.005291400,0.014469030,-0.026135150
1640784244.951920,-0.158056940,0.194793910,10.376961710,-0.021259480,0.007575750,-0.007119770
1640784244.952329,-0.119416010,0.222281830,9.135166170,0.011180340,0.124086440,-0.002561510
1640784244.957069,-0.075057190,0.112440870,9.546268460,0.044438250,-0.037264820,-0.015257300
1640784244.958660,-0.376940100,0.184276100,10.238271710,0.031360990,0.084520880,-0.014384090
1640784244.962159,0.114872630,0.319531020,8.849902150,-0.001899900,0.079821060,-0.009560590
1640784244.962580,-0.338147340,0.228493940,10.748947140,-0.011852380,-0.013913210,-0.004529950
1640784244.967059,-0.153269190,0.254492490,9.453489300,-0.011451540,0.076140460,-0.013111530
1640784244.967720,0.121525320,0.112456230,9.312460900,0.044357770,-0.003142650,-0.015066560
1640784244.972000,-0.531930740,0.083352880,10.703237530,0.066992660,0.063854460,-0.015509130
1640784244.972580,-0.038662860,0.433999390,8.846642490,-0.002351400,0.016863640,-0.016358500
1640784244.976970,-0.117479990,0.391471480,10.042552950,-0.047785040,-0.038969520,0.005985800
1640784244.977820,-0.154315980,0.370526050,9.876585010,-0.032730400,0.136932750,0.008495150
1640784244.981950,0.241057950,0.539341690,9.459671020,0.018624960,0.006753210,-0.006161630
1640784244.982309,-0.207729730,0.429095690,10.695920940,0.037325920,-0.005352500,-0.001554190
1640784244.987310,0.138898150,0.459883360,8.917183880,-0.009302790,0.060601530,0.009831790
1640784244.989329,-0.084210080,0.406899390,9.902948380,-0.051112480,-0.034332280,0.019258260
1640784244.992080,-0.281394510,0.207837700,9.954768180,-0.079986460,0.060392920,0.011432170
1640784244.992580,0.269846800,0.107629970,8.911446570,-0.013056400,0.027336180,-0.001013280
1640784244.996990,-0.014071910,0.127372090,10.246401790,0.047810380,0.079587110,0.003077090
1640784244.997619,0.107625370,0.096567030,9.760361670,-0.022761520,0.114308310,0.012230870
1640784245.002139,0.075169330,-0.018287090,10.040555950,-0.046145920,-0.030511620,0.023263690
1640784245.003729,-0.219915670,-0.100605910,9.720633510,-0.018659240,-0.005596880,0.013034050
1640784245.007120,0.088599590,-0.034031640,8.741551400,-0.001148880,0.025452670,0.009371340
1640784245.007789,-0.089943920,0.142616940,9.684474950,0.014778970,0.122424980,0.003343820
1640784245.012030,-0.077248190,0.163713490,9.872863770,-0.001199540,0.126080230,-0.014580790
1640784245.012570,-0.092211650,0.313298340,10.326806070,0.010149180,-0.022581220,0.020129980
1640784245.016990,-0.243732710,0.295057830,9.613023760,-0.002738830,-0.003865360,0.014956300
1640784245.017629,-0.094694240,-0.094778830,9.157870290,0.011782350,0.016808510,0.012433530
1640784245.022009,-0.454015370,-0.012905780,9.769220350,0.085149710,0.081051890,0.004558270
1640784245.022740,-0.185607080,0.136278670,9.287241940,0.036695600,0.043343010,-0.015118720
1640784245.027040,0.024924270,0.009912420,10.060366630,-0.011575220,0.035892430,0.012090800
1640784245.027700,-0.103112720,0.094775200,9.920213700,0.017954410,0.082767000,-0.001533330
1640784245.032060,-0.110815120,-0.030554370,9.963160510,0.059235100,-0.066551570,-0.015108290
1640784245.032780,-0.212017150,0.112276920,9.767226220,0.086337330,-0.018379090,0.002779070
1640784245.037140,-0.025891650,0.175940320,8.826308250,0.061856220,0.073243690,-0.010156630
1640784245.038760,-0.323834210,0.358138290,10.417149540,0.021365280,0.022380060,0.009426480
1640784245.042440,-0.235951510,0.669643700,9.773114200,-0.014886260,0.026942790,0.026167930
1640784245.043609,0.062747870,0.382475610,9.473897930,0.016361480,-0.043483080,0.009727480
1640784245.046900,-0.293976220,0.397163870,10.495224950,0.096473100,0.044038900,0.011050700
1640784245.047390,-0.120143470,0.453293410,9.280863760,0.083674500,0.013574960,0.005859140
1640784245.052359,-0.116680150,0.367605690,10.087111470,0.002835690,-0.061766800,-0.000016390
1640784245.053589,0.005822110,0.503647860,9.482906340,-0.058536240,0.080838800,0.029857460
1640784245.057139,0.326709150,0.394013700,9.357098580,-0.044466560,0.017291310,0.021520260
1640784245.059090,0.039614950,0.250562340,10.683229450,0.019325310,0.036379690,0.012366470
1640784245.061910,0.195975690,0.279693190,9.247035030,0.076663500,0.024497510,0.019492210
1640784245.062189,0.034214020,0.226872910,9.883774760,0.029276310,-0.072209520,0.029580290
1640784245.067000,-0.110382190,0.199204220,9.683382030,-0.085183970,0.066366780,0.041508670
1640784245.067649,0.163869490,0.039537460,9.006556510,-0.072002420,0.061395760,0.039376320
1640784245.075120,-0.080540890,0.091161040,10.423774720,0.036618120,0.037449600,0.005610290
1640784245.076759,0.083572690,0.231691200,9.490129470,0.053721670,0.077429420,0.014194840
1640784245.077109,0.124507980,0.160955040,9.655791280,0.022222100,-0.009973350,0.023473800
1640784245.077620,-0.218520180,-0.016433140,10.044534680,-0.005362930,0.063234580,0.028154260
1640784245.081920,0.052423960,0.010650660,8.985980990,-0.014977160,0.017207860,0.030201680
1640784245.082260,-0.004261940,0.046144440,9.742479320,0.010944900,0.042919810,0.018052750
1640784245.087070,0.060505080,-0.018335220,9.483963010,0.028835240,0.152589400,-0.006033480
1640784245.087859,-0.072804800,0.231355880,10.053003310,0.067070110,0.017188490,0.008872150
1640784245.092450,-0.353572190,0.160964970,10.006548880,0.034780800,-0.016753380,0.016598400
1640784245.092949,-0.062924160,-0.136861280,8.847895620,0.010012090,0.002478060,0.012634700
1640784245.096910,-0.347562790,0.028539230,9.767523770,0.069226320,0.066752740,0.010180470
1640784245.097390,-0.267396060,0.013858090,9.493695260,0.065757340,0.096064810,-0.016474720
1640784245.102030,0.072121470,0.092958310,9.768816950,0.048041340,0.009776650,0.000843410
1640784245.102810,-0.078731560,0.211214230,10.069719310,0.065305840,0.086440150,0.001376870
1640784245.107120,-0.052379480,0.019809120,9.540301320,0.062818830,-0.028030580,0.002291800
1640784245.109540,-0.224715470,0.281057030,9.649179460,0.077587350,-0.050428510,0.016230350
1640784245.111980,-0.127970050,0.153408960,8.885238650,0.071646290,0.084930680,-0.004716220
1640784245.112370,-0.326515470,0.288218200,10.047215460,0.068320330,0.019495190,0.007881230
1640784245.116989,-0.442996800,0.779210570,10.124426840,0.036762650,0.021389120,0.003969670
1640784245.117460,0.004048420,0.402280780,9.326310160,-0.000888110,-0.020785630,0.005358460
1640784245.122560,-0.154391860,0.530006770,10.149024010,0.065419080,0.010505320,0.013810400
1640784245.123860,-0.087006660,0.552812580,9.569812770,0.083629790,0.042983890,-0.003293160
1640784245.126989,-0.009243320,0.295368050,9.842287060,0.019744040,-0.063817200,0.006309150
1640784245.127470,-0.068918700,0.468209120,9.605832100,0.007608530,0.011676550,0.027532880
1640784245.132140,0.316282420,0.220823240,9.108288760,-0.017957390,0.018662210,0.018113850
1640784245.132820,0.129569400,0.312896520,10.229624750,-0.011092420,0.033672150,0.019858780
1640784245.137240,0.075725090,0.357672270,9.747223850,0.032977760,0.054834790,0.011627380
1640784245.139429,0.136826400,0.199601400,9.912560460,0.025558470,-0.054988270,0.012436510
1640784245.143220,-0.175194010,0.516108630,9.787799840,-0.017853080,0.008141990,0.026549400
1640784245.143730,-0.012928920,0.303730010,9.086140630,-0.052393980,0.025926530,0.021101530
1640784245.146910,-0.115966310,0.261440600,9.936091420,-0.011755530,0.013960900,0.029751660
1640784245.147460,-0.015048950,0.521944520,9.439730640,0.011254850,0.071236490,0.033140180
1640784245.151929,0.352501510,0.220981150,9.579727170,-0.030575690,0.051514810,0.031496590
1640784245.153460,0.003003570,0.099825880,10.281152730,0.002099570,0.065019730,0.030960150
1640784245.159360,0.091371560,0.088374120,9.438074110,0.010493400,-0.016118590,0.021517280
1640784245.159940,0.261642840,-0.073208460,9.241598130,-0.022624430,-0.013002760,0.033232570
1640784245.161949,0.045050280,-0.146953200,9.348306660,-0.018216670,0.142334400,0.011840460
1640784245.162320,0.141167640,0.007178000,9.694372180,0.006903710,0.112156570,0.013430420
1640784245.167060,-0.090825450,0.093705380,10.280127530,0.024160740,0.019711260,0.025750700
1640784245.167670,-0.092593070,-0.017247810,9.439913750,0.014996530,0.009436910,0.023721160
1640784245.172420,-0.088296440,-0.017723530,9.251533510,0.047229230,0.043663380,0.033059720
1640784245.173200,-0.481693270,-0.041297000,9.631144520,0.065904860,0.061024730,0.011314450
1640784245.179740,-0.085887400,0.099382200,9.237908360,0.021484500,0.082044300,0.009047990
1640784245.180240,-0.078492490,0.146882520,9.751414300,0.038544830,0.086584710,0.004555290
1640784245.181939,-0.283025030,0.168471960,10.092743870,0.052919990,0.049051640,-0.001001360
1640784245.182269,-0.045535810,0.241399350,9.415327070,0.055614110,-0.017450750,0.024208430
1640784245.187310,-0.221843150,-0.078445770,9.507227900,0.090615450,0.028307740,0.006899240
1640784245.188969,-0.218757120,-0.111194540,9.564329150,0.093069670,0.069847710,0.003264840
1640784245.192999,-0.132590000,0.282385620,9.477167130,0.075468420,0.039464240,0.008143480
1640784245.193380,-0.266650080,0.278957100,9.982785220,0.004556780,0.026179850,0.001367930
1640784245.196900,0.106346230,0.490468380,9.517276760,0.007733700,0.037665670,0.020881000
1640784245.197350,-0.224816980,0.464071930,9.966352460,0.081796940,0.015041230,-0.006005170
1640784245.202600,-0.324250730,0.379148390,10.033493040,0.088030100,-0.013026600,-0.006714460
1640784245.203260,-0.096429850,0.521235290,9.184686660,0.090591620,0.010752680,0.019161400
1640784245.207039,-0.496018770,0.457154570,10.065168380,0.001150370,-0.006391110,0.004576150
1640784245.207769,-0.165498080,0.678072040,9.609703060,-0.075250860,0.012606390,0.027549270
1640784245.211969,-0.012777750,0.489428160,9.443807600,-0.014045840,0.001594420,0.012487170
1640784245.212390,-0.082320200,0.199875240,10.297110560,0.066107510,0.029869380,-0.000390410
1640784245.217379,0.127979950,0.446573080,9.638402940,0.094227490,0.023978950,0.007550420
1640784245.218230,-0.145170180,0.426787320,9.971608160,-0.017042460,-0.070427360,0.005190080
1640784245.221969,0.167509960,0.623218830,9.344568250,-0.154700850,0.013080240,0.041103360
1640784245.222790,0.202730600,0.459766980,9.342468260,-0.100022550,0.041642790,0.034803160
1640784245.226859,0.014454840,0.218032350,10.259106640,0.019460920,0.025956340,-0.002084670
1640784245.227330,0.170624660,0.483647470,9.505812640,0.074560940,0.038607420,0.009854140
1640784245.231969,-0.084269880,0.450812610,9.737028120,-0.027653570,-0.025933980,0.020852680
1640784245.234619,-0.042665930,0.416104500,9.621051790,-0.188307460,0.020441410,0.036086150
1640784245.236889,-0.009605720,0.120971810,9.407898900,-0.136196630,0.037086010,0.034381450
1640784245.239280,-0.020218800,-0.121254880,9.829977990,0.017398600,0.046254700,0.008706750
1640784245.242440,0.133801740,0.080646590,9.615067480,0.062893330,0.064228480,0.006863470
1640784245.243010,0.080033800,0.082560010,9.761783600,-0.028839710,0.045971580,0.019185250
1640784245.247000,0.017243070,0.051249630,9.714538570,-0.137788060,0.040990120,0.041642790
1640784245.247510,-0.117096100,-0.127460140,9.688043590,-0.094543400,-0.022293630,0.038805600
1640784245.251940,0.035622890,-0.252588240,9.214115140,0.022991000,0.031979380,0.008299950
1640784245.252400,0.104917350,0.010234580,9.280148510,0.090661640,0.112725790,-0.004237890
1640784245.256950,-0.200727580,0.305738570,10.214196210,0.014720860,0.086607060,0.004187230
1640784245.258870,-0.082879210,0.402581510,9.762036320,-0.115555520,0.016684830,0.032402570
1640784245.261860,-0.137289170,0.064570710,9.613336560,-0.074648860,-0.022853920,0.020110610
1640784245.262220,-0.329867060,-0.181028280,9.571565630,0.077311710,0.041459510,0.000864270
1640784245.267200,-0.262927470,0.102071490,9.050256730,0.131109360,0.046411160,-0.017517810
1640784245.268070,-0.331769380,0.161172660,9.834828380,0.015299020,0.026004020,-0.005933640
1640784245.272150,-0.046684480,0.127243760,9.529459950,-0.096197430,0.099489100,0.024047490
1640784245.272740,-0.144943770,0.221388920,10.064453120,-0.045339770,-0.010903180,0.004746020
1640784245.276890,-0.254787240,0.116029050,10.211110120,0.058257580,-0.035344070,0.008757410
1640784245.277370,0.056157500,0.244943310,8.817764280,0.135131180,0.015889110,0.004227460
1640784245.281920,-0.359014870,0.429119500,10.071490290,0.037768480,0.010658800,-0.014893710
1640784245.282369,-0.223739310,0.555619180,9.617974280,-0.109529500,0.066049400,0.013750790
1640784245.287360,0.030180150,0.394523320,9.518754960,-0.063087050,-0.046637650,0.007183850
1640784245.288480,-0.237434640,0.334007710,10.398583410,0.033293660,0.015017390,-0.010177490
1640784245.292019,0.078637920,0.595620630,9.131209370,0.056794290,0.031445920,-0.001245740
1640784245.292490,-0.200912680,0.397303340,10.280079840,-0.003720820,-0.054842230,-0.006140770
1640784245.297129,-0.167835270,0.231187210,9.694878580,-0.074131790,0.034621360,0.017426910
1640784245.299010,0.121320610,0.353088080,9.140178680,-0.064457950,-0.019732120,0.010624530
1640784245.302140,-0.295472620,0.321049630,10.504858020,-0.058092180,0.016374890,-0.006909670
1640784245.302879,0.097266170,0.353730530,9.038399700,-0.022940340,0.009679800,0.021892780
1640784245.307010,0.082770320,0.356795400,9.825355530,-0.009067360,-0.032822790,0.008618830
1640784245.307740,-0.045800240,0.273369520,9.973551750,-0.079923870,0.095826390,0.007426740
1640784245.311920,0.010154750,0.274732980,9.692889210,-0.070427370,-0.035150350,0.032715500
1640784245.312320,-0.239160170,0.268295680,10.268720630,-0.050678860,-0.057911870,0.028000770
1640784245.317030,0.226409990,0.251237750,8.729296680,-0.089538100,0.037238000,0.015454000
1640784245.317659,0.154189990,0.245454860,9.632214550,-0.061166290,0.063325470,0.006049870
1640784245.322199,0.054609180,0.168057930,10.148598670,-0.025478010,0.099711110,0.004692370
1640784245.322870,0.220804530,0.242019190,9.645888330,-0.042156880,-0.030736630,0.014735760
1640784245.326910,-0.133303370,0.171090740,10.001507760,-0.083160400,-0.025023530,0.019863250
1640784245.327430,-0.022942700,-0.156414170,8.928602220,-0.074547530,0.030851370,0.024680800
1640784245.332029,-0.172372370,-0.167374280,9.610024450,-0.009489060,0.025503340,0.006937980
1640784245.332620,-0.219657090,-0.016764190,9.695731160,-0.003571810,0.122788530,-0.000421700
1640784245.336939,0.021477570,-0.086541240,9.697363850,-0.036689640,-0.001293420,-0.002135340
1640784245.337499,-0.310450380,0.053190560,10.248833660,-0.031222400,0.013987720,0.008532400
1640784245.342960,0.005004510,0.057599840,8.874691010,-0.042004890,0.008687380,-0.001874570
1640784245.343500,-0.166225570,-0.191852170,9.847135540,0.020936130,-0.021080670,0.001114610
1640784245.346989,-0.219229470,0.106227810,9.418451310,0.060835480,0.111004730,-0.024636090
1640784245.347440,-0.036131040,0.336702020,9.345832820,-0.001940130,-0.021894280,-0.011371080
1640784245.351889,-0.350946690,0.263607110,10.484025960,-0.061117120,0.006164610,0.018234550
1640784245.352249,-0.005086320,0.159942810,9.071737290,-0.015254320,0.043395170,-0.003354250
1640784245.357030,-0.350377920,0.074358200,10.334205630,0.081355880,-0.078308600,-0.002712010
1640784245.357800,-0.480536850,0.221441400,9.735147480,0.068672000,0.034399330,-0.013424460
1640784245.362450,-0.016286310,0.277677710,8.769379620,-0.020478670,-0.049509110,-0.012795630
1640784245.363809,-0.358299670,0.281219090,10.433865550,-0.061979890,0.014506280,0.006522240
1640784245.366890,-0.052497450,0.360973890,9.304111480,-0.034959610,0.064626340,-0.009313230
1640784245.367349,-0.062898460,0.314591260,10.189993860,0.037889180,-0.128853290,-0.010089570
1640784245.372370,-0.285883190,0.385705290,10.045942310,0.055627530,-0.004856290,0.001841780
1640784245.373040,0.153452590,0.493889690,8.772119520,-0.026249890,-0.013791030,-0.008052590
1640784245.376920,-0.336059990,0.448976810,10.699402810,-0.086978090,-0.038243830,0.015172370
1640784245.378589,-0.021661130,0.373035580,9.357045170,-0.056600570,0.017876920,0.012925270
1640784245.381919,0.332892000,0.464343670,9.413056370,-0.015753510,-0.067427750,-0.001037120
1640784245.382269,-0.129877120,0.391993940,10.456930160,-0.019280610,0.044798850,0.004366040
1640784245.386930,0.137405980,0.266978500,9.209601400,-0.044716910,-0.004525480,-0.005200510
1640784245.388120,-0.178557490,0.287582460,10.239275930,-0.053727620,-0.121384840,0.014223160
1640784245.392900,-0.170192170,0.180747150,9.351517680,-0.093166530,0.012831390,0.010736290
1640784245.393370,0.246856970,0.144011110,9.026058200,-0.084015710,0.020283460,0.008474290
1640784245.396960,-0.109986170,0.154705640,10.492418290,-0.012134020,0.065806510,0.015211110
1640784245.397519,0.222979440,0.106212830,9.641300200,-0.022748110,0.018663710,0.004865230
1640784245.401870,0.219338430,0.141603110,9.811614040,-0.048425790,-0.067590180,0.028976800
1640784245.402259,-0.118843770,-0.042950350,9.558532710,-0.057964030,0.003115830,0.010284780
1640784245.409119,0.151554360,-0.056021630,8.900280950,-0.052122770,-0.005912780,0.020360950
1640784245.410460,-0.030759130,0.110063870,9.813917160,-0.018803770,0.051438800,0.004528460
1640784245.412030,0.047614000,-0.003828470,9.818892480,-0.020143390,0.094878680,-0.031563640
1640784245.412410,0.048578640,0.282962350,10.037345890,-0.001360480,-0.004683440,0.003598630
1640784245.416990,-0.288839160,0.173529360,9.833321570,-0.025367740,-0.031718610,0.000156460
1640784245.417500,0.047757420,-0.139513940,9.012074470,-0.041666630,-0.019718710,0.002914670
1640784245.422370,-0.266348000,-0.161762360,9.501579280,0.050577530,0.062893340,0.001922250
1640784245.423120,-0.264562670,-0.171443940,9.562954900,0.050918770,0.046047570,-0.033892690
1640784245.428050,0.013115200,0.118492130,9.774718280,-0.011779370,0.012893980,0.004583600
1640784245.430330,-0.149184750,0.092537280,9.913414960,-0.016827880,0.042933230,-0.013634560
1640784245.432119,-0.102692830,-0.076667420,9.926707270,0.019256770,-0.035637620,-0.019302970
1640784245.432920,-0.319825020,0.201819050,9.707925800,0.082872810,-0.028590860,-0.013622640
1640784245.437049,-0.228704330,0.019708080,9.076426510,0.087970500,-0.003409390,-0.025324530
1640784245.438400,-0.213134150,0.268195990,9.702101710,0.033165520,0.032143290,-0.001537800
1640784245.442080,-0.240252820,0.657393570,9.729856490,-0.024686760,0.028173630,0.000876190
1640784245.444640,0.075930050,0.402017210,9.938521390,-0.050403190,-0.037457050,-0.012975930
1640784245.446900,-0.057118110,0.477081360,10.096865650,0.054058440,0.007343290,0.001347070
1640784245.447530,-0.147978040,0.345765890,9.683884620,0.112624470,-0.027823450,-0.024996700
1640784245.451880,-0.183017480,0.419322640,9.794521330,0.029703980,-0.056199730,-0.017713010
1640784245.452280,-0.138413730,0.539227190,9.256169320,-0.054231290,-0.005328660,0.014771520
1640784245.461290,0.081068530,0.302843930,9.553153990,-0.090138610,0.024494530,0.001479690
1640784245.462190,-0.034270670,0.307193670,10.270736690,-0.016346570,0.024701660,-0.001958010
1640784245.462649,-0.018879930,0.112861440,9.866891860,0.091598930,-0.027035180,-0.008788700
1640784245.463110,-0.005363910,0.262324780,9.761239050,0.055888310,-0.049829490,-0.008432570
1640784245.466980,-0.167392690,0.504995760,9.651049610,-0.071144110,-0.022834540,0.017584860
1640784245.467470,-0.028338110,0.258259210,9.439084050,-0.145125390,0.014863910,0.022928420
1640784245.472400,0.093480840,0.229120540,9.674241070,-0.033980610,0.023826960,0.001703200
1640784245.473160,0.060136840,0.214828920,9.833364490,0.087091330,0.026264790,-0.004294510
1640784245.477730,0.169521690,0.313968780,9.697875020,0.040960320,0.011482830,0.005529820
1640784245.478680,-0.057369640,0.162843690,9.911871910,-0.049819060,-0.026902560,0.031036140
1640784245.481920,-0.107849450,-0.123122830,9.626630780,-0.090608000,-0.025829670,0.027905400
1640784245.482260,0.169484150,-0.151722390,9.085490230,-0.024092200,0.023956600,-0.000222030
1640784245.486899,-0.099851610,-0.201467100,9.917979240,0.070892290,0.055609650,-0.035496060
1640784245.488299,-0.101960800,0.125076460,9.807285310,0.069290410,0.048950310,-0.015893580
