timestamp,accel_x,accel_y,accel_z,gyro_x,gyro_y,gyro_z
1645505890131689984,-0.289529920,0.200944270,9.637084960,-0.036205350,-0.052797810,0.018051270
1645505890134599936,-0.380791660,0.110850530,10.214749340,-0.027619310,-0.076764830,0.018522150
1645505890136950016,-0.352393000,0.059949770,9.834983830,-0.012779240,0.046263640,0.004190210
1645505890139139840,0.131841590,0.371753220,9.587020870,0.005252660,0.018018490,0.005148350
1645505890141769984,-0.046873310,0.470196690,10.348285680,-0.013443830,0.025488440,0.013139840
1645505890144029952,0.194555120,0.492440730,9.348601340,-0.066091130,-0.032868980,0.000251830
1645505890146749952,0.145035300,0.640237810,9.378540990,-0.060927880,-0.099866090,0.003911560
1645505890149060096,-0.216071650,0.413978190,9.557868000,-0.047835710,0.035022200,-0.002355870
1645505890152099840,-0.161540840,0.123896640,9.768849370,-0.014588240,0.011517110,0.002628560
1645505890154160128,-0.460152330,0.117411580,10.640531540,0.015106800,-0.019994380,0.020572550
1645505890156659968,-0.222716570,-0.140428080,9.852042200,-0.044249000,0.000829990,0.020630660
1645505890159040000,-0.060885930,-0.095397910,9.611591340,-0.062394150,-0.035642090,0.016389790
1645505890161729792,-0.158381800,0.004435560,9.527166370,-0.035281480,0.011277200,0.002221760
1645505890164069888,0.228855390,-0.067062970,8.954877850,-0.032676760,0.032100080,-0.004503130
1645505890166859776,-0.080433590,0.069503770,9.903676030,0.030115250,0.001473720,0.020785630
1645505890169209856,-0.107328390,-0.110212970,9.950707440,0.030437110,-0.006373230,0.006712970
1645505890172099840,-0.154840340,-0.031149270,9.800476070,0.015062100,-0.056518610,0.016947090
1645505890174089984,-0.456611540,0.173018190,10.053395270,0.001440940,-0.030669570,0.013355910
1645505890176679936,-0.116598770,0.194068600,9.360134120,-0.046019260,0.034128130,-0.000515580
1645505890179100160,-0.147432730,0.447501060,9.906419750,-0.011330840,0.012527410,0.020997230
1645505890181710080,-0.017837500,0.324013170,9.987820630,0.038482250,0.068512570,0.024890900
1645505890184470016,0.004595970,0.135716020,9.780752180,0.052016970,-0.032521790,0.011661650
1645505890186689792,-0.385819080,0.290322150,10.013009070,0.048784920,-0.098931800,0.006717440
1645505890189080064,-0.225936710,0.141032460,9.140040400,-0.041016950,-0.017935040,0.005938110
1645505890191670016,-0.350994710,0.103960370,9.807233810,-0.040254000,-0.006926060,0.008408730
1645505890194010112,-0.210516290,0.331543150,10.284361840,0.004924830,0.052742660,0.005301830
1645505890196649984,0.149817710,0.353717000,9.930045130,0.020541250,0.033706430,0.010980660
1645505890199290112,0.017043160,0.417410850,10.292051320,0.028739870,-0.038871170,0.020398200
1645505890201700096,0.093359620,0.394714800,9.417041780,-0.015611950,-0.024893880,0.004944210
1645505890204289792,0.043934890,0.202088770,8.991250040,-0.037083030,-0.044737760,0.015728180
1645505890206820096,-0.187278960,-0.030985170,9.718287470,0.010961290,0.026221580,0.023853780
1645505890209080064,-0.130375070,-0.123031370,9.607590680,0.030907990,0.060080000,0.003886220
1645505890211699968,-0.284082060,-0.073074770,10.434198380,0.037699940,-0.040267410,0.009201470
1645505890214059776,-0.359984340,0.006011790,10.231067660,-0.006152690,-0.001549720,0.000087920
1645505890217029888,-0.095602880,0.116758000,9.150600430,-0.026726720,-0.040991600,-0.016896430
1645505890219079936,-0.142178220,0.193250100,9.788499830,0.011138620,-0.012604890,0.021037460
1645505890221609728,-0.058028650,0.143331050,9.301164630,0.051431370,0.095969450,0.013415520
1645505890224079872,-0.006289300,0.155995440,9.842229840,0.075744100,-0.033353270,0.002215800
1645505890226689792,-0.445011350,0.248807550,10.534840580,0.022409860,-0.033783920,0.021186470
1645505890229120000,-0.164229470,0.234930780,9.105174060,-0.027836860,-0.028450790,0.002186000
1645505890231680000,-0.326595840,0.157710730,10.216053960,0.001470740,-0.068078940,-0.006045400
1645505890234299904,-0.368823470,0.358542740,9.913988110,0.054290890,0.082251410,0.004757940
1645505890236940032,0.166147570,0.447265710,9.451763150,0.047676270,-0.005358460,0.003714860
1645505890239069952,-0.203505860,0.375986750,10.749014850,0.011195240,-0.001855190,0.019118190
1645505890241659904,-0.004131020,0.422351990,9.264105800,-0.028339030,0.014404950,0.010728840
1645505890244029952,-0.105946760,0.201681910,9.720072750,-0.002306700,-0.120203220,0.000305470
1645505890246690048,-0.563840390,0.178170320,9.958990100,0.039154300,-0.009207430,-0.002241130
1645505890249129984,-0.044201640,0.308575990,8.945862770,0.018770990,-0.007458030,0.001637640
1645505890251760128,-0.237482460,0.247370870,10.627416610,-0.018045310,0.002788010,0.023902950
1645505890254119936,-0.053165050,0.234434710,10.167696000,-0.029268860,0.072829430,0.020068880
1645505890256659968,0.374041230,0.249660300,9.708436010,0.002236660,-0.060901050,0.006797910
1645505890259099904,-0.045933020,0.313522340,10.084175110,0.020153820,-0.028415020,0.004063550
1645505890261910016,0.254503220,0.152795850,8.721035960,-0.007839500,0.014299150,0.013431910
1645505890264109824,-0.078356980,-0.130984200,9.633877750,0.017814340,-0.017505880,0.015567240
1645505890267160064,-0.410642560,-0.117510760,10.043994900,0.033250450,0.023126600,-0.000642240
1645505890269179904,-0.207333550,0.054849160,9.679564480,-0.006105010,-0.026163460,-0.000606480
1645505890271620096,-0.472857650,0.248906720,10.269891740,-0.012725590,-0.028188530,0.002168120
1645505890274080000,-0.156104590,0.299904880,9.614475250,-0.028100610,0.049351160,0.000070040
1645505890276679936,-0.029891790,0.265941380,9.830077170,0.032304230,0.015340750,0.029103460
1645505890279140096,-0.138128710,0.043579860,10.159106250,0.092968330,0.023835900,0.023271150
1645505890281619968,0.038037480,0.007599410,9.400830270,0.063177940,-0.011566280,0.008815530
1645505890284379904,-0.248228850,0.131546290,9.684169770,0.018610060,-0.075696420,0.011631850
1645505890286729728,-0.294379560,0.142731060,9.706676480,-0.053192690,0.009986760,-0.017337510
1645505890289189888,-0.060765670,0.480324390,9.556036000,-0.023892530,0.004586580,-0.006963310
1645505890291729920,-0.211521700,0.618657110,10.586462970,0.044679650,0.019711260,0.011855360
1645505890294070016,0.097116810,0.613380850,10.027243610,0.019901990,0.057655570,0.011587140
1645505890296839936,0.091698250,0.636406120,9.864140510,0.013177100,-0.036112960,0.033734740
1645505890299160064,-0.238600450,0.270792870,10.065330510,-0.022606550,-0.017800930,0.029368700
1645505890302119936,-0.185919700,0.073016230,9.001591680,-0.032790010,-0.043569500,0.011396410
1645505890304080128,-0.288173790,0.010512410,9.453814510,0.011236970,-0.048780440,0.009356440
1645505890306680064,-0.219502480,-0.090672610,9.677783010,0.001066920,0.103041540,0.003601610
1645505890309120000,0.020419380,0.066739100,10.039960860,-0.013989210,0.043362380,0.014443700
1645505890311669760,-0.096719790,0.113566300,10.818964000,-0.006447730,-0.015756480,0.012838840
1645505890314050048,0.130773410,0.224596470,9.518243790,-0.027699770,-0.024668870,0.006911160
1645505890317829888,0.087407870,0.181464900,9.429027560,0.002169610,-0.038658090,0.022616980
1645505890319269888,-0.178562820,0.023910070,9.510549550,0.027394300,0.071452570,0.015658140
1645505890321750016,-0.170887170,-0.048829390,9.448943140,0.034104280,0.015194710,-0.005218390
1645505890324049920,-0.437756900,-0.011765120,10.193673130,0.037202240,-0.017690660,0.011327860
1645505890326759936,-0.464514260,0.028356020,9.673553470,0.002945960,0.000375510,-0.003090500
1645505890329149952,-0.352456930,0.265799760,9.952817920,-0.014145670,-0.061780220,0.005771220
1645505890331729920,-0.361495850,0.383374690,10.001935960,0.002287330,0.048689540,0.033086530
1645505890334129920,0.061143930,0.173118840,9.642534260,0.033862890,0.045484300,0.016616280
1645505890336869888,-0.072810970,0.183150460,10.549798970,0.084938120,-0.000359120,0.023005900
1645505890339079936,-0.137914210,0.353412480,9.625704770,0.054782630,-0.021372740,0.010459130
1645505890341639936,-0.048231770,0.212564690,9.288789750,-0.023277100,-0.109732160,0.006006660
1645505890344059904,-0.426503660,0.419522910,9.687126160,-0.035674870,-0.032091140,0.017978250
1645505890346679808,-0.083451800,0.492011010,9.226937290,-0.027301910,0.042456390,0.011722740
1645505890349099776,-0.007119440,0.385488870,10.537563320,0.020408630,0.026209650,0.033402440
1645505890351739904,-0.067754970,0.492122620,10.439057350,0.045391920,0.050854680,0.025549530
1645505890354499840,0.208999310,0.367654590,9.755476950,-0.020374360,-0.065864620,0.004945700
1645505890356779776,-0.202928110,0.257485360,9.897803310,-0.054228320,-0.083465870,0.035129490
1645505890359569920,-0.113100200,-0.040996600,8.649429320,-0.024762760,0.001873080,0.015755000
1645505890361699840,-0.080562630,-0.195065810,9.400741580,0.012829900,0.005489590,-0.005838270
1645505890364019968,-0.415000080,-0.057297990,10.201779370,0.045764440,0.065906350,0.018240510
1645505890367280128,0.029266210,-0.061765610,9.802412990,0.001558660,-0.001451370,-0.003421310
1645505890369089792,-0.269910100,0.156473030,10.589676860,-0.033830110,-0.068888070,0.009490550
1645505890371640064,-0.163813070,0.266254370,9.520966530,-0.034046170,-0.004863740,0.029535600
1645505890374089984,0.068930180,-0.024279050,9.270884510,0.024412570,-0.004285570,0.009587410
1645505890376760064,-0.367309300,0.100869140,10.077895160,0.102658560,0.021964310,0.013622640
1645505890379299840,-0.258902760,0.354981960,9.521587370,0.041228540,-0.012359030,0.013221800
1645505890381789952,-0.278027590,0.432374480,9.802361490,-0.049290070,-0.080393250,0.017528240
1645505890384620032,-0.381580260,0.472708550,10.070704460,-0.063431270,-0.027027730,0.026650730
1645505890386859776,0.014618990,0.444985030,9.563985820,-0.006672740,0.025984650,0.020866100
1645505890389099776,-0.012865460,0.334082630,10.365843770,0.079037250,0.014474990,0.024820870
1645505890391680000,0.066761990,0.279291660,10.273313520,0.047129400,0.016981360,0.025460130
1645505890394029824,0.202107590,0.298194260,9.368922230,-0.034062570,-0.046162300,0.028996170
1645505890396659968,-0.253648070,0.140773590,9.910210610,-0.075659160,-0.086507210,0.022289160
1645505890399059968,-0.166253610,0.116391600,8.986294750,-0.054578480,-0.005726520,0.014084580
1645505890402119936,-0.098831650,0.120763680,9.382177350,0.027234860,-0.011758510,-0.009386240
1645505890404049920,-0.291786400,0.107586880,10.585355760,0.044195360,0.073866550,0.007072090
1645505890406779904,0.040866000,0.128415820,9.854527470,0.005576010,0.037309520,0.025799870
1645505890409139968,-0.063143940,0.091606040,10.457493780,-0.025719400,-0.091679390,0.027991840
1645505890411650048,-0.176020700,0.057785210,9.627850530,-0.047342480,-0.013782090,0.039626660
1645505890414240000,0.038905150,-0.086734880,8.789569850,0.023733080,-0.043031570,0.012016300
1645505890417110016,-0.325615610,-0.188564600,9.887225150,0.080166760,0.016543270,-0.017164650
1645505890419079936,-0.180237650,-0.002812260,9.419814110,0.051966300,0.060203670,-0.001794100
1645505890422009856,-0.256664220,0.036548630,10.314449310,0.012582540,-0.061678890,0.003775950
1645505890424029952,-0.518073320,0.234680460,10.383050920,-0.019244850,-0.063723330,0.012215970
1645505890426630144,0.029674680,0.423390660,9.064479830,-0.017511840,-0.053334230,0.021457670
1645505890429090048,-0.182078270,0.164257560,10.121942520,0.060662630,0.035057970,0.017105040
1645505890431619840,-0.150142310,0.151885790,10.001811030,0.102831430,0.058765710,-0.002795460
1645505890434530048,0.039661770,0.227534310,9.981736180,0.087657570,-0.083772850,0.004352630
1645505890436739840,-0.463227930,0.314912080,9.974341390,0.012747940,-0.074049830,0.011067090
1645505890440599808,-0.178273600,0.458693000,8.984554290,-0.069676340,-0.100040450,-0.006937980
1645505890441799936,-0.229194690,0.646741870,9.691153530,-0.043557580,-0.031429530,0.013846160
1645505890444119808,-0.084741910,0.500196930,9.904877660,0.019875170,0.087523470,0.015631320
1645505890446689792,0.245754420,0.273970040,10.555722240,0.079441070,0.013902780,0.011391940
1645505890449070080,-0.091236190,0.384598170,10.713675500,0.071671610,-0.052025930,0.020639600
1645505890451670016,0.004574970,0.154450360,9.372089390,-0.057370970,-0.105857860,0.006648900
1645505890454340096,-0.118305840,0.083769000,8.963722230,-0.097434220,-0.095558150,0.008514520
1645505890456679936,-0.301700830,0.104663870,9.000737190,-0.026461480,0.024504960,-0.011219090
1645505890459110144,0.027432280,0.043634870,9.465141300,0.031127030,0.060053170,-0.012061000
1645505890461649920,-0.253161040,0.199406180,10.727747920,0.066441300,0.019074970,0.017467140
1645505890464059904,-0.187029930,0.129758030,10.501332280,-0.003933910,-0.063756110,0.014130770
1645505890466739968,-0.039893310,0.035228320,9.793238640,-0.061407670,-0.116495770,0.032852580
1645505890469120000,-0.159478050,-0.107959260,9.321796420,-0.004689400,-0.016254190,0.011619930
1645505890472129792,0.091996860,-0.194365700,8.987158780,0.047421450,0.052736700,-0.028142330
1645505890474169856,-0.030070400,0.055637090,9.886682510,0.076800580,0.017063320,-0.009545680
1645505890477120000,-0.086035880,0.097707520,9.965148930,0.034967060,0.000701840,0.012442470
1645505890479089920,-0.180261610,0.055548940,9.968238830,-0.016056000,-0.102105740,0.009137390
1645505890481679872,-0.483016010,0.113647040,10.025462150,0.013306740,-0.078950830,0.028839710
1645505890484499968,-0.336889210,-0.001167590,9.463689800,0.076866170,0.016278030,0.014171010
1645505890486680064,-0.210538100,0.147492560,9.872315410,0.107188530,0.020997220,-0.007922950
1645505890489080064,-0.230852470,0.539127410,10.371518140,0.049552330,0.027808550,0.010421870
1645505890491619840,0.088273940,0.704042080,9.574230190,-0.053514550,-0.039447840,0.011834510
1645505890494030080,-0.004876260,0.646111010,9.753010750,-0.042185190,-0.106564160,-0.000083450
1645505890496699904,-0.105016280,0.622816090,9.361288070,0.013832750,-0.002507870,-0.002510850
1645505890499130112,0.059278600,0.399624560,9.329290390,0.066418950,0.005051490,0.000385940
1645505890502299904,-0.198256920,0.132141590,10.805472370,0.053592020,-0.005255640,0.021538140
1645505890504139776,-0.022360540,0.194752100,9.884277340,-0.032638020,0.029195850,0.031308830
1645505890507459840,0.137418460,-0.072614320,9.875882150,-0.070554040,-0.066564990,0.024585430
1645505890509120000,-0.213091120,-0.176456970,9.916084290,-0.011822580,-0.007674100,-0.004419680
1645505890511669760,0.140500040,0.169314040,8.382569310,0.038328760,0.006569920,-0.041031830
1645505890514060032,-0.124853790,0.135169160,9.876161580,0.027608870,-0.008887050,-0.014191870
1645505890517149952,-0.347813810,0.190488430,9.920445440,-0.013840200,0.071789330,0.015412270
1645505890519099904,-0.070311630,0.169017270,9.853717800,-0.017896290,-0.076414640,0.011961160
1645505890521699840,-0.530717730,0.089792360,10.612861630,0.005400180,-0.040152680,0.016246740
1645505890524059904,-0.125439580,0.261640190,9.046498300,0.012797120,0.016860670,-0.011794270
1645505890526690048,0.043350610,0.293875040,9.654116630,0.013256070,-0.016930700,-0.020539760
1645505890529039872,-0.117650280,0.248572280,9.847132680,0.003071130,0.082848970,0.016731020
1645505890531620096,0.265946720,0.179342390,9.412948610,0.008991360,-0.004278120,0.007529560
1645505890534159872,-0.208882120,0.132944410,10.403819080,0.031948090,-0.079242890,0.010894240
1645505890536699904,-0.251471340,0.140014570,9.520955090,-0.011891130,-0.013655420,0.009776650
1645505890539599872,-0.213226170,0.112579990,9.714637760,-0.020615760,-0.020785630,-0.002349910
1645505890541920000,-0.460817840,0.115735020,10.410303120,0.026907020,0.039863580,-0.007113810
1645505890544109824,0.052560700,0.312683280,9.775480270,0.024478140,0.029194360,-0.008216500
1645505890546739712,0.027520930,0.536902370,9.974316600,0.009877980,-0.011684000,0.006063280
1645505890549120000,0.033067160,0.592943850,9.567153930,-0.056460500,-0.003556910,-0.002102550
1645505890551869952,0.175437840,0.633139370,9.117550850,-0.073069320,-0.015440580,0.005777180
1645505890554119936,-0.294996530,0.339715750,9.945763590,0.000134110,-0.001719590,0.018446150
1645505890556709888,-0.125766310,-0.011541270,9.801789280,0.027368960,0.015097860,0.003370640
1645505890559209728,-0.086091820,-0.115563360,9.911531450,0.035347040,0.019438560,0.020554660
1645505890561669888,-0.275298860,-0.268891720,10.326170920,-0.019548830,0.033336880,0.009787080
1645505890564079872,0.078750100,-0.127182250,9.415617940,-0.070850560,0.009164210,-0.004999340
1645505890567569920,-0.011220330,0.188122560,9.442014690,-0.039203470,-0.022161010,-0.002820790
1645505890569519872,0.005596330,0.078205480,9.470917700,-0.003352760,0.050808490,-0.007946790
1645505890571640064,-0.012932770,0.033918900,9.523866650,0.068019350,0.038199130,-0.012087820
1645505890574029824,-0.448765870,0.119026580,10.411705970,0.078408410,-0.033064180,-0.016258650
1645505890576669952,-0.345650230,0.192455530,9.684699060,-0.008599460,-0.008058550,-0.002689660
1645505890579089920,-0.344999940,0.310382310,9.747840880,-0.059731310,-0.010976200,-0.001959500
1645505890581699840,-0.253115330,0.467830630,9.941777230,-0.045403830,0.042502580,0.002658370
1645505890584430080,0.184314760,0.379467870,9.536608700,0.011488800,0.068444020,0.010423360
1645505890586759936,0.151812580,0.260150490,10.349623680,0.082477930,0.042341660,0.015918910
1645505890589120000,-0.032659970,0.282608900,10.107743260,0.034877660,0.005136430,0.002896790
1645505890591719936,-0.071915900,0.139195400,9.654159550,-0.060755030,-0.088973340,0.004085900
1645505890594099968,-0.368311820,0.104302850,9.584120750,-0.069405150,-0.004032250,0.007212160
1645505890596709888,-0.259695350,0.089390790,9.306006430,-0.014232100,0.053097300,-0.010699030
1645505890599239936,-0.136330310,0.254360910,10.191755290,0.031268590,0.049233430,0.000301000
1645505890602170112,-0.118379890,0.400485610,10.090271950,0.020390750,0.094148520,0.021442770
1645505890604039936,0.203644160,0.242890280,9.911389350,-0.030066070,-0.021381670,0.009183580
1645505890606659840,-0.112817770,0.258155170,10.046648980,-0.038911410,-0.014364720,0.025686620
1645505890609099776,-0.116638760,0.071289180,9.026391030,-0.019063060,0.008994340,0.010477010
1645505890611640064,-0.034506640,-0.202997210,9.545612340,0.024469200,-0.001321730,-0.017061830
1645505890614149888,-0.374924540,-0.050448080,9.841720580,0.048202280,0.096695130,-0.011235480
1645505890616839936,-0.127234240,-0.076428890,9.716519360,0.009167190,0.033362210,-0.018776950
1645505890619350016,-0.246840250,0.016977470,10.417570110,-0.024332110,-0.019018350,-0.003241000
1645505890621819904,-0.201461550,0.346785280,9.588292120,-0.018838050,0.015120210,0.007981060
1645505890624079872,0.080681820,0.173203290,9.530866620,0.007908050,-0.014302140,0.027385360
1645505890626759936,-0.234387250,-0.035743620,10.047658920,0.070945930,0.088816880,0.022763020
1645505890629129984,-0.133561690,0.002881010,9.705617900,0.093342370,0.041005020,-0.011241440
1645505890631660032,-0.395524560,0.097668580,10.256616590,0.037398930,-0.067977610,-0.010938940
1645505890635439872,-0.596155350,0.267965940,9.706883430,-0.032891340,-0.024543700,-0.019437070
1645505890636679936,-0.187048780,0.481501130,9.136674880,-0.048002600,-0.011338290,-0.019922850
1645505890639159808,-0.245894360,0.377650410,10.220420840,0.036595750,0.079615400,0.013104080
1645505890641609984,0.047246680,0.352610590,10.307058330,0.091023740,0.090958160,0.012898440
1645505890644029952,0.203161570,0.457454860,10.238389020,0.055581340,-0.019614400,0.029353800
1645505890646870016,-0.075813000,0.180173170,10.121597290,-0.021280350,-0.053100300,0.043125450
1645505890649159936,-0.080191810,0.023934840,9.026127820,-0.058284400,-0.013463200,0.007539990
1645505890651899904,-0.212391750,-0.072765120,9.213308330,0.030510130,-0.018703940,-0.009672340
1645505890654119936,-0.314870090,-0.108915730,9.888770100,0.074632470,0.061236320,-0.011983510
1645505890656709888,-0.034816300,0.178613740,9.677803040,0.046361990,0.086073580,0.015804170
1645505890659190016,-0.142487600,0.136192110,10.766201020,0.003194810,-0.016114120,0.013656920
1645505890661789952,-0.059577800,0.225017180,10.100727080,-0.033475460,0.017739830,0.017556550
1645505890664209920,0.056160500,0.211547600,9.314842220,0.022539500,-0.033058230,0.011406840
1645505890666909952,-0.175421150,-0.096017780,9.751550670,0.092703110,0.012834370,-0.017319620
1645505890669629696,-0.068026150,0.045888830,9.016342160,0.103014730,0.092397650,-0.025153160
1645505890671680000,-0.137837770,0.059556670,9.969436650,0.057202590,0.011058150,-0.004169350
1645505890674080000,-0.441427890,0.011430380,10.411362650,-0.008043650,0.017715990,0.009863080
1645505890676770048,-0.129048390,0.319616050,9.410776140,-0.010865930,-0.049877170,0.010424850
1645505890679259904,-0.257504640,0.210416360,10.153076170,0.039774180,0.017435850,0.024329130
1645505890681629952,-0.228070420,0.103717580,10.042436600,0.097687550,0.107565520,0.004768370
1645505890684160000,-0.014209070,0.221638750,10.124211310,0.109723230,0.001911820,-0.019131600
1645505890687259904,-0.369114580,0.295268830,10.282135010,0.058548140,-0.020761790,0.002510850
1645505890689139968,-0.037515920,0.471643750,8.848682400,-0.035324700,-0.035132470,-0.012713670
1645505890691779840,-0.079107250,0.650445640,9.418511390,-0.037248440,0.004151460,-0.005830830
1645505890694379776,-0.202992600,0.679784770,9.843095780,0.005951520,0.093206770,0.004537400
1645505890696620032,0.283489530,0.442864090,10.048302650,0.054928670,0.047042970,0.010326510
1645505890699110144,-0.063837390,0.280943900,10.816473960,0.080271050,0.049790740,0.014939900
1645505890702129920,-0.031712090,0.159723910,9.999974250,-0.000971560,-0.022675090,0.022217630
1645505890704119808,-0.088011740,-0.108874900,9.534949300,-0.054885450,-0.065630680,0.008659070
1645505890706669824,-0.347732310,-0.103766660,8.996129990,-0.031845270,0.037631400,-0.027434530
1645505890709139712,-0.033258360,-0.156789840,8.964032170,0.017437340,0.075648720,-0.039407600
1645505890711689984,-0.290301740,0.007718670,10.197247510,0.073425470,0.095276540,-0.017048420
1645505890714109952,-0.232166350,0.077645470,10.371619220,0.037588180,0.028917190,-0.007878240
1645505890716719872,-0.174672870,0.129024970,10.261356350,-0.004468860,-0.051115450,0.014023480
1645505890719439872,-0.376028950,0.189469190,9.822925570,0.007425250,-0.025552520,0.019383430
1645505890721880064,0.000048240,0.022796840,9.131805420,0.031505530,0.057904430,-0.013123450
1645505890724119808,-0.010009990,0.227678490,9.793593410,0.086717300,0.092999620,-0.025026500
1645505890727229952,-0.071192670,0.397276370,10.154236790,0.063735250,0.074923050,-0.018335880
1645505890729120000,-0.000780310,0.335618470,9.906904220,-0.004948670,-0.036461650,-0.010092560
1645505890731609856,-0.255385730,0.457762090,9.761842730,-0.004790720,-0.060217090,-0.006119910
1645505890734350080,-0.245490850,0.488983660,9.332195280,-0.008186700,0.041724750,-0.001043080
1645505890737829888,-0.213591050,0.290670870,9.931317330,0.015968090,0.062404570,0.010789930
1645505890739149824,-0.280872640,0.223862960,10.612125400,0.057640670,0.089177490,0.003501770
1645505890741649920,-0.054758480,0.278256270,10.118971820,0.024633120,0.020854180,0.004819040
1645505890744129792,-0.049631040,0.193148930,9.901131630,-0.023111700,-0.059796870,-0.000420210
1645505890746639872,-0.107656350,0.240545020,9.204023360,-0.044883790,0.014135240,-0.021478540
1645505890749199872,0.077035390,0.239825650,8.777801510,-0.021657350,0.045393410,-0.024662920
1645505890751770112,-0.051516820,0.034349810,10.077802660,0.034521520,0.078567870,0.001002850
1645505890754989824,-0.077565420,0.162195710,10.125714300,0.042834880,0.094258790,0.000070040
1645505890756709888,-0.036826610,0.149190870,10.283162120,-0.007234520,-0.047160690,0.017762190
1645505890759289856,-0.383000760,0.034819990,10.301003460,-0.037737190,-0.013142830,0.024081770
1645505890759939840,-0.104650150,0.065371480,8.779421810,-0.017625090,0.044541060,-0.013351440
1645505890764590080,-0.212972490,-0.052465080,9.779700280,0.055803370,0.032271440,-0.023333730
1645505890764879872,-0.404946150,0.092470720,9.881300930,0.073626640,0.117556770,-0.012612340
1645505890769349888,-0.080362480,0.196907210,9.652940750,0.023701790,-0.024062400,-0.012247270
1645505890771729920,-0.474911330,0.122266460,10.587638850,-0.025376680,-0.049130620,0.018043820
1645505890774230016,-0.217663740,0.262556080,9.251936910,-0.019720200,0.030165910,0.001376870
1645505890775300096,-0.078843240,0.233728300,10.093839650,0.027278070,0.002732870,-0.011555850
1645505890779140096,-0.395121040,0.430751410,10.548999790,0.063757610,0.084820400,-0.000129640
1645505890779529728,0.192316000,0.667176130,9.400693890,0.015386940,0.011812150,-0.011284650
1645505890784529920,-0.054313260,0.657514870,10.195450780,-0.051315140,-0.030004980,0.005209450
1645505890785280000,-0.140363020,0.576775910,9.392066000,-0.077374290,0.027139490,-0.004523990
1645505890789139968,0.089882350,0.319528850,9.211800580,-0.030137600,-0.008934740,-0.013153250
1645505890789539840,-0.414760500,0.004599400,10.348426820,0.049535930,0.045679510,-0.002059340
1645505890794299904,-0.103670310,-0.209731610,9.806731220,0.038133570,0.043505430,0.000469390
1645505890794629888,-0.043551670,-0.135444890,10.107998850,-0.021724400,-0.004225970,0.011895600
1645505890799209728,-0.174034460,-0.101987960,10.132328990,-0.074733790,0.042268640,0.011882190
1645505890799899904,0.244058800,0.037249510,9.199229240,-0.068537880,0.034324820,-0.018323960
1645505890805609984,0.009905850,0.273765410,9.615111350,0.027801100,0.038051610,-0.022821130
1645505890806289920,-0.055677850,0.254459530,9.655783650,0.053702310,0.070849080,-0.011827050
1645505890809199872,-0.195439200,0.257714990,9.765164380,0.045360630,0.002944470,0.007480380
1645505890810259712,-0.664949060,0.212183800,10.244110110,-0.002484020,-0.058120500,0.015056140
1645505890814139904,-0.370665040,0.173768490,9.342986110,-0.064824530,0.017113990,-0.002914670
1645505890814439936,-0.275725480,0.261713890,9.765481950,-0.019133090,0.060753530,-0.020188100
1645505890819229952,-0.184763160,0.300081970,10.593824390,0.016026200,0.108590740,-0.036594280
1645505890819680000,0.265909110,0.401398450,9.720467570,0.033214690,0.048626970,-0.009502470
1645505890824179968,0.049643140,0.237511020,10.128204350,0.032205870,-0.054936110,0.003661220
1645505890824770048,-0.055979180,0.215008200,9.354382510,-0.033812230,0.004065040,0.002227720
1645505890829179904,-0.070050280,0.212838740,9.037783620,-0.046998270,-0.006270410,0.019478800
1645505890829509888,-0.423891900,-0.001809340,10.447488780,-0.010426340,0.058022150,0.012005870
1645505890834339840,-0.118538750,0.203736630,10.014397620,0.021676720,0.099346050,-0.014275320
1645505890836000000,-0.096572120,0.450427740,10.515812870,0.007209180,0.000943240,0.010833140
1645505890839579904,-0.213114830,0.456311550,10.219208720,-0.055110460,0.031732020,0.006629530
1645505890840260096,0.034296320,0.549981060,8.901659970,-0.082153080,-0.018948320,-0.016352530
1645505890844199936,-0.168179010,0.417598520,9.443308830,-0.025351350,0.004114210,-0.002598760
1645505890844739840,-0.138543410,0.136452730,9.369821550,0.001893940,0.101591670,-0.008240340
1645505890849220096,-0.060365760,-0.118735750,10.144377710,0.022120770,0.039024650,0.012999770
1645505890849669888,-0.340532000,-0.271421730,10.665401460,0.020806490,0.019596520,0.027410690
1645505890854209792,-0.031467830,-0.353929880,9.631619450,-0.043936080,-0.009560590,-0.006422400
1645505890855199744,-0.123315100,-0.094761640,9.737387660,-0.048300630,-0.010059770,-0.001873080
1645505890859200000,-0.136358900,0.163554830,9.276431080,-0.016617770,0.094258800,-0.006979710
1645505890859639808,0.061682310,0.153921530,9.635494230,0.018413370,0.040236120,-0.012631720
1645505890864110080,-0.319759070,0.317676840,10.209413530,0.060838450,0.034205610,0.006042420
1645505890864339712,-0.299734060,0.239401130,9.679049490,0.026591120,-0.005136430,-0.008794670
1645505890869319936,-0.519782480,0.250144060,10.102731700,-0.010888280,-0.054824360,0.006186960
1645505890870849792,-0.638872270,0.425604080,9.760493280,-0.018924470,0.001706180,-0.000029800
1645505890874339840,-0.048021850,0.343058740,9.450962070,-0.033833090,0.037445130,-0.008992850
1645505890875429888,-0.116031120,0.487120450,10.443419460,0.013668840,0.088942060,0.028404600
1645505890879539968,0.051009630,0.420839520,10.237522130,0.027258690,0.041490790,-0.004793700
1645505890880420096,0.147235570,0.361102130,9.886852260,-0.025814770,-0.087502610,0.001136960
1645505890884499968,-0.327216360,0.306034300,9.601293560,-0.035202500,-0.044594700,0.020363930
1645505890885370112,-0.105890630,-0.031334510,9.013504030,-0.033354760,-0.010186430,0.000907480
1645505890889319936,-0.247921050,-0.071537800,9.895570760,0.001217420,0.025777520,0.008626280
1645505890889910016,-0.136151060,0.019622930,10.185533520,0.023916360,0.102174290,0.017817320
1645505890894150144,0.167256250,0.000295020,10.213543890,-0.011625890,0.019155440,-0.004269180
1645505890894439936,-0.114097070,0.305811020,10.385772710,-0.027167800,-0.042676920,-0.001703200
1645505890899209984,-0.006454150,0.257777930,9.217600820,-0.044503810,-0.009167190,0.006750230
1645505890899729920,-0.206883430,-0.068995770,9.246769910,0.014315540,-0.013755260,-0.012573600
1645505890904539904,-0.517443060,-0.016599460,9.902418140,0.070054830,0.020393730,-0.022549930
1645505890906009856,-0.302974640,0.109237230,9.366224290,0.030063090,0.024260580,-0.008939210
1645505890909379840,-0.344955500,0.170146750,10.266359330,-0.031317770,-0.028377780,-0.001791120
1645505890910220032,-0.296712850,0.434558750,10.418970110,-0.069129460,0.028274950,0.007717310
1645505890914139904,0.107570380,0.334979590,9.575861930,-0.021666290,-0.001257660,0.016087300
1645505890914530048,-0.018159140,-0.001863220,10.422142030,0.091372420,-0.015875700,-0.002311170
1645505890921559808,-0.057478330,0.148242210,9.592717170,0.095242250,0.052817160,-0.012204050
1645505890922969856,-0.076477230,0.314729270,9.421725270,0.010405480,-0.076553210,-0.009627640
1645505890924099840,-0.534015720,0.358282360,10.149174690,-0.094479320,-0.043627630,-0.004512070
1645505890924359936,-0.118508930,0.566110310,8.825618740,-0.109699370,0.002083180,-0.007525090
1645505890929119744,-0.048065540,0.518040540,10.259121890,-0.001436470,0.012730060,-0.001299380
1645505890929479936,-0.249818880,0.461265360,10.768895150,0.055526210,0.117330270,0.006738310
1645505890934389760,0.249062150,0.453292970,9.843429570,0.024962430,-0.036202370,0.001172720
1645505890935190016,-0.213041130,0.157190530,10.429033280,-0.056385990,-0.074361260,0.020483130
1645505890939329792,-0.147482690,-0.050935530,8.861577030,-0.101788350,0.000600520,0.012348590
1645505890940699904,-0.010975670,-0.231329020,8.913526540,-0.037322940,-0.040918590,-0.006294250
1645505890944179968,-0.444039430,-0.225911470,10.071704860,0.031119590,0.071614990,-0.011391940
1645505890944579840,0.080332170,-0.029334790,9.556802750,0.018523640,0.064256790,-0.005537270
1645505890949189888,-0.141121450,0.094969550,10.897229190,-0.013738870,-0.035382810,0.000697370
1645505890949889792,-0.152295650,0.256070580,10.141663550,-0.061570120,-0.017474590,0.006482010
1645505890954520064,0.190288350,0.139643560,9.206705090,-0.031469750,-0.026471910,0.014744700
1645505890955799808,-0.357708960,-0.021451500,9.873847960,0.076362500,0.033500780,-0.014767050
1645505890959219968,-0.185738270,0.091215580,9.205278400,0.073227290,0.021132830,-0.029470030
1645505890959919872,-0.394434540,0.132772340,9.753116610,0.035065410,-0.056838980,-0.011712310
1645505890964179968,-0.655532720,0.211182370,10.026422500,-0.037314000,-0.026313960,-0.020191070
1645505890964539904,-0.162926230,0.369247670,9.630088810,-0.069233780,-0.028777130,0.001810490
1645505890971369984,-0.359932480,0.369972680,10.537551880,0.016634170,0.023615360,0.030486290
1645505890972139776,-0.039429540,0.178819000,10.283229830,0.062064830,0.041013970,0.009627640
1645505890974139904,0.095776320,0.253803730,9.914619450,0.078627470,-0.040528180,0.019459430
1645505890974469888,-0.270851520,0.205186460,9.922997470,0.028765200,-0.071123250,0.007483360
1645505890979140096,-0.049860820,0.232293950,8.842475890,-0.072070960,-0.059016050,-0.011603530
1645505890979559936,-0.177392410,0.474217360,9.264991760,-0.052554910,-0.057975960,-0.004021820
1645505890984539904,-0.102938960,0.503249650,10.002635960,-0.022231040,0.066033000,-0.010676680
1645505890985750016,0.226931970,0.498053100,10.150559430,0.010338430,0.066794460,0.005960460
1645505890989169920,-0.084445600,0.433258950,11.126693730,0.043383240,-0.036160650,0.008936230
1645505890989499904,-0.096340710,0.230468300,9.934897420,-0.028856100,-0.060173880,0.009986760
1645505890994230016,-0.089033940,-0.055413910,8.798568730,-0.058440870,-0.114904370,0.019988420
1645505890994679808,-0.217848180,-0.247854370,8.885007860,-0.025723880,0.024209910,-0.013095140
1645505890999399936,-0.064447190,-0.323435960,9.058532710,0.012914840,0.110191120,-0.023700300
1645505891000539904,-0.132000330,-0.221392100,10.597753520,0.066578390,0.020609800,-0.006741290
1645505891004669952,-0.226561550,0.021289070,10.664391520,0.025421380,-0.023090840,0.000053640
1645505891005559808,-0.052853140,0.101365480,9.846478460,-0.037282710,-0.113363590,0.012438000
1645505891009199872,-0.182943540,0.014607540,9.802105900,-0.000755490,-0.008051100,0.011006000
1645505891009639936,-0.098985370,0.044126120,9.094591140,0.079812120,0.072200600,-0.031851240
1645505891014289920,-0.031529350,0.207293640,9.861989020,0.110806540,0.003431740,-0.017972290
1645505891014979840,-0.242151040,0.527808790,9.987923620,0.033822660,0.030763450,-0.010520220
1645505891019219968,-0.117054480,0.567251440,9.475644110,-0.056178870,-0.076501060,-0.014790890
1645505891019689984,-0.367516910,0.563168290,10.146280290,-0.039465720,-0.085988630,0.012484190
1645505891024129792,-0.307582620,0.426517840,9.446619030,0.031892960,0.059264900,0.011302530
1645505891024479744,-0.075433600,0.176137860,10.161993980,0.080363470,0.015443570,0.015862290
1645505891029270016,-0.331872940,0.302269430,10.774392130,0.059323020,0.039862100,0.016593930
1645505891029789952,0.097040410,0.235221530,9.323128700,-0.049442050,-0.039786100,0.001001360
1645505891034679808,0.077890280,0.039772160,9.533311840,-0.074684620,-0.095278030,-0.009082260
1645505891036219904,-0.057287880,0.268862720,9.003007890,-0.028759250,0.048169500,-0.030259790
1645505891039150080,0.213068980,0.137744620,9.259610180,0.021460660,0.033751130,-0.015255810
1645505891039490048,-0.340492190,0.044178800,10.959252360,0.070893770,0.016397240,0.014701490
1645505891044099840,-0.151328210,0.157775600,9.918159480,0.027610360,-0.011977550,0.007756050
1645505891044399872,-0.165940120,0.094449010,9.940414430,-0.042809550,-0.086362670,0.020015240
1645505891049190144,-0.417132940,0.083771120,9.672130580,-0.034497680,0.028440360,0.002354380
1645505891050419712,0.059400570,0.093056500,8.783025740,0.018033380,0.041235980,-0.034175810
1645505891054230016,-0.250816020,0.229868250,10.083356860,0.079494710,0.009076300,-0.016258660
1645505891054710016,-0.197957010,0.267074730,9.833559040,0.043319160,0.021994110,0.000359120
1645505891059209728,-0.076151390,0.262168140,9.696389200,-0.035478170,-0.067515670,-0.006049870
1645505891059779840,-0.495799450,0.199594230,10.423313140,-0.029149650,-0.049757960,0.013408070
1645505891064149760,-0.145667430,0.025405800,9.502058980,0.005359950,0.031305850,-0.016017260
1645505891064460032,-0.137481020,0.256959500,9.904416080,0.068239870,0.008440020,-0.031885500
1645505891069169920,-0.082160380,0.388412120,10.278413770,0.038236380,0.032417480,-0.002887850
1645505891069639936,0.191904810,0.310342700,9.405278210,-0.028501450,0.014251470,-0.003817680
1645505891074159872,-0.129734370,0.494663180,9.945584300,-0.023849310,-0.098332760,-0.014504790
1645505891074400000,-0.203408430,0.435854230,9.541155820,-0.034153470,-0.010739270,-0.001375380
1645505891079160064,-0.179594620,0.319774450,9.253330230,0.009065870,-0.005646050,0.000825520
1645505891079609856,-0.463208730,0.280993820,10.617284770,0.022713840,-0.007094440,-0.001086290
1645505891084239872,-0.129909100,0.176851260,9.727027890,-0.020135940,0.053757430,0.016021730
1645505891084709888,0.021638260,0.117125080,9.854583740,-0.024595860,-0.044578320,0.000859800
1645505891089159936,-0.121814780,0.110910090,10.153667450,-0.035758320,0.000031290,-0.021331020
1645505891089679872,0.226718650,0.077866100,8.768365860,-0.027395790,-0.003060700,-0.005444880
1645505891094240000,-0.105876830,-0.173696400,9.974248890,0.033497810,-0.039896370,-0.012470780
1645505891095150080,-0.302656590,-0.233302520,9.845132830,0.035464770,0.041352210,-0.024566060
1645505891099160064,-0.245757820,-0.060976080,9.562237740,0.022582710,-0.083780290,-0.025714940
1645505891099639808,-0.626248000,0.089155030,10.357983590,-0.017602740,-0.043961410,-0.025838610
1645505891104209920,-0.215530020,0.336527260,9.242383960,-0.045846410,0.007909540,-0.037281220
1645505891104839936,-0.130271840,0.473334730,10.038945200,0.011456010,-0.013080240,-0.015458460
1645505891109169920,-0.211021070,0.396957730,10.294285770,0.059084590,0.042897460,-0.007495280
1645505891109550080,0.058500960,0.318688300,9.688976290,0.054110600,-0.048360240,-0.005216900
1645505891114169856,-0.390601310,0.317797900,10.198654170,0.023691360,-0.093726810,0.007881220
1645505891114459904,-0.302595910,0.096937470,9.235080720,-0.033989550,-0.055105980,-0.015203660
1645505891119209984,-0.197464640,0.125611040,9.483058930,-0.017334520,-0.062906740,-0.024236740
1645505891121059840,-0.323752670,0.345932420,10.067239760,0.012750920,0.041079520,-0.022223590
1645505891124219904,0.201633620,0.217729400,9.901569370,0.000691410,0.032572450,-0.024271010
1645505891124679936,-0.022281670,0.399784650,10.628357890,0.022394960,-0.033716860,-0.009244680
1645505891129169920,-0.206558440,0.382047950,10.018074990,-0.005969400,-0.082285710,-0.021879370
1645505891129599744,-0.016601660,0.173262890,8.952374460,-0.032818320,-0.124487300,-0.010064250
1645505891134179840,-0.422049880,0.183783250,9.312549590,0.016288460,-0.021883850,-0.022068620
1645505891134799872,-0.158052730,0.048824860,9.263632770,0.004084410,0.047639010,-0.036600240
1645505891139180032,-0.165287000,0.063457750,10.194159510,0.015038250,-0.008599460,-0.012318790
1645505891140399872,-0.223305400,0.074321660,10.548756600,0.018879770,-0.034590070,-0.015205150
1645505891144239872,0.160422310,-0.003569160,9.676493640,-0.011704860,-0.086823110,-0.010468070
1645505891144729856,-0.156783510,-0.087496210,9.825441360,0.036241120,-0.047855080,0.003321470
1645505891149240064,-0.145657290,-0.250326900,9.391115190,0.058226290,0.009164220,-0.036661330
1645505891149799936,-0.141122890,-0.087359460,9.412476540,0.062525260,-0.053462390,-0.039128960
1645505891154160128,-0.462275510,0.142782630,9.941728590,0.049404800,-0.017005200,-0.031256680
1645505891154439936,-0.231590360,0.287221430,9.577102660,-0.001910330,-0.060801200,-0.046890970
1645505891159260160,-0.411524530,0.592799370,10.188351630,0.012163820,-0.096425410,-0.021724400
1645505891159960064,-0.201328430,0.682394390,9.972825050,0.029216700,0.003775950,-0.005261600
1645505891164089856,0.025884870,0.473110940,9.876452450,0.050880010,-0.018894670,-0.007623430
1645505891164339968,-0.106116570,0.529402320,10.507684710,0.061224400,-0.035139920,0.003260370
1645505891169319936,0.046532220,0.476237390,9.551384930,-0.005120040,-0.023372470,0.005890430
1645505891171759872,0.024226200,0.328558330,9.484141350,-0.037232040,-0.120246420,-0.006154180
1645505891174389760,-0.064460950,0.375038030,9.487422940,-0.047378240,-0.036014620,-0.019457930
1645505891175680000,0.116339330,0.136920990,9.096797940,-0.009253620,0.041021400,-0.017122920
1645505891179180032,-0.157218440,-0.009127310,10.817461010,0.051277880,-0.008389350,-0.014634430
1645505891179579904,-0.316636770,0.216367330,10.555116650,0.026232000,-0.015507640,-0.005419550
1645505891184480000,-0.123386440,0.167519470,9.527521130,-0.051349390,-0.120310480,0.005832310
1645505891185240064,-0.386187760,0.056343350,9.818455700,-0.054915250,-0.063072140,-0.012359020
1645505891189280000,-0.174391600,0.143509160,8.648787500,-0.002047420,0.058385730,-0.037489840
1645505891189939968,-0.059697920,0.088299350,9.676280980,0.058104110,-0.029885770,-0.025604670
1645505891194119936,-0.362247050,0.170673460,10.410088540,0.044983630,0.032159690,-0.007647280
1645505891194379776,0.025339520,0.280056690,9.510479930,-0.029665240,-0.081439330,-0.005054470
1645505891199200000,-0.268365590,0.076832930,10.576927190,-0.051072240,-0.127005590,0.008802110
1645505891199749888,-0.176659670,-0.070380340,9.404268260,0.012111660,0.040368740,-0.022132700
1645505891204529920,0.087914800,0.008051080,9.541533470,0.075480360,-0.028184060,-0.045549870
1645505891205639936,-0.343733910,0.151985730,10.485287670,0.065194080,0.017812850,-0.025960810
1645505891209229824,-0.028217950,0.354976000,9.151004790,-0.017072260,-0.028312210,-0.032591820
1645505891209769984,-0.338191690,0.497300770,9.991186140,-0.058159240,-0.145986680,-0.028359900
1645505891214109952,-0.517379220,0.474064890,9.750391960,-0.035543730,-0.015535950,-0.021867450
1645505891214459904,-0.179945220,0.339926060,9.477959630,0.039726500,-0.019519030,-0.023819510
1645505891219509760,-0.477783740,0.353821490,10.847701070,0.090414290,-0.022886700,-0.019855800
1645505891221469952,0.000503420,0.407244920,9.861063960,-0.012001400,-0.000515580,-0.009790060
1645505891224150016,0.231902170,0.321472620,9.583726880,-0.091975930,-0.060187290,-0.008964540
1645505891224549888,0.044812940,0.243058620,9.753009800,-0.061143940,-0.035107140,-0.031782690
1645505891229159936,0.359090780,0.203224520,8.888135910,-0.021207330,-0.013439360,-0.043031580
1645505891229629952,0.001517720,0.029298840,9.773494720,0.066722940,-0.027546290,-0.024189060
1645505891234259968,-0.190469280,-0.166902380,10.175475120,0.046509500,0.008730590,-0.025890770
1645505891234889984,-0.081288930,-0.102152200,9.673025130,-0.022399430,-0.038070980,-0.012141470
1645505891239439872,-0.423028140,-0.054597400,10.268827440,-0.048029420,-0.047165150,-0.022834540
1645505891241099776,-0.139983850,0.103427510,9.393453600,-0.044959780,0.032667820,-0.061585000
1645505891244249856,-0.121230390,0.444470520,9.387352940,0.034970050,-0.001667440,-0.057177250
1645505891244750080,-0.312121690,0.376095920,10.130056380,0.050970920,0.012221930,-0.046983360
1645505891249199872,-0.068877290,0.217167110,9.249804500,0.030770900,-0.013862550,-0.027191640
1645505891249859840,-0.357479660,0.146239800,9.985982890,0.038139520,-0.088001800,-0.011812150
1645505891254530048,-0.337668780,-0.020709950,9.766362190,-0.009208920,0.009422010,-0.019988420
1645505891254899968,-0.002456390,0.096650910,9.497505190,0.001849230,-0.009845200,-0.032879410
1645505891259179776,-0.007930710,0.196703850,10.556564330,0.028356910,0.040712950,-0.039908290
1645505891259619840,0.203902970,0.199380220,9.845716480,0.026302050,0.073623670,-0.044588760
1645505891264099840,0.016203940,0.323759500,10.114635470,0.051046910,-0.084494050,-0.043436890
1645505891264359936,-0.318515630,0.453649280,9.676979060,0.013577940,-0.061884510,-0.032794470
1645505891269870080,-0.270256100,0.449394290,8.768657680,-0.031045080,-0.042277580,-0.026203690
1645505891272159744,-0.540301500,0.442067060,10.047505380,-0.002723930,0.003199280,-0.021937490
1645505891275399936,-0.290701810,0.456003250,9.930682180,0.009320680,0.076746930,-0.026129190
1645505891276359936,0.111359920,0.320964990,10.324878690,0.019235910,0.014765560,-0.014604630
1645505891279350016,0.042023640,0.279217510,10.556608200,0.012981890,0.027941170,-0.024665890
1645505891280089856,0.231912270,0.184098910,9.376825330,-0.028386710,-0.040392580,-0.044460600
1645505891284169984,0.003532520,0.139755670,9.402769090,-0.031925740,-0.074970720,-0.017195940
1645505891284729856,-0.094337530,-0.076340200,8.884999280,-0.005812940,0.055842100,-0.027915840
1645505891289239808,-0.007377680,-0.260654270,9.500692370,0.025498870,0.032642490,-0.048491360
1645505891290179840,-0.421502710,-0.039243570,10.549206730,0.061479210,0.049449510,-0.022682550
1645505891294189824,-0.143699560,0.043024370,9.888510700,0.008973480,0.000219050,-0.048550960
1645505891294439936,-0.152571930,0.333040980,10.114013670,-0.036697090,-0.056986520,-0.036206850
1645505891299239936,-0.299483690,0.493341920,9.480295180,-0.015972560,0.052972140,-0.011530520
1645505891300299776,0.068524360,0.263030740,9.288434980,0.019045180,0.026066600,-0.035996740
1645505891304610048,-0.269846290,0.363094930,10.166080470,0.081862520,0.037963690,-0.025177010
1645505891305280000,-0.219023560,0.289425730,9.530992510,0.048542020,0.022880730,-0.037866830
1645505891309409792,-0.161370340,0.260843690,9.829269410,-0.035132460,-0.073045480,-0.041921430
1645505891310299904,-0.325183600,0.510372100,9.779012680,-0.064954160,0.022305550,-0.024575000
1645505891314339840,0.190627110,0.369447620,9.452904700,-0.067593160,0.071927910,-0.025102500
1645505891315079936,-0.022942690,0.227089270,10.735256200,0.032961370,0.072070960,-0.017160180
1645505891319650048,0.020182120,0.314608070,10.170370100,0.071547930,0.050880030,-0.030094390
1645505891321309952,0.000851050,0.253861250,9.675119400,-0.006443260,-0.083239360,-0.018827620
1645505891324359936,-0.520582970,0.179688920,9.531988140,-0.067049270,-0.033031400,-0.005218390
1645505891325199872,-0.194680870,0.139919680,8.607024190,-0.080317270,0.020298360,-0.029732290
1645505891329159936,-0.140701850,0.104304120,9.672416690,-0.007247920,0.085015580,-0.021676720
1645505891329700096,-0.090796080,0.270378590,10.564079280,0.052015490,0.149771570,-0.012661520
1645505891334529792,0.226274270,0.523904440,10.437990190,-0.001583990,0.008744000,-0.005428490
1645505891335389952,0.021465090,0.382570710,10.280826570,-0.062425450,-0.056423250,0.012084840
1645505891339579904,0.043872020,0.029222600,9.042389870,-0.060190270,0.026230520,-0.001020730
1645505891340459776,-0.040210390,-0.200735150,8.795154570,0.033789880,0.051587820,-0.025129320
1645505891344179968,-0.390219840,-0.278104780,9.809092520,0.080291930,0.078824170,-0.028055910
1645505891344430080,-0.226248190,-0.002951900,9.577630040,0.007790330,0.087417670,-0.016312300
1645505891349220096,-0.344646510,0.089683210,10.462817190,-0.055348870,-0.022645290,-0.012160840
1645505891349829888,-0.321599160,0.109550590,10.310708050,-0.065580010,0.031779710,0.001108650
1645505891354660096,-0.098110550,0.157220960,9.474323270,0.039912760,0.045982010,-0.007520620
1645505891356629760,-0.328061010,0.041816320,10.235192300,0.123913600,0.039856150,-0.024315720
1645505891359119872,-0.195679860,0.296864060,9.406755450,0.074636940,0.087618840,0.000561770
1645505891359569920,-0.186944510,0.454805050,9.541149140,-0.011272730,-0.036765640,0.009362400
1645505891364149760,-0.307908740,0.512662530,9.862687110,-0.093273820,-0.001186130,0.002691150
1645505891364519936,0.106630580,0.828303690,9.097477910,-0.076906380,0.058507910,0.005437430
1645505891369949696,-0.035467770,0.479502320,10.723436360,0.024041530,0.087331240,0.001439450
1645505891372029952,-0.121203900,0.318380300,10.791696550,0.082366180,0.109230000,-0.009222330
1645505891374209792,0.025261650,0.490172680,9.884900090,0.035285950,-0.066053870,-0.003211200
1645505891374560000,-0.394023780,0.207082670,9.683628080,-0.094550860,-0.048586730,0.016485160
1645505891379109888,-0.140764770,0.254322140,8.131519320,-0.160141300,0.039894880,0.006078180
1645505891379429888,-0.083661020,0.129536720,9.301214220,-0.078511240,0.075337300,-0.001537800
1645505891384379904,-0.238484730,-0.162563230,10.521596910,0.055874900,0.148019190,-0.001704690
1645505891386409984,0.087649840,-0.003814190,10.407750130,0.095163310,0.013248620,-0.018088520
1645505891389269760,-0.159981770,0.082000930,10.625254630,-0.012618300,-0.050520900,0.010502340
1645505891389979904,-0.090834270,0.015548500,9.186565400,-0.138600170,0.018060210,0.017108020
1645505891394249984,0.051137020,-0.039832640,9.029577260,-0.083714720,0.049591060,-0.011217600
1645505891394789888,-0.208563310,0.052716010,9.432610510,0.058312710,0.127330440,-0.016398730
1645505891399459840,0.011527250,0.197652430,9.578614230,0.099699210,0.060617930,-0.006207820
1645505891400480000,-0.336613180,0.317915920,10.333674430,0.034503640,0.004191700,0.006319580
1645505891404399872,-0.406953420,0.427807720,9.903290750,-0.091582540,-0.029785930,0.021274390
1645505891405769728,-0.192202600,0.137142360,9.923875810,-0.093363230,0.006392600,0.040726370
1645505891409099776,-0.404154420,0.017928820,10.005206110,0.042180710,0.129120070,-0.000327830
1645505891409449728,-0.048576640,0.208427250,9.929016110,0.105632850,0.058624150,-0.030688940
1645505891414189824,-0.171515850,0.455578600,9.984642030,0.043596320,0.022712350,-0.002446770
1645505891414520064,-0.241291900,0.622018870,9.134563450,-0.087848330,-0.035095220,-0.009667880
1645505891419600128,0.008592080,0.683129610,9.158896450,-0.153273360,-0.034692890,0.018244980
1645505891421499904,-0.129046170,0.540116550,9.626213070,-0.056916490,0.116463010,0.043486060
1645505891424249856,0.163094090,0.215757640,10.332749370,0.057674940,0.105313960,0.011859840
1645505891424729856,0.000699530,0.240101900,11.107646940,0.081442300,0.066950920,0.022730230
1645505891429139968,-0.261025460,0.198361770,10.126601220,-0.031544270,-0.027661030,0.032544140
1645505891430379776,-0.097650950,-0.008174440,8.848959920,-0.157348780,-0.091585510,0.013519820
1645505891435200000,-0.331715880,-0.024959430,8.544308660,-0.120356680,0.074939440,0.013192000
1645505891436659712,-0.143212740,-0.168416350,8.999306680,0.023339690,0.140869620,0.005467240
1645505891439270144,-0.228213380,-0.084155150,10.647332190,0.113615400,0.083878630,0.007556380
1645505891439879936,-0.231653570,0.283214780,10.545177460,0.035603340,0.006683170,0.021433830
1645505891444160000,0.024272780,0.277515050,9.917847630,-0.131574270,-0.044712430,0.036737330
1645505891444449792,-0.256631880,-0.029532230,9.905496600,-0.105951730,0.056663160,0.023372470
1645505891449199872,-0.140691340,-0.054789630,9.027521130,0.054484620,0.075870760,-0.008095800
1645505891449869824,-0.224283160,0.132770120,9.452454570,0.142060260,0.012320280,-0.011576710
1645505891454569728,-0.300503580,0.373381530,9.530166630,0.051692130,0.042308870,0.019094350
1645505891455819776,-0.060208770,0.522334750,9.472545620,-0.127325970,0.008054080,0.043885410
1645505891459200000,-0.195520770,0.186312060,10.533613200,-0.120118280,0.039032100,0.057151920
1645505891459679744,-0.061334440,-0.098293980,10.422040940,0.057081890,0.085653370,0.019101800
1645505891464130048,-0.089201000,0.199987920,10.157923700,0.164440270,0.009858610,-0.005313750
1645505891464480000,-0.342894610,0.366411090,9.926518440,0.052665170,-0.016695260,0.002093610
1645505891469449984,-0.327059210,0.523021160,8.812433240,-0.139179840,0.003404920,0.027963520
1645505891471239936,-0.282941490,0.512112800,9.095363620,-0.131228580,-0.015260280,0.032839180
1645505891474139904,-0.218129980,0.312416140,9.895122530,-0.009076300,0.090016450,0.026406350
1645505891474390016,0.037594040,0.446406930,10.000452040,0.096364320,0.103673360,0.032629070
1645505891479169792,0.065012560,0.401195700,11.050656320,0.054991250,0.024224810,0.015351180
1645505891479660032,0.022095390,0.320025800,10.220683100,-0.105045740,0.019767880,0.027695300
1645505891487449856,0.150202780,0.117000020,9.028265950,-0.132215020,-0.042061520,0.031703710
1645505891489159936,-0.144587430,-0.245585670,9.305993080,-0.031149390,0.022594630,-0.014065210
1645505891489769984,-0.082266800,0.010235140,8.554585460,0.062224270,0.100909170,-0.002713500
1645505891490259968,-0.098968160,0.049347740,9.881351470,0.052969160,0.055837630,0.015646220
1645505891494909952,-0.361550780,-0.028380390,10.666168210,-0.051301720,0.089375680,0.026926400
1645505891496019968,-0.116925890,0.192932140,10.022768020,-0.075483340,-0.027081380,0.039936610
1645505891499199744,-0.347215980,-0.116929180,10.353419300,-0.021371250,-0.003364680,0.016081330
1645505891499919872,-0.252319130,-0.100549640,9.075268750,0.079730150,0.084567080,-0.018179420
1645505891504259840,-0.173661810,0.273578050,9.250368120,0.096429880,0.036317110,-0.032483050
1645505891504789760,-0.421778380,0.260615110,9.696335790,-0.000824030,0.060853370,0.007428230
1645505891509799936,-0.238158790,0.338434070,9.274592400,-0.068245840,-0.016644600,0.012922290
1645505891510340096,-0.290432040,0.471976670,10.261413570,-0.036260490,-0.018438700,0.021363790
1645505891514179840,-0.202382860,0.302736190,10.087526320,0.020733470,0.074729310,0.023423130
1645505891514530048,-0.008386210,0.211627410,10.276200290,0.085884340,0.043682750,0.003479420
1645505891519130112,-0.150414320,0.286256430,10.419289590,0.057385870,0.038319830,0.001083310
1645505891519589888,0.002571290,0.246132080,9.426776890,-0.044734780,0.006364290,0.015020370
1645505891524129792,-0.208843900,0.320686610,9.452996250,-0.069832810,-0.047172610,0.013197960
1645505891524309760,-0.340597570,0.484393270,9.059175490,-0.044195350,0.003600120,0.004377960
1645505891529179904,-0.086829850,0.482174810,9.358045580,-0.012226400,0.053091350,0.013624130
1645505891529619968,-0.381388400,0.461193030,10.685718540,0.030380490,0.100058320,0.026348230
1645505891534279936,-0.220293050,0.239909310,10.581276890,-0.000910460,0.004570190,0.012372430
1645505891535219968,-0.145595400,0.203391190,10.159634590,-0.037041310,-0.058771670,0.019913910
1645505891539199744,-0.274993000,0.091291370,9.335391040,-0.053393840,-0.006577370,0.001885000
1645505891539680000,0.066708200,-0.003273010,8.648813250,-0.056719780,0.036455690,-0.022599100
1645505891544209920,-0.128109430,0.187135350,9.521952630,-0.008054080,0.079521540,0.005082790
1645505891544819712,-0.098041470,-0.029272290,9.906251910,0.009182100,0.045582650,0.018915540
1645505891549329920,-0.126838610,-0.110739960,10.342770580,0.009793040,-0.045472380,0.026838480
1645505891549979904,-0.389934750,-0.030429090,10.179476740,0.007213650,-0.022496280,0.018614530
1645505891554289920,-0.174770640,-0.195269080,9.476442340,-0.022254890,-0.001525880,-0.003501770
1645505891554659840,-0.275046350,-0.097781220,9.627766610,0.020191070,0.048787900,-0.021743770
1645505891559209728,-0.192355690,0.164271950,9.527739520,0.041572750,0.084947060,-0.035823890
1645505891559660032,-0.156302710,0.286649440,9.670233730,0.031386320,-0.012989340,-0.007723270
1645505891564129792,-0.510760610,0.396967110,9.951051710,0.018440190,-0.053134560,0.004959110
1645505891564379904,-0.294948880,0.329234300,9.302672390,-0.008380410,-0.066283350,0.008413200
1645505891569329920,-0.430915330,0.091461420,10.005575180,0.031657520,0.021302700,0.021173060
1645505891571300096,-0.260691730,0.131959080,10.343962670,0.074619050,0.081932550,-0.006264450
1645505891574319872,0.068946960,0.355064030,10.118686680,0.034566220,0.008440020,-0.005383790
1645505891575059968,0.088130040,0.479940240,10.165032390,-0.021366780,-0.021149220,0.007928910
1645505891579739904,0.150008570,0.486046730,9.184135440,-0.046634690,-0.021733350,-0.012040140
1645505891580600064,-0.100198640,0.533893410,9.202026370,-0.004076960,-0.067569320,-0.019346180
1645505891584349952,-0.315124450,0.452595950,9.683906560,0.032590330,0.007137660,0.004674490
1645505891586069760,-0.338735670,0.353593020,9.644639020,0.016053020,0.054283440,0.007952750
1645505891589169920,-0.336705450,0.368916540,10.665861130,-0.029641390,-0.028038030,0.017866490
1645505891590030080,-0.213053320,0.196919220,10.281233790,-0.064796210,0.029045350,0.022162500
1645505891594139904,0.044285830,0.115169200,9.256035800,-0.028640040,-0.020067400,-0.020180640
1645505891594349824,0.017342770,0.197855040,9.641392710,0.006265940,-0.020842250,-0.031951070
1645505891599139840,0.006978110,0.158056600,8.846208570,-0.002019110,0.075051190,0.003007050
1645505891599739904,0.035450780,-0.047621000,9.583421710,-0.007066130,-0.029046830,0.005114080
1645505891604529920,-0.388655870,-0.165054010,10.491553310,-0.005103650,0.025857990,0.012215970
1645505891605329920,-0.236639140,-0.012287900,9.491155620,-0.006152690,-0.018735230,0.009323660
1645505891609179904,-0.283497070,0.082136160,10.244943620,-0.015643240,-0.047370780,-0.013592840
1645505891610619904,-0.225638730,0.329068990,9.532533650,-0.020711130,0.093191860,-0.016672910
1645505891614129920,0.125995410,0.462666420,9.411536220,0.001358990,0.019197170,-0.003579260
1645505891614459904,-0.241198020,0.248851090,10.407019620,0.032091140,0.025784970,0.011940300
1645505891619449856,-0.121504560,0.260057510,9.198523520,0.035730010,-0.020146370,0.010943410
1645505891620780032,-0.294351640,0.295420350,9.747626300,-0.001731520,-0.096762180,0.011172890
1645505891624140032,-0.477396220,0.126980160,9.805010800,-0.057204070,0.035761290,0.004936760
1645505891624659968,0.002256680,0.268982830,9.553784370,-0.035235290,0.045967110,-0.019425160
1645505891629129984,-0.118305600,0.444078620,10.884130480,0.010439750,0.042502590,-0.012649600
1645505891629519872,0.096188740,0.448359910,10.037960050,-0.003121790,0.040875380,-0.011233980
1645505891634269952,0.156097490,0.648297010,9.513804440,-0.036357350,-0.067640840,-0.004041190
1645505891635000064,-0.237141970,0.506860260,9.460602760,-0.061501560,-0.017318130,0.020946560
1645505891639329792,-0.175736230,0.199889150,8.955879210,-0.065194070,0.017240640,0.037024920
1645505891640090112,-0.374855940,0.118764840,9.976151470,0.003980100,0.002291800,0.024041530
1645505891644229888,-0.240161930,-0.064150650,10.209427830,-0.004421170,0.062154240,0.012335180
1645505891644950016,0.068450570,0.052005800,10.027182580,-0.040407480,0.038959090,-0.002296270
1645505891649119744,-0.143587080,0.334873140,10.356683730,-0.065088280,-0.014531620,-0.014485420
1645505891649539840,0.172046170,0.373832200,9.062412260,-0.116330370,0.004126130,-0.011169910
1645505891654299904,0.014378820,0.416221950,9.042217250,-0.047834220,0.002382700,0.019463900
1645505891654929920,-0.324254570,0.139107870,9.766757970,0.014464560,0.031341600,0.008633730
1645505891659129856,-0.239248810,-0.001556030,9.538637160,0.010050830,0.003570320,0.007282200
1645505891659520000,-0.489453790,-0.030667580,10.241258620,-0.017438830,-0.021041930,0.008480250
1645505891664099840,-0.259611610,-0.113395360,9.969423290,-0.094050180,0.035673380,-0.012104210
1645505891664389888,-0.033555090,0.128728780,9.680464740,-0.068959600,0.018227100,0.007306040
1645505891669440000,-0.112001720,0.118467500,10.107605930,-0.003021960,0.049571690,0.007747120
1645505891670279936,-0.036109400,0.041503660,9.473760600,0.031217940,0.011646750,0.007377570
1645505891674289920,-0.290266160,0.220680940,9.625998500,0.036194920,-0.081467640,0.016225880
1645505891675119872,-0.398262590,0.093570340,9.547940250,-0.044131280,-0.022995470,0.013345480
1645505891679180032,-0.344403590,0.126207250,9.558959010,-0.054988270,-0.002452730,-0.003261860
1645505891680369920,-0.290778460,0.422993030,10.488620760,-0.011460480,0.020451850,-0.025668740
1645505891684140032,-0.003468100,0.562923010,10.154463770,-0.022582710,0.072535880,-0.003871320
1645505891684549888,-0.017109670,0.664762970,10.304095270,-0.018128750,-0.032924120,0.007821620
1645505891689499904,-0.121540960,0.654259800,9.796742440,-0.046218930,-0.056488820,0.009815400
1645505891690369792,-0.163771570,0.391849550,8.829468730,-0.071096420,-0.061714660,0.025151670
1645505891694190080,-0.354269090,0.084791350,9.528213500,-0.029198830,-0.027394290,0.029036400
1645505891694569728,-0.308826090,-0.132287960,9.740789410,-0.005373360,0.065903370,0.021007660
1645505891699280128,-0.026790350,-0.154232410,10.184596060,-0.020903350,0.007124250,0.034719710
1645505891700150016,0.025102210,-0.082033750,10.558438300,-0.037196280,0.030648710,0.023980440
1645505891704519936,0.168412040,0.067491440,9.651560780,-0.068734590,-0.024709110,-0.006148220
1645505891705859840,0.019359740,0.183648970,9.670649530,-0.043071810,-0.067541010,0.013835730
1645505891709159936,-0.281623690,0.098017310,9.147105220,0.015252830,0.015112760,0.008948150
1645505891709580032,-0.277530670,0.133104640,9.119306560,0.022703410,-0.052383540,-0.005035100
1645505891714139904,-0.457647710,0.233511330,10.036813740,-0.011561810,0.017052890,0.022771960
1645505891714399744,-0.270166160,0.187659620,9.628570560,-0.048971180,0.052726280,0.007328390
1645505891719179776,-0.100643040,0.288969430,10.558666230,-0.054143370,-0.061522440,-0.004597010
1645505891721799936,-0.026266730,0.401289520,9.999257090,-0.019332770,0.030359630,0.026732680
1645505891724269824,0.267919990,0.004764170,9.205990790,0.019599500,-0.008150940,0.021220740
1645505891724969984,-0.155711050,-0.161099300,10.155832290,0.053590540,-0.019913910,0.026679040
1645505891729139968,-0.268095580,-0.170427740,9.144903180,0.032825770,0.001995270,0.018353760
1645505891729750016,-0.356070400,-0.186834690,9.609784130,-0.019463890,-0.097799300,-0.001382830
1645505891736739840,-0.629120050,0.155926880,10.042886730,-0.042191150,0.004230440,-0.015494230
1645505891738279936,-0.116249990,0.450428310,9.452936170,-0.031971930,0.032030050,-0.018620490
1645505891739120128,-0.204774450,0.510941740,10.863759040,0.022615490,0.009621680,-0.002831220
1645505891739609856,-0.186694910,0.659142970,10.172171590,0.052246460,0.030463940,-0.000835960
1645505891744109824,-0.004709560,0.704343680,9.363949780,0.006678700,-0.122468170,0.013102590
1645505891744439808,-0.462034910,0.447647010,9.617650990,-0.040626530,-0.069411100,0.028748810
1645505891749169920,-0.143160550,0.114705990,8.729510310,-0.050462790,0.010748210,0.020650030
1645505891749629952,-0.100273480,-0.093887040,9.814011570,0.010646880,0.013503430,0.012932720
1645505891754589952,-0.097298200,-0.211581770,10.592060090,0.056622930,0.080609320,-0.002129380
1645505891756529920,0.243135040,-0.083514240,10.108370780,0.006641450,-0.009147820,-0.014503300
1645505891759119872,-0.060688670,0.020757950,10.225712780,-0.021293760,-0.102157900,-0.002533200
1645505891759660032,-0.080899510,-0.125678200,9.106602670,-0.030328340,-0.027647610,-0.013546650
1645505891764119808,-0.225273610,-0.102384820,8.743179320,0.055772070,-0.017048420,-0.019519030
1645505891764480000,-0.525313080,0.115371260,9.643370630,0.102798640,0.000303980,-0.034977500
1645505891769369856,-0.307640340,0.228739280,9.546528820,0.028006730,0.051000720,-0.023750960
1645505891772969984,-0.405311410,0.444854800,10.426431660,0.000083450,-0.052852920,-0.000607970
1645505891774230016,-0.209170400,0.448583900,10.298657420,-0.023534890,-0.039587910,-0.005161760
1645505891774530048,0.059091920,0.281663890,9.345717430,0.025989120,0.011087950,0.020700690
1645505891779119872,-0.117652210,0.064482410,10.111654280,0.117342180,-0.001272560,-0.006282330
1645505891779419904,-0.076257270,-0.120565420,9.612971310,0.093212730,0.022175910,-0.011113290
1645505891784209920,-0.216786560,-0.003210700,9.399086000,0.055238600,-0.087574130,-0.004720690
1645505891785149696,-0.449197740,0.100457710,9.871849060,-0.021508330,-0.072991840,-0.026150040
1645505891789239808,-0.172942060,0.381963550,9.048453330,-0.043237200,-0.007502730,-0.014550980
1645505891789959936,-0.126389040,0.509795840,10.204980850,0.033217670,0.025931000,-0.012031200
1645505891794189824,-0.181154150,0.358589890,10.847819330,0.108969220,0.084583450,-0.018553440
1645505891794669824,-0.072938380,0.590689480,10.117092130,0.105716300,-0.087107720,-0.010786950
1645505891799439872,-0.284404990,0.532916430,9.865436550,0.014838580,-0.134763110,0.009523330
1645505891800269824,-0.220728950,0.246791120,8.396828650,-0.076814000,-0.033672160,0.002299250
1645505891804499968,-0.099630510,0.244405360,8.853853230,-0.033897170,-0.010634960,-0.016736980
1645505891805699840,-0.096869330,0.028849880,10.125397680,0.051763660,0.116977120,-0.015728180
1645505891809089792,0.117287330,-0.107206230,10.403164860,0.100946430,0.015735630,-0.026580700
1645505891809469952,-0.006203800,0.065252340,10.814276700,0.068245810,-0.100180510,-0.008405740
1645505891814220032,-0.094010110,-0.104419750,9.512638090,-0.037814680,-0.064383450,0.003746150
1645505891814579968,-0.087116990,-0.315995840,9.078198430,-0.014495850,-0.051425410,-0.002907220
1645505891819520000,-0.436878290,-0.079257110,9.540616040,0.082604590,0.049042710,-0.036552550
1645505891821070080,-0.339149710,0.069502930,9.431807520,0.125160830,0.017337500,-0.045557320
1645505891825819904,-0.507917170,0.455811200,10.358512880,0.087091330,-0.059095030,-0.037315490
1645505891826489856,-0.510644380,0.897135500,9.939934730,-0.023952130,-0.066024070,-0.027032200
1645505891829159936,-0.028450460,0.755339320,9.584650040,-0.071433190,-0.059361770,0.006830690
1645505891829769728,-0.196093440,0.556084870,10.336498260,0.039924680,0.062355400,0.005669890
1645505891834300160,0.170304130,0.357951310,9.948070530,0.116750610,0.040328510,-0.029629470
1645505891834869760,0.107304470,0.221141500,10.141840930,0.100366770,-0.051158680,-0.009965900
1645505891839160064,-0.240613850,0.246828870,9.459872250,-0.000338260,-0.081758200,-0.026126210
1645505891839589888,0.067530180,0.229818910,8.459788320,-0.131765020,-0.091968480,-0.027251250
1645505891844120064,-0.251292020,0.116316540,9.539038660,-0.082986070,0.027777260,0.006659330
1645505891844369920,-0.130022570,-0.207289490,10.200231550,0.087170320,0.105266300,-0.025017560
1645505891849249792,-0.191502990,-0.128722410,11.101865770,0.175960330,-0.030386440,-0.029701000
1645505891850009856,-0.458398520,0.142792940,10.523463250,0.094437610,-0.102819520,-0.005966430
1645505891854820096,-0.053776090,0.084311200,8.574234960,-0.086624920,-0.080774730,-0.017368800
1645505891856469760,-0.365401090,0.155243680,9.125333790,-0.097623470,-0.003935400,-0.018163030
1645505891859129856,-0.252830450,0.206733410,9.249098780,0.057891020,0.083747520,-0.023353110
1645505891859569920,-0.042645310,0.279485320,9.924989700,0.167995660,-0.037327410,-0.026507670
1645505891864499712,-0.263110340,0.614009680,10.694078450,0.105731170,-0.052085520,-0.004723670
1645505891865299968,0.096223280,0.494063080,9.749385830,-0.075867770,-0.028322640,0.018160050
1645505891869349888,-0.152759050,0.035182230,10.353085520,-0.077037510,-0.052049760,0.017486510
1645505891870999808,-0.203778180,-0.014703090,10.005779270,0.077028560,0.015121700,-0.023867190
1645505891874240000,-0.043106970,0.218930960,9.164591790,0.132735060,-0.036770100,-0.038300450
1645505891874840064,-0.420837610,0.487541260,9.779344560,0.055696080,-0.056512660,-0.037355730
1645505891879299840,-0.215396200,0.689227460,9.258834840,-0.107952960,-0.031106180,-0.028619170
1645505891880059904,-0.177550390,0.476587000,9.652806280,-0.108890240,-0.029215220,-0.001452860
1645505891884160000,-0.265888930,0.165571300,10.814192770,0.042401250,0.013606250,-0.000619890
1645505891884630016,-0.038329590,0.271656130,10.083986280,0.122569510,0.006407500,-0.004737080
1645505891889189888,0.057669680,0.343324040,9.961092000,0.054490570,-0.099483130,0.018975140
1645505891889619712,0.047140590,0.116200000,9.509933470,-0.101943330,0.005450850,0.012582540
1645505891894189824,0.250080200,0.038272070,8.709576610,-0.111375750,0.005850200,-0.008103250
1645505891894520064,-0.005990740,-0.084781950,9.912703510,0.018519160,-0.024120510,-0.017803910
1645505891899149824,-0.144475800,-0.124115090,9.717864040,0.094693900,0.050517920,-0.016988820
1645505891899669760,-0.191644460,0.053885000,9.962688450,0.084507470,-0.080551210,-0.008967520
1645505891904429824,-0.656630870,0.002757020,10.671734810,-0.027580560,-0.047054890,0.003637370
1645505891906040064,-0.336732950,0.080388480,9.073342320,-0.068092350,-0.014074150,0.000597540
1645505891909199872,-0.274159430,0.176929790,9.875496860,0.007660690,-0.033834580,-0.033324960
1645505891910429952,-0.188298910,0.390773650,9.737574580,0.070987650,0.107528280,-0.025348370
1645505891914129920,0.158215180,0.630860330,9.515052800,0.080563140,-0.026109810,-0.004169340
1645505891914459904,-0.260305080,0.598653790,10.528120040,0.007547440,-0.084812940,0.010117890
1645505891919229952,0.028458510,0.614601140,8.936757090,-0.083167860,-0.044767560,0.026120250
1645505891919859968,-0.041152750,0.355366380,9.829035760,-0.046357520,-0.031231340,0.039927660
1645505891924089856,-0.307520240,0.135859390,10.526905060,0.023625790,0.078324980,0.008609890
1645505891924419840,0.140614780,0.289175150,9.794582370,0.030469900,-0.000971560,-0.006176530
1645505891929109760,-0.101651000,0.308831630,10.381544110,-0.008502600,-0.047697130,-0.014621020
1645505891929539840,-0.074507130,0.325407480,9.152528760,-0.098206130,-0.000463430,-0.021918120
1645505891934159872,-0.048843780,0.353034320,8.993508340,-0.094585140,-0.059792410,0.005580490
1645505891934769920,-0.531540930,0.127241460,9.844289780,-0.003376600,0.019820030,0.020274520
1645505891939289856,-0.204991920,-0.019622380,9.550995830,0.038255750,0.011451540,0.007669630
1645505891940199936,-0.310061810,0.100343410,10.507339480,0.027044120,-0.032240160,0.027963520
1645505891944300032,-0.128342450,-0.045847170,10.108595850,-0.053125620,0.035652520,0.006817280
1645505891944839936,0.235285740,0.053306330,9.575930600,-0.075601040,-0.011415780,-0.019912420
1645505891949159936,-0.038657480,0.350553300,9.757836340,-0.021222230,-0.007784370,-0.003457070
1645505891949699840,0.268448560,0.182274390,8.878705980,-0.006894770,0.036422900,-0.002144280
1645505891954159872,-0.122016400,0.236696050,9.819227220,0.038945670,-0.015750530,0.011886660
1645505891954670080,-0.479483780,0.170155210,10.141341210,0.019095840,-0.029827650,0.015300510
1645505891959159808,-0.276650160,-0.118998640,9.686331750,-0.037691000,-0.040614600,0.004051630
1645505891959599872,-0.571245130,0.099230000,10.364694600,-0.013679270,0.009417530,-0.002086160
1645505891964109824,-0.239867310,0.190190720,9.957657810,-0.021423400,0.069580970,-0.018124280
1645505891964339968,-0.128032340,0.450336280,9.914729120,-0.005432960,-0.010709460,-0.009520350
1645505891970639872,-0.278511380,0.786792930,9.815876010,-0.003705920,-0.063540040,-0.015318390
1645505891972409856,0.143574070,0.754279430,8.695356370,-0.071467470,-0.032450260,0.004370510
1645505891974190080,-0.141546160,0.558563530,9.626373290,-0.054763260,0.006315110,0.025554000
1645505891975409920,-0.099230480,0.280861970,10.327023510,-0.030446060,0.063972180,0.016805530
1645505891979349760,0.169676270,0.044847820,10.208087920,-0.010386110,-0.002710520,0.018499790
1645505891980249856,-0.057278890,0.046215610,10.361062050,-0.010634960,-0.017550590,-0.003722310
1645505891984299776,0.143411740,0.088797830,9.096554760,-0.097894690,0.015118720,-0.021715460
1645505891985400064,-0.089032290,0.025312150,9.185203550,-0.104679150,-0.006975230,-0.001163780
1645505891989159936,-0.316688600,-0.187054320,9.571901320,-0.010876360,0.050026180,0.008726120
1645505891989679872,-0.366949380,-0.312725690,9.626179700,0.056661670,-0.009557600,0.003641840
1645505891994109952,-0.621859130,-0.108254180,10.291840550,0.054869070,-0.056269770,0.011913480
1645505891994449920,-0.358102290,0.027108610,9.712153430,-0.056180370,0.031055520,-0.007162990
1645505891999140096,-0.140970100,0.151052620,9.887406350,-0.093863910,0.025907160,-0.022248920
1645505891999680000,-0.114819240,0.360630210,10.293823240,-0.016449390,0.054577000,-0.005511940
1645505892004549888,0.174742220,0.429415230,9.231263160,0.059664260,0.022819640,0.001306830
1645505892008139776,-0.096137780,0.512506190,9.835245130,0.066530700,-0.095124550,0.020241740
1645505892009219840,-0.246338920,0.656863030,9.317419050,-0.057253250,-0.006729370,0.039489570
1645505892009760000,-0.039265850,0.246831490,9.294451710,-0.107778620,-0.002422930,0.036881870
1645505892014349824,-0.298350750,-0.029099630,10.891895290,-0.030837950,0.054915250,0.006191430
1645505892014950144,-0.096236390,0.202714070,10.095210080,0.043827300,0.098270200,-0.019927320
1645505892019419904,-0.146384820,0.259027780,10.331376080,0.025928020,-0.081621120,-0.027520950
1645505892020949760,-0.431831510,0.400239500,9.634118080,-0.069369380,-0.033959750,-0.009040530
1645505892024189952,-0.007755340,0.454777210,7.969750400,-0.128063570,-0.012128060,0.012178720
1645505892024580096,-0.292309430,0.041114990,9.901674270,-0.043341520,0.020729010,0.040407480
1645505892029120000,-0.226804330,0.076229240,9.979603770,0.040644410,0.126016140,0.031954050
1645505892029499904,0.153399120,0.135408040,10.322804450,0.041277710,-0.040002170,0.015915930
1645505892034299904,-0.198681320,0.064489310,10.830414770,-0.047791010,-0.010408460,0.019262730
1645505892035019776,0.274457130,0.201508910,8.756007190,-0.120852910,0.016798080,-0.012332200
1645505892039279872,0.104967390,0.071572600,9.512339590,-0.055928530,-0.000658630,-0.000716750
1645505892040589824,-0.340642270,0.003304200,9.643678670,0.043641030,0.106628250,0.005832310
1645505892044219904,-0.074623300,0.141966120,9.259385110,0.071488320,-0.041113800,0.010403990
1645505892044960000,-0.613800050,0.132226710,10.469663620,-0.003860890,-0.049987440,0.034587090
1645505892049149952,-0.328008320,0.039746930,9.541899680,-0.093556940,0.062221290,0.020830340
1645505892049559808,-0.279284000,-0.027532640,10.283622740,-0.043180590,0.016058980,-0.016754870
1645505892054159872,-0.442290660,0.063768840,10.464480400,0.065149370,0.058688220,-0.017897780
1645505892054649856,0.040584490,0.353703710,9.253905300,0.074088600,-0.010973220,-0.004354120
1645505892059199744,-0.325233340,0.621646230,9.734731670,0.002242620,-0.062602770,0.020287930
1645505892059680000,-0.170886100,0.757732510,9.059379580,-0.120569790,0.005869570,0.035716600
1645505892064119808,0.125821650,0.522110700,9.461994170,-0.099149350,0.007459520,0.054559120
1645505892064649728,-0.116467440,0.280270840,10.823653220,0.040206320,0.094871220,0.023028260
1645505892069169920,0.183619660,0.258417930,10.525274280,0.065948070,0.052200260,-0.002661350
1645505892069789952,-0.018341660,0.265520220,10.263891220,0.010871890,-0.070947390,0.012148920
1645505892074210048,-0.109331850,0.161605190,9.153583530,-0.109305960,-0.029401480,-0.010555980
1645505892074769920,0.032551330,0.132649530,8.364796640,-0.136215980,0.037217140,0.013895330
1645505892079139840,-0.529450830,-0.002380190,9.839703560,-0.009644030,0.061804060,0.029188400
1645505892079539968,-0.434940040,-0.124385090,10.143102650,0.057302420,0.031496590,0.015689430
1645505892084189952,-0.300675570,0.074628330,10.158492090,0.049331790,-0.052614510,0.026613470
1645505892084889856,-0.436777950,-0.053696100,10.399995800,-0.040227170,0.001567600,0.015082960
1645505892089319936,-0.045686030,-0.063687930,9.377258300,-0.091990830,0.043271480,-0.013232230
1645505892090620160,-0.077927570,0.125044090,9.746186260,-0.004404780,0.013443830,-0.002291800
1645505892094220032,0.094394740,0.083852400,9.480337140,0.061209510,0.065749890,0.007304550
1645505892094839808,0.051447890,0.214234950,9.452957150,0.080998250,-0.030387940,0.022794310
1645505892099269888,-0.345375330,0.358685610,10.169245720,0.012910370,-0.050181160,0.037200750
1645505892100069888,-0.277694230,0.185729040,9.662100790,-0.080417100,0.015319880,0.034850840
1645505892104579840,-0.391821830,0.063337890,10.316441540,-0.019517550,-0.014077130,0.010874870
1645505892106050048,-0.298908080,0.243738290,10.303962710,0.062596780,0.077928600,-0.016249710
1645505892109159936,-0.198483960,0.429369690,9.783781050,0.065252180,0.002931060,-0.005847220
1645505892109529856,-0.297901090,0.674416960,9.772436140,-0.001078840,-0.083112720,0.006464120
1645505892114159872,-0.184127110,0.740924600,8.805487630,-0.109234460,-0.010499360,0.025126340
1645505892114400000,-0.103456970,0.324620660,9.399562840,-0.078891230,-0.004681940,0.053776800
1645505892119579904,-0.194088370,0.032098170,10.568006520,0.061365950,0.074028970,0.039148330
1645505892120979968,0.122607070,0.080621490,10.234875680,0.079144540,0.016868120,0.013841690
1645505892124259840,0.179770710,0.046822080,10.415885930,-0.009168680,-0.033219160,0.019979480
1645505892124999936,0.169525150,0.065067650,9.393513680,-0.110678370,0.041413310,-0.008469820
1645505892129240064,0.270462040,-0.074012390,8.971406940,-0.088408580,-0.008012350,0.004820520
1645505892129849856,-0.288428430,-0.241979550,9.832509990,0.069309780,0.029852980,0.030852850
1645505892134330112,-0.385240730,-0.049189550,9.244762420,0.129468740,0.006608670,0.002127890
1645505892135269888,-0.569827260,0.153886240,10.235200880,0.032310190,-0.082616490,0.033919510
1645505892139499776,-0.735133350,0.201326530,10.148043630,-0.082989020,0.047993650,0.039678810
1645505892140319744,-0.186922150,0.099226970,9.647500990,-0.068035730,0.022415820,-0.014971200
1645505892144120064,-0.292487200,0.126931650,10.616106030,0.071701410,0.026483830,-0.005455320
1645505892144369920,-0.056542020,0.323775890,9.289077760,0.134448710,0.044344370,-0.010406970
1645505892149220096,0.067435580,0.349404720,9.400277140,0.075215110,-0.111335520,0.005772710
1645505892150089984,-0.336406800,0.414788400,9.633757590,-0.056459010,-0.024646520,0.050035120
1645505892154589952,0.091162730,0.177873810,8.988221170,-0.091360510,0.008751450,0.034125150
1645505892156479744,-0.083615330,-0.035575400,10.825446130,0.022512680,0.021854040,0.006261470
1645505892159159808,-0.199505970,0.286063400,10.637082100,0.113733110,0.096422430,-0.011391940
1645505892159639808,0.028918590,0.484793160,10.036918640,0.066226720,-0.082100940,0.000518560
1645505892164160000,-0.452846940,0.645012920,9.866518020,-0.052532560,-0.094179820,0.018978120
1645505892164499968,-0.053019460,0.637795630,8.043022160,-0.129659490,0.013472140,0.034528970
1645505892170480128,-0.177400720,0.168065610,9.424459460,-0.023289030,0.036050380,0.051034990
1645505892171360000,-0.475176690,0.044298710,10.736577990,0.115251560,0.084580480,0.025561450
1645505892174139904,0.068597430,0.305553350,10.044613840,0.061336170,-0.059203810,0.002436340
1645505892174569728,-0.105655310,0.117783120,10.326622960,-0.062029060,-0.062924630,0.008799140
1645505892179169792,0.092089460,0.002284020,9.395037650,-0.124798720,0.045149030,-0.025010110
1645505892179589888,0.198714670,0.054940030,9.181308750,-0.027233360,0.027561190,-0.003375110
1645505892184449792,-0.167517660,-0.125714810,9.910468100,0.117990370,0.019720200,0.015586620
1645505892185400064,-0.077380050,0.001699100,9.279926300,0.092838700,-0.010989600,0.021761650
1645505892189129728,-0.345120430,0.136863660,9.752949710,0.001303850,-0.078326470,0.052221120
1645505892189570048,-0.546032490,-0.148424040,10.001182560,-0.081405040,0.021855530,0.022096930
1645505892194089984,-0.258536130,0.007242840,9.629395480,-0.023041660,0.031967450,-0.016537310
1645505892194459904,-0.366049410,0.159348430,10.499320980,0.101111840,0.016482170,-0.019814080
1645505892199389952,-0.184712680,0.254703730,9.766483310,0.109870730,0.041274730,-0.024169690
1645505892200870144,-0.156980540,0.530869420,9.251078610,0.056988000,-0.098367040,0.015053150
1645505892204150016,-0.359871860,0.456712720,9.608851430,-0.053219500,-0.049483780,0.047388680
1645505892204460032,-0.005588800,0.256784950,8.979073520,-0.069493050,0.032548600,0.036436320
1645505892209100032,-0.075736370,0.125176010,10.562213900,0.069926680,0.028416510,0.008325280
1645505892209449984,0.009536110,0.138079790,10.776722910,0.122532260,0.078523160,-0.020499530
1645505892214169856,0.215195690,0.449208770,9.825411800,0.059905660,-0.057442500,-0.020623210
1645505892214690048,-0.199158240,0.606620370,9.912772180,-0.078992570,-0.096561030,-0.006617610
1645505892219820032,-0.116778570,0.629134480,8.407343860,-0.145508320,0.001163780,0.007225570
1645505892221679872,-0.256535050,0.395674170,9.288744930,-0.027677420,0.005897880,0.027301910
1645505892224169984,-0.559366410,0.315362160,10.489350320,0.100584340,0.057651100,0.019070500
1645505892224609792,-0.128330170,0.339059470,9.938095090,0.064401310,-0.031279030,0.023876130
1645505892229129984,-0.188194220,0.221916450,10.483500480,-0.054417550,-0.031444430,0.021250550
1645505892229660160,-0.070225540,0.163241070,9.527290340,-0.147505100,0.033356250,-0.008688870
1645505892234639872,0.265514700,-0.024438030,9.143153190,-0.068946180,-0.016152860,-0.003431740
1645505892236379904,0.017020170,-0.047736120,9.538866040,0.081287330,0.051601230,0.001892450
1645505892239209984,0.069777650,-0.118198800,9.278999330,0.091856730,0.003163520,-0.001177190
1645505892239869952,-0.304221780,-0.026020480,10.200101850,0.004519520,-0.070899720,0.024625660
1645505892244219904,-0.491247800,0.023896440,9.776883130,-0.095270560,-0.003232060,0.004053120
1645505892244689920,-0.194361900,-0.085892140,9.614925380,-0.081241140,-0.008368490,-0.020596390
1645505892249289984,-0.381881300,0.230420470,10.301479340,0.043110550,0.070534650,-0.013349950
1645505892249989888,-0.008778360,0.265373320,9.513321880,0.102075960,0.058148810,-0.015699870
1645505892254159872,-0.179645570,0.281842530,9.974443440,0.072349610,-0.072295970,0.008635220
1645505892254499840,-0.365490940,0.493958920,9.370429040,-0.027145450,-0.067698960,0.027592480
1645505892259119872,0.020712830,0.124715660,8.901866910,-0.091058020,-0.034229460,0.023390350
1645505892259500032,-0.340603230,0.163768950,10.419720650,0.002807380,0.034210100,0.011207170
1645505892264289792,-0.020582370,0.349351320,10.162263870,0.063967700,0.081889320,-0.028087200
1645505892264979712,0.041246120,0.360588040,10.442447660,0.035904350,-0.035460300,-0.022254880
1645505892269539840,-0.205627590,0.642284510,9.925392150,-0.029391050,-0.052626430,-0.013616680
1645505892270370048,0.118482150,0.546515940,8.459126470,-0.110556210,-0.032196940,0.012059510
1645505892274189824,-0.339138270,0.223517600,9.592737200,-0.052773950,-0.009404120,0.044739240
1645505892274569984,-0.301681550,0.011570060,9.762111660,0.051467120,0.065426540,0.026944280
1645505892279849984,-0.110289830,-0.137614640,10.143153190,0.061979890,-0.025844570,0.008894500
1645505892280879872,-0.289449690,-0.021625600,10.607336040,-0.000546870,-0.007060170,0.002139810
1645505892284750080,0.102363270,0.065841350,9.384017940,-0.105683520,0.024501980,-0.030384960
1645505892286939904,-0.032915490,0.111405300,9.602303500,-0.078955300,-0.027738520,-0.021630530
1645505892289270016,-0.133824300,0.120662830,9.457640650,0.041849910,0.021140280,-0.002658370
1645505892290269952,-0.040704410,0.163484950,9.012392040,0.085569930,-0.015841420,-0.013928120
1645505892294159872,-0.430429550,0.346206960,10.073321340,0.044028450,-0.061446430,0.015847390
1645505892294479872,-0.335755020,0.226400450,9.873092650,-0.078950810,0.024256110,0.011566280
1645505892299140096,-0.257088180,0.183659150,9.959123610,-0.080402200,0.005415080,-0.020930170
1645505892299520000,-0.386814360,0.188671350,10.712949750,0.028575960,-0.000125170,-0.028361380
1645505892304580096,-0.198691840,0.190213490,9.545957570,0.087195630,0.013098120,-0.019139050
1645505892306139904,-0.244657190,0.489343940,9.342006680,0.059819220,-0.117523980,-0.010581310
1645505892309209856,-0.303176670,0.526355030,9.347997670,-0.085659310,-0.037798290,0.028023130
1645505892309870080,0.086536760,0.272309540,8.863005640,-0.116053230,0.041593600,0.044271350
1645505892315179776,-0.101301510,0.183571920,10.968425750,-0.004263220,0.017027560,-0.003068150
1645505892315929856,-0.028054550,0.331307500,10.711855890,0.059951850,0.047747800,-0.016205010
1645505892319680000,0.095471880,0.455634210,9.831526760,0.012239820,-0.107827800,-0.032044950
1645505892321159936,-0.248162210,0.499779080,9.785721780,-0.098083920,-0.079207120,-0.032414500
1645505892324100096,-0.029390370,0.458125860,8.095410350,-0.145289290,0.024826820,0.007317960
1645505892324339968,-0.228782000,0.088650490,9.561175350,-0.042212010,0.006276370,0.024656950
1645505892329179904,-0.455973680,-0.063436140,10.437692640,0.051397090,0.048248470,0.016598410
1645505892329619968,-0.016846040,-0.040567890,9.822213170,0.026139620,-0.056083510,0.020125510
1645505892334259968,-0.267677840,-0.208307710,10.658340450,-0.049749020,-0.044567890,0.001442430
1645505892335019776,-0.046396850,-0.235147910,9.407433510,-0.101792820,0.029461090,-0.032068790
1645505892339990016,0.106123830,-0.131237820,9.306703570,-0.023123630,-0.022576750,-0.027211020
1645505892340729856,-0.186943980,-0.062443440,9.705663680,0.074279300,0.023964040,-0.021094080
1645505892344329728,-0.019095520,0.130697850,9.123805050,0.069122020,-0.035195060,-0.006979700
1645505892345430016,-0.289247690,0.329709620,10.058769230,0.010743740,-0.073987250,0.022704900
1645505892349220096,-0.388257710,0.245074060,9.856605530,-0.069928170,0.032697620,0.022719800
1645505892349880064,-0.143252240,0.154006940,10.121798520,-0.022710860,-0.026083000,0.008231400
1645505892354140160,-0.377329260,0.322126870,10.494230270,0.075678530,0.032630570,-0.020186600
1645505892354519808,-0.080705490,0.442135070,9.522487640,0.065574060,-0.014795360,-0.028236210
1645505892359209984,-0.189369080,0.659809710,9.561318400,-0.002567470,-0.091554230,-0.000065570
1645505892359639808,-0.324288610,0.615733210,9.215779300,-0.093427300,-0.022888190,0.007490810
1645505892364079872,-0.040491090,0.295795530,9.319705010,-0.077041990,-0.027045610,0.024127960
1645505892364339712,-0.269979720,0.121660390,10.521139140,0.049088900,0.028960410,0.014162060
1645505892369390080,-0.075312550,0.023980680,10.455928800,0.064949700,0.022387510,-0.017432870
1645505892370569984,0.004115780,0.163129420,10.189583780,-0.008054080,-0.073066350,0.003513690
1645505892374299904,-0.209188510,0.271400180,9.595136640,-0.094521050,-0.044369700,-0.013729930
1645505892375020032,0.127692120,0.191499530,8.506858830,-0.121736530,-0.028637050,-0.012242790
1645505892379909888,-0.091992610,0.132838800,9.418441770,0.011394920,0.028027600,0.016552210
1645505892380620032,-0.157786970,-0.000968010,10.067000390,0.091405210,0.057849290,-0.005401670
1645505892384160000,-0.176532490,0.122309090,10.378514290,0.038030740,-0.078043350,0.020271540
1645505892384659968,-0.313194750,0.040751040,10.235183720,-0.052355230,-0.060197710,0.012509520
1645505892389149952,-0.042205690,-0.159014760,9.280702590,-0.094451000,0.015966600,-0.033399460
1645505892389679872,-0.144908990,-0.018641970,9.739073750,0.001513960,0.009284910,-0.029452150
1645505892394150144,-0.166584090,0.019242090,9.602561950,0.095917280,0.040678680,-0.043511390
1645505892394469888,-0.158101310,0.120581580,9.390794750,0.078430770,-0.073441860,-0.025320050
1645505892399159808,-0.361820310,0.282100590,9.925003050,0.004625320,-0.084026170,0.015549360
1645505892399680000,-0.269677190,0.050012120,9.626788140,-0.059077140,0.020243230,0.019283590
1645505892406469888,-0.268917350,-0.095302110,10.263865470,0.017175080,-0.010491910,0.000184770
1645505892407529728,-0.305612500,0.097430930,10.692808150,0.118535760,0.027540330,-0.018924480
1645505892409139968,-0.104483310,0.516131820,9.536745070,0.079321870,-0.032563510,-0.016863640
1645505892409549824,-0.168943480,0.724407730,9.611646650,-0.028225780,-0.115844610,0.003205240
1645505892414189824,-0.134126600,0.813706760,9.060766220,-0.098726150,-0.010286270,0.009363890
1645505892414719744,0.067325040,0.561549780,9.059140210,-0.023411210,0.003144150,0.022129710
1645505892419360000,-0.123189720,0.182033240,10.925245290,0.095944110,0.015816090,0.008876620
1645505892421049856,-0.054798250,0.232429240,10.332255360,0.088445830,0.027005370,-0.006052850
1645505892424329984,-0.012289340,0.131143910,10.055642130,-0.003971160,-0.104264930,0.007973610
1645505892425079808,-0.305248470,-0.032325970,9.729960440,-0.101861370,-0.045536460,0.002352890
1645505892429169920,-0.018434810,0.089166410,8.112363820,-0.071831030,-0.014372170,0.006642940
1645505892429689856,-0.141005560,-0.049780330,9.571599960,0.047595800,-0.001895430,0.019733610
1645505892434289920,-0.310347800,0.028699740,9.997936250,0.102384390,0.079379970,0.012904410
1645505892434919936,-0.034705000,0.305359810,10.110626220,0.036227700,-0.085219750,0.016230340
1645505892439169792,-0.340205910,0.177918390,10.790908810,-0.055578350,-0.067989520,0.016070900
1645505892439659776,-0.090223240,0.097477360,9.172846790,-0.069728490,-0.007501240,-0.019569690
1645505892444169984,-0.047495700,0.153390810,9.488089560,0.020170210,-0.026220080,-0.028055910
1645505892444460032,-0.294427340,0.089470890,9.633960720,0.105042760,0.052763520,-0.014027950
1645505892449139712,-0.019218990,0.292908580,9.076823230,0.084546210,-0.065171720,0.003857910
1645505892449669888,-0.266717640,0.440070210,10.081338880,-0.027343630,-0.088773680,0.037030880
1645505892454289920,-0.161749350,0.108391920,9.745105740,-0.092475120,0.025726850,0.046162310
1645505892455419904,-0.142368540,-0.125345140,10.373473170,0.021383170,0.003448130,0.009003280
1645505892459379968,-0.454692130,0.086441620,10.838498120,0.140635670,-0.023363530,-0.025315580
1645505892459970048,-0.103692990,0.379032430,9.308972360,0.079421700,-0.072950130,-0.022897120
1645505892464169984,-0.292387840,0.667411920,9.210268970,-0.045306980,-0.089408460,-0.006869440
1645505892464599808,-0.126084220,0.743621710,8.951733590,-0.137403620,0.003148620,0.017276410
1645505892469250048,0.181460160,0.403283060,9.480920790,-0.043711070,0.039692220,0.046075880
1645505892470269952,-0.075968210,0.232880520,10.934954640,0.125852230,0.020353500,0.020624700
1645505892474119936,0.132626830,0.216742580,10.399791720,0.099933150,-0.039944060,0.009499490
1645505892474449920,0.037648550,0.177939160,9.754273410,-0.024287400,-0.092504930,0.025670230
1645505892479109888,-0.246842280,-0.084756750,9.352893830,-0.125493120,-0.026907030,-0.005117060
1645505892479470080,-0.086033530,-0.238645540,8.744997020,-0.080288950,0.000450020,-0.016234820
1645505892484219904,-0.365647170,-0.164754870,9.600093840,0.105129200,0.012317300,-0.016893450
1645505892484879872,-0.322710690,-0.007551280,9.992352490,0.125437970,-0.010026990,-0.026716300
1645505892489319936,-0.156187850,0.440386120,9.914846420,0.000782310,-0.067676610,0.019446020
1645505892490139904,-0.259906890,0.297017400,10.324975970,-0.103724010,-0.004333260,0.040704020
1645505892494339840,-0.018977090,-0.024854400,9.826436040,-0.054579980,0.011095400,0.009538230
1645505892495069952,-0.178351850,0.024293770,9.891380310,0.138191890,-0.023521480,-0.006730860
1645505892499239936,-0.266823230,0.086731360,9.487392430,0.173318390,-0.033074620,-0.031924250
1645505892499949824,-0.215448620,0.482023090,8.968021390,0.028559570,-0.098039220,-0.015130640
1645505892504619776,-0.250377150,0.695563550,9.593817710,-0.130884330,-0.042618800,0.017732380
1645505892505590016,0.062828850,0.341008570,9.834157940,-0.119249520,0.069607800,0.014238060
1645505892509129984,0.056603660,0.128851680,10.833692550,0.094731170,0.040687620,-0.011169910
1645505892509579776,-0.143179770,0.301855740,10.878211980,0.195150090,-0.028570000,-0.023400790
1645505892514119936,-0.189459990,0.412843640,9.308065410,0.055170070,-0.137096640,0.003728270
1645505892514380032,-0.366587250,0.346619900,9.007411960,-0.125335160,-0.110490640,0.030350690
1645505892520019968,-0.282621200,0.228626070,8.731804850,-0.140069400,0.046449890,0.042930240
1645505892521430016,0.014198390,-0.021530570,9.709117890,0.047867000,0.045593090,0.025625530
1645505892525889792,0.013296080,0.186578010,11.019540790,0.169326360,0.072166330,0.003370640
1645505892526850048,0.118245100,0.499323280,10.356031420,0.058542190,-0.021028510,-0.005291400
1645505892529179904,0.037396380,0.392676800,10.240375520,-0.121676940,-0.142137710,0.009524820
1645505892529639936,-0.189820620,0.054662910,9.004356380,-0.127269340,-0.019915400,0.007191300
1645505892534309888,0.005981510,-0.197378170,8.369533540,0.045119230,-0.000867250,-0.017915670
1645505892535480064,-0.271714930,-0.126397300,9.951325420,0.172080100,0.067873310,-0.001704690
1645505892539160064,-0.236839730,0.246643190,9.821080210,0.081352900,0.058476640,0.007484850
1645505892539739904,-0.086769390,0.435937580,10.313547130,-0.105199220,-0.080727030,0.034357610
1645505892544119808,-0.292857290,0.203143030,10.334630010,-0.150142620,-0.020024180,0.045295060
1645505892544410112,-0.053982620,-0.236745880,9.251269340,0.046817960,0.010290740,-0.001509490
1645505892549149952,-0.382676930,-0.155530530,10.163825040,0.228497400,-0.035715100,-0.048385550
1645505892549679872,-0.434314790,0.245640840,9.258322720,0.150288660,0.008805100,-0.026929380
1645505892554609920,-0.172788990,0.503484250,9.157689090,-0.088375810,-0.061321270,0.001350050
1645505892556039936,-0.268564880,0.565049590,10.200305940,-0.177824510,-0.001461800,0.021117930
1645505892559279872,0.165499930,0.300171230,9.804306980,-0.024534760,0.080455850,0.024844710
1645505892559919872,0.050520740,0.256895720,10.846591950,0.196248310,0.011719760,-0.006632510
1645505892564229888,-0.287776800,0.376376480,10.562356950,0.181694300,-0.032646960,-0.003646310
1645505892564659712,-0.223340630,0.371571780,9.064027790,-0.040137770,-0.109256830,0.021140280
1645505892569860096,-0.481499820,0.314152540,9.037074090,-0.157101450,-0.077946480,0.032290820
1645505892571099904,-0.253117440,0.040818800,9.130083080,-0.088793060,0.064831970,0.012137000
1645505892574109952,0.082710360,0.162528370,9.935326580,0.098726170,0.089238590,-0.009314720
1645505892574380032,0.000139030,0.358720210,11.147002220,0.161753570,0.038743020,-0.016947090
1645505892579079936,0.259220120,0.475935970,10.217316630,-0.010825690,-0.045064100,-0.011001530
1645505892579439872,0.084561500,0.434545010,9.507972720,-0.129304830,-0.094544890,0.022035840
1645505892584300032,-0.126901600,-0.136338440,9.218355180,-0.084939600,-0.002613660,0.011634830
1645505892585059840,-0.078528960,-0.217876870,8.736679080,0.085784490,0.045037280,-0.000683960
1645505892589319936,-0.286863090,-0.017115190,9.847083090,0.163799540,0.031162800,-0.008086860
1645505892590200064,-0.221288620,0.083234090,10.114918710,0.011284650,0.052298600,-0.005520880
1645505892594230016,-0.162707630,0.334529790,10.100139620,-0.116100930,-0.044117870,0.009164210
1645505892594799872,-0.196110010,0.035228640,10.283481600,-0.084476170,0.002536180,0.009089710
1645505892599330048,-0.177295670,-0.211646850,9.594988820,0.089627500,0.052841010,-0.015454000
1645505892600090112,-0.362585340,0.055993360,9.748565670,0.215590000,-0.024682290,-0.028815860
1645505892604630016,-0.441188280,0.144288410,9.556612010,0.088070340,-0.004082920,-0.007770960
1645505892605929728,-0.303484440,0.356996570,9.062902450,-0.077819830,-0.031444430,0.014896690
1645505892609230080,-0.172079680,0.521506610,9.983513830,-0.116331880,-0.002273920,0.019587580
1645505892609809920,0.138112560,0.396543170,10.045996670,-0.003486870,0.102697310,0.007009510
1645505892614159872,0.193503890,0.451124700,10.656822200,0.156258060,0.043946500,-0.021234150
1645505892614539776,-0.001041370,0.642002460,10.478212360,0.128141050,-0.014130770,-0.032830240
1645505892619209984,-0.067080100,0.576888500,9.087676050,-0.048609080,-0.076055530,0.003845990
1645505892620009984,-0.304739330,0.290310000,9.132493970,-0.132213550,-0.033935900,0.026360160
1645505892624159744,-0.418227640,-0.010434890,9.150102620,-0.047564510,0.076057020,0.016351040
1645505892624529920,-0.195873230,-0.102097710,9.955260280,0.098149490,0.057971480,0.000257790
1645505892629089792,-0.230413960,0.050744960,10.695135120,0.132018330,0.064407290,-0.006502870
1645505892629509888,-0.024435290,0.191788630,9.980526920,-0.018879770,-0.004485250,-0.016587970
1645505892634330112,-0.083750390,0.112876960,10.061491970,-0.122183580,-0.037604580,0.006721910
1645505892635059712,-0.354301840,-0.125795540,9.210939410,-0.020182130,0.012514000,-0.006866460
1645505892639219968,-0.135813680,-0.081998840,8.854475980,0.119671230,-0.043533750,-0.044818220
1645505892640079872,-0.257008460,0.266774710,9.574277880,0.137338060,0.067140160,-0.029218200
1645505892644239872,-0.214373930,0.539131760,9.715833660,-0.001417100,0.066040440,-0.021445750
1645505892644879872,0.071326740,0.588373480,10.370599750,-0.133390690,-0.026392930,0.003397460
1645505892649230080,-0.137774940,0.324766400,10.320382120,-0.056612490,0.051455200,0.014154610
1645505892649969920,-0.091029210,-0.032642800,9.779308320,0.119973730,-0.032567980,-0.017085670
1645505892654309888,-0.470231410,0.016241750,9.899612430,0.189037640,-0.058858100,-0.025339420
1645505892654559744,-0.532444950,0.187936890,8.914051060,0.054782630,-0.008399780,-0.023485720
1645505892659139840,-0.295938790,0.217094840,9.254992490,-0.120672590,-0.010111930,-0.016839800
1645505892659489792,-0.395382670,0.265727970,10.448177340,-0.112034370,0.079105780,-0.013746320
1645505892664089856,0.002122320,0.344242220,10.202632900,0.057305400,0.037355720,-0.028292840
1645505892664450048,-0.077336030,0.603499000,10.605418210,0.144281980,-0.072495660,-0.044839090
1645505892669709824,-0.094116400,0.896236600,9.543402670,0.040496890,-0.036247080,-0.013843180
1645505892671739904,0.006826330,0.660143670,8.814295770,-0.114470720,-0.020661950,0.024808950
1645505892674259968,-0.263804170,0.265105430,9.744625090,-0.103019180,0.007678570,0.021386150
1645505892674830080,-0.099301690,0.075114640,9.817309380,0.012265150,0.031277540,-0.008632240
1645505892679589888,0.015396480,0.117111390,9.844839100,0.084228840,0.008519000,-0.035381320
1645505892680460032,-0.107029970,0.183509900,10.346353530,0.006061790,0.012084840,-0.054706630
1645505892684429824,-0.131447580,0.225647910,9.665875430,-0.124886620,0.014328960,-0.022646790
1645505892686039808,-0.183002680,-0.084138780,9.549376490,-0.079156460,-0.042992830,-0.001288950
1645505892689119744,-0.355559770,-0.387155500,9.759893420,0.040550530,-0.005324180,-0.019530950
1645505892689519872,-0.280073760,-0.085969600,9.127080920,0.112234060,0.008930270,-0.016655030
1645505892694190080,-0.241993900,0.066668460,9.863906860,0.045154990,-0.011402370,-0.036489960
1645505892694829824,-0.195476990,0.299957660,9.964849470,-0.098788750,0.060555340,-0.043565040
1645505892699179776,0.121581610,0.526539440,9.760565760,-0.101760030,0.012359020,-0.024364890
1645505892699699968,-0.100605580,0.235089090,10.586383820,0.021626060,0.008341670,-0.038354100
1645505892704489984,-0.146634910,0.442384030,9.434853550,0.121794650,-0.023368000,-0.036385660
1645505892706189824,-0.142876220,0.553641140,9.400357250,0.060008470,-0.087338690,-0.017289820
1645505892709199872,-0.397051720,0.243314060,9.733940120,-0.101995480,0.068262210,0.004471840
1645505892709789952,-0.153718410,0.201477350,9.646335600,-0.112858420,0.034242870,-0.001466270
1645505892714309888,-0.167507350,0.045596630,10.841412540,-0.003869830,0.012236830,-0.022193790
1645505892715119872,-0.192944630,0.145333080,10.138713840,0.079856810,0.027732550,-0.046350060
1645505892719339776,-0.043088410,0.648086310,9.569039340,0.023365020,-0.089913610,-0.051186980
1645505892720769792,-0.275286140,0.632395150,9.480753900,-0.121472780,-0.013189020,-0.014309590
1645505892724119808,-0.065634460,0.387652870,8.996502880,-0.142253950,0.042803580,0.005377830
1645505892724449792,-0.079673030,0.243847680,10.226432800,-0.007267300,0.031703710,0.000685450
1645505892729199872,-0.227712750,0.076740010,10.444155690,0.080446900,0.031808020,-0.016449390
1645505892729639936,0.009731320,0.236049710,9.831283570,0.009325150,-0.066387660,-0.031411650
1645505892734210048,-0.080802970,0.286661240,9.692347530,-0.123342890,-0.012385850,-0.023519990
1645505892734969856,0.049289580,-0.116625820,9.182863240,-0.156773630,0.072221470,-0.012192130
1645505892739320064,-0.129346550,-0.291806790,10.131663320,0.018243490,0.023782250,-0.010704990
1645505892740150016,-0.411449190,-0.229695230,10.121896740,0.148947540,-0.018978120,-0.027897950
1645505892744609792,-0.273576800,-0.047347860,9.475927350,0.048035380,-0.085793430,-0.022305550
1645505892745420032,-0.452119770,0.116999980,9.802165990,-0.091998260,-0.005170700,-0.007517630
1645505892749239808,-0.237456170,0.056262800,9.671325680,-0.125891000,0.077547150,-0.040274870
1645505892749909760,-0.057578440,0.193576220,10.480072980,0.008092820,0.031191110,-0.036384170
1645505892754530048,-0.201924060,0.426139120,10.421270370,0.148192050,0.004570190,-0.040812790
1645505892754909952,-0.107088510,0.694277170,9.449412350,0.068537900,-0.097775460,-0.027495620
1645505892759179776,-0.173757050,0.845739900,9.288523670,-0.106963500,-0.067248930,0.032116470
1645505892759630080,-0.168143470,0.385492770,9.369354250,-0.156655880,0.079341230,0.036899740
1645505892764139776,-0.072038320,0.066498410,10.412814140,-0.020658970,0.045986480,-0.006432830
1645505892764429824,-0.218143780,0.212506120,10.856009480,0.123097020,-0.001397730,-0.020661950
1645505892769289984,-0.010028240,0.223166090,9.742033000,0.046311320,-0.049735600,-0.039464230
1645505892771849984,-0.094085950,0.314239680,9.424674990,-0.118467210,-0.065368420,-0.025713440
1645505892774299904,-0.133789240,0.062540370,9.181327820,-0.148022190,0.046321750,0.009976330
1645505892775470080,0.070934990,-0.296380370,9.496125220,-0.011427700,0.030294060,-0.004635750
1645505892779330048,-0.207177220,-0.092776910,10.545469280,0.135350240,0.012899940,-0.012080370
1645505892780649984,-0.016525960,0.103997530,9.973287580,0.069801510,-0.005021690,-0.013932590
1645505892784179968,-0.128569220,0.170924590,9.990724560,-0.086112330,-0.048129260,-0.014154610
1645505892784709888,-0.183772760,0.028358800,9.743591310,-0.107060370,0.023169820,-0.021453200
1645505892789180160,-0.077882530,-0.053883620,9.236555100,0.015904010,0.045189260,-0.024163720
1645505892790200064,-0.327892630,0.152027790,10.015155790,0.154222550,-0.023810570,-0.020393730
1645505892794109696,-0.243345480,0.386131230,9.655551910,0.078858440,-0.015771390,-0.002931060
1645505892794390016,-0.162804800,0.456736480,9.566230770,-0.079143050,-0.015622380,0.032305720
1645505892799199744,-0.250994800,-0.010701580,10.517956730,-0.083845850,0.031481680,0.013929610
1645505892799789824,-0.297450450,-0.227618780,10.412920000,0.055110450,0.043003260,-0.030452010
1645505892804669952,-0.279427590,0.103072660,10.002273560,0.188536960,-0.068901480,-0.053042170
1645505892807369984,-0.432336690,0.412247720,9.790354730,0.085914130,-0.059345380,-0.039130450
1645505892809959936,-0.255641400,0.782968100,8.810157780,-0.110694770,-0.026907030,0.012339650
1645505892811129856,-0.104158760,0.692750510,9.724335670,-0.141997640,0.006721910,0.032518800
1645505892814159872,-0.116050390,0.284664010,10.615867610,0.010603670,0.099767740,0.010086600
1645505892814609920,0.109697380,0.445551190,10.431187630,0.164701030,-0.027240810,-0.010828670
1645505892819289856,-0.161606060,0.383974880,10.726580620,0.084158790,-0.092937060,-0.019496680
1645505892821440000,-0.134557130,0.274840800,9.013184550,-0.107036530,-0.039543220,0.004915890
1645505892824139776,0.035300640,0.064786740,8.887704850,-0.153046860,-0.045427680,0.004328790
1645505892824600064,-0.124187330,-0.210341690,9.862622260,-0.023384390,0.106301900,0.004974010
1645505892829169920,0.092848550,-0.062091750,9.778489110,0.129422560,0.052553430,0.002077220
1645505892829679872,-0.159844550,0.136790540,10.914208410,0.101880740,-0.076927270,-0.010915100
1645505892834319872,-0.276158690,0.214643870,9.871473310,-0.073142360,-0.040136280,0.000885130
1645505892834990080,-0.158698600,0.051625010,9.192568780,-0.108854460,-0.055454680,-0.000844900
1645505892839379968,-0.484455380,-0.097442330,9.860226630,0.014111400,0.054170200,-0.046676390
1645505892840379904,-0.290622620,0.249591870,9.387479780,0.126874460,0.031054020,-0.049173840
1645505892844120064,-0.181539220,0.597726460,10.035319330,0.092905770,-0.044356290,-0.015708800
1645505892844409856,-0.210764210,0.664642210,9.926933290,-0.071954730,-0.010843570,0.023233890
1645505892849099776,0.161748540,0.364823400,9.713928220,-0.122335580,-0.027318300,0.049477820
1645505892849589760,-0.099267640,-0.092905110,10.584064480,0.021967290,0.035093720,0.014217200
1645505892854840064,-0.084549400,-0.184219390,10.046719550,0.156015170,0.003069640,-0.037115810
1645505892855629824,-0.060913450,0.096318060,9.846507070,0.124970080,-0.075879700,-0.024181600
1645505892859209984,-0.397531000,0.426655440,9.486183170,-0.056977580,-0.032155220,-0.014333430
1645505892859969792,-0.102623950,0.503880980,9.048647880,-0.183719410,-0.031955540,0.010728840
1645505892864100096,-0.206053510,0.563248930,10.202770230,-0.065021220,0.030973560,0.031720110
1645505892864440064,-0.151276750,0.430506230,10.397363660,0.108666740,0.065414610,0.001342590
1645505892869400064,-0.087378200,0.476289120,10.592535020,0.138530160,-0.059539090,-0.010825700
1645505892871840000,-0.388354540,0.551118200,10.083564760,0.000755490,-0.077681250,0.018963220
1645505892874099968,-0.095557120,0.078613530,8.739033700,-0.162491200,-0.053347650,0.018832090
1645505892874500096,-0.086652140,-0.067824060,9.214242940,-0.118112560,0.005289910,0.013379750
1645505892879089920,0.094151510,-0.182290360,9.641465190,0.059835620,0.126257550,0.005505980
1645505892879429888,0.216594760,-0.166627630,10.413801190,0.133581470,0.018599630,-0.011596090
1645505892884120064,-0.066873550,0.270956190,10.651940350,0.036120420,-0.071702900,0.018769500
1645505892884519936,0.034166210,-0.014605250,9.396636010,-0.114668910,-0.040166080,0.029480460
1645505892890429952,-0.308278830,-0.255522970,9.595426560,-0.073561080,-0.032483050,0.003188850
1645505892891379712,-0.538905800,-0.167574240,9.518498420,0.100325070,0.057166810,-0.025822220
1645505892894259968,-0.367471690,0.078909140,9.437576290,0.155530870,-0.012159350,-0.051207850
1645505892894959872,-0.567671540,0.694000480,10.140488620,0.046832860,-0.042949620,-0.017729400
1645505892899190016,-0.106686910,0.805369680,9.488958360,-0.135011960,0.012652580,0.021445750
1645505892899859968,-0.008717910,0.402360020,10.246186260,-0.110602390,0.005224350,0.034415730
1645505892904539904,-0.097795260,0.112899330,10.753405570,0.103770200,0.044499340,0.008179250
1645505892905459968,0.062625790,0.082723920,9.790143010,0.192491680,-0.043423470,-0.013187530
1645505892909099776,-0.249841390,0.212899310,9.685849190,0.070637460,-0.107580440,0.005838280
1645505892909519872,-0.094746900,0.219759880,8.989141460,-0.142952770,0.007489320,0.014467540
1645505892914099968,0.026051520,0.108062990,9.316131590,-0.154271740,0.046889480,0.020387770
1645505892914399744,-0.095862860,0.008673030,10.684768680,0.060956190,0.050900890,-0.002068280
1645505892920130048,-0.094052190,0.266731980,10.407852170,0.165112330,0.015325850,-0.039972360
1645505892921519872,-0.159494430,0.793585540,9.857263570,0.063282250,-0.095188630,-0.000838940
1645505892924209920,-0.406282010,0.503281830,9.786424640,-0.125612320,-0.030358140,0.030982500
1645505892924739840,-0.226592440,0.130469400,8.789922710,-0.124980530,0.025388600,0.030638280
1645505892929240064,-0.154299780,-0.043074940,9.687479970,0.069254640,-0.004190210,0.012783710
1645505892929839872,-0.043174670,-0.015328240,9.993986130,0.145173090,0.078387560,-0.010529160
1645505892934459904,0.268929510,0.394628050,9.660495760,0.045223530,-0.002814830,-0.003144140
1645505892935299840,0.063644740,0.257253200,10.556538580,-0.122053920,-0.030982500,0.024281440
1645505892939630080,0.078555630,-0.143565480,9.433768270,-0.112827140,0.042463840,0.025683650
1645505892940559872,-0.173644140,-0.214560080,9.735939030,0.091867160,-0.061629720,-0.018507240
1645505892944109824,-0.632516380,-0.097618360,9.933427810,0.168491900,0.008405750,-0.032596290
1645505892944349952,-0.358353500,0.353270170,8.798028950,0.059995060,-0.020517410,-0.016586480
1645505892949179904,-0.421807910,0.581559360,10.188440320,-0.111021110,-0.008225440,0.004997850
1645505892949820160,-0.133124780,0.551511820,9.969552040,-0.145168620,0.113199650,0.024589900
1645505892954479872,0.121614400,0.429667440,10.357226370,0.036074220,-0.003401940,0.009632110
1645505892955999744,-0.226523320,0.420895900,10.830096240,0.158010410,-0.027467310,-0.011894110
1645505892959329792,0.004873430,0.544123650,8.964472770,0.065904860,-0.055250530,0.003883240
1645505892960199936,-0.165108770,0.383115170,9.284278870,-0.095932190,-0.061774260,0.023519990
1645505892965519872,-0.214561700,0.145838130,9.439957620,-0.161549450,0.085954380,0.013628600
1645505892966719744,0.224906120,-0.026176100,9.741787910,-0.042553250,0.054343050,-0.002662840
1645505892969679872,0.013376980,0.117542140,10.863179210,0.108237560,0.055669260,-0.021907690
1645505892970649856,0.055748280,0.351726530,9.870465280,0.052276250,0.001895430,-0.021339950
1645505892974239744,-0.022192080,0.320137350,9.595971110,-0.092479590,-0.066798930,0.036603210
1645505892975219968,-0.519878510,-0.005245660,9.486786840,-0.116799760,0.036212790,0.035233790
1645505892979099904,-0.211418880,-0.284427910,9.031388280,-0.010414420,-0.007557870,0.015424190
1645505892979409920,-0.337519740,-0.018104810,9.871008870,0.125706200,0.051562500,-0.006610160
1645505892984209920,-0.183780660,0.377801660,9.804545400,0.042079390,0.086623430,-0.031910830
1645505892984819968,0.225850870,0.652636890,10.039579390,-0.136859730,0.005370380,0.004050140
1645505892989399808,-0.078578430,0.424190340,10.321861270,-0.135417300,0.059264910,0.018467010
1645505892989989888,0.114769770,-0.087848660,9.553726200,0.017206370,-0.009681280,-0.010262430
1645505892994159872,-0.234343230,-0.022815720,9.749239920,0.182722540,-0.042973470,-0.000184770
1645505892994540032,-0.376659270,0.149980960,9.192300800,0.082482400,0.042636700,-0.008767840
1645505892999150080,-0.140219790,0.260897990,9.410730360,-0.140196070,0.029762090,0.013558560
1645505892999729920,-0.319420840,0.357076910,10.520732880,-0.178301330,0.079707810,0.025171040
1645505893004240128,0.083263890,0.242758240,10.185325620,-0.041733680,0.077620130,-0.010220700
1645505893005699840,-0.126500280,0.500691950,10.518823620,0.138752160,-0.035959490,-0.018541510
1645505893009219840,-0.272927640,0.873204530,9.590074540,0.078913550,-0.019808110,-0.009128450
1645505893009850112,-0.066921890,0.721226040,8.736697200,-0.147640710,0.000795720,0.024026630
1645505893014230016,-0.346479210,0.353140290,9.902893070,-0.187109430,0.047923620,0.050200520
1645505893014569984,0.011753010,0.088885310,9.843413350,-0.062601270,0.117614870,0.011040270
1645505893019249920,0.094276790,0.127047200,10.338375090,0.057803090,0.014881790,-0.008444490
1645505893020019968,0.024547420,0.344702540,10.166316990,0.016027690,0.019848350,-0.013785070
1645505893024139776,0.138478260,0.156698880,9.177739140,-0.141136360,0.049409270,-0.000047680
1645505893024420096,-0.274671020,-0.240501520,9.842230800,-0.129160280,-0.004865230,0.032339990
1645505893029079808,-0.432423500,-0.468880440,9.648352620,0.005012750,0.038219990,0.020070370
1645505893029870080,-0.355768920,-0.242592110,9.245543480,0.077469650,-0.019024310,-0.010830160
1645505893034200064,-0.501610040,0.139669390,10.152533530,0.006772580,0.029024490,-0.010491910
1645505893035310080,-0.208646980,0.388957590,9.821483610,-0.138913090,0.103251640,-0.017245110
1645505893039310080,0.099208220,0.413265470,10.044898030,-0.115035490,0.031623240,-0.002251570
1645505893040560128,-0.064772970,0.170754400,10.604187010,0.033195320,0.047126410,0.007057190
1645505893044189952,0.049507120,0.351934940,9.157625200,0.120243440,0.005444880,-0.001151860
1645505893044699904,-0.237360520,0.435549620,9.655737880,0.040045390,-0.082764040,0.029173500
1645505893049249792,-0.358041790,0.263463350,9.343270300,-0.136189130,0.062337510,0.043536720
1645505893049939968,-0.050391680,0.121783110,9.454565050,-0.141595320,0.059542060,0.015307960
1645505893054329856,-0.321128310,-0.017564750,11.282655720,0.010456150,0.063492360,-0.010107460
1645505893054639872,-0.068400390,0.288938310,9.951675420,0.095812980,0.049808630,-0.039584940
1645505893059069952,-0.102654450,0.711495400,9.755030630,0.010643900,-0.110487640,-0.032266980
1645505893059449856,-0.387043980,0.666257680,9.386503220,-0.164406000,0.017958880,0.023169820
1645505893064110080,-0.019911120,0.232840300,8.535532000,-0.153428330,0.045093890,0.049880150
1645505893064460032,-0.277423890,-0.064761910,10.526281360,0.026857860,0.031541290,0.027339160
1645505893069319936,-0.088638250,0.033292580,10.089162830,0.097432720,0.078958260,0.007146600
1645505893071919872,0.270708710,0.162942990,9.771433830,-0.004932280,-0.023837390,-0.004522500
1645505893074240000,-0.040814100,0.226769780,10.321131710,-0.161537540,0.046247240,-0.002786520
1645505893074829824,0.260862230,0.005957760,9.037325860,-0.166076470,0.066113470,0.008545820
1645505893080479744,-0.105174030,-0.214979230,9.882094380,0.039909780,0.007280710,0.001095240
1645505893081080064,-0.504446450,-0.056855450,9.722349170,0.142836570,0.027059020,-0.010542570
1645505893084239872,-0.348353300,0.110465560,9.168380740,0.034254790,-0.037862360,0.009003280
1645505893085809920,-0.701277080,0.155136600,10.177126880,-0.109121210,0.022199750,0.014960760
1645505893089089792,-0.284331680,0.094549070,9.739979740,-0.142125800,0.101025410,-0.005684790
1645505893089530112,-0.116126170,0.206344230,10.569619180,0.017981230,0.032463670,0.002080200
1645505893094269952,-0.271766360,0.355295900,10.362783430,0.135926900,0.044673680,-0.017973780
1645505893094579968,0.037454340,0.585365950,9.218366620,0.044208760,-0.064800670,-0.011233980
1645505893099139840,-0.312072400,0.663323160,9.493554120,-0.082045800,-0.041084000,0.037129220
1645505893099639808,-0.149618250,0.259464290,9.222422600,-0.138968240,0.068843360,0.022992490
1645505893104450048,0.128744470,0.209338560,10.092975620,-0.034503640,0.043343010,0.013898310
1645505893105489920,-0.044076780,0.309625450,10.833251000,0.081102550,0.093084580,0.000795720
1645505893109230080,0.168602360,0.371994670,10.082115170,0.010380150,0.012017780,-0.034610930
1645505893110309888,-0.127615680,0.597483400,9.817671780,-0.116543480,-0.074803830,0.018359720
1645505893114159872,-0.390236880,0.119571330,9.121169090,-0.155091290,0.033319000,0.031031670
1645505893114469888,-0.420084330,-0.256193280,9.203895570,-0.029531120,-0.003705920,0.016459820
1645505893119409920,-0.647350010,-0.112097020,10.033841130,0.116245470,0.019781290,0.022184850
1645505893120889856,-0.266562460,-0.089997500,9.797970770,0.035560130,0.067283220,-0.019840890
1645505893124130048,-0.050148800,0.273098560,10.191572190,-0.116777430,0.010515750,-0.022774930
1645505893124389888,0.028536810,0.291921350,10.125757220,-0.158171330,0.055782490,-0.003303590
1645505893129120000,0.246050630,-0.000590730,9.487882610,-0.027993320,0.005918740,-0.012505050
1645505893129580032,-0.187648760,0.052642280,9.883176800,0.157198320,-0.056374070,0.003491340
1645505893134150144,-0.158625950,0.085295740,9.074059490,0.103482600,-0.002829730,0.006009640
1645505893134689792,-0.238436000,0.108455660,9.371596340,-0.065210460,-0.000022350,0.021649900
1645505893139539968,-0.319780920,0.055805590,10.388682370,-0.124947730,0.083054600,0.022931400
1645505893140519936,-0.090957410,0.020707280,10.236997600,-0.042738020,0.090138610,-0.010357800
1645505893144329984,-0.382761330,0.151899490,10.747755050,0.122460720,-0.061820450,-0.021965800
1645505893145979904,-0.479953260,0.445190400,9.606478690,0.114490100,-0.070628510,-0.023545330
1645505893149269760,-0.361309140,0.638209580,8.387416840,-0.040115420,-0.054858630,0.012701750
1645505893149849856,-0.548895900,0.361679970,9.854883190,-0.107051420,0.022970140,0.036139780
1645505893154340096,-0.209344970,0.311357590,10.082059860,-0.052557890,0.102946180,0.015833980
1645505893154729728,0.197826160,0.337481590,10.401312830,0.077472630,-0.003685060,0.011634830
1645505893159180032,0.130671470,0.331538770,10.771221160,0.079248850,-0.000536440,-0.017216800
1645505893159639808,0.309169380,0.598407630,9.006739620,-0.051215290,-0.013785060,-0.020147860
1645505893164089856,0.083332280,0.346112790,9.340335850,-0.126345460,-0.083696850,0.027069450
1645505893164320000,-0.199128360,-0.069511530,9.264906880,-0.062252590,0.068508090,0.033825640
1645505893169839872,-0.025382220,-0.090840100,9.257164000,0.067846460,0.026257340,0.012475250
1645505893170480128,-0.479494540,-0.102761620,10.977617260,0.090377040,-0.002752240,0.011605030
1645505893174240000,-0.267932420,0.034768460,9.731395720,-0.036554040,0.038558250,-0.014439230
1645505893174939904,-0.157242940,0.198206720,9.764941220,-0.105562790,-0.054110590,-0.031216440
1645505893180009728,-0.430622100,0.066416750,10.001377110,-0.057826940,0.055579840,-0.008542840
1645505893180630016,-0.037041730,0.099173610,8.888070110,0.073145350,0.017242130,-0.007112330
1645505893184209920,-0.334995780,0.302309600,10.159307480,0.129844250,-0.053308910,-0.001016260
1645505893184800000,-0.204583590,0.440201250,9.429592130,-0.007236000,0.027066470,0.024998190
1645505893189309952,0.112584020,0.295789300,9.612072940,-0.104349860,-0.017009680,0.023210050
1645505893190089984,-0.196347430,0.225689770,10.738807680,-0.063680100,0.062157210,0.003543500
1645505893194190080,0.221021070,0.133832660,9.830138210,0.040264430,0.051899250,-0.014878810
1645505893195239936,-0.056869300,0.281739350,10.251538280,0.122015180,-0.050213940,-0.025507810
1645505893199219968,-0.380180210,0.559023320,9.365086560,0.014297660,-0.038991860,-0.016279520
1645505893199869952,-0.063512450,0.488437620,8.607620240,-0.128976990,-0.030063090,0.033302600
1645505893204619776,-0.543545480,0.314177840,10.068120000,-0.098557790,0.047473620,0.050461300
1645505893205799936,-0.168876110,0.115547290,10.064603810,0.006878380,0.062564020,0.008268650
1645505893209189888,0.026114260,0.152293940,10.407063480,0.102575140,0.004835430,0.005556640
1645505893209659904,-0.148695250,0.361837450,10.284251210,0.033791360,0.014895200,-0.024229290
1645505893214099968,0.293538450,0.389384180,9.031327250,-0.139954700,-0.012645130,-0.007984040
1645505893214399744,-0.102070150,0.233497770,9.455138210,-0.124356150,0.005343560,0.037163500
1645505893219470080,-0.148281990,-0.167002020,9.382997510,0.004914400,0.042223930,0.005961960
1645505893220950016,-0.087484170,-0.191888170,9.651921270,0.127215680,-0.011286140,0.013543670
1645505893224169984,-0.468110560,-0.004915720,10.255216600,0.090481350,0.017178060,0.010630490
1645505893224629760,-0.144878280,-0.003494030,9.628950120,-0.091068450,0.036534670,-0.006687640
1645505893229159936,-0.237432260,0.075000880,10.050858500,-0.121547280,0.006639960,0.014649330
1645505893229629952,-0.250749560,0.012986610,9.809382440,0.004598500,0.063385070,-0.001227860
1645505893234190080,-0.113125520,0.141866340,9.488323210,0.131592150,-0.033737720,-0.009869040
1645505893234860032,-0.425380950,0.475167070,9.729069710,0.127939890,-0.035537780,0.009617210
1645505893239179776,-0.242543560,0.457630400,9.208021160,-0.042290990,0.005121530,0.019381940
1645505893239790080,-0.169699030,0.391750100,9.983176230,-0.111626100,-0.011268260,0.030574200
1645505893244209920,-0.131347970,0.374782230,10.444628720,-0.031618780,0.093610580,0.009897350
1645505893244789760,0.169873910,0.362299650,10.079248430,0.065349040,0.016236310,-0.021411480
1645505893249169920,-0.052163520,0.563601850,10.126755710,0.086213650,-0.044654310,-0.022268290
1645505893249739776,-0.112707170,0.580707310,9.096261980,-0.047020620,-0.001922250,-0.001876060
1645505893254649856,-0.231821060,0.168437320,9.080222130,-0.120002030,-0.029829150,0.032036010
1645505893255460096,-0.539461790,-0.131855620,10.189594270,-0.023202600,0.014995040,0.028565530
1645505893259259904,-0.269598250,-0.095855380,9.684991840,0.061425560,0.040829180,0.005446370
