# timestamp,accel_x,accel_y,accel_z,gyro_x,gyro_y,gyro_z
1640834363.893920,0.045706550,0.082782500,9.342896460,0.053268680,-0.070436320,0.007754570
1640834363.894670,-0.101017880,-0.156942590,9.620475770,-0.078628940,0.045333800,0.016155840
1640834363.898960,-0.064539510,-0.367431400,10.053708080,-0.017255540,0.077283390,0.000268220
1640834363.899430,-0.153757360,-0.400741580,10.500638960,0.170814980,-0.003078580,-0.025048850
1640834363.904770,-0.083589640,0.130317490,9.854242320,0.178089710,-0.064510110,-0.012031200
1640834363.906090,-0.020440690,0.482621970,9.394528390,0.032828740,0.004450980,0.020563600
1640834363.908959,-0.205809380,-0.033100200,10.014757160,-0.057299440,0.054210430,0.027830900
1640834363.909580,-0.261496840,-0.173972160,10.233695030,0.099638100,0.011523070,0.005815920
1640834363.917420,-0.100014400,0.024002470,9.644765850,0.252290100,-0.057721140,-0.015251340
1640834363.918429,0.035027330,0.387798340,9.649340630,0.131869300,0.005635620,-0.003583730
1640834363.919819,-0.131806280,0.412666800,10.201333050,-0.007942320,0.089402500,0.017945470
1640834363.920230,-0.273276300,-0.124875680,10.620429990,0.011163950,-0.035169720,-0.003413860
1640834363.924350,-0.372907160,-0.126718390,10.178535460,0.183561440,-0.102996830,-0.015756490
1640834363.926120,-0.160499020,0.334996640,8.962030410,0.223572540,-0.022985040,-0.019155440
1640834363.929540,-0.223383870,0.506089450,10.024720190,0.049009920,0.059643380,-0.003826620
1640834363.930440,-0.275561300,0.532788100,10.627858160,-0.029200320,0.067241470,0.018896160
1640834363.934059,-0.005488890,0.251731460,10.332913400,0.057795650,-0.100027030,0.015252830
1640834363.935959,-0.071619350,0.259074780,10.292681690,0.178001820,-0.056968640,0.003051760
1640834363.939350,-0.033956750,0.716016050,9.395145420,0.136940150,0.007411840,-0.005973880
1640834363.940230,-0.193908240,0.654630360,10.245583530,-0.027865170,-0.023396310,0.018407400
1640834363.943879,-0.102155750,0.343095780,10.051725390,-0.047270950,0.025616590,0.028508900
1640834363.944579,0.152080880,0.090543100,9.702485080,0.075308990,-0.036227700,0.013525780
1640834363.948890,-0.036775300,0.176283390,10.398380280,0.150726710,0.006234650,0.004374980
1640834363.950450,-0.112096900,0.422814580,9.863566400,0.062257050,0.002549590,-0.001086290
1640834363.959050,-0.246924300,0.178415550,10.328182220,-0.060707340,-0.086960200,0.030207640
1640834363.959580,-0.045560630,-0.168992770,9.687211040,-0.004355610,0.019507110,0.021815300
1640834363.959940,0.138857010,-0.080538680,9.565342900,0.097812730,0.014683600,-0.007332860
1640834363.960340,0.035334580,0.284545870,10.359316830,0.113706280,0.045855340,0.011810660
1640834363.963850,0.190627740,0.316211520,9.827177050,0.024952000,0.038626790,0.016883020
1640834363.964340,-0.163658200,-0.057106680,10.620172500,-0.016745930,-0.082007050,0.024339560
1640834363.968950,-0.098572400,-0.261012380,9.461132050,0.080370900,-0.016169250,0.035224850
1640834363.969660,0.088852560,-0.134318660,8.968179700,0.146079080,-0.006139280,-0.015684960
1640834363.974520,-0.141773940,0.116182450,10.380510330,0.080183160,0.123517240,0.001265110
1640834363.975980,-0.045010450,0.096712350,10.246122360,0.014062230,0.073519350,0.011163950
1640834363.978839,-0.395368610,-0.434705140,10.752746580,0.089539580,-0.121654560,-0.013570490
1640834363.979230,-0.296973200,-0.141385500,9.322740550,0.185960530,-0.058774660,-0.005577500
1640834363.983889,-0.173664390,0.208400070,8.894793510,0.130395610,0.009427970,-0.010138750
1640834363.984429,-0.430662010,0.072197460,10.525252340,0.043657430,0.117814540,-0.000035760
1640834363.989080,-0.196896580,0.160382210,10.481318470,0.079740580,0.026084490,0.013516850
1640834363.989899,-0.034174070,0.158266080,10.324413300,0.177507100,-0.127163540,-0.001905860
1640834363.993889,0.064301030,0.389791430,9.696630480,0.153018530,-0.010527670,0.006808340
1640834363.994560,-0.072234870,0.537055430,9.711610790,0.062885900,0.058284410,-0.007048250
1640834363.998860,-0.437988700,0.346157880,10.618227010,0.047163660,-0.019709760,-0.007557870
1640834363.999330,-0.179123300,0.270661060,9.828506470,0.111407040,-0.085847090,0.001759830
1640834364.004099,0.029235120,0.425571440,9.315963750,0.146108870,-0.035813440,-0.011806190
1640834364.005010,-0.130036340,0.621048690,10.352580070,0.058825320,0.072227430,0.004419680
1640834364.010710,-0.217374550,0.560267980,10.763050080,-0.007303060,0.028543180,0.014694040
1640834364.011090,-0.412423250,0.091672160,10.593741420,0.062130390,-0.135079040,0.017113980
1640834364.013880,-0.107102030,0.184656110,9.502849580,0.132468340,-0.110386310,0.003685060
1640834364.014429,-0.016205730,0.552823840,9.105825420,0.063486400,0.036695600,-0.003106890
1640834364.018990,0.023962600,0.565135900,10.111887930,-0.060772910,0.070711970,0.017537180
1640834364.019699,0.303978770,0.238400950,10.420942310,-0.024320190,0.042812530,0.012975930
1640834364.024740,0.168542760,-0.023256300,10.473759650,0.100225230,-0.067104400,0.000722710
1640834364.025869,0.111799340,0.271653440,9.968239780,0.126174090,-0.093817720,0.013840200
1640834364.028800,0.005547150,0.380632460,9.175062180,-0.000107290,-0.011156500,0.023326280
1640834364.029100,-0.104854860,0.052593500,9.819272040,-0.111322110,0.039663910,0.027558210
1640834364.034070,0.032731480,-0.212392930,10.152849200,0.009776650,0.111307210,0.017687680
1640834364.035019,-0.095551720,-0.317172170,10.261995320,0.174446390,-0.021927050,-0.012712180
1640834364.038960,-0.188763710,0.197709560,10.213498120,0.136180240,-0.076080860,-0.002652410
1640834364.040239,-0.135622780,0.442567740,9.019556050,-0.052087010,0.005725030,0.010374190
1640834364.043840,-0.303632350,-0.332944480,10.024063110,-0.097353760,0.020813940,0.003927950
1640834364.044330,-0.240677250,-0.341711340,10.127120970,0.134849550,0.091685380,-0.024312730
1640834364.049300,-0.011245550,0.155438440,9.647544860,0.230683400,-0.060555340,-0.042594970
1640834364.050680,0.041833030,0.419106510,10.202013970,0.070233640,0.010003150,0.006963310
1640834364.054050,0.152159410,0.280119840,9.601250650,-0.093840070,0.102883570,0.012145930
1640834364.054989,-0.308180840,-0.448173460,10.802505490,0.024876000,-0.068369520,-0.005640090
1640834364.058859,-0.193291130,-0.321495560,9.746089940,0.246337060,-0.039997700,-0.011962650
1640834364.059389,0.038877020,0.428495560,8.831756590,0.181657080,-0.024132430,-0.044232610
1640834364.063890,-0.307659800,0.662948430,10.580955510,-0.043335560,0.125987840,0.004927810
1640834364.064479,-0.235601980,0.418377670,10.486470220,-0.096350910,0.063723330,-0.001016260
1640834364.068970,-0.406631590,0.145021600,10.639959340,0.108380620,-0.167313230,-0.035451360
1640834364.069620,-0.215018120,0.489859100,9.470559120,0.233799250,-0.044418880,-0.022049250
1640834364.073890,-0.097929490,0.883893970,9.062455180,0.053086880,0.041539960,-0.024138390
1640834364.074479,-0.380784570,0.639180300,10.810101510,-0.119245050,0.061599910,0.008328260
1640834364.078860,0.058288810,0.171258700,10.315701480,-0.062201910,0.000698860,0.017513330
1640834364.079210,0.165978130,-0.020829040,10.168201450,0.121989870,-0.099733490,-0.017318130
1640834364.084580,0.175076900,0.290322900,9.862003330,0.144237280,0.030834970,-0.020019710
1640834364.087319,0.087486010,0.504572150,9.807240490,-0.044357780,0.038328770,-0.017087160
1640834364.088879,-0.316401930,0.125993370,10.670183180,-0.125525910,-0.031901900,0.014740230
1640834364.089330,0.157182110,0.018395490,9.473416330,-0.028632580,-0.026342270,0.014874340
1640834364.093840,0.020479520,0.075606120,9.726706500,0.090309960,0.023165340,-0.019176300
1640834364.094390,-0.075068840,0.485941590,10.135689740,0.069233780,0.080542270,0.004635750
1640834364.098990,0.086638530,0.575394090,9.983283040,-0.067837540,0.015786290,0.023317340
1640834364.100499,-0.233204410,-0.091991740,10.507315640,-0.083802650,-0.022654240,0.027291480
1640834364.103930,0.151985650,-0.153895720,9.519014360,0.036624080,0.003854930,0.010041890
1640834364.104689,0.083761940,0.041706490,9.476589200,0.091703230,0.039184090,-0.019478800
1640834364.108899,0.186156410,0.179247960,9.858927730,-0.006273390,0.103592870,0.003078580
1640834364.109290,0.249900800,0.055880270,10.108093260,-0.064805160,0.116954740,0.010386110
1640834364.113900,-0.200803160,-0.435954600,10.562047000,0.012087820,-0.026115780,0.004783270
1640834364.117210,-0.096831960,-0.293484810,9.636877060,0.124754020,-0.062045450,0.004002450
1640834364.119069,-0.104803760,0.080385550,8.866250990,0.080829880,0.076113640,-0.003021960
1640834364.119710,-0.290605660,0.041035160,10.124124530,-0.048884750,0.143043710,-0.007075070
1640834364.123960,-0.273014190,-0.133546130,10.712446210,0.000213090,0.109683000,-0.011260810
1640834364.124509,-0.254342850,-0.067737640,10.048426630,0.129939620,-0.080789630,-0.029258430
1640834364.128850,-0.119944300,0.362119560,9.634545330,0.133821380,-0.037924940,-0.003805760
1640834364.129249,-0.063978580,0.444997610,9.136432650,0.001306830,0.136052120,0.008246300
1640834364.134339,-0.367553440,0.108278080,10.571186070,-0.031508510,0.076042110,-0.001598890
1640834364.135840,-0.215569480,0.067238650,10.548147200,0.103075810,0.008766350,0.008223950
1640834364.138970,-0.009664610,0.303332150,9.428830150,0.133191050,-0.070980200,-0.009182100
1640834364.139400,-0.130199060,0.510922070,10.004845620,0.043264040,0.040653350,-0.000841920
1640834364.143829,-0.094220740,0.453843330,9.968271260,-0.066368290,0.130233180,-0.005848700
1640834364.144440,-0.409303250,0.153656150,10.772472380,-0.003246960,-0.039778650,-0.006428360
1640834364.148949,-0.193960580,0.295912090,10.001672740,0.131602600,-0.044386090,-0.003154580
1640834364.150130,0.020708240,0.692349370,9.029337880,0.050126020,-0.006377700,-0.013399130
1640834364.154000,-0.196177690,0.749559700,10.254287720,-0.087590520,0.089697540,0.024212900
1640834364.154889,0.042013350,0.381739200,10.134990690,-0.092062360,0.082862360,0.024345520
1640834364.158870,-0.073322130,-0.069452970,10.446728710,0.047519800,-0.058440860,0.016371900
1640834364.159279,-0.064444740,0.100175340,9.886180880,0.132694840,-0.014314060,0.014831130
1640834364.163900,0.051435620,0.337327600,9.289183620,-0.023083390,0.005330140,-0.005419550
1640834364.164620,-0.217136230,0.126551630,10.207887650,-0.150386990,0.049385440,0.018969180
1640834364.168959,0.227346320,-0.127371580,9.563461300,-0.074136260,0.099621710,0.000306960
1640834364.169790,-0.053303630,-0.198491380,10.485368730,0.083942710,0.001074370,-0.022210180
1640834364.173879,-0.175489950,0.186319740,10.015241620,0.129799540,-0.011809170,0.013791030
1640834364.174409,0.015064310,0.396404800,9.149986270,-0.048789380,-0.031401210,0.011178850
1640834364.178930,-0.357914360,-0.083623600,10.163142200,-0.143326830,0.070345400,0.035080310
1640834364.180100,-0.048977340,-0.429503980,9.817684170,0.005809960,0.107492510,0.013305250
1640834364.184890,-0.225318220,-0.251326830,10.343676570,0.175519290,-0.037421290,-0.033018000
1640834364.185959,-0.133707400,0.377234340,9.736540790,0.095817450,-0.010356310,0.002077220
1640834364.188990,0.123837010,0.423455060,9.271060940,-0.115035470,0.051178030,0.013549630
1640834364.189600,-0.363075260,-0.179861680,10.587082860,-0.096508870,0.070160630,0.005045530
1640834364.193930,-0.249552550,-0.135549160,10.191901210,0.121633730,-0.015272200,-0.012753910
1640834364.195770,-0.247429360,0.319568960,9.695008280,0.178974870,-0.081840160,-0.019223990
1640834364.199149,-0.156317320,0.709547280,9.582778930,-0.014682120,0.043302770,0.004538890
1640834364.199770,-0.061064440,0.533562900,10.109429360,-0.154593590,0.104366270,0.020545720
1640834364.203830,-0.310246290,0.053247720,10.749484060,-0.038698310,-0.009346010,0.007383530
1640834364.204290,-0.092537540,0.177132760,9.993984220,0.150738660,-0.091993820,0.002115960
1640834364.208819,-0.097937950,0.492005200,9.418594360,0.093944370,-0.032527750,-0.008560720
1640834364.209240,-0.187823360,0.642765280,9.736297610,-0.124153520,0.048588220,0.014378130
1640834364.214229,-0.042484090,0.342932820,10.256692890,-0.168935950,0.041010980,0.019203130
1640834364.215570,0.082589030,-0.112227250,10.208771710,-0.001470740,-0.009706620,0.008985400
1640834364.219300,0.197666420,0.158273880,9.909024240,0.139766900,-0.015152990,-0.000698860
1640834364.220620,0.085338230,0.343719990,9.752350810,0.037376580,0.009436910,0.006815790
1640834364.223889,-0.219181970,0.247382790,9.948760990,-0.153987110,-0.002725420,0.038118660
1640834364.224340,-0.120160540,-0.125592310,9.804876330,-0.120137630,-0.012555720,0.042916830
1640834364.228839,-0.092412730,-0.452092380,9.658752440,0.037094950,0.033642340,0.005221370
1640834364.229359,-0.192107020,0.001494020,10.002281190,0.139856380,0.032229730,-0.000986460
1640834364.234460,-0.065256430,0.382283660,9.817279820,0.015404820,0.012372440,0.004574660
1640834364.235450,-0.114237290,0.167425270,9.989945410,-0.150160490,-0.004763900,0.030957160
1640834364.239009,-0.128301900,-0.223894700,10.011166570,-0.056423250,0.032544140,0.030282140
1640834364.239499,-0.111234480,-0.381146310,9.749793050,0.134888290,-0.008982420,-0.007593630
1640834364.244050,-0.257126420,0.086359900,9.836748120,0.158409790,-0.030361120,0.001999740
1640834364.245839,0.067484390,0.410631240,9.174957280,-0.022339820,0.054898860,0.018952790
1640834364.249100,-0.167404190,-0.121479150,10.407902720,-0.137153280,0.050258640,0.027264660
1640834364.251260,-0.349391580,-0.343763170,10.613198280,0.053189690,-0.002723930,0.015951690
1640834364.254550,-0.222237500,0.000666860,9.650830270,0.204299390,-0.123205780,-0.011609500
1640834364.255139,-0.498600480,0.403082010,9.795368190,0.095142420,-0.033465030,-0.004580620
1640834364.260609,-0.248403940,0.622088610,9.426639560,-0.096865010,0.080724060,0.011062620
1640834364.261260,-0.452060340,0.293977320,10.714517590,-0.095780190,-0.019912420,0.019198660
1640834364.263970,-0.262219220,0.170152750,10.318408010,0.111724450,-0.060081480,0.012436510
1640834364.264770,0.067866390,0.509549320,9.401179310,0.155971960,-0.093171000,-0.006096070
1640834364.268819,-0.184832100,0.630802750,10.161765100,0.000691410,0.007070600,0.028179590
1640834364.269260,-0.028805600,0.310733440,9.967686650,-0.114357490,0.040081150,0.044219200
1640834364.273909,-0.068507430,-0.042493190,10.502658840,-0.049735610,-0.096230190,0.031314790
1640834364.274740,0.121946890,-0.000275070,9.740056040,0.104907160,-0.031651560,0.014214220
1640834364.279179,0.278323200,0.259646920,9.320145610,0.066734840,-0.007015470,-0.014136730
1640834364.280390,-0.156533210,0.330447880,10.308724400,-0.057783730,0.015403330,0.012148920
1640834364.284309,-0.097356430,0.113726490,9.897586820,-0.080771750,-0.036518280,0.035394730
1640834364.285329,-0.281847690,-0.153801920,10.217200280,0.003506240,-0.129862130,0.010874870
1640834364.288910,-0.136826010,0.190928220,9.317435260,0.077331070,-0.006577370,0.021386150
1640834364.289539,0.176420760,0.291697740,9.358332630,0.019015370,0.039732460,0.011853870
1640834364.293880,-0.018427460,0.105817790,10.594944950,-0.055330980,0.084525330,0.022424760
1640834364.294459,0.122150690,-0.133452310,10.112266540,0.000953670,-0.024582450,0.031793120
1640834364.298990,-0.023017530,-0.385829120,10.011763570,0.092791040,-0.144009290,-0.003521140
1640834364.299700,-0.014331010,-0.049872420,8.912991520,0.075623390,-0.032354890,0.014090540
1640834364.303820,-0.012849960,-0.001766150,9.249423030,-0.008335710,0.049971040,0.005218390
1640834364.304400,-0.253848050,-0.282057490,10.675706860,-0.019261240,0.098441540,-0.001361970
1640834364.308910,-0.223949130,-0.207962870,10.426075940,0.104305150,-0.053288040,0.005258620
1640834364.309370,-0.110127860,-0.043751270,9.789794920,0.171363350,-0.123877830,0.002439320
1640834364.313939,-0.171743450,0.288412060,9.383438110,0.047639000,0.006222720,0.014260410
1640834364.314980,-0.274772260,0.197928820,9.807806970,-0.010760130,0.052200260,0.019234420
1640834364.318970,-0.354850800,-0.140670980,10.417024610,0.063055760,-0.020563600,-0.001199540
1640834364.319450,-0.137887120,0.170131940,9.941143990,0.171367840,-0.092224780,-0.002333520
1640834364.324040,0.093386290,0.529215750,9.494636540,0.122948000,-0.025844580,-0.001369420
1640834364.324590,-0.060500980,0.445727650,10.171887400,-0.030164420,0.045977530,0.014847520
1640834364.329170,-0.182237980,0.156629550,10.565049170,0.010156630,-0.010488930,0.000919400
1640834364.329880,-0.112170830,-0.016113640,10.001942630,0.135371100,-0.120331350,-0.006642940
1640834364.333809,-0.066699250,0.336059060,9.531028750,0.144267080,-0.059664240,-0.012794140
1640834364.334300,-0.052646760,0.695171830,9.498559000,0.014641880,0.042589000,0.006905200
1640834364.338990,-0.164508310,0.474451390,10.362217900,-0.098280620,-0.001282990,0.012585520
1640834364.340129,-0.125789060,0.201274750,10.347249980,0.023834410,-0.046250220,0.016298890
1640834364.343860,-0.061404390,0.180883450,9.728733060,0.148773210,-0.077849630,0.005087260
1640834364.344339,-0.121968190,0.548271180,9.880744930,0.083084410,-0.037817660,0.006125870
1640834364.351770,-0.035417390,0.579132970,9.658692360,-0.074070700,0.026777390,0.030526520
1640834364.352409,0.140494880,0.027508270,10.005225180,-0.122214880,-0.014945870,0.034044690
1640834364.354270,0.196858820,-0.274764810,10.072520260,0.063398480,0.027115640,0.008791690
1640834364.355510,0.290292950,-0.199969490,9.632811550,0.167033080,-0.035272540,-0.006759170
1640834364.358870,0.047838330,0.164376390,9.980848310,0.042979410,-0.031639630,0.007104870
1640834364.359400,0.074272570,0.180933190,9.474282260,-0.106082850,0.021219250,0.028668340
1640834364.363970,-0.093434360,-0.418795080,10.219771390,-0.076492140,-0.012271110,0.018738210
1640834364.364760,-0.249230650,-0.319870740,9.994688990,0.142681610,0.042214990,-0.014801320
1640834364.368820,-0.084806340,0.264179110,9.349534030,0.185380890,-0.055877860,-0.029742720
1640834364.369249,-0.144058440,0.511667250,9.873814580,-0.015060600,0.016947090,0.014854970
1640834364.373819,0.012584880,0.240005630,9.431459430,-0.109851380,0.081327580,0.030741100
1640834364.374390,-0.169199210,-0.405373810,10.580206870,0.038577620,-0.036729880,0.005355480
1640834364.378980,-0.149897430,-0.263603900,9.867479320,0.235968860,-0.014831130,-0.000013410
1640834364.379660,0.146090570,0.262525740,9.069516180,0.154055660,-0.043790050,-0.024203960
1640834364.384290,-0.048554760,0.293814510,10.168641090,-0.079761450,0.101202750,0.004003940
1640834364.385670,-0.015668950,-0.077384960,10.044622420,-0.077150750,0.091107180,-0.000695880
1640834364.389030,-0.271360610,-0.303887190,10.636823650,0.145635020,-0.117260220,-0.039753320
1640834364.389520,-0.298329710,0.236419260,9.500996590,0.236259420,-0.062897800,-0.031325220
1640834364.393859,-0.174911870,0.763420940,8.881062510,0.048655280,-0.008314850,-0.019735100
1640834364.396240,-0.436510470,0.507541120,10.438754080,-0.128449510,0.103487070,0.003682080
1640834364.399510,-0.257538800,0.207319690,10.484553340,-0.019061560,0.024077290,0.011974570
1640834364.399950,-0.088940310,0.150053710,10.289771080,0.190082190,-0.129094730,-0.013932590
1640834364.403900,0.016410590,0.463861050,9.557534220,0.163114070,-0.009413060,-0.012874610
1640834364.404480,0.037110840,0.610045550,9.532896040,-0.045862800,0.052854430,-0.001962480
1640834364.408810,-0.246026080,0.162049170,10.657462120,-0.124403840,0.000959630,0.013892350
1640834364.409489,0.033774810,-0.108954460,9.892213820,0.018407400,-0.058120490,-0.007109340
1640834364.413910,0.141372320,0.144292950,9.503171920,0.154528040,-0.049117220,-0.040745740
1640834364.414780,0.006175430,0.542777180,9.781146050,0.049199170,0.068883580,-0.019079440
1640834364.418929,-0.078548220,0.482360540,10.188858030,-0.093963750,0.037802750,0.006636980
1640834364.421749,-0.313722130,-0.157327120,10.559151650,-0.066705030,-0.067582720,0.017550580
1640834364.423869,-0.011987980,-0.161306770,9.356431960,0.081834190,-0.073018660,0.011776390
1640834364.424379,0.051102750,0.018317160,9.165511130,0.130312160,0.036503380,-0.007031860
1640834364.428930,0.032185410,0.174614150,9.958622930,-0.015476350,0.105577730,-0.002619620
1640834364.429499,0.210688730,0.035910450,10.275659560,-0.070832670,0.051343450,-0.000630320
1640834364.433840,0.145302090,-0.431252420,10.213216780,0.025244060,-0.051711510,-0.011740630
1640834364.434810,0.108812320,-0.265365570,9.562185290,0.146715360,-0.037689510,-0.013579430
1640834364.438830,-0.080288270,0.066545400,9.228966710,0.120732180,0.024135410,-0.026102360
1640834364.439190,-0.220615300,0.013009580,9.871268270,-0.032797460,0.056518630,-0.016950070
1640834364.443899,-0.318973570,-0.128634140,10.203355790,0.000695880,0.075466930,-0.001525880
1640834364.445200,-0.273806450,-0.240217610,9.982483860,0.145456190,-0.044754160,-0.024752320
1640834364.451850,-0.268799010,0.178225000,9.884467120,0.168371220,-0.034783780,-0.016370420
1640834364.452540,-0.210309060,0.331696030,9.323694230,0.072528430,0.065097210,-0.003121790
1640834364.453950,-0.275427010,-0.132560600,10.288302420,-0.001122060,0.018541520,-0.018478930
1640834364.455210,-0.173664270,-0.137494800,10.095329280,0.121739520,0.024057930,-0.031445930
1640834364.458850,0.190255270,0.214424430,9.306398390,0.181592970,-0.052925940,-0.045506650
1640834364.459190,0.081924800,0.454967620,10.162899970,0.072728100,0.044211750,-0.025419890
1640834364.463920,-0.047198110,0.426938650,9.889884000,0.001625720,0.072683400,-0.016917290
1640834364.464730,-0.329486130,-0.019339060,10.580561640,0.075291100,-0.102101270,-0.033742190
1640834364.468930,-0.376043920,0.167200850,9.716036800,0.188916940,-0.048868360,-0.026765470
1640834364.469410,-0.203107250,0.651423340,9.039892200,0.097791850,-0.022724270,-0.036320090
1640834364.473879,-0.393529500,0.700055600,10.582838060,-0.046993800,0.080086300,-0.009557600
1640834364.474429,-0.161391680,0.408497720,10.222402570,-0.032912190,0.047956410,-0.019915400
1640834364.479200,-0.120331800,0.193077560,10.372335430,0.115838650,-0.128877180,-0.037366160
1640834364.480199,-0.000704280,0.439185050,9.600797650,0.149258960,-0.016929210,-0.029061740
1640834364.485550,0.110900590,0.675355670,9.284379960,-0.019249320,0.002522770,-0.039336090
1640834364.487640,-0.122035130,0.420022670,10.532154080,-0.118647520,0.014461580,0.004449490
1640834364.488890,0.271760430,-0.030712950,9.693336490,-0.006501380,0.017549100,-0.014501810
1640834364.489349,0.233229120,-0.142738790,10.065757750,0.128774330,-0.048328930,-0.038276620
1640834364.493870,0.052990430,0.222121670,9.951665880,0.102631750,0.054824350,-0.019855800
1640834364.494530,-0.085759840,0.210175220,9.674554820,-0.061064970,-0.041526560,-0.018300120
1640834364.498910,-0.441234560,-0.232718720,10.344573970,-0.089319060,-0.054980820,0.004404780
1640834364.499820,0.023967400,-0.289640520,8.898228650,0.038366020,0.034643700,-0.019386410
1640834364.503820,-0.111326080,-0.186184510,9.926119800,0.141791980,0.033228100,-0.062406060
1640834364.504320,-0.034930950,0.361946610,10.224517820,0.080916290,0.079706310,-0.030533970
1640834364.508839,0.199187090,0.396797060,9.626499180,-0.057043140,-0.025425850,-0.009672340
1640834364.509179,-0.194206680,-0.213127400,10.326841350,-0.031912330,-0.028383740,0.004668530
1640834364.513960,-0.031016660,-0.225220950,9.159584050,0.120605540,0.005438920,-0.012227890
1640834364.514890,-0.126561420,-0.053836490,9.454908370,0.181333720,-0.024326150,-0.044633450
1640834364.518920,-0.042690960,0.038784850,9.775722500,0.044485930,0.116822150,-0.022174420
1640834364.519719,-0.067153950,-0.065805900,10.162047390,-0.030668080,0.083111230,-0.024682290
1640834364.523890,-0.467481550,-0.501741290,10.800296780,0.082349780,-0.075691950,-0.031879540
1640834364.524490,-0.271381800,-0.185556960,9.350486760,0.199261320,-0.093346830,-0.032961370
1640834364.529060,-0.420794580,0.096672390,8.963884350,0.154379010,-0.014525650,-0.031070410
1640834364.529879,-0.495236460,0.112049370,9.961922650,0.029872360,0.106444950,-0.024369360
1640834364.534340,-0.406358060,0.147244960,10.392884250,0.042392310,0.022725760,-0.024583940
1640834364.535320,-0.338282880,0.194082110,10.295125010,0.145015140,-0.134816770,-0.032308700
1640834364.538849,-0.008288700,0.635248180,9.493896480,0.148937110,-0.058820850,-0.029519200
1640834364.539170,-0.166195170,0.624178770,9.595057490,0.057721150,0.020530820,-0.035548210
1640834364.543880,-0.312140850,0.351820890,10.369370460,0.029036400,-0.015935300,-0.019368530
1640834364.544380,-0.202090200,0.225182650,10.061576840,0.103414060,-0.088416050,-0.023871660
1640834364.549039,-0.212953980,0.312363710,9.683702470,0.111630560,-0.116410860,-0.027437510
1640834364.549759,-0.114430630,0.621212660,9.693947790,0.021894280,-0.006453690,-0.017331540
1640834364.553910,-0.281861220,0.318406250,10.119380000,-0.026874250,-0.013947490,-0.027352570
1640834364.554520,-0.312764590,0.130687070,10.437145230,0.057974470,-0.097242020,-0.016222890
1640834364.558879,-0.121881860,0.406376750,9.738000870,0.116841500,-0.105671590,-0.029410420
1640834364.559229,-0.242582250,0.617319050,9.638675690,0.016067930,-0.085109490,-0.029452150
1640834364.564000,-0.151180680,0.775278030,9.973758700,-0.095158820,-0.029736760,0.002135340
1640834364.564930,0.020673250,0.342088550,9.864269260,-0.063592200,-0.045925380,-0.004273650
1640834364.568830,0.073625190,0.083899600,10.234466550,0.062632560,-0.076977920,-0.005191570
1640834364.569200,0.242309390,0.393610270,9.647154810,0.097136200,-0.039805480,-0.007887180
1640834364.573910,0.073897360,0.346545580,9.728734020,-0.058461730,-0.088991220,-0.008310380
1640834364.574640,-0.050275000,0.025911830,10.236255650,-0.136272580,-0.062668320,0.016626720
1640834364.579030,0.097774260,-0.377490580,9.388839720,-0.035035610,-0.036728390,-0.013686720
1640834364.580500,-0.012729230,-0.346314220,9.897378920,0.098378960,-0.074708460,-0.049784780
1640834364.584050,0.093614310,0.298452170,9.672638890,0.060306490,0.023910400,-0.033007570
1640834364.585749,-0.001673620,0.328739760,9.787614820,-0.118534270,-0.038746000,-0.006118420
1640834364.588850,-0.303165470,-0.087510880,10.566288950,-0.093518200,-0.066500910,0.012272600
1640834364.589280,-0.160236090,-0.298704300,9.258999820,0.070860990,-0.080120550,-0.021487470
1640834364.594159,-0.227126760,-0.033663650,9.433059690,0.146532060,-0.102880600,-0.026904050
1640834364.595840,0.162726130,0.238756630,9.334544180,0.013585390,0.099438430,-0.007632380
1640834364.598980,0.074585190,-0.159080090,10.342611310,-0.106184210,0.047613690,-0.013148790
1640834364.599640,-0.187434600,-0.424941480,11.060238840,0.024570520,-0.096935040,-0.016891960
1640834364.603839,0.102376380,-0.305555700,9.044434550,0.156025560,-0.159411130,-0.032453240
1640834364.604359,-0.251242490,-0.095938500,9.237598420,0.120025900,-0.068040190,-0.045922400
1640834364.608840,-0.307918940,0.163532510,9.465967180,-0.005219880,0.105798240,-0.031642620
1640834364.609330,-0.423763330,-0.051131790,10.459432600,-0.026826560,-0.045783830,-0.021366780
1640834364.618369,-0.384848240,0.007575010,10.485971450,0.106348100,-0.114868590,-0.011442600
1640834364.619210,0.051903930,0.504266260,9.243548390,0.137306720,-0.081515300,-0.023737550
1640834364.620380,-0.447074230,0.436762810,10.352041240,0.047320130,-0.026285650,-0.020399690
1640834364.620760,-0.301036980,0.420071510,9.995563510,-0.002522770,-0.021784010,-0.016762310
1640834364.623819,-0.206865940,0.300222040,9.909772870,0.027713180,-0.155885520,-0.026075540
1640834364.624560,-0.103041410,0.259047240,9.733325960,0.084452340,-0.074380620,-0.019745530
1640834364.629249,0.298223260,0.560682000,9.263697620,0.035519900,-0.001953540,-0.038430100
1640834364.630260,-0.115291480,0.316563310,10.756429670,-0.028671330,-0.035998230,-0.023394820
1640834364.633910,-0.122033760,0.049794900,10.406814580,0.016748910,-0.098076470,0.001735990
1640834364.634450,-0.150210190,0.055900790,9.727456090,0.061348080,-0.201354920,-0.026586650
1640834364.638880,-0.215043170,0.340156640,9.435425760,0.016841290,-0.057624290,-0.009167190
1640834364.639240,-0.028452520,0.516278860,9.551016810,-0.073798010,0.025153160,-0.012804570
1640834364.643890,-0.185844500,0.297231080,10.603170390,-0.058969870,-0.030826040,-0.021003190
1640834364.644440,0.011043200,0.281718310,10.090143200,0.036725410,-0.105570260,-0.017324090
1640834364.653910,0.017741850,0.366785440,9.583853720,0.045593090,-0.141613200,-0.017336010
1640834364.654330,-0.005636590,0.414446150,9.363655090,-0.054365400,-0.047507890,0.015823540
1640834364.654630,0.193563010,0.194763090,9.757111550,-0.117447970,0.002700090,0.018714370
1640834364.655030,0.171310710,-0.333725510,10.312430380,-0.042681390,0.010718400,0.003375110
1640834364.658939,0.306506780,-0.292010040,9.914321900,0.090603540,-0.051771100,-0.008361040
1640834364.660100,0.163168500,-0.048004050,9.750927930,0.052787370,-0.095535810,-0.020067400
1640834364.665470,-0.017977750,0.014198760,9.412764550,-0.089891250,-0.042754400,0.006152690
1640834364.666390,-0.140732940,-0.192533030,9.638714790,-0.094506150,-0.024846200,0.006464120
1640834364.668800,-0.308431000,-0.511719820,9.959515570,0.046664480,-0.019016860,-0.025284300
1640834364.669139,-0.152827350,0.013359060,9.798439030,0.146056730,-0.032840670,-0.030797720
1640834364.673859,-0.016177250,0.506096960,9.719739910,0.034360590,-0.007037820,-0.013124940
1640834364.674549,-0.144691330,0.306102540,10.162111280,-0.115136820,-0.007089970,0.020179160
1640834364.679170,-0.154378880,-0.105187010,10.052079200,-0.031687320,-0.036597260,0.017642980
1640834364.680980,-0.142837990,-0.279463500,9.462746620,0.141774120,-0.081889340,-0.014831130
1640834364.684899,-0.188318310,0.198434670,9.563261990,0.153584790,-0.050038100,-0.015562770
1640834364.685500,0.007583360,0.407576200,9.493343350,-0.044219190,0.046479700,-0.003799800
1640834364.688820,-0.096763580,0.170359600,10.518726350,-0.138907130,0.013880430,-0.013820830
1640834364.689139,-0.184624050,-0.013350080,10.691576000,0.027479240,-0.058682270,-0.012843310
1640834364.693920,-0.138717700,0.150698100,9.643879890,0.154961650,-0.141906740,-0.031588980
1640834364.695430,-0.264837030,0.673551560,9.400281910,0.072731090,-0.063973670,-0.023089350
1640834364.698940,-0.168081460,0.730400090,9.503423690,-0.118888940,0.064575690,0.009803480
1640834364.699580,-0.324776590,0.248943610,10.639930730,-0.138524170,-0.027211010,0.029353800
1640834364.703879,-0.074935770,0.059703380,10.255956650,0.073532760,-0.095002350,0.007921460
1640834364.704389,0.146573160,0.208770140,9.465629580,0.123749680,-0.096628070,-0.008441510
1640834364.708940,0.065799560,0.484430700,9.701237680,-0.025090580,0.020410120,-0.003038350
1640834364.709370,0.157755520,0.234119300,9.889953610,-0.150185820,0.032052400,0.019671020
1640834364.713980,-0.059620450,-0.310673830,10.680445670,-0.081211340,-0.080209980,0.015170870
1640834364.715760,0.173792080,-0.089374050,9.450748440,0.097215180,-0.071994970,-0.002315640
1640834364.718890,0.202483560,0.182290820,9.186266900,0.064253810,-0.050294410,-0.008933250
1640834364.719290,0.023371710,0.214642200,9.837402340,-0.071464460,0.080269570,0.014634430
1640834364.724220,0.076561510,0.017927870,9.930089000,-0.101426240,0.032244620,0.023673480
1640834364.724870,-0.267610070,-0.374883320,10.748167040,0.021629040,-0.093914570,0.031115120
1640834364.729230,-0.140422550,-0.236163960,9.295374870,0.141473110,-0.054161260,0.011624400
1640834364.730110,-0.087861840,0.168352160,9.128832820,0.037334860,-0.041659180,-0.003996490
1640834364.733870,-0.218329950,0.045730720,9.963445660,-0.097073620,0.121352100,0.022120770
1640834364.734460,0.045335360,-0.283781860,9.954457280,-0.032721460,0.041556360,0.004065040
1640834364.738970,-0.125193830,-0.218935880,10.496852870,0.131471470,-0.105310990,-0.003311040
1640834364.740260,0.136502010,0.266348720,9.068123820,0.133590420,-0.039936590,0.021082160
1640834364.743860,-0.034522160,0.168408050,9.554200170,-0.015507640,0.017082690,0.022599100
1640834364.744400,-0.337715600,-0.089441120,10.366809840,-0.048336390,0.078508270,0.024394690
1640834364.749300,-0.205021680,-0.092057980,10.009100910,0.077468160,-0.074814270,0.000147520
1640834364.750059,-0.183259350,0.282705990,9.831414220,0.123998530,-0.083151460,-0.014446680
1640834364.753909,0.090246600,0.807198880,9.037822720,0.014624000,0.052396950,-0.001508000
1640834364.754639,-0.206272770,0.513101760,10.412712100,-0.088094170,0.043419010,-0.000955160
1640834364.758810,-0.292609570,0.252699430,10.539271350,-0.010494890,-0.010855500,0.002615150
1640834364.759169,-0.032178440,0.387628440,9.549198150,0.112181920,-0.130821760,-0.003835560
1640834364.764190,-0.030197830,0.508962210,9.630492210,0.035315760,-0.004477800,0.002612170
1640834364.765319,0.049498380,0.705239650,9.586235050,-0.118573000,0.109611440,0.030934810
1640834364.768819,-0.055788190,0.164379180,10.614819530,-0.105197730,-0.028638550,0.025777520
1640834364.769260,0.040176860,-0.070368860,10.140687940,0.032997140,-0.052210700,0.017152730
1640834364.773830,0.229340670,0.323103610,9.155848500,0.075761970,-0.043165690,0.001592930
1640834364.774320,-0.104885820,0.463986900,10.003300670,-0.070202360,0.030444560,0.014442210
1640834364.779029,-0.051947190,0.409771770,9.883009910,-0.184187290,0.040227180,0.037363180
1640834364.779660,0.065979610,-0.056180210,9.978752140,-0.076653050,-0.020807980,0.023615360
1640834364.784220,0.098512140,0.001482730,9.808534620,0.052660700,0.022704900,-0.002790990
1640834364.786820,0.152963830,0.388353260,9.439637180,0.025974210,0.022323430,0.015072520
1640834364.788920,0.126957030,0.215528820,9.701636310,-0.125351520,0.041991480,0.040963300
1640834364.789379,0.056191880,-0.098092980,10.028915410,-0.160016130,0.057668980,0.049185760
1640834364.793860,-0.046195850,-0.550704660,10.136908530,0.000174340,0.001882020,0.018945340
1640834364.794420,0.053232300,-0.275973290,9.475848200,0.081862520,0.002554060,-0.000418720
1640834364.799719,0.129981640,0.177627400,9.252165790,-0.009028610,0.093474970,0.000561770
1640834364.800170,-0.068601020,-0.107378680,10.085191730,-0.137797000,0.117301960,0.025966770
1640834364.803939,-0.178548620,-0.246762160,10.220616340,-0.056885190,0.003978610,0.013904270
1640834364.804630,-0.074439600,-0.249293610,9.328560830,0.099959970,-0.050935150,0.011295080
1640834364.808820,-0.045771740,0.041738540,9.313861850,0.066159670,0.064590580,0.005836790
1640834364.809229,-0.091178100,0.292604890,9.732000350,-0.039590900,0.153364260,0.015206630
1640834364.815430,-0.161624570,-0.097731220,10.467949870,-0.075371570,0.036644940,0.005136430
1640834364.816949,-0.086253590,0.056575130,10.071789740,0.027370460,-0.016328690,0.002968310
1640834364.818850,0.057195940,0.267015670,8.933131220,0.085166090,0.012417140,0.012642140
1640834364.819310,-0.181482060,0.206835390,9.902338980,0.010529160,0.082905590,0.019578640
1640834364.823940,-0.324704380,0.175035070,10.036784170,-0.026111310,0.116276750,0.029048320
1640834364.824440,-0.261417210,-0.039850280,10.059703830,0.001752380,-0.066538160,0.016729540
1640834364.829150,-0.127935710,0.201357020,9.777925490,0.035713620,0.022687020,0.011771920
1640834364.830289,0.009155660,0.487080780,9.302361490,-0.004211070,0.094757970,-0.005966430
1640834364.833930,-0.280729260,0.494098930,10.753438000,-0.060491260,0.042201580,-0.001031160
1640834364.834570,-0.134706910,0.490768610,9.841587070,-0.026392940,0.019058590,0.022344290
1640834364.838920,-0.052719950,0.423834950,9.507569310,-0.005608800,-0.067090990,0.002913180
1640834364.839340,-0.113286240,0.764423490,9.863248830,-0.043755770,0.092618170,0.021423400
1640834364.843840,-0.101076440,0.672434690,9.717857360,-0.120547410,0.070355830,0.028121470
1640834364.844420,-0.102919010,0.284235780,10.493982320,-0.105850390,-0.008453430,0.040476020
1640834364.849059,0.229588660,0.206621560,9.477903370,-0.022409860,0.064831960,0.026606020
1640834364.849850,0.124449600,0.137961910,9.842318530,-0.034794220,0.018903620,0.003729760
1640834364.853960,-0.043785560,0.435105710,10.192799570,-0.122055420,0.068405280,0.024259090
1640834364.855039,0.047841650,0.220540170,9.429869650,-0.179688630,0.000309940,0.039853160
1640834364.858800,-0.038364090,-0.268578590,10.060892110,-0.108145180,0.018472970,0.022065640
1640834364.859200,0.186321210,0.175130190,9.069140430,-0.010211770,0.120314960,0.002345440
1640834364.863970,0.120468940,0.260213460,9.865026470,-0.061552230,0.040185460,0.014682120
1640834364.864889,-0.032631390,0.256409530,10.306663510,-0.156430900,0.122323650,0.047549610
1640834364.869419,-0.053150950,0.002025790,9.629158970,-0.153696540,0.007253890,0.027662520
1640834364.869979,-0.354360280,-0.438092560,10.117565160,-0.022959710,-0.034117700,0.024884940
1640834364.873829,0.008525300,0.091109390,8.581201550,0.009915230,0.105670090,0.016686320
1640834364.874470,-0.036159940,0.284149530,9.685718540,-0.113402310,0.103707610,0.005654990
1640834364.879099,-0.131721290,0.056915100,10.764155390,-0.175261500,0.177438570,0.037662690
1640834364.879819,-0.022673320,-0.198771510,10.041491510,-0.065636630,-0.024242700,0.012722610
1640834364.886940,-0.232472600,-0.138215150,9.830464360,0.063848500,-0.075723230,0.011086460
1640834364.887670,0.033685170,0.325648750,8.598544120,-0.027173760,0.102178770,0.014185910
1640834364.888900,-0.211641730,0.378273870,9.907169340,-0.174964980,0.144192580,0.009860100
1640834364.889310,-0.313771460,0.192981820,10.850385670,-0.154130180,0.113219040,0.026179860
1640834364.893910,0.005352270,0.239919220,9.868214610,-0.016240780,-0.050300360,0.007614490
1640834364.894580,-0.162292300,0.338738980,9.715667720,0.032982230,-0.002133850,0.008277600
1640834364.899030,-0.153863190,0.698534010,9.380471230,-0.108547530,0.122237210,0.010117890
1640834364.900260,-0.511452970,0.358845740,10.377259250,-0.200659080,0.043173130,0.021921100
1640834364.903839,-0.287928430,-0.032244120,10.142138480,-0.112405400,0.006322560,0.037245450
1640834364.904270,0.177534000,0.184841980,9.371987340,-0.015285610,0.032648450,0.007712840
1640834364.908830,-0.081557540,0.317922530,10.220448490,-0.061966490,0.103060910,0.005333130
1640834364.909190,0.101689640,0.493373900,9.944045070,-0.180438160,0.080610820,0.023587050
1640834364.914000,-0.063703780,0.132218300,10.115199090,-0.183859470,-0.020040570,0.022234020
1640834364.914940,-0.018899390,-0.072591100,9.705562590,-0.089156630,0.016735500,0.022159520
1640834364.919880,0.152518730,0.333487450,9.094837190,-0.040173530,0.075040760,-0.002478060
1640834364.920590,-0.065642240,0.385662170,9.927570340,-0.125361950,0.089138740,0.013692680
1640834364.923810,0.209789750,0.306461130,9.951457980,-0.215928270,0.120185320,0.034873190
1640834364.924350,-0.017716540,-0.161012230,10.172731400,-0.140508990,0.049680470,0.020466740
1640834364.929200,-0.197554950,-0.312217320,10.069808010,-0.016959010,-0.019593540,0.015090410
1640834364.935940,-0.128832430,0.095437240,9.146906850,-0.045180320,0.029005110,0.019420680
1640834364.936370,-0.245545360,-0.026536800,9.282346730,-0.187751670,0.092361890,0.008189680
1640834364.936849,-0.163532410,-0.322342510,10.185373310,-0.187168990,0.155240280,0.007340310
1640834364.938900,-0.252550990,-0.283859040,10.287751200,-0.043483070,0.052180880,-0.009587410
1640834364.939230,-0.113626690,0.142896910,9.861447330,0.014990570,-0.069014740,0.002488490
1640834364.943869,0.057642850,0.455382050,9.246324540,-0.099293870,0.085048360,0.019316370
1640834364.944960,-0.184144480,0.191110340,9.813052180,-0.205844640,0.126734390,0.016079840
1640834364.949070,-0.324955610,-0.072974060,10.668237690,-0.088782610,0.051675740,0.009189550
1640834364.949960,-0.216080500,0.095807200,9.632871630,0.034372510,-0.033211710,-0.012050570
1640834364.953920,-0.119729690,0.556256230,9.358954430,-0.053696330,-0.009489060,0.001885000
1640834364.954540,-0.156107570,0.551594380,9.829432490,-0.209124390,0.161488340,0.005434450
1640834364.958840,-0.413641180,0.030719810,10.460974690,-0.190347450,0.047290330,0.000627340
1640834364.959260,-0.342587230,-0.080777370,10.421334270,0.006757680,-0.052320960,0.008811060
1640834364.964069,-0.197811600,0.261311140,9.260697360,0.020468230,-0.029793380,-0.009186560
1640834364.965400,-0.227932590,0.529872660,9.662193300,-0.172340880,0.034499170,0.013740360
1640834364.968850,-0.064589160,0.397941200,9.958398820,-0.252448020,0.124476840,0.033599130
1640834364.969440,0.047616760,-0.209978830,10.172327040,-0.133223850,0.001257660,0.009918210
1640834364.973879,0.098378790,-0.136025760,10.214220050,0.061629710,-0.019544360,0.008866190
1640834364.974310,0.212884560,0.416339760,9.154833790,-0.014996530,0.007370120,0.002269450
1640834364.978940,-0.100941370,0.347085770,9.970939640,-0.239275400,0.001819430,0.023528940
1640834364.979889,-0.043472750,0.010281730,9.757571220,-0.248639320,0.080803060,0.032256540
1640834364.985210,0.010821860,-0.339095320,9.699069980,-0.070501850,0.008854270,-0.011466440
1640834364.986630,-0.181586350,-0.093942000,10.223868370,0.098951160,0.033167010,-0.002302230
1640834364.988799,-0.048513710,0.429302630,9.201990130,-0.051571430,0.024607780,0.004021820
1640834364.989240,-0.314392810,0.240807310,10.023123740,-0.252518060,-0.002312660,0.048120310
1640834364.994180,-0.178021700,-0.449414610,9.871117590,-0.185643150,0.084801030,0.058579440
1640834364.995440,-0.106867390,-0.677781640,9.758695600,0.048407920,-0.017939510,-0.000703330
1640834364.998940,-0.225945320,-0.062049020,9.845987320,0.137494520,0.010490420,0.000940260
1640834364.999539,0.295033720,0.405542970,9.014998440,-0.108172000,0.068002950,0.009253620
1640834365.003820,-0.065313370,0.093326900,10.526778220,-0.260926780,0.080819430,0.026376550
1640834365.004320,-0.063467130,-0.282027510,10.270285610,-0.077928610,0.029841070,0.012484190
1640834365.008819,-0.185159550,-0.109163780,9.717377660,0.142283740,-0.114300850,-0.032699110
1640834365.009369,-0.387289430,0.595816490,9.259596820,0.083072470,-0.001293420,-0.013646480
1640834365.014240,-0.146016790,0.820563440,9.270659450,-0.208437470,0.101943330,0.019793210
1640834365.015070,-0.515417810,0.191919880,10.964271550,-0.251161990,0.074146700,0.027103720
1640834365.019029,-0.184361130,-0.021654990,10.268724440,0.008372960,-0.038205090,0.023633250
1640834365.020390,-0.074508000,0.152215760,9.693868640,0.140130520,-0.101576770,-0.005871060
1640834365.023840,-0.168106900,0.447786780,9.431374550,-0.023487210,0.047905740,0.015147030
1640834365.024360,-0.047595400,0.382692810,9.640111920,-0.244928930,0.058734430,0.026571750
1640834365.029209,-0.276046450,-0.249317850,10.622868540,-0.201052460,-0.021533670,0.027665500
1640834365.030099,0.166201460,-0.144375560,9.555284500,0.030089910,-0.042866170,-0.002980230
1640834365.033880,0.193850620,0.367329900,9.546852110,0.055591770,-0.018422310,-0.026215610
1640834365.034380,-0.067378170,0.597396190,9.954771040,-0.121623280,0.074647370,0.009921190
1640834365.038830,0.009947100,0.324668970,9.927161220,-0.228257490,-0.011433660,0.045423210
1640834365.039189,-0.281638620,-0.276336370,10.140036580,-0.104984660,-0.076819960,0.033335390
1640834365.044099,-0.082237300,-0.138811290,9.147459030,0.056794290,-0.023090840,0.012366470
1640834365.044870,-0.083433480,0.148591470,9.319909100,0.008247790,0.035634640,0.007760520
1640834365.048970,-0.077695410,0.074604650,9.965781210,-0.157676650,0.099712630,0.020679830
1640834365.051659,-0.045659260,-0.297438770,10.487810130,-0.154431180,0.010886790,0.019867720
1640834365.053850,-0.150443400,-0.591893790,10.025607110,0.004431600,-0.089424830,0.001013280
1640834365.054560,-0.032895300,-0.168703600,8.990905760,0.096610190,-0.065663460,-0.006504360
1640834365.059180,-0.057421860,0.047624150,9.191136360,-0.025638940,0.069171200,-0.006510320
1640834365.059739,-0.243258660,0.016049440,10.142084120,-0.146752600,0.104147200,-0.000765920
1640834365.063959,-0.313900320,-0.154300570,10.563332560,-0.040408970,-0.043135890,-0.002315640
1640834365.064810,-0.171032340,0.028332380,9.550203320,0.086191300,-0.116004060,-0.011967120
1640834365.068820,-0.118654240,0.622795520,9.174860950,0.044624510,-0.000259280,0.000485780
1640834365.069209,-0.267022940,0.450113560,10.027618410,-0.094690930,0.096374750,0.007002060
1640834365.073880,-0.469865380,0.074095500,10.600914960,-0.092053420,-0.012433530,0.012488670
1640834365.074640,-0.288124140,0.050081630,9.903796200,0.056499250,-0.129878540,0.013263530
1640834365.079180,0.019571060,0.225258110,9.088067050,0.051949920,-0.057092310,-0.001555680
1640834365.079990,-0.047210780,0.524680970,9.731152530,-0.070887800,0.064140570,0.009693210
1640834365.084100,-0.068921610,0.298344400,10.355721470,-0.124812140,0.035487120,0.000090900
1640834365.084859,-0.195071010,0.037305210,10.510392190,-0.041662160,-0.101539500,-0.006826220
1640834365.088850,-0.151475820,0.324630440,9.656978610,0.063440210,-0.118900840,-0.000204150
1640834365.089300,-0.066703490,0.661719380,9.151108740,-0.043180580,-0.042648610,-0.006064770
1640834365.093890,-0.182738660,0.668599370,9.949918750,-0.179724400,0.052867830,0.018361210
1640834365.094750,0.076464330,0.185237390,9.916630740,-0.128513590,0.022679570,0.024491550
1640834365.099330,0.049007800,-0.157171040,10.307864190,0.031992790,-0.072151430,0.012052060
1640834365.099850,-0.027990560,0.161918280,9.782998090,0.060497240,-0.068770350,0.011530520
1640834365.103829,0.022632320,0.241786610,9.159315110,-0.117573160,-0.070877380,0.027318300
1640834365.104319,-0.143833150,-0.109401580,9.792472840,-0.198310580,0.010403990,0.032739340
1640834365.108880,0.109834100,-0.506369470,9.599135400,-0.058637560,0.066092600,0.013160710
1640834365.109419,-0.094173890,-0.322867330,10.407105450,0.094054650,-0.041891630,-0.017537180
1640834365.113920,-0.127639000,0.267468330,9.768362050,0.056076050,-0.063397000,-0.000134110
1640834365.114850,-0.025628110,0.274640350,9.162435530,-0.155694780,-0.068102780,0.031037630
1640834365.118919,-0.329297780,-0.227296610,10.018924710,-0.157667700,0.038217010,0.025461620
1640834365.119540,-0.214273860,-0.372156140,9.713914870,0.056339810,0.002920630,-0.010938940
1640834365.124029,-0.237555100,0.056757000,9.945474620,0.151997820,-0.103867060,-0.017982720
1640834365.124650,0.105028060,0.682197270,9.189548490,-0.016060470,0.018082560,0.008665030
1640834365.128909,0.080873570,0.297147780,9.953273770,-0.201618690,0.031140450,0.034500660
1640834365.129469,-0.361341660,-0.418554930,10.758132930,-0.059121850,-0.010143220,0.039015710
1640834365.133819,-0.177242440,-0.380144450,9.332887650,0.188545900,-0.153569890,-0.009426470
1640834365.134300,-0.338057910,0.050387520,9.270497320,0.135625910,-0.108154130,-0.012168290
1640834365.138900,-0.244229380,0.437725660,9.080047610,-0.120066100,0.095455330,0.014351310
1640834365.139870,-0.347268550,0.118532300,10.610302930,-0.191278760,0.000873210,-0.002312660
1640834365.144160,-0.425997640,-0.050090190,10.925552370,0.024195020,-0.100414450,-0.014573340
1640834365.144980,-0.063571740,0.541377370,9.281774520,0.185123100,-0.162282590,-0.023664540
1640834365.148900,-0.220869530,0.890200970,9.604489330,0.024361910,-0.053136050,-0.012893980
1640834365.149520,-0.175582320,0.865451040,9.615607260,-0.189298410,0.061015780,0.028160220
1640834365.153869,-0.071014220,0.325491070,10.217695240,-0.155538340,-0.084614760,0.030332800
1640834365.154520,0.028652710,-0.072911320,10.147706030,0.050683320,-0.100485980,0.018383560
1640834365.158830,0.258762330,0.288525580,9.173752780,0.102627280,-0.065459310,-0.006264450
1640834365.159260,-0.050698750,0.333359990,10.026444440,-0.074066220,-0.036653880,0.000135600
1640834365.164710,-0.205650110,-0.019313010,10.146060940,-0.200407240,-0.024403630,0.030790270
1640834365.165540,-0.174574120,-0.318036560,10.011098860,-0.093863900,-0.141254070,0.006024540
1640834365.168830,-0.085132340,-0.153438420,9.489317890,0.041133170,-0.073975310,-0.011374050
1640834365.169170,0.090161060,0.384620960,9.135688780,0.029075150,-0.001755360,-0.007505710
1640834365.173900,-0.012223210,0.402233330,10.051614760,-0.114215920,0.011631850,0.019638240
1640834365.174540,-0.011698380,0.100606880,10.234917640,-0.142839570,-0.053460900,0.042782740
1640834365.178880,0.011515970,-0.274015990,9.826280590,-0.000041720,-0.136484210,0.021333990
1640834365.179530,-0.010665930,-0.170737860,9.295001980,0.083597000,-0.077466690,0.006347900
1640834365.184300,0.072198940,0.162215950,9.262119290,-0.002224740,0.019846850,0.001098220
1640834365.185130,-0.026651960,-0.194826960,10.201982500,-0.119538620,0.045265260,-0.002884860
1640834365.188920,-0.131546780,-0.440902500,10.321734430,-0.052584720,-0.063234570,0.008895990
1640834365.189540,-0.075271150,-0.388598350,9.469153400,0.116102410,-0.141264510,-0.003340840
1640834365.193859,-0.124543440,-0.081247630,9.151986120,0.079149020,-0.070634490,0.001677870
1640834365.194419,-0.246249230,0.136192960,9.577301980,-0.040745730,0.035688270,0.010323530
1640834365.198830,-0.220420660,-0.219697680,10.138528820,-0.047174100,-0.001882020,-0.005999210
1640834365.199230,-0.189945500,-0.141642480,10.352184300,0.076967480,-0.097832090,-0.010739270
1640834365.203940,0.064826510,0.338099600,9.307233810,0.141781580,-0.073331600,-0.008387860
1640834365.204589,-0.019842790,0.489676890,9.708556180,0.008408730,-0.031441450,-0.010223680
1640834365.209200,-0.255847480,0.336766570,10.184949870,-0.058315700,0.020045040,0.010938940
1640834365.210430,-0.167869700,-0.064417420,9.769000050,0.038883080,-0.102071470,0.003236530
1640834365.213940,-0.265419330,-0.015266980,9.953754430,0.129078340,-0.117592520,-0.011272730
1640834365.215040,-0.113286140,0.513637070,9.217791560,0.062613200,-0.007784370,-0.001662970
1640834365.219060,-0.232946040,0.430844660,10.197721480,-0.097954280,-0.032214820,0.007432700
1640834365.219940,-0.229793650,0.129749700,10.506587030,-0.064302990,-0.023280080,0.007836520
1640834365.223860,0.050249130,0.069677670,9.598218920,0.086149600,-0.118888940,-0.007523600
1640834365.224520,-0.083500300,0.357377950,9.913539890,0.108099010,-0.092035550,-0.011491780
1640834365.228890,-0.002072750,0.779445590,9.254455570,-0.033937400,-0.002487000,0.004880130
1640834365.229600,0.040615310,0.468769070,9.903738980,-0.166632250,-0.067709370,0.024609270
1640834365.233860,0.128914130,0.012132180,10.083339690,-0.041288140,-0.007592140,0.017389660
1640834365.235430,0.331059660,0.052547360,9.523060800,0.107273480,-0.050030660,-0.010871890
1640834365.239009,-0.028460200,0.429090290,10.210747720,0.052385040,-0.056557370,0.005297360
1640834365.239640,-0.069892660,0.459792640,9.516189580,-0.124599050,-0.028850140,0.024837260
1640834365.244030,-0.165943550,-0.202350940,9.887211800,-0.156109050,-0.089007620,0.021706520
1640834365.244710,-0.067382430,-0.420251580,9.421521190,0.035429000,0.012357540,0.017364330
1640834365.248920,0.193429920,-0.062498970,9.203798290,0.140672920,-0.005881490,-0.016820430
1640834365.249660,0.031347040,0.284008830,10.335712430,-0.011543930,0.027550760,0.013399120
1640834365.253990,0.160571050,0.165624040,9.739056590,-0.152389720,0.015215580,0.035722550
1640834365.254740,-0.045146990,-0.589235250,10.205172540,-0.046099730,-0.109423700,0.003167990
1640834365.259179,-0.078926730,-0.423940450,9.201131820,0.157445680,-0.024399160,-0.000727180
1640834365.260239,0.093010900,0.158944960,8.691283230,0.135342760,-0.012239810,-0.029928980
1640834365.263880,-0.175126880,0.237309630,10.184315680,-0.073623660,0.103160750,-0.007547440
1640834365.265460,-0.090453440,-0.014043470,10.137203220,-0.104616570,0.047148760,0.018854440
1640834365.268829,-0.234345880,-0.466399070,10.290154460,0.108644370,-0.142467010,-0.007109340
1640834365.269189,-0.231975240,-0.117142620,9.210958480,0.224906220,-0.063396990,-0.001640620
1640834365.273840,-0.188361390,0.295267080,8.872793200,0.080885000,0.027865170,0.007328390
1640834365.274430,-0.362009170,0.031969150,10.128635410,-0.081406540,0.087137520,0.009053950
1640834365.279009,-0.189820190,-0.184003980,10.248764990,-0.001099710,-0.018014020,-0.000233950
1640834365.279790,0.028266660,-0.098539720,9.777902600,0.193706130,-0.107778620,-0.031769270
1640834365.287220,-0.046867700,0.358128490,9.528198240,0.167042020,-0.019335750,-0.029258440
1640834365.287779,-0.231974660,0.597811940,9.768335340,-0.002872940,0.020316240,-0.010548530
1640834365.288859,-0.340658160,0.271373960,10.201862340,-0.058418520,-0.040076670,0.013715030
1640834365.289270,-0.141482230,0.165326640,9.783475880,0.055789950,-0.076983880,0.004573170
1640834365.293800,0.014571640,0.318708960,9.456687930,0.163237780,-0.023774810,-0.004407760
1640834365.294450,-0.023203350,0.561284900,9.881756780,0.064404310,0.036399070,0.004199150
1640834365.298839,-0.025542760,0.429560990,10.205195430,-0.044095520,0.012244290,0.011341270
1640834365.299320,-0.090098580,-0.161109420,10.108881000,-0.005228820,-0.081096570,0.013056400
1640834365.303860,0.003483170,0.022069920,9.489439960,0.097160030,-0.078245990,-0.006064770
1640834365.304319,0.058455940,0.319828090,9.273749350,0.077407060,0.011795760,-0.006258490
1640834365.309280,0.061370640,0.294857410,9.912811280,-0.050747390,0.057822480,0.005611780
1640834365.310180,0.139655920,0.104111250,10.114264490,-0.012038650,0.043453280,0.016321240
1640834365.314469,0.120448510,-0.227690250,9.997611050,0.088760260,-0.056624410,0.005584960
1640834365.317819,0.040469890,0.149121880,9.538459780,0.113119210,-0.047372290,0.003199280
1640834365.319100,0.018845820,0.312736810,9.012963290,0.021338460,0.020211940,0.016878550
1640834365.319500,-0.103077900,-0.163249570,10.022382740,-0.059281290,0.052301590,0.010901690
1640834365.323830,-0.079537280,-0.286456580,9.893589020,0.068640710,0.079323350,-0.008498130
1640834365.324440,0.011306020,-0.147538600,9.664805410,0.154918430,-0.062394150,-0.030452010
1640834365.328940,-0.039418460,0.245792240,9.744191170,0.086162990,0.011244420,-0.003539030
1640834365.330449,0.009102150,0.229093400,9.224885940,-0.037847460,0.064741080,0.016438960
1640834365.334720,-0.237729070,-0.410046990,10.346016880,0.009475650,0.000433620,0.014173990
1640834365.335260,-0.137436900,-0.372189610,9.507121090,0.199757530,0.032782550,-0.010403990
1640834365.338860,0.056207540,0.143097520,9.181188580,0.186459720,-0.039978330,-0.031982370
1640834365.339219,-0.119678220,0.479550660,9.964299200,-0.000883640,0.105138130,-0.001321730
1640834365.343880,-0.096941180,0.142850250,9.749741550,-0.060503190,0.062504420,-0.007134680
1640834365.344440,-0.358602550,-0.139175370,10.570592880,0.110508490,-0.079536420,-0.031188130
1640834365.349220,-0.229822070,0.296018390,9.231536870,0.236095500,-0.009675320,-0.026100870
1640834365.350790,-0.196833790,0.668150310,9.253423690,0.085386650,0.004418200,-0.028873980
1640834365.353930,-0.421179000,0.702714090,10.322052000,-0.094012910,0.105385490,-0.006358330
1640834365.354790,-0.065054730,0.236471130,9.840578080,-0.038458410,-0.005720560,0.000163910
1640834365.359180,0.015209200,-0.029787730,10.101840970,0.154672580,-0.064305960,-0.016126040
1640834365.359769,0.149313430,0.483935420,9.224946980,0.185988860,0.047120450,-0.019980970
1640834365.364050,0.035063510,0.590659500,9.774233820,-0.025096530,0.006929040,-0.007717310
1640834365.364960,-0.235343050,0.293626900,10.389919280,-0.136308390,0.034438070,0.024698680
1640834365.368800,0.015147050,0.009193520,9.464238170,-0.012746450,-0.050701200,-0.002525750
1640834365.369200,-0.117569190,-0.021506000,9.909848210,0.137898340,-0.027886040,-0.025917590
1640834365.373819,0.071785750,0.691731810,9.012405400,0.082772970,0.097891690,-0.014871360
1640834365.374620,0.017522850,0.598895370,9.894372940,-0.091321770,0.029520690,0.005392730
1640834365.378939,-0.195476650,0.078015660,10.546772000,-0.118276490,0.037613510,0.025323040
1640834365.380930,0.031665140,-0.081223450,9.253207210,0.045061110,-0.069905820,-0.006370250
1640834365.385980,-0.125144510,-0.112486260,9.555205350,0.142759100,-0.032719970,-0.022894140
1640834365.386940,0.098964940,0.252563660,8.973433490,0.005993250,0.121668000,-0.014249980
1640834365.388769,0.132095550,0.007234280,9.935412410,-0.112251940,0.095990300,-0.008739530
1640834365.389130,-0.085482310,-0.437198910,10.723441120,-0.037015980,0.038728120,-0.008943680
1640834365.393829,0.108491030,-0.146412510,9.376922610,0.108116890,-0.086863350,-0.018535550
1640834365.394470,-0.069962080,-0.004712440,9.121279720,0.105336310,-0.014705960,-0.020569560
1640834365.398909,-0.135234920,0.157056080,9.334100720,-0.034263730,0.140543280,-0.021655850
1640834365.400370,-0.352865820,-0.001602460,10.291747090,-0.045742100,0.083877150,-0.022996960
1640834365.403829,-0.282182810,-0.065578930,10.262043000,0.050641590,-0.039218360,-0.027750430
1640834365.404310,0.065385480,0.449981360,9.230799670,0.108850000,-0.008811060,-0.033207240
1640834365.409090,-0.092520280,0.443715930,9.588685990,0.028121480,0.083024800,-0.023767350
1640834365.409550,-0.172342230,0.377112720,10.155396460,-0.041401390,0.079265240,-0.022721290
1640834365.413879,-0.189638630,0.094880490,10.040224080,0.026360160,-0.013479590,-0.021396570
1640834365.417709,-0.038841720,0.173335180,9.650492670,0.062808390,-0.033169980,-0.025179980
1640834365.418820,0.140151680,0.576116860,9.328606610,0.015327330,0.086072090,-0.023500620
1640834365.419200,-0.078952630,0.294220270,10.124073980,-0.063188380,0.090985000,-0.021812320
1640834365.423920,-0.021532630,0.182735280,10.274232860,-0.033190840,0.029917060,-0.008518990
1640834365.424890,-0.001099130,0.077932060,9.648693080,0.061240780,-0.027208030,-0.015851850
1640834365.428979,-0.100720210,0.284259770,9.592466350,0.020629170,-0.005745890,-0.026544930
1640834365.429970,-0.035349920,0.668809530,9.420349120,-0.080549710,0.090254830,-0.007550420
1640834365.433840,0.001743500,0.155105960,9.838687900,-0.106515010,0.080375370,-0.012339650
1640834365.434430,0.191889460,-0.046567440,10.201541900,-0.000202660,0.081931080,-0.014171010
1640834365.438840,0.230147730,0.186117230,9.522474290,0.093737240,0.054605320,-0.019653140
1640834365.439200,0.090420240,0.243382950,9.673917770,-0.023236870,-0.009967390,-0.004345180
1640834365.443889,-0.049380110,0.151251060,9.410531040,-0.129629670,0.096476080,0.018525130
1640834365.445150,-0.159458180,-0.448148280,9.444068910,-0.072039670,0.054252160,-0.006707010
1640834365.450749,-0.291220990,-0.525461970,10.207779880,0.087226930,0.056633350,-0.043891370
1640834365.451390,-0.064075840,0.108489090,9.170389180,0.099192560,0.091335180,-0.040759150
1640834365.453850,-0.051165830,0.339054050,9.934338570,-0.074043870,0.054915250,-0.030741100
1640834365.454330,-0.167584610,0.233144240,10.129879000,-0.135681060,0.137560110,-0.005829340
1640834365.458890,-0.175202940,-0.186114530,9.673780440,0.002031030,-0.010503830,-0.028291340
1640834365.459370,-0.252417240,-0.054465680,9.700991630,0.165811200,-0.005805490,-0.032976270
1640834365.463980,0.031476620,0.559753060,8.674514770,0.060874230,0.114461790,-0.036859510
1640834365.465870,-0.135800390,0.511811790,10.228280070,-0.155524910,0.122302790,-0.017856060
1640834365.468770,-0.208509550,0.209869580,10.640690800,-0.131817180,0.125397740,-0.016325710
1640834365.469149,-0.119847680,0.057634350,9.816594120,0.056517130,-0.086453540,-0.044611100
1640834365.473990,-0.235657650,0.373242530,9.551371570,0.123479980,-0.005218390,-0.030125680
1640834365.475450,-0.098629800,0.748578910,8.812401770,-0.052472950,0.136628760,-0.032882390
1640834365.478999,-0.473435220,0.359650520,10.647823330,-0.199161470,0.074191400,-0.006037950
1640834365.480640,-0.253035190,0.045166940,10.277576450,-0.084915760,0.051593780,0.007604060
1640834365.484069,0.059306080,-0.022031620,9.462591170,0.063714390,-0.055326530,-0.033798810
1640834365.484930,-0.080842670,0.251557080,9.826714520,0.050181150,0.079196700,-0.016422570
1640834365.488950,0.163597230,0.546850140,9.152725220,-0.129126010,0.130197420,-0.013582410
1640834365.489539,-0.138847540,0.037057780,10.511526110,-0.185136480,0.007008020,0.008662040
1640834365.493860,0.059931890,-0.221882550,9.605733870,-0.032864510,0.033997000,0.012116140
1640834365.494480,0.175955650,0.039716620,8.940407750,0.059522700,-0.007508700,-0.042571130
1640834365.498790,-0.038127790,0.325289370,9.856082920,-0.017009680,0.125363470,-0.011257830
1640834365.499159,0.224658240,0.308581710,9.474145890,-0.172784890,0.152143820,-0.000163910
1640834365.503860,-0.215532120,-0.297913310,10.715970040,-0.111593310,0.019197170,0.000064070
1640834365.504410,-0.139617680,-0.411037360,9.772093770,0.052790340,0.015591090,-0.017030540
1640834365.508870,-0.128931340,-0.043807600,8.762790680,0.071190310,-0.017806890,-0.024884940
1640834365.509640,-0.227589580,-0.043932230,9.297590260,-0.064843890,0.135739160,-0.007738170
1640834365.513909,-0.011347810,-0.118692260,9.620248790,-0.129170730,0.181287540,-0.013320150
1640834365.515430,-0.292974050,-0.399168100,10.565343860,0.006437300,0.003778930,-0.023008880
1640834365.518810,0.033928780,-0.077147770,9.479274750,0.122365370,-0.027602920,-0.016959010
1640834365.519160,0.000767920,0.320533040,9.078643800,0.038474800,0.061023240,-0.013378260
1640834365.524510,-0.330276940,0.186100170,10.077335360,-0.088955480,0.134742300,0.003065170
1640834365.525950,-0.239131600,0.015400070,9.995527270,-0.044457610,0.059273850,-0.019125640
1640834365.528849,-0.342591460,-0.021264380,9.774020200,0.085575860,-0.042054050,-0.030514600
1640834365.529500,-0.084139630,0.450914260,9.196533200,0.084117050,0.027480730,-0.017414990
1640834365.533820,-0.212934480,0.453696160,9.624096870,-0.039912760,0.090058150,-0.025978690
1640834365.534590,-0.455246510,0.080116200,10.431976320,-0.086419280,0.056730210,-0.013664360
1640834365.538920,-0.207194550,0.062667810,9.970439910,0.034725670,-0.024609270,-0.014995040
1640834365.540130,-0.178879800,0.169660760,9.577116010,0.084337590,-0.032918160,-0.032244620
1640834365.543820,-0.013444320,0.615353110,9.526117320,-0.021478540,0.062383720,-0.012883550
1640834365.544410,0.074702110,0.595928850,9.676461220,-0.125154840,0.086531030,-0.007471440
1640834365.548879,-0.060204700,0.087775420,10.249006270,-0.062960370,0.012458860,-0.003094970
1640834365.549260,0.058508470,0.170413110,9.694743160,0.078807780,-0.017815820,-0.004951660
1640834365.553840,-0.139637950,0.388622110,9.369658470,0.042471290,-0.031104690,-0.015950200
1640834365.554540,-0.232382360,0.496584920,9.749998090,-0.120788820,0.027546290,0.011274220
1640834365.559120,-0.043940870,0.110153210,9.626643180,-0.157865880,0.085496910,0.003309550
1640834365.559600,-0.011966460,-0.263979760,10.002205850,-0.010341410,0.043956940,-0.015994910
1640834365.563939,0.033097860,-0.032963360,10.004077910,0.108501320,0.015135110,-0.028181080
1640834365.565009,-0.020847070,0.307343130,9.176388740,-0.009167190,-0.021791450,-0.011089450
1640834365.568830,-0.131619590,0.158030110,9.438797000,-0.155216430,-0.003036860,0.027926270
1640834365.569209,-0.055550990,-0.316736670,9.464960100,-0.119389600,0.096416470,0.016234820
1640834365.573890,-0.180425200,-0.422382860,9.876889230,0.062291330,0.027997790,-0.014984610
1640834365.575630,-0.061679420,0.063909210,9.841471670,0.137314170,0.007864830,-0.023977450
1640834365.578879,0.085739220,0.430311830,9.282393460,-0.059840080,0.037956240,-0.008685890
1640834365.579470,-0.175896530,0.170464070,10.080919270,-0.166723120,0.057844810,0.028190010
1640834365.583950,-0.204044540,-0.420144020,9.747197150,-0.010664760,0.019259750,0.001420080
1640834365.584760,-0.261829640,-0.288691130,9.466012000,0.164887310,-0.066509850,-0.018085540
1640834365.588960,-0.102867420,0.347129730,9.100039480,0.113464880,0.047175580,-0.008483230
1640834365.589560,-0.005619590,0.442564250,9.568886760,-0.140529860,0.118391200,-0.008876620
1640834365.593890,-0.371291970,0.047719490,10.947879790,-0.138448180,0.046972930,0.011195240
1640834365.594430,-0.150314120,-0.065015020,9.798225400,0.079375500,-0.067663190,-0.014470520
1640834365.598820,-0.322639670,0.243545930,9.480253220,0.159938650,-0.103570540,-0.027483710
1640834365.599300,-0.215585020,0.745799180,9.044481280,0.000090900,0.076217940,-0.000107290
1640834365.603870,-0.164734970,0.491247330,9.765056610,-0.190594790,0.082942840,0.003707410
1640834365.604460,-0.342587530,0.101562720,10.904678340,-0.092443830,0.002910200,0.015403330
1640834365.608850,0.155805560,0.100890700,9.491803170,0.099177670,-0.086836520,0.002972780
1640834365.609300,0.053305230,0.329908190,9.470565800,0.085878380,-0.045281650,-0.012591480
1640834365.617830,-0.067734030,0.535723090,9.528946880,-0.088252130,0.098107760,0.005432960
1640834365.618590,-0.114822840,0.107691910,10.021863940,-0.192840400,-0.000159440,0.027103720
1640834365.621029,-0.286052970,-0.204234450,10.203079220,-0.035312760,-0.071777400,0.010472540
1640834365.621600,0.145596710,0.034844110,8.798161510,0.083222990,-0.036922100,-0.012478230
1640834365.624159,-0.079265360,0.286705700,9.595188140,0.001369420,0.038643180,-0.008337200
1640834365.624950,-0.012218040,0.315257040,9.816925050,-0.116735700,0.091418620,0.004282590
1640834365.628890,0.018848240,-0.120153500,10.232730870,-0.124481340,-0.026834010,0.019302960
1640834365.629570,-0.179793730,-0.344678040,9.932920460,0.036606190,-0.043143320,0.014686580
1640834365.634869,0.108030770,-0.050407770,8.726928710,0.094345200,-0.050336120,-0.014285740
1640834365.636150,-0.058942250,0.075140000,9.425650600,-0.030480320,0.052294140,-0.004073980
1640834365.638780,0.095482010,-0.009213240,9.493203160,-0.112292190,0.139066610,0.014908610
1640834365.639190,-0.120527870,-0.377701700,10.567479130,-0.032775100,-0.020769240,-0.010907650
1640834365.643790,-0.296873450,-0.326350060,10.039537430,0.113305460,-0.059905660,-0.004613400
1640834365.644320,-0.106269350,0.075518270,8.750475880,0.100992640,-0.079426170,-0.017750270
1640834365.651360,-0.441257090,0.089457700,9.630969050,-0.055047880,0.062735390,-0.006064770
1640834365.652740,-0.372505900,-0.004397790,9.701555250,-0.072556740,0.110125540,0.002676250
1640834365.653820,-0.408330740,-0.034712780,10.428747180,0.060200680,-0.078213210,-0.024244190
1640834365.654359,-0.244743420,0.341765310,9.736922260,0.122588890,-0.070802870,-0.009065870
1640834365.658820,0.000513620,0.680992660,8.997352600,0.020036100,-0.026474890,-0.006091600
1640834365.659200,-0.182593420,0.333445700,10.123239520,-0.081779060,0.048832600,0.001809000
1640834365.663900,-0.133644490,0.113580000,10.137729640,-0.016422570,0.018380580,0.006984170
1640834365.665220,-0.098189090,0.117097750,9.959012990,0.100959840,-0.145691630,0.000625850
1640834365.668929,0.094335470,0.333423020,9.203878400,0.048828130,-0.042346120,0.009977820
1640834365.669479,0.148775610,0.364988890,9.201025960,-0.075040760,0.056660190,0.006949900
1640834365.674260,-0.191250410,0.032778340,10.506137850,-0.079220530,0.033259390,0.004817550
1640834365.674970,-0.331567650,-0.026960950,10.209333420,0.041125730,-0.089047860,0.011466450
1640834365.678890,-0.317773310,0.098407570,9.479873660,0.089128320,-0.169329350,0.004965070
1640834365.679410,-0.125306950,0.350080580,8.929954530,-0.028060380,0.007869300,0.016714630
1640834365.684120,0.104608370,0.332588760,9.416009900,-0.110340130,0.092692680,0.024643540
1640834365.686030,0.066424410,-0.094053490,10.661004070,-0.039601330,0.047001240,0.016966460
1640834365.688789,0.110907920,-0.020237590,10.056797030,0.093467540,-0.086620450,0.012212990
1640834365.689250,-0.058412740,-0.095511620,9.257768630,0.095495580,-0.163525360,-0.000026820
1640834365.693869,-0.069323230,-0.042042780,8.861619000,-0.036965310,-0.025817750,0.026905540
1640834365.694670,-0.017930810,-0.092871570,9.204512600,-0.085307660,0.080262130,0.011059640
1640834365.699440,-0.081868660,-0.453443680,10.461055760,0.001163780,0.063169010,-0.009913740
1640834365.700330,-0.122725050,-0.269154280,10.553873060,0.131805260,-0.040905180,-0.000719730
1640834365.703879,-0.233860900,0.065732490,9.529670720,0.130823270,-0.162521020,0.001822410
1640834365.704340,-0.253655110,0.217481080,9.034782410,-0.033375620,-0.084584960,0.035068390
1640834365.708830,-0.241969360,0.122663710,9.115336420,-0.080716620,0.075155500,0.031185150
1640834365.709309,-0.291006120,-0.141017710,10.232541080,0.049003970,0.036536160,-0.001305340
1640834365.717880,-0.223554330,0.232240140,10.707742690,0.185818970,-0.064997380,-0.001172720
1640834365.719620,-0.027182200,0.621090710,9.382395740,0.099016720,-0.136594440,0.007860360
1640834365.719900,-0.054956860,0.523805800,9.460498810,-0.098900500,-0.076667960,0.020654500
1640834365.720219,-0.147141860,0.204519000,9.617564200,-0.089457640,0.068753960,0.023640690
1640834365.724180,-0.248329160,-0.114115280,10.101308820,0.085429850,-0.061270590,0.006508830
1640834365.725380,-0.246631860,0.195126130,10.255650520,0.178430960,-0.116956230,0.011599060
1640834365.728870,0.015643300,0.575758810,8.966305730,0.012359020,-0.080400710,0.029589240
1640834365.729359,0.004097510,0.274537650,9.717690470,-0.164906680,-0.012166800,0.050508980
1640834365.733810,-0.033425930,-0.124540080,10.062686920,-0.065594910,0.053563710,0.036007160
1640834365.734550,-0.176365720,-0.257178780,10.072758670,0.137235240,-0.130257010,0.023651120
1640834365.738839,-0.170885710,0.132307110,9.639775280,0.158771870,-0.145983710,0.034548350
1640834365.739320,0.018007280,0.509950580,8.583805080,-0.064522030,-0.028453770,0.026510660
1640834365.743850,-0.117013360,0.161717580,9.945302010,-0.195087490,0.009128450,0.050708660
1640834365.744380,0.095411560,-0.148256820,10.067687990,-0.018282230,0.048972660,0.028996170
1640834365.750550,0.000391610,-0.133369570,10.062607770,0.182749320,-0.138393010,-0.010655820
1640834365.751430,-0.067073000,0.258537050,9.656406400,0.148239730,-0.114698720,0.032161180
1640834365.753850,0.120122750,0.351744980,8.457364080,-0.097224120,-0.024542210,0.041863320
1640834365.754410,-0.299748300,-0.305911840,10.169292450,-0.160850600,-0.013650960,0.044381620
1640834365.758859,-0.125919580,-0.540259600,9.834501270,0.060899560,0.024075800,0.024205450
1640834365.759250,-0.214310170,-0.282855690,9.740832330,0.220675780,-0.154909460,-0.031942130
1640834365.763929,-0.220215280,0.356253470,9.685248370,0.103318690,-0.081297740,0.018426780
1640834365.764730,0.143521400,0.470507560,8.859540940,-0.140522440,0.026403370,0.045506660
1640834365.768800,-0.311149810,-0.258069070,10.741613390,-0.095038120,-0.007437170,0.025849050
1640834365.769179,-0.160824610,-0.205386360,10.127220150,0.168012100,-0.061303380,0.003322960
1640834365.774299,-0.170600650,0.350468370,9.213432310,0.225709390,-0.212387760,-0.019170340
1640834365.775139,-0.186252390,0.760383130,9.195132260,-0.002251570,-0.031828880,0.010287760
1640834365.779029,-0.034994330,0.631395280,9.375682830,-0.201341550,0.056904550,0.021421910
1640834365.780759,-0.347296360,-0.001795940,10.953259470,-0.047327570,-0.075605500,0.007665160
1640834365.783929,-0.041249120,0.152654600,10.003458020,0.195032340,-0.117965050,-0.006482000
1640834365.785889,-0.035855720,0.645793380,9.305741310,0.128704280,-0.145223720,-0.012663000
1640834365.788830,-0.263128520,0.629745540,9.758929250,-0.121182230,-0.015699860,0.034336750
1640834365.789389,-0.072526070,0.247010250,9.636986730,-0.203011930,-0.033064190,0.033430760
1640834365.793840,-0.193910430,-0.209408300,10.190155030,0.002832710,-0.123158100,0.024519860
1640834365.794479,0.133790220,0.187686710,9.383267400,0.155811010,-0.066171590,0.010904670
1640834365.800020,0.044479980,0.607786720,9.619333270,0.010320540,-0.057542330,-0.002595780
1640834365.800439,-0.251778540,0.481842700,10.337569240,-0.177846860,-0.032779570,0.046470770
1640834365.803890,0.054984290,0.161210850,9.609669690,-0.156618650,-0.110818450,0.046360500
1640834365.804499,-0.045037500,-0.196718290,9.662085530,0.033776470,-0.110572590,0.013798480
1640834365.808869,0.233319150,0.268375430,9.053799630,0.100627540,-0.002653900,0.012297930
1640834365.809280,0.160470470,0.464868070,9.674304960,-0.062841180,-0.002789500,0.016164780
1640834365.813870,-0.094784270,-0.086557900,10.515183450,-0.175273400,-0.034151970,0.050522380
1640834365.816290,0.032225900,-0.502284650,9.743178370,-0.057479750,-0.121586050,0.039283930
1640834365.818859,-0.148529600,-0.571208950,9.281974790,0.103211400,-0.120131680,0.003416840
1640834365.819310,0.033668860,-0.028394020,9.052413940,0.066494940,0.009779630,0.013996660
1640834365.823830,0.059609130,0.193633320,9.682295800,-0.098770880,0.076873610,0.023749470
1640834365.825009,-0.121189220,-0.312586100,10.571831700,-0.102062550,-0.026203700,0.025807330
1640834365.828960,-0.064280820,-0.391631810,10.032814030,0.082868340,-0.120626410,0.012965500
1640834365.829520,-0.248789460,-0.123943100,8.966849330,0.173915940,-0.140498580,0.006751720
1640834365.833830,-0.183166970,0.320061480,8.983117100,0.027544800,-0.022187830,0.008086860
1640834365.834300,-0.165280980,0.229182380,9.698639870,-0.116433200,0.104981670,0.015556810
1640834365.838889,-0.255137770,-0.169705670,10.578401570,-0.028848650,-0.039528310,0.019699340
1640834365.839320,-0.023929630,-0.073336470,10.185629840,0.180973130,-0.139831010,0.003302100
1640834365.843860,-0.016648030,0.332345340,9.071745870,0.138317050,-0.108243530,0.000421700
1640834365.845330,-0.175181310,0.494233790,9.576689720,-0.060583660,-0.017614660,0.027452410
1640834365.849810,-0.164556790,0.085772110,9.967539790,-0.100475560,0.043348970,0.032380220
1640834365.850289,-0.262868580,-0.146217990,10.247828480,0.056253370,-0.114704650,0.017164650
1640834365.853920,0.062842740,0.373912130,9.646409030,0.168152170,-0.110097240,0.011581180
1640834365.854849,0.103923770,0.686874510,9.193695070,0.021773580,-0.015793740,0.012548270
1640834365.858830,-0.186803550,0.616940620,10.242786410,-0.133799030,-0.011402370,0.029200320
1640834365.859500,-0.092272740,0.258241000,10.022166250,-0.067959720,-0.053648650,0.033929940
1640834365.863950,-0.180039610,0.043626130,9.854502680,0.085853050,-0.156842190,0.005207960
1640834365.865720,0.029914680,0.546301010,9.278664590,0.098007920,-0.058625650,0.024898360
1640834365.868810,0.163303150,0.556693850,9.142942430,-0.098700840,0.029031940,0.025875870
1640834365.869170,-0.010169330,0.042637900,10.558478360,-0.157318990,0.009210410,0.035040080
1640834365.874420,0.160891640,-0.225390330,9.940205570,0.005485120,-0.040410460,0.045906010
1640834365.875500,-0.035259550,-0.290424440,9.657639500,0.110006320,-0.170700240,0.016546250
1640834365.878909,-0.074270660,0.139461230,9.276591300,0.027467310,-0.039806950,0.026826560
1640834365.879590,0.160314650,0.134634960,8.851458550,-0.144964500,0.045843430,0.026817630
1640834365.884029,-0.099460280,-0.272955980,10.486722950,-0.098042200,0.042608380,0.019766390
1640834365.884740,0.097115490,-0.161701140,9.976947780,0.088974840,-0.001132490,0.006791950
1640834365.888810,-0.072546250,0.134485290,9.644988060,0.128756450,-0.153933440,0.000639260
1640834365.889200,-0.168750480,0.394859670,9.227485660,0.000788270,-0.033518680,0.034065540
1640834365.893839,-0.022767590,-0.011318040,8.858727460,-0.130009650,0.040282310,0.022901600
1640834365.894569,-0.389436480,-0.469620350,10.308783530,-0.001508000,0.023643670,0.001849230
1640834365.898820,-0.102365590,-0.243210840,9.794783590,0.181049140,-0.036507850,-0.018651790
1640834365.899160,-0.157185440,0.257066820,9.725234990,0.099308790,-0.125601870,-0.006373230
1640834365.903800,-0.111279010,0.244582100,9.353816990,-0.062893340,0.011350220,0.038993360
1640834365.904270,-0.047861010,-0.269308420,9.607412340,-0.072306380,0.030833480,-0.004474820
1640834365.909060,-0.502178790,-0.337349150,10.523215290,0.134450210,-0.059783470,-0.010536610
1640834365.910080,-0.130637120,0.345193000,9.192242620,0.197792050,-0.124198210,-0.014795360
1640834365.913859,-0.034588370,0.752677620,9.149837490,-0.004272160,-0.048373640,-0.017771130
1640834365.917349,-0.144990130,0.647129060,9.882669450,-0.127772990,0.080651050,0.014674660
1640834365.918789,-0.086257140,0.352539060,10.399148940,-0.011475380,-0.024381280,-0.019535420
1640834365.919299,-0.427618800,0.358968910,10.478731160,0.167010740,-0.140984360,-0.027984380
1640834365.924290,-0.121125250,0.766069410,8.922644620,0.118969390,-0.130996120,-0.002177060
1640834365.926070,-0.107337970,0.721202190,9.099891660,-0.115595770,-0.015886130,-0.003160540
1640834365.928890,-0.135969730,0.174333940,9.927266120,-0.170515460,0.081834180,0.024320190
1640834365.929669,0.182064710,-0.197073580,10.139746670,0.024983290,-0.036227700,-0.003799800
1640834365.933830,0.005933040,-0.111086440,10.112853050,0.162377970,-0.127644850,-0.020584460
1640834365.934260,0.181698250,0.312577070,9.083453180,0.028663880,-0.074757640,-0.006949900
1640834365.939200,0.026928760,0.286268290,9.453884120,-0.170764330,0.011686980,0.001972910
1640834365.940029,-0.066285660,-0.126999500,9.970712660,-0.138548030,0.013887880,0.015421210
1640834365.943840,0.248331670,-0.153914120,9.591227530,0.072428570,-0.007410350,-0.020435450
1640834365.944450,0.045131460,0.204913440,9.566512110,0.143115240,-0.015996400,-0.027945640
1640834365.950830,0.022260310,0.586044610,9.500762940,-0.012044610,-0.042083860,0.003902610
1640834365.951360,-0.095163470,0.220430820,9.494650840,-0.163616250,0.000627340,0.018395490
1640834365.953899,-0.191911970,-0.295388370,9.667936330,-0.081466140,-0.005820390,-0.007395450
1640834365.954579,-0.084245270,-0.319088340,9.815435410,0.137744840,0.018143650,-0.034795700
1640834365.959110,-0.150572340,0.058270780,9.586441040,0.133171680,-0.003728270,-0.035558640
1640834365.959509,0.027811640,0.368434250,9.451305390,-0.051978230,-0.011043250,-0.004898010
1640834365.963960,0.026144130,-0.177558620,9.578070640,-0.132735060,0.057683880,0.013622640
1640834365.965030,-0.161128790,-0.584679370,9.999160770,0.038827950,-0.017714500,-0.011344250
1640834365.968780,-0.239807870,-0.273518170,9.733926770,0.236982090,-0.074994560,-0.032244620
1640834365.969200,-0.073311970,0.235761630,8.940542220,0.099097190,-0.026576220,-0.044381620
1640834365.974350,-0.142843510,0.504147830,9.801270480,-0.108866420,0.095091770,-0.024774670
1640834365.975649,-0.165418650,0.234447390,10.434029580,-0.095914310,0.067295130,-0.021635000
1640834365.978860,-0.295872570,0.112942690,10.420303340,0.112910550,-0.121495120,-0.046828390
1640834365.979410,-0.184679000,0.631075500,9.159686090,0.215716700,-0.082947310,-0.036686660
1640834365.984030,-0.174764830,0.754838820,8.931291580,0.007541480,0.021268430,-0.031591940
1640834365.985090,-0.452221420,0.434376810,10.360504150,-0.142678620,0.073066360,0.001890960
1640834365.988860,-0.146415130,0.044713660,10.091538430,-0.035275520,-0.024242700,0.000296530
1640834365.989490,0.017062660,-0.084051040,10.020771980,0.124044720,-0.105515110,-0.032284850
1640834365.993840,0.132808890,0.354033650,9.453542710,0.116559860,0.029389560,-0.032646960
1640834365.994419,0.099413680,0.439006420,9.553080560,-0.074429800,0.027829400,-0.030584630
1640834365.998780,-0.268155010,0.163507060,10.530588150,-0.117748980,-0.020752850,-0.008787210
1640834365.999140,-0.028296780,0.121085090,9.407512660,0.000745060,-0.068824000,-0.019250810
1640834366.004030,-0.021903730,0.393124940,9.324516300,0.068706280,-0.049687930,-0.031386320
1640834366.004599,0.011092930,0.607975540,9.545500760,0.016558180,0.093320030,-0.012914840
1640834366.009150,0.139995100,0.370777640,9.923900600,-0.094795230,0.043430930,-0.012467800
1640834366.009590,-0.093547170,-0.057925700,10.550134660,-0.046022240,-0.024314230,0.008395310
1640834366.013880,0.192761080,-0.287698240,9.345479010,0.059598690,-0.048214200,-0.007864830
1640834366.016170,-0.001582560,-0.122952600,9.385789870,0.044199820,-0.032022600,-0.027577580
1640834366.019670,0.087096700,0.038570920,9.088680270,-0.029803820,0.080867110,-0.020071860
1640834366.020650,0.193758000,-0.230954540,9.697243690,-0.072748960,0.081750760,-0.038440530
1640834366.023820,-0.206321390,-0.340110420,10.593061450,0.036358830,0.041031840,-0.030250850
1640834366.024459,-0.057675500,-0.017368420,9.524473190,0.123056790,-0.071963670,-0.021612650
1640834366.028859,-0.268970340,0.152155770,9.483962060,0.046448410,-0.051671270,-0.020024180
1640834366.029460,-0.178006570,0.227434110,9.120974540,-0.046083330,0.129598380,-0.007903580
1640834366.033919,-0.150191710,-0.122459400,10.085471150,-0.004243850,0.088624660,-0.037200750
1640834366.035300,-0.368783350,-0.078318320,10.509356500,0.133208930,0.004552310,-0.044049320
1640834366.038800,0.171728770,0.436966210,9.000071530,0.129754840,-0.066570950,-0.027319790
1640834366.039280,-0.015755850,0.327840890,9.555981640,-0.015036760,0.049887600,-0.025002660
1640834366.043830,-0.157450780,0.066060270,9.926981930,-0.059501830,0.128817570,-0.018034880
1640834366.044390,-0.164259300,-0.107285090,10.303301810,0.077930090,-0.024852160,-0.032262500
1640834366.051460,-0.230833860,0.128537100,9.949790950,0.160329060,-0.048455600,-0.032389160
1640834366.052510,0.096450130,0.623948400,9.059579850,0.046424580,0.034579640,-0.018949810
1640834366.053880,-0.130907430,0.481339600,9.937861440,-0.098510100,0.095950080,-0.018207730
1640834366.054350,-0.224222060,0.182221900,10.286201480,-0.037693970,0.050042570,-0.017219780
1640834366.059110,-0.157351330,0.179149450,9.966368680,0.132794690,-0.061926250,-0.027373430
1640834366.059630,-0.125626090,0.533813060,9.424380300,0.110679860,-0.030580160,-0.028865040
1640834366.063959,0.018223900,0.853338300,9.267199520,-0.074519220,0.075298560,-0.010767580
1640834366.065150,0.052782080,0.363295110,10.134968760,-0.156693150,0.118413550,0.004746020
1640834366.068859,0.169679550,-0.018301440,10.193345070,-0.003628430,0.063034890,-0.000561770
1640834366.069310,0.218482430,-0.033665390,9.788424490,0.166085380,-0.034573670,-0.021970270
1640834366.073799,0.059006640,0.138514030,9.276038170,0.059804330,0.019033260,-0.004760920
1640834366.074410,0.099297090,0.199475680,9.112845420,-0.118514910,0.069278490,0.012908880
1640834366.078920,0.018032210,-0.364643280,9.895701410,-0.122398150,0.104838630,-0.002922120
1640834366.079630,0.075440410,-0.459308450,9.998558040,0.059847540,0.107580450,-0.025704510
1640834366.084940,-0.027366080,0.026044710,9.844044690,0.197163270,0.019337240,-0.042913850
1640834366.086320,-0.135428970,0.428491560,9.493952750,0.028325620,-0.000621380,-0.014935440
1640834366.088790,-0.152342440,0.349059020,9.207808490,-0.142407390,0.092436380,0.021532180
1640834366.089200,-0.239286810,-0.311696890,9.736427310,-0.054904820,0.114540760,-0.008411710
1640834366.093809,-0.310445790,-0.383999170,10.208287240,0.174033640,0.050869580,-0.034838920
1640834366.094380,-0.024445650,0.256878640,9.276688580,0.211143540,0.025820740,-0.045277190
1640834366.098980,0.134676710,0.475063260,9.402340890,-0.045765940,0.084675860,-0.015392900
1640834366.100090,-0.128231440,0.007643070,10.237890240,-0.142386560,0.159689800,0.013521320
1640834366.103829,-0.188825150,-0.454752980,9.999649050,0.069552670,0.007842480,-0.032918160
1640834366.104339,-0.291967270,-0.140333640,9.752606390,0.248429190,-0.048755110,-0.043053930
1640834366.109190,-0.189721640,0.510382830,8.862207410,0.127281250,0.076596450,-0.038844350
1640834366.109990,-0.218222200,0.613875810,9.807456970,-0.134228180,0.123773520,-0.017331540
1640834366.113920,-0.305496360,0.346983790,10.662376400,-0.095273550,0.124323350,-0.005480650
1640834366.115090,-0.100002900,0.155584600,9.986986160,0.128476340,-0.043791530,-0.033196810
1640834366.119200,-0.107884260,0.650515440,9.643638610,0.196990400,-0.018912560,-0.031177710
1640834366.119809,-0.027448530,0.897667470,9.019039150,0.003361700,0.097885750,-0.010120870
1640834366.123780,-0.167726290,0.437546580,10.137501720,-0.177653120,0.084705640,0.007359680
1640834366.124339,-0.111919710,-0.000054920,10.214063640,-0.045546890,0.056491790,0.019590560
1640834366.128960,0.191650260,-0.178978930,9.439316750,0.133544210,-0.017209350,-0.032339990
1640834366.129910,0.070674610,0.257841860,9.775863650,0.104111430,0.077286370,-0.026647750
1640834366.134300,0.105633400,0.377873210,9.271012310,-0.067946320,0.137655450,0.003935400
1640834366.135000,-0.186418640,-0.194522500,10.414746280,-0.133238720,0.009447330,0.007265810
1640834366.138810,-0.235877750,-0.197909590,9.849815370,0.020968910,0.030782820,0.006593760
1640834366.139230,-0.026040110,-0.047601210,8.853069310,0.124700370,-0.010722880,-0.018367170
1640834366.143900,-0.246437400,0.226902040,9.830089570,0.048440700,0.115838650,-0.018256900
1640834366.144400,0.095394130,0.446264800,9.367565160,-0.089895750,0.168082150,-0.000643730
1640834366.149210,-0.117518630,-0.159711570,10.632257460,-0.061038140,0.024509430,0.000847880
1640834366.151330,-0.093122480,-0.279589350,10.040205960,0.113788250,0.030602510,-0.012815000
1640834366.153920,-0.015098000,0.001195930,8.854557040,0.148312720,-0.050613280,-0.025983150
1640834366.154440,-0.208230500,0.067490680,9.438775060,0.025422870,0.086410350,-0.006785990
1640834366.159170,-0.070268690,-0.076328440,9.458749770,-0.075204680,0.200289520,-0.015050170
1640834366.159930,-0.443449470,-0.352618660,10.940089230,0.041584660,0.004529950,-0.029054280
1640834366.166620,-0.189215020,-0.024094940,9.798488620,0.184229020,-0.035223360,-0.020129980
1640834366.167680,-0.067590930,0.412996200,8.889369960,0.104832660,0.005938110,-0.021618600
1640834366.168800,-0.481101390,0.414593990,10.141362190,-0.024741890,0.128349680,0.002932550
1640834366.169250,-0.275538770,0.292372760,9.884816170,-0.025580830,0.071330370,-0.008115170
1640834366.173790,-0.352397710,0.174694170,10.272804260,0.111080710,-0.079217560,-0.025616590
1640834366.174420,0.050081370,0.602503180,9.275900840,0.138294710,0.032216310,-0.009515880
1640834366.179190,0.103273590,0.776226040,9.468878750,-0.003269320,0.072592510,-0.025375190
1640834366.180140,-0.263747720,0.402374830,10.792176250,-0.068280100,0.079654160,-0.005698200
1640834366.185050,-0.048509080,0.242663310,9.820974350,0.014314050,-0.021025540,0.009031590
1640834366.185720,-0.277136210,0.086115930,9.774097440,0.106713200,-0.107266020,-0.013847650
1640834366.188799,-0.019529370,0.435292070,9.035794260,0.042437030,0.068302450,0.007538500
1640834366.189220,0.051626130,0.398367490,9.416389470,-0.088092680,0.110200050,0.003963710
1640834366.193840,-0.187394930,-0.104099230,10.832240100,-0.051970780,0.070212790,0.014962260
1640834366.196080,0.046076880,-0.095132400,10.028958320,0.077150770,-0.011797250,0.005114080
1640834366.198830,-0.190943810,0.131563830,9.651052470,0.097617520,-0.089728850,-0.004976990
1640834366.199810,-0.091830040,0.336570440,9.074900630,-0.021991140,0.035123530,0.022399430
1640834366.203840,0.103627830,0.152512550,9.199178700,-0.105819110,0.125087800,0.007857380
1640834366.204270,-0.004277640,-0.151118930,10.248090740,0.004290040,0.107292840,0.007653240
1640834366.209400,0.203884210,-0.075708280,10.180480960,0.139921900,0.009882450,-0.009237230
1640834366.210100,-0.045884880,0.127255980,9.753666880,0.100503870,-0.051137810,-0.007753080
1640834366.213879,-0.077074650,0.171249810,9.220891950,-0.048050290,0.013895330,0.024409590
1640834366.214660,-0.188509960,-0.294877380,9.511585240,-0.073382240,0.113660100,-0.005857650
1640834366.218890,-0.418673600,-0.475031140,10.124678610,0.083643200,0.080911820,-0.024075810
1640834366.219300,-0.180041070,0.012484160,9.823681830,0.202150660,-0.018735230,-0.018994510
1640834366.223860,-0.165165660,0.310275790,9.405801770,0.074218210,0.012396280,-0.002267960
1640834366.224429,-0.127599690,0.336314080,9.754639630,-0.075015420,0.083468850,0.019967560
1640834366.229110,-0.232614860,-0.019549850,10.208892820,-0.002124910,0.082270800,0.001834330
1640834366.229780,-0.417520340,-0.092330680,10.241607670,0.165957230,-0.047059360,-0.013732910
1640834366.233780,-0.119615960,0.579479870,9.304437640,0.179260980,-0.045229500,-0.019587580
1640834366.234320,-0.057516240,0.846648040,9.162755010,-0.036352880,0.077477100,-0.013704600
1640834366.238870,-0.232266560,0.542170520,10.326447490,-0.140503060,0.098006430,0.007076560
1640834366.239240,-0.153628630,0.163666230,10.330503460,0.031875080,0.014562910,-0.007399920
1640834366.244170,-0.317405460,0.209209290,9.937816620,0.185970980,-0.099305820,-0.019997360
1640834366.245980,-0.171752560,0.719314520,9.344173430,0.085996100,-0.014312570,-0.001296400
1640834366.248900,-0.119562510,0.675466000,9.338435170,-0.160001230,0.098167360,0.021959840
1640834366.251370,-0.176811680,0.164211260,10.453451160,-0.168219210,0.060355670,0.022183360
1640834366.253830,0.055194210,-0.084617630,10.220134740,0.064747040,-0.005854670,0.001239780
1640834366.254320,0.047615380,0.213457900,9.468836780,0.154617470,-0.054530810,-0.011672080
1640834366.259230,0.047978310,0.643148180,9.428263660,-0.010512770,0.015294550,0.003363190
1640834366.260670,-0.046075080,0.365511390,9.663764000,-0.219506060,0.071050250,0.018574300
1640834366.263919,0.046450190,-0.061141060,9.994173050,-0.133669380,0.026571750,0.022690000
1640834366.265879,0.247811030,-0.205306620,9.797641750,0.109887120,0.051291300,-0.006587800
1640834366.268810,0.078380620,0.210761490,9.798027990,0.106929230,0.029841070,-0.014531610
1640834366.269280,-0.021067040,0.420915930,9.726556780,-0.066973270,0.029526650,0.022584200
1640834366.273820,-0.114642900,-0.140669290,9.608053210,-0.189830350,0.018844010,0.033549960
1640834366.274780,-0.304559560,-0.576094210,9.881095890,-0.046868610,0.023509560,0.013174120
1640834366.279060,-0.153880490,-0.380259990,9.289478300,0.159704700,0.054435440,-0.020165740
1640834366.280609,-0.138939160,0.155748720,9.748528480,0.084741410,0.043483080,-0.020508470
1640834366.284940,-0.128643810,0.348981800,9.906790730,-0.095765290,0.114455820,0.025419890
1640834366.285620,-0.106886170,-0.156002360,10.062880520,-0.134241580,0.020721560,0.016465780
1640834366.288780,-0.399572640,-0.368608060,10.260319710,0.082215670,-0.031299890,0.012010340
1640834366.289240,-0.130212710,-0.043675740,8.808853150,0.206169490,-0.006988650,-0.005632640
1640834366.294260,-0.150856360,0.375727860,9.456171040,0.033643840,0.054863100,-0.012078880
1640834366.295420,-0.141915520,0.324041070,10.072828290,-0.118994710,0.170506520,0.013826790
1640834366.298960,-0.113187780,-0.098034620,10.455202100,-0.052051250,-0.019851330,-0.004720690
1640834366.299379,-0.305581360,0.116233960,10.213812830,0.142928960,-0.072799630,-0.019283590
1640834366.303900,-0.191015820,0.497137840,8.906828880,0.130765150,-0.027692320,-0.007659200
1640834366.304479,-0.432780120,0.443886970,9.828734400,-0.050559640,0.047004220,0.001695750
1640834366.308840,-0.455112070,0.274264870,10.092041020,-0.085383650,0.091712180,0.018030410
1640834366.309480,-0.252005930,-0.049288740,10.252219200,0.026533010,-0.078776480,0.015340750
1640834366.314260,-0.136246800,0.186887460,9.916046140,0.109641270,-0.016324220,0.008815530
1640834366.317560,0.081755760,0.547582210,9.225485800,0.020582970,0.014209750,-0.011655690
1640834366.318810,-0.224640640,0.300311150,10.557322500,-0.095801040,0.004862250,0.000697370
1640834366.319200,-0.208703380,0.241534170,9.821651460,-0.048656770,-0.007577240,0.001724060
1640834366.323930,-0.036999010,0.247312660,9.638177870,0.029513240,-0.135908990,-0.007951260
1640834366.324550,0.012098490,0.468789790,9.637187000,0.022734700,0.051434330,0.003536050
1640834366.328909,0.149565130,0.639754350,9.447423930,-0.071175400,0.071965170,0.000108780
1640834366.329550,-0.165982890,0.175698550,10.978137020,-0.091956560,-0.028850140,0.024966900
1640834366.333890,-0.003424190,-0.075535580,9.718035700,-0.004124640,-0.025130810,0.028973820
1640834366.334560,0.000874550,-0.106158910,9.218399050,0.038921830,-0.107291330,0.002551080
1640834366.338869,-0.075434560,0.080601480,9.424339290,-0.022315980,0.067745130,0.028543170
1640834366.339969,0.183378590,0.015239010,9.250097270,-0.119228650,0.092101090,0.022472440
1640834366.343850,-0.090182080,-0.332434650,10.775381090,-0.046660010,0.012350080,0.016005340
1640834366.344410,-0.007721500,-0.239807610,9.901814460,0.076071930,-0.017388160,0.006616120
1640834366.349850,-0.109067890,0.060968750,9.457946780,0.065065930,-0.104255970,-0.005488100
1640834366.350540,-0.148588310,0.213426010,9.292477610,-0.060132150,0.056670610,0.021089610
1640834366.353819,-0.016571530,0.060634530,9.308218000,-0.105589650,0.102031250,0.003947320
1640834366.355029,-0.333659200,-0.267215070,10.662166600,0.031711160,0.026559830,-0.000421700
1640834366.359220,-0.045979260,0.046164030,9.597133640,0.142563880,-0.038206580,0.008867680
1640834366.360210,-0.080224300,0.256873730,9.416510580,0.056360670,-0.064186770,0.019432610
1640834366.363870,-0.200912640,0.033004420,9.801496510,-0.088112060,0.094212590,0.053201620
1640834366.365340,-0.154350250,-0.181960930,9.899729730,-0.049602990,0.050698220,0.015318390
1640834366.368820,-0.410573750,-0.388741730,10.404104230,0.130446260,-0.060930850,-0.001601870
1640834366.369300,-0.000154940,0.254337820,9.053298950,0.144001870,-0.033921010,0.001879040
1640834366.373790,-0.131719840,0.591844380,9.296279910,-0.021587310,0.023782260,0.003258880
1640834366.374430,-0.418994900,0.337765280,10.484255790,-0.117857760,0.058636080,0.022131210
1640834366.378870,-0.331994470,0.210346610,10.187664990,0.003510710,-0.048939880,0.016517930
1640834366.379639,-0.457842740,0.235400420,10.036190030,0.148056430,-0.119143720,-0.008277590
1640834366.384310,-0.191451280,0.792882380,9.432390210,0.051940980,0.003972650,0.013607740
1640834366.385020,-0.216888010,0.818021950,9.757850650,-0.123229620,0.049351160,0.029674170
1640834366.388830,-0.149556670,0.250153090,10.406157490,-0.134490450,-0.009153780,0.043514370
1640834366.389289,0.218869370,0.032685800,9.689513210,0.039191540,-0.053805120,0.038354100
1640834366.393810,0.050661360,0.057769610,9.483764650,0.117771350,-0.063148150,0.015971060
1640834366.394379,0.033127540,0.492349270,9.660938260,-0.032122430,-0.009313230,0.024870040
1640834366.398870,-0.141711220,0.289795910,9.916476250,-0.189675390,-0.007323920,0.043584410
1640834366.399410,-0.111746740,-0.166451160,10.021014210,-0.115199390,-0.032822790,0.028195980
1640834366.403900,0.063643740,0.014032630,9.651032450,0.070181500,-0.000169870,-0.007259840
1640834366.404480,-0.174385030,0.347055440,9.736665730,0.069716580,-0.020809470,-0.006447730
1640834366.408840,-0.102500310,0.542937930,9.688205720,-0.089807820,-0.021077690,0.042279060
1640834366.409309,-0.139346200,-0.034284810,9.694988250,-0.166133060,-0.024141370,0.043053930
1640834366.416620,-0.067455000,-0.488282050,9.775733950,-0.037586690,-0.024372340,0.034235430
1640834366.417470,0.140189050,-0.204469010,9.514786720,0.121830420,0.017935040,0.006961820
1640834366.418939,0.164963300,0.133938670,9.697019580,0.024683770,0.005637110,0.003112850
1640834366.419900,0.044632560,0.152102320,10.283688550,-0.129050030,0.025907160,0.044132770
1640834366.423820,-0.090883100,-0.328470320,9.770676610,-0.089058280,-0.026886170,0.020678340
1640834366.424860,-0.303654190,-0.489990170,9.599593160,0.088152290,-0.113311420,-0.005076830
1640834366.428870,-0.119317390,0.159005480,8.912606240,0.139321400,0.014437740,-0.002457200
1640834366.429459,-0.117217460,0.433637470,9.344596860,-0.051809850,0.090105820,0.007331370
1640834366.433900,-0.337924810,0.170751800,11.029044150,-0.115965330,0.054655970,0.020135940
1640834366.434870,-0.195544910,-0.009266390,10.178116800,0.021582840,-0.067934390,0.002682210
1640834366.438809,-0.280905600,0.157226590,9.602661130,0.144806520,-0.157260890,-0.008264180
1640834366.439340,-0.209354850,0.594150540,9.038387300,0.061914330,0.032316150,0.002400580
1640834366.443820,-0.238848970,0.520526050,9.466779710,-0.121392310,0.063407420,-0.002048910
1640834366.444399,-0.356029870,0.173367470,10.766798970,-0.082574780,-0.013968350,0.027674430
1640834366.448840,0.071984400,0.131275950,9.767146110,0.065073370,-0.075364140,0.004348160
1640834366.450950,-0.014080430,0.390483230,9.734737400,0.070837140,-0.087007890,-0.003439190
1640834366.453840,-0.098480470,0.583410620,9.904549600,-0.049698360,0.038594010,0.012442470
1640834366.454340,-0.203276890,0.252964680,10.093806270,-0.145325060,-0.027383870,0.008076430
1640834366.458850,-0.286621120,0.194987680,10.262837410,-0.032989680,-0.106844310,0.012576580
1640834366.459290,0.135117400,0.395157370,9.048990250,0.032132860,-0.037479400,-0.007927420
1640834366.464680,-0.113331220,0.565771880,9.859890940,-0.052206220,0.003182890,-0.028027590
1640834366.466009,-0.159423710,0.633982540,10.138048170,-0.126074270,0.036843130,0.010517240
1640834366.470630,-0.107645310,0.200501990,10.051398280,-0.116114340,-0.088660430,0.003929440
1640834366.471099,-0.236826630,0.150064620,10.047595980,-0.035431980,-0.096449240,0.009877980
1640834366.473830,0.239750920,0.435162900,8.805929180,-0.034828490,0.004750490,0.011374060
1640834366.475400,0.107352950,0.233445150,9.906893730,-0.137148810,0.038571660,0.011295080
1640834366.478839,0.163010330,-0.005413000,10.254835130,-0.121605420,0.075642760,0.030575700
1640834366.479339,0.150578530,-0.248066470,9.942962650,-0.054630640,-0.081825260,0.013090670
1640834366.484320,-0.182269500,-0.273918750,9.938715930,0.003734230,-0.109386450,0.006385150
1640834366.485600,0.043283860,0.049812360,8.691183090,-0.065250690,0.003892180,0.000695880
1640834366.488799,-0.083104030,-0.029759460,9.683589940,-0.155761840,0.062930590,-0.004845860
1640834366.489159,-0.102188180,-0.169586240,10.351684570,-0.074395540,0.119781500,0.003768500
1640834366.493880,0.010868910,-0.147573280,10.158737180,0.041599570,-0.056226550,-0.014896690
1640834366.494730,-0.235928880,0.180121560,9.728116040,0.047872970,-0.095990320,0.000484290
1640834366.498829,-0.004079760,0.251765310,8.627787590,-0.080643600,0.000579660,0.024801490
1640834366.499390,-0.274646460,-0.264909240,9.768773080,-0.131683050,0.079302500,0.010029970
1640834366.503820,-0.273394500,-0.363599720,10.110427860,0.030364100,0.073938080,0.002846120
1640834366.504269,-0.055374880,-0.103882720,10.050325390,0.119738290,-0.076133010,-0.015911460
1640834366.509070,-0.096998760,0.233734610,9.695578580,0.013741850,-0.010731820,0.006806850
1640834366.509539,0.002243230,0.185973080,9.336458210,-0.111562020,0.041346240,0.016084310
1640834366.518329,-0.331351520,-0.393906060,10.328266140,-0.039319690,0.022414330,-0.015404820
1640834366.519080,-0.275956870,-0.162816200,9.696606640,0.143192710,-0.042213500,-0.020684300
1640834366.519379,0.001844780,0.454814310,9.205993650,0.122284900,-0.073897850,-0.030708320
1640834366.519719,-0.024696240,0.681391540,9.706418040,-0.090500710,0.095248230,-0.002002720
1640834366.523810,-0.073820350,0.456020470,10.354833600,-0.141516330,0.068867210,0.005716090
1640834366.524340,-0.343217730,0.085057080,10.811151500,0.046367940,-0.083167860,-0.014169520
1640834366.528869,-0.349934190,0.378324570,9.448600770,0.156295300,-0.128182780,-0.014024970
1640834366.529450,-0.128228710,0.834108890,8.710877420,0.006553530,-0.019207590,-0.012528900
1640834366.534659,-0.255119860,0.661268530,9.862247470,-0.205451220,0.119042380,0.012195110
1640834366.535260,-0.144667760,0.190265980,10.602705000,-0.138285760,0.035896900,0.005076830
1640834366.538859,0.035681290,-0.001406460,10.358591080,0.082369160,-0.102496150,-0.011476870
1640834366.539290,-0.011586000,0.342473720,9.617357250,0.093631450,-0.070106990,-0.025205310
1640834366.543850,-0.045113790,0.679889800,9.541858670,-0.114722550,0.017377730,-0.015018880
1640834366.544400,-0.224360730,0.414644870,10.097264290,-0.256668030,0.021986660,0.009305780
1640834366.552379,0.050559790,0.189396750,9.809296610,-0.119704020,-0.028082730,-0.000177320
1640834366.553150,0.209819440,0.143770690,9.603364940,0.064997370,0.001697240,-0.021764630
1640834366.553769,0.110420610,0.492250110,9.682924270,0.010097030,0.046204030,-0.018648800
1640834366.554270,-0.060412840,0.481766700,10.119066240,-0.161398980,-0.004205110,0.002756720
1640834366.559270,-0.203435360,-0.136469810,10.007550240,-0.226880620,-0.048166510,0.017422430
1640834366.560380,0.029852820,-0.290324600,9.161895750,-0.074006600,-0.001658500,-0.000813600
1640834366.564030,0.019392470,-0.240151840,9.513764380,0.049611930,0.077018140,-0.028190020
1640834366.565009,0.098448390,0.155927460,10.023898120,-0.031515960,0.095106650,-0.018934910
1640834366.568820,0.089485240,0.174688090,10.053304670,-0.143046690,0.030334300,0.000579660
1640834366.569219,0.020139650,-0.385429110,9.962620740,-0.144118090,-0.024676320,0.007715820
1640834366.573789,-0.096853670,-0.495159800,9.414438250,0.016196070,0.016565620,-0.024367870
1640834366.574260,-0.136354730,-0.145660420,9.087668420,0.088892880,0.028680260,-0.045397880
1640834366.578990,-0.139680210,0.228326160,9.804577830,-0.037111350,0.074847030,-0.027653570
1640834366.580530,-0.099518020,0.289372830,9.944185260,-0.146958220,0.130267410,-0.008410210
1640834366.584349,-0.226625620,-0.206432580,10.571175580,-0.073018670,-0.001765790,-0.019785760
1640834366.585260,-0.482130050,-0.182930620,10.266758920,0.116907060,-0.031504040,-0.030076500
1640834366.588820,-0.257976890,0.299496770,8.750297550,0.105480860,-0.051771100,-0.026802710
1640834366.589310,-0.118458250,0.492214800,9.399228100,-0.099845250,0.093144180,-0.008685890
1640834366.593959,-0.005563690,0.253929140,9.968833920,-0.159703210,0.212587430,-0.005210940
1640834366.600459,-0.122783240,-0.081320060,10.975788120,0.001589950,-0.032444300,-0.030241910
1640834366.600920,-0.151862890,0.197600410,10.157560350,0.158073010,-0.092001270,-0.040559470
1640834366.601290,-0.081038480,0.621654990,8.682157520,0.024433440,-0.048038360,-0.045794250
1640834366.603760,-0.230650070,0.644292000,9.739315990,-0.191733260,0.101976100,-0.026197730
1640834366.604400,-0.177485260,0.339858830,10.093929290,-0.152665350,0.156025570,-0.024563070
1640834366.608840,-0.194596320,0.143285720,10.657175060,0.032837690,-0.064578650,-0.041808190
1640834366.609959,-0.091816650,0.496647450,9.802291870,0.107108060,-0.025233630,-0.019362570
1640834366.614030,-0.074543030,0.599741940,8.948637960,-0.064055620,-0.003296140,-0.018329920
1640834366.615080,-0.325761800,0.225824610,10.265905380,-0.211337210,0.050981350,0.007812680
1640834366.618909,-0.007691610,0.000734150,9.536872860,-0.121213500,0.079610950,0.010629000
1640834366.619310,0.107454030,-0.198929710,10.011689190,0.036245580,-0.029101970,-0.042930250
1640834366.623809,0.175410630,0.194866880,9.822749140,0.057166810,0.088617210,-0.023120640
1640834366.624410,0.233052810,0.327485920,9.263381000,-0.099356480,0.026853380,-0.020970410
1640834366.629060,-0.173483240,-0.088154090,10.395486830,-0.160379710,-0.005064900,-0.007122760
1640834366.630190,-0.045224790,-0.187200550,9.258798600,-0.067682560,0.058013190,-0.010599200
1640834366.634339,-0.268537700,-0.283889380,9.679486270,0.060313940,-0.009600820,-0.040832170
1640834366.634879,-0.336191680,0.084277920,9.892860410,0.049164900,0.091454390,-0.032137340
1640834366.638759,-0.071096720,0.301076710,9.436141970,-0.095978380,0.040529670,-0.028726460
1640834366.639200,-0.258768860,0.007455610,10.370983120,-0.124277170,0.038205090,-0.005187090
1640834366.643859,-0.014486150,-0.188571890,9.642418860,-0.002726910,0.055275860,-0.014941390
1640834366.645040,-0.272949610,-0.123208630,9.844629290,0.109918420,-0.037401920,-0.042290990
1640834366.649279,-0.125882640,0.234774050,9.440313340,0.058016180,0.028392670,-0.022192300
1640834366.649920,0.166822050,0.357624770,9.319546700,-0.113546860,0.079287600,-0.033070150
1640834366.653810,-0.282942770,0.044340300,10.721416470,-0.105819110,0.098830460,-0.026018920
1640834366.654340,-0.102061380,0.078030240,10.281216620,0.052621960,-0.014184420,-0.037755080
1640834366.659040,-0.338975430,0.268948200,9.850194930,0.117857760,-0.097681600,-0.055404010
1640834366.660800,-0.305114330,0.640698850,9.157573700,-0.005131960,0.020489100,-0.022298100
1640834366.663859,-0.142647330,0.606115460,9.519674300,-0.147609410,0.103592870,-0.022076070
1640834366.665470,-0.490346400,0.239198680,10.863759990,-0.095877060,0.069540740,-0.015820560
1640834366.668759,-0.029684670,0.326204600,10.097406390,0.057902930,-0.055637960,-0.013898310
1640834366.669220,0.073478270,0.402779370,9.554414750,0.069223330,-0.050097700,-0.024642050
1640834366.673810,-0.001419190,0.497229040,9.529963490,-0.085511810,0.068192190,-0.007306040
1640834366.674830,0.088716370,0.369611440,9.844614030,-0.174726550,0.079666090,0.000555810
1640834366.678850,-0.267179970,-0.085481470,10.559145930,-0.079634790,-0.022672120,-0.006431340
1640834366.679469,0.094291670,0.099094620,9.570214270,0.043846670,-0.045053650,-0.008001920
1640834366.683820,0.182128440,0.272015040,9.101514820,0.001895430,0.052905090,-0.017149750
1640834366.684350,-0.010329950,0.275741400,9.874014850,-0.124654190,0.104716440,-0.003446640
1640834366.688809,-0.033439340,-0.003442060,10.328166960,-0.117886070,0.060060620,0.014221670
1640834366.689210,-0.271229510,-0.346264510,9.997471810,-0.011567770,-0.053940710,-0.000353160
1640834366.693950,-0.210344880,-0.194760220,9.361333850,0.064931810,-0.034308430,-0.003303590
1640834366.694579,-0.106419150,-0.037316070,9.131072040,0.000220540,0.094866770,-0.010024010
1640834366.698740,-0.044885900,0.120492140,9.830417630,-0.110073400,0.116859360,0.004428630
1640834366.699220,0.048631370,-0.119535730,10.439126970,-0.056786840,0.088773680,0.006283820
1640834366.703740,-0.005378350,-0.387436840,10.086986540,0.064274670,-0.020994250,-0.017447770
1640834366.704219,-0.088792250,-0.083889770,9.499296190,0.136549770,-0.045610970,-0.011265280
1640834366.708900,-0.009545460,0.064372310,8.924460410,0.025092070,0.056679560,-0.011135640
1640834366.712679,-0.087330150,0.062430930,9.720165250,-0.108107930,0.129143860,-0.002154710
1640834366.714049,-0.126796080,-0.154052640,10.421596530,0.004145500,0.125524400,0.002598760
1640834366.714990,-0.161253500,-0.175522770,10.430123330,0.149419890,-0.048574800,-0.022153550
1640834366.719010,-0.255130500,0.343157290,9.675552370,0.149337950,-0.035220390,0.001849230
1640834366.719509,-0.159224080,0.409134860,8.986051560,-0.018659230,0.060051680,0.011472400
1640834366.724419,-0.411323070,0.072783130,10.272671700,-0.094677520,0.107629600,0.005346540
1640834366.725690,-0.325989960,0.023628250,10.191258430,0.070936980,0.065511470,-0.000444050
1640834366.728850,-0.094913040,0.264998380,9.983095170,0.161981600,-0.083279610,-0.022478400
1640834366.729780,-0.016048060,0.710243820,9.696564670,0.067643830,0.046180190,0.004702810
1640834366.733840,0.146859770,0.597746130,9.401290890,-0.097358230,0.090236960,0.015127660
1640834366.734330,-0.191416710,0.079187150,10.890002250,-0.060762470,0.059503320,0.011754040
1640834366.738870,-0.157423660,0.149044190,10.038830760,0.119318080,-0.011801720,0.016124550
1640834366.740170,0.043908890,0.438640740,9.348084450,0.113701830,-0.094544890,0.005388260
1640834366.743820,0.005450410,0.700113530,9.490056040,-0.064656120,0.126983200,0.019972020
1640834366.744390,0.048321560,0.358737350,9.850312230,-0.155974920,0.127604620,0.021231170
1640834366.748839,-0.178092670,-0.074000510,10.942538260,-0.014451150,0.015804170,0.014762580
1640834366.749379,-0.129198430,0.055932420,9.686820980,0.140625220,-0.039839740,0.010131300
1640834366.753780,-0.132859360,0.225762370,9.240799900,0.054371360,-0.055050860,0.016179680
1640834366.754300,-0.127080220,0.226146310,9.418022160,-0.116026410,0.132362540,0.045424700
1640834366.759130,0.179400640,-0.119561450,9.658561710,-0.130856050,0.123737750,0.026045740
1640834366.760259,0.030825770,-0.371925920,10.928314210,0.058157750,0.062324110,0.029562420
1640834366.764789,0.187350510,0.049903100,9.596213340,0.157821190,-0.002479550,0.011067090
1640834366.765470,-0.035017300,0.228029150,9.573925970,0.021849570,-0.081636010,0.013132400
1640834366.768839,-0.082922350,0.132788480,9.243157390,-0.115382670,0.107453760,0.044798850
1640834366.769220,0.015107800,-0.265115110,9.346218110,-0.059406470,0.123576840,0.008094310
1640834366.773870,-0.439332900,-0.383986470,11.016747470,0.134494920,0.076229860,-0.014762580
1640834366.774629,-0.153145750,0.212436880,9.642667770,0.165592120,-0.014595690,0.004240870
1640834366.778910,-0.251068500,0.258417370,9.468849180,0.007337330,-0.056788320,0.019887090
1640834366.779500,-0.226151450,-0.059472910,9.568280220,-0.089633450,0.133790090,0.040565420
1640834366.784020,-0.215125200,-0.363421920,9.840863230,0.035452850,0.104671720,0.006471570
1640834366.785230,-0.474645560,-0.179884250,10.675643920,0.219987350,-0.025475030,-0.008039180
1640834366.788780,0.034689110,0.548116210,9.256305690,0.131553410,-0.025334960,0.006578860
1640834366.789260,-0.022583920,0.659265520,9.450962070,-0.082935390,0.048387050,0.017523770
1640834366.793800,-0.197185610,0.215225530,10.436915400,-0.086863340,0.119379180,0.025680670
1640834366.794410,-0.185348500,0.057840560,10.320569990,0.120635350,-0.002017620,-0.002136830
1640834366.798820,-0.444215210,0.353652570,10.018256190,0.214664650,-0.097101910,0.000202660
1640834366.799280,-0.054450810,0.801966550,8.947687150,0.023750960,0.007487830,0.023114680
1640834366.804109,-0.181077480,0.560202900,9.736004830,-0.168943380,0.120265780,0.031153860
1640834366.804720,-0.210441770,0.091671610,10.719872470,-0.073336050,0.067046290,0.030496720
1640834366.809300,0.070138750,0.083956150,10.149361610,0.143663590,-0.053149470,0.002199410
1640834366.809810,-0.158225790,0.272678970,9.690334320,0.152146830,-0.070160630,0.008362530
1640834366.813920,0.060601140,0.597572090,9.189528470,-0.063624980,0.035469230,0.031462320
1640834366.814710,-0.101697360,0.186296030,9.985715870,-0.182957950,0.079251830,0.037194790
1640834366.819110,-0.076631090,-0.162134320,10.354397770,-0.048296160,0.029055770,0.035066900
1640834366.820730,0.251969460,0.054551920,9.635035510,0.140194590,-0.009453300,0.011962650
1640834366.823860,-0.020423730,0.201901610,9.678409580,0.097876770,0.015513600,0.017137830
1640834366.825559,0.012751400,0.426639710,9.683195110,-0.091451410,0.043387710,0.053207580
1640834366.828920,-0.033556900,-0.014005090,9.686234470,-0.145298210,0.031180680,0.045913450
1640834366.829470,-0.105600210,-0.480372520,9.911282540,0.009526310,0.018048290,0.028514860
1640834366.833809,0.091388270,-0.190694930,9.478769300,0.174216930,0.069104120,-0.001764300
1640834366.834479,-0.069773670,0.155439790,9.625458720,0.079093870,0.034037220,0.005173680
1640834366.838780,-0.075457260,0.234544350,10.012297630,-0.086553400,0.049847360,0.047583880
1640834366.839259,-0.077852730,-0.270197810,9.710783960,-0.093811750,0.062499950,0.043943520
1640834366.843829,-0.278653770,-0.494545880,9.944107060,0.099700690,-0.013059380,0.018341840
1640834366.844400,-0.193883180,-0.075533350,9.428603170,0.222131620,0.025068220,0.001922250
1640834366.851260,-0.009463250,0.374649730,9.048117640,0.054743890,0.060625380,0.008970500
1640834366.852120,-0.169576410,0.212886050,10.196785930,-0.090232490,0.115123400,0.046338140
1640834366.854490,-0.157897290,-0.327742070,10.242633820,0.008174780,0.048166520,0.013412540
1640834366.855290,-0.396723480,-0.255915250,10.109972950,0.211738050,-0.096756230,0.004141030
1640834366.858840,-0.243940030,0.246069830,8.998456950,0.217653810,-0.018404430,0.001883510
1640834366.859460,-0.133715120,0.480256290,9.128479960,-0.031872090,0.100149220,-0.006078180
1640834366.863850,-0.334884170,0.345494780,10.557844160,-0.083363060,0.132991390,0.018356740
1640834366.865620,-0.131002200,0.048275310,10.430567740,0.083033740,-0.027538840,-0.000189240
1640834366.868899,-0.227645010,0.323503350,10.010293960,0.214762990,-0.111630570,-0.008876620
1640834366.869400,-0.207096550,0.762279450,8.996936800,0.121313330,0.010000170,0.005333120
1640834366.873829,-0.235411970,0.551374140,9.630119320,-0.099107640,0.060124700,0.005531310
1640834366.875830,-0.444594770,0.215158690,10.592806820,-0.063112390,0.057071450,0.032442810
1640834366.878880,-0.028649680,0.109090920,9.874941830,0.116214160,-0.070281330,0.006338950
1640834366.879490,-0.037025000,0.328281370,10.009517670,0.139726740,-0.039397190,-0.008530920
1640834366.884009,-0.016603420,0.607456090,9.498188020,-0.003719330,0.074985650,0.004468860
1640834366.886269,-0.190989140,0.217839750,10.286207200,-0.109648700,-0.011764470,0.006364290
1640834366.888769,-0.359237310,0.048617330,10.340842250,-0.011956690,-0.054989760,0.023137030
1640834366.889240,0.152401490,0.214358910,8.827928540,0.085590780,-0.069431970,0.007209180
1640834366.893790,0.113499660,0.358720630,9.780184750,0.029324000,0.067956760,-0.001013280
1640834366.894349,0.067955210,0.485743490,10.177111630,-0.059555480,0.136511030,0.018134720
1640834366.898960,-0.043596050,0.092035380,10.622924800,-0.064977990,-0.077606750,0.026018920
1640834366.899530,-0.170887040,-0.039752340,9.961649890,0.034153470,-0.099413100,0.027179720
1640834366.903880,0.100770970,0.083468770,8.442659380,0.049772860,-0.026302040,0.012227890
1640834366.904470,-0.031667070,0.135817330,9.639200210,-0.013557080,0.098107760,0.013935570
1640834366.908820,0.064189070,0.097506370,10.042014120,-0.062100590,0.145711000,0.020921230
1640834366.909299,0.003421980,-0.285877500,10.617470740,-0.000508130,-0.044415890,0.014042850
1640834366.913900,-0.131970380,-0.380179550,10.065211300,0.113645200,-0.059933960,0.012348590
1640834366.917760,-0.057676670,-0.037447610,8.749971390,0.089779500,-0.048053260,-0.006455180
1640834366.918820,-0.251050320,-0.048721680,9.622822760,-0.028789050,0.053730610,0.019562250
1640834366.919270,0.005890410,-0.115552190,9.472290040,-0.035090740,0.166703780,0.009191030
1640834366.924239,-0.132890550,-0.280268160,10.546912190,0.093036890,-0.004081430,-0.013650960
1640834366.925459,-0.121685650,0.014355600,10.207158090,0.177112210,-0.040294220,0.004276630
1640834366.928969,0.068976660,0.457325760,8.810819630,0.069986280,-0.043472640,0.003695490
1640834366.929530,-0.327455220,0.043004700,9.866200450,-0.038446490,0.058548160,0.022546950
1640834366.934280,-0.235063450,-0.291905580,9.779759410,0.039920210,0.108076640,0.006353860
1640834366.935109,-0.328320680,-0.267459120,10.179452900,0.218731210,-0.060287130,-0.022289160
1640834366.938840,-0.183826340,0.099989760,9.761107440,0.195407910,-0.029505790,0.006176530
1640834366.939299,-0.077534760,0.417645750,9.167152400,0.004430120,0.037135180,0.009204450
1640834366.943820,-0.523803170,-0.051178760,10.568644520,-0.035408140,0.022703410,-0.001885000
1640834366.944470,-0.342640190,-0.160224630,10.063878060,0.135870290,-0.032269950,-0.019134590
1640834366.950310,-0.281609060,0.345066640,9.431515690,0.242787610,-0.106859190,-0.041016940
1640834366.951120,-0.141772880,0.788021740,9.564695360,0.095106670,0.029727820,-0.006924570
1640834366.953760,-0.024620850,0.799733520,9.964890480,-0.083996360,0.092963880,0.011473890
1640834366.954280,-0.401246460,0.273742940,10.897027020,0.001245740,-0.059323010,0.016301870
1640834366.958799,-0.199289860,0.177053240,9.852088930,0.190977750,-0.133904830,0.005166230
1640834366.959260,-0.171210440,0.508371060,8.927730560,0.169417310,-0.078316030,-0.012280050
1640834366.964030,-0.319042120,0.612987700,9.687820430,-0.033840540,0.054830320,0.013265010
1640834366.965050,-0.031299900,0.328628810,10.298451420,-0.123728810,0.042271620,0.016878550
1640834366.968809,-0.102333870,-0.075899740,10.610137940,0.018692010,-0.072848800,-0.001092260
1640834366.969280,0.143062350,0.245067150,9.659669880,0.156900300,-0.083716210,-0.012737520
1640834366.974640,-0.010796890,0.590813280,9.509231570,0.064216560,-0.038801140,-0.020913780
1640834366.975590,-0.231719020,0.522156480,9.851934430,-0.110118090,-0.013710560,0.024317200
1640834366.978890,0.151219200,0.259924380,9.553736690,-0.113227970,-0.019857280,0.034733120
1640834366.979980,0.133540290,-0.176463900,9.890232090,0.044833120,0.005958970,0.012661520
1640834366.985570,0.177431300,0.113319910,9.932703970,0.134100020,0.010664760,0.009956960
1640834366.986100,0.038918840,0.319679530,9.892027850,0.019168850,-0.034895530,0.012804570
1640834366.988770,-0.301087320,-0.063496430,9.990034100,-0.120511650,-0.070582320,0.031761820
1640834366.989280,-0.014718270,-0.406706330,9.234323500,-0.046236810,-0.029146680,0.012949110
1640834366.993830,-0.139618520,-0.453941430,9.465033530,0.114366410,0.025664270,-0.030267240
1640834366.995319,-0.111280300,0.137065280,9.995347020,0.132258250,0.025723880,-0.015780330
1640834366.998819,-0.002990530,0.365959440,9.941178320,-0.019232930,0.011499230,0.001427530
1640834366.999320,-0.244292500,-0.074822930,10.151624680,-0.079563250,-0.062470130,0.015249850
1640834367.003820,-0.222333610,-0.248112810,9.772909160,0.079993900,-0.063514710,0.007171930
1640834367.004289,-0.200204550,0.032816310,9.110755920,0.174261640,-0.040675700,-0.014799840
1640834367.008790,-0.182115330,0.528851270,9.726050380,0.054658950,0.019003450,-0.006139280
1640834367.009300,-0.063334350,0.383545700,10.093585970,-0.065679850,0.072252760,0.013303760
1640834367.013949,-0.202899290,-0.040773320,10.538085940,-0.016412140,-0.067225100,-0.001010300
1640834367.014840,-0.188283640,0.045631170,9.907542230,0.165237500,-0.125008820,-0.012648110
1640834367.018999,-0.202468990,0.308707740,9.163136480,0.132459400,-0.064036260,-0.006005170
1640834367.019889,-0.342727120,0.504042390,9.899713520,-0.039820380,0.029860440,0.004316870
1640834367.023820,-0.283062400,0.268586840,10.402527810,-0.068618360,0.026974080,0.015035270
1640834367.024619,-0.201471870,-0.038355210,10.430655480,0.038179760,-0.115849080,0.012113150
1640834367.028940,-0.016655110,0.317768660,9.601935390,0.158602010,-0.087118160,-0.000916420
1640834367.030160,-0.005209890,0.517972350,9.450396540,0.039698180,-0.014854970,-0.004409250
1640834367.033779,-0.256963970,0.536854570,10.316756250,-0.098349160,-0.001783670,0.026057660
1640834367.034299,-0.176126180,0.191543390,10.018136980,-0.038458410,-0.086984050,0.030212110
1640834367.038810,-0.015661650,-0.019917190,9.874547000,0.061909870,-0.115522760,0.005432960
1640834367.039280,0.067507500,0.349072220,9.488680840,0.094845910,0.010167060,-0.004513560
1640834367.043870,0.097664800,0.346068290,9.735582350,-0.019906460,-0.008848310,0.002087650
1640834367.045300,-0.039370950,-0.054967180,10.467592240,-0.080724080,-0.018054250,0.027209520
1640834367.049360,-0.000998250,-0.421801720,9.703116420,0.032043460,-0.070002680,0.019052630
1640834367.049970,-0.172955410,-0.430877660,9.801570890,0.131936370,-0.135900100,0.004367530
1640834367.053769,-0.225829750,-0.058511600,9.312929150,0.083051620,-0.012624260,0.010246040
1640834367.054360,-0.093044180,-0.045475410,9.471492770,-0.050134970,0.004376470,-0.008726120
1640834367.058869,-0.360687170,-0.183722960,10.856476780,-0.016276540,0.015044210,-0.003175440
1640834367.059589,-0.292018180,-0.144715650,9.953519820,0.135718290,-0.108161580,-0.015059120
1640834367.063850,-0.242035720,0.279057620,9.602834700,0.157174470,-0.182044510,-0.009332600
1640834367.065440,-0.194574480,0.558403130,9.195929530,0.026099390,0.023409720,0.034661590
1640834367.068780,-0.236742760,0.077260080,10.015247340,-0.049613420,0.011108820,0.025193400
1640834367.069270,-0.510637220,-0.085951630,11.133733750,0.090469430,-0.085796420,0.010405480
1640834367.074110,-0.112790240,0.208477540,9.413686750,0.183039920,-0.176756100,0.000363590
1640834367.075470,-0.057076370,0.399938910,9.559124950,0.074206300,-0.111345950,0.004428620
1640834367.078830,-0.155767380,0.498158960,9.845915790,-0.052155560,0.069092200,0.009080770
1640834367.079490,-0.277409460,-0.003341240,10.440839770,-0.009930130,-0.095774240,-0.000691410
1640834367.083840,-0.407169010,-0.082563880,10.552858350,0.157883730,-0.177271630,0.007344780
