timestamp,accel_x,accel_y,accel_z,gyro_x,gyro_y,gyro_z
1640843942148739840,-0.162452530,0.337745280,9.355539320,0.077503920,-0.148551170,-0.056128210
1640843942151529984,0.055191510,0.712659480,9.094793320,0.033028420,-0.125734480,-0.063700970
1640843942153740032,-0.309502330,0.727293730,10.159651760,0.007517640,-0.053295500,-0.049136590
1640843942156549888,-0.027764240,0.784677980,9.586496350,0.018835070,-0.130862010,-0.046338140
1640843942158819840,-0.114454000,0.714979230,9.713685990,0.059969720,-0.187133250,-0.055478520
1640843942161809920,-0.021481970,0.657153490,9.376790050,0.040553500,-0.063246500,-0.046543770
1640843942163800064,-0.091271770,0.938062010,9.615225790,-0.053374470,-0.080645080,-0.053575630
1640843942166699776,-0.251685470,0.663123190,10.183070180,-0.090689960,-0.137996670,-0.047418480
1640843942168819968,0.218132000,0.290894360,9.197580340,-0.040079650,-0.087779760,-0.050380830
1640843942171929856,0.152114320,0.292918770,9.444849010,0.034438070,-0.063019980,-0.066073240
1640843942174000128,-0.107451900,0.290795560,10.064074520,0.004841390,-0.046205520,-0.044937430
1640843942177229824,-0.008461590,0.486173240,9.566149710,-0.099079310,-0.129950060,-0.029441710
1640843942178789888,-0.095412340,0.151946280,9.557152750,-0.124178830,-0.131177920,-0.021274390
1640843942182080000,0.120925620,-0.013867360,9.282251360,-0.034628810,-0.007627910,-0.044642390
1640843942183749888,0.014371840,0.389644410,9.578246120,0.037106880,-0.007574260,-0.068823990
1640843942186909952,-0.162290300,0.500005900,10.127737050,-0.038996330,-0.073270490,-0.047817820
1640843942189839872,-0.027497560,0.400920960,9.514364240,-0.128629800,-0.086192790,-0.025388600
1640843942191569920,-0.153793110,0.038134680,9.305856700,-0.070691110,-0.069516900,-0.033062700
1640843942193979904,-0.146369320,0.009139890,9.422945020,0.014643370,-0.030477350,-0.039891900
1640843942196709888,0.081031700,0.265072820,9.345984460,0.017280880,0.027695300,-0.032159690
1640843942199139840,0.093287270,0.030421040,9.964832310,-0.064718720,0.019274660,-0.033113370
1640843942201639936,0.029541460,-0.192254660,10.240734100,-0.056402390,-0.038263200,-0.023445490
1640843942203869696,-0.035594210,-0.173735380,9.187558170,0.038018820,-0.103561600,-0.030156980
1640843942206589952,-0.068425100,0.001597650,9.034688950,0.032815340,-0.075261300,-0.045086440
1640843942208839936,-0.141609000,0.251888570,9.243605610,-0.026580690,0.103260590,-0.034952170
1640843942211619840,-0.181942110,0.094975120,9.802863120,-0.025838620,0.032089650,-0.047029560
1640843942214229760,-0.314027070,0.131742840,10.449632640,0.045469400,-0.075455020,-0.049246850
1640843942216669952,-0.131011580,0.552336340,8.965280530,0.071370610,-0.035931170,-0.031150880
1640843942219099904,-0.299233560,0.334479390,9.593362810,-0.019390880,-0.042779750,-0.036978720
1640843942221639936,-0.480715840,0.182571040,9.829452510,-0.002227720,0.058464710,-0.022244450
1640843942223840000,-0.074030460,0.123491260,9.071329120,0.062976780,-0.056704880,-0.038844340
1640843942226619904,-0.081707230,0.148720640,10.071931840,0.071340800,-0.008276110,-0.034862760
1640843942228689920,0.064644410,0.463298200,9.359211920,0.008130070,0.094281140,-0.022467970
1640843942231569920,-0.199620250,0.133615760,10.338942530,-0.023305420,-0.101748120,-0.034768880
1640843942234089728,-0.428333310,0.161993290,9.889219280,0.051881370,-0.051428370,-0.040186940
1640843942236809984,0.027110330,0.483773050,8.456543920,0.063733740,-0.037452570,-0.051741300
1640843942238749952,-0.430850770,0.660520730,10.341336250,-0.000029800,0.043031580,-0.043709580
1640843942241600000,-0.352670490,0.918520630,9.896675110,-0.065545750,0.060105330,-0.025407970
1640843942243699968,-0.173221410,0.671859090,10.055744170,-0.034511080,-0.140747410,-0.029639900
1640843942246779904,-0.394461210,0.620777960,9.969880100,0.034821040,-0.026357170,-0.026266280
1640843942248750080,0.008958900,0.764099900,8.783975600,0.008028740,0.011648240,-0.028179590
1640843942254400000,-0.428321390,0.595630650,10.546367650,-0.068458910,-0.020547210,-0.005172190
1640843942255139840,-0.036031400,0.366052750,9.644028660,-0.088875000,0.018702450,-0.002692640
1640843942256839936,0.325126290,0.222023810,9.488618850,-0.045157970,-0.053592030,-0.023028260
1640843942258710016,-0.106888440,0.276443930,10.311013220,-0.012755390,0.033453110,-0.027823450
1640843942261509888,0.200722500,0.408964430,9.199452400,-0.061519440,0.005656480,-0.026315450
1640843942263699968,-0.269217730,0.309031490,10.226745610,-0.091581050,-0.072596970,-0.020258130
1640843942266710016,-0.223094140,0.216672900,9.386178020,-0.079976030,0.009538230,-0.015737120
1640843942268839936,-0.010443690,0.334305410,9.165184020,-0.048321490,-0.010438260,-0.023406750
1640843942271649792,-0.410375480,0.428586630,10.203841210,-0.045277180,0.062654920,-0.013464690
1640843942273749760,0.026778910,0.289982970,9.572386740,-0.078219180,0.046081830,-0.010074680
1640843942276549888,-0.141485480,0.061123470,10.235209470,-0.059060760,-0.029106440,-0.010742250
1640843942278810112,-0.171459210,0.001749970,9.423020360,-0.017595290,0.008367000,-0.011983510
1640843942281649920,0.108753930,0.017177180,9.056335450,-0.040146710,-0.027100750,-0.007693470
1640843942283939840,-0.060337680,-0.028174940,9.652707100,-0.065143410,0.101538000,-0.009207430
1640843942286759936,0.067589230,-0.167237980,9.763444900,-0.042076410,0.074344870,-0.014880300
1640843942288849920,-0.080002160,-0.106866060,10.175861360,0.040085610,-0.013248620,-0.007075070
1640843942291539968,-0.232006450,0.147502440,9.351120950,0.024905810,-0.013759730,-0.019310420
1640843942293689856,-0.317334230,0.157481300,9.521742820,-0.032541160,-0.008934740,-0.007979570
1640843942296539904,-0.467106520,0.107925240,9.509593010,-0.022552910,0.086541490,-0.006096070
1640843942299209728,-0.330825390,0.125810400,9.569126130,0.028979780,0.010484460,-0.042030220
1640843942302779904,-0.251002310,0.377129640,9.915534970,0.079382960,0.045748060,-0.012283030
1640843942303729920,-0.139440420,0.474330840,9.526078220,0.003884730,0.042742490,-0.017306210
1640843942306599936,-0.335826250,0.029575280,10.401969910,-0.010818240,-0.034081950,0.000759960
1640843942308709888,-0.175447360,0.007366080,9.224892620,0.064311920,0.023049110,-0.000168380
1640843942311579904,-0.068033090,-0.017215060,9.256505970,0.092132400,-0.013057890,-0.031769280
1640843942313789952,-0.183714150,0.237740200,10.099081990,0.047500440,0.108151140,-0.000077490
1640843942316619776,-0.134174970,0.329360310,9.709845540,-0.008322300,0.027081370,-0.011089450
1640843942319069952,-0.365454020,0.071818310,10.403650280,0.033770500,-0.096763660,-0.008107720
1640843942321679872,-0.188641790,0.447752800,9.122877120,0.093592700,0.033518660,-0.008441510
1640843942323899904,-0.333116170,0.582309720,9.522957800,0.059710440,0.015683470,-0.036822260
1640843942326569984,-0.691101910,0.723332640,10.656555180,0.003102420,0.047381230,-0.006158650
1640843942328719872,-0.141480940,0.766368030,9.271593090,-0.027571620,-0.023522970,-0.009450320
1640843942331620096,-0.177694130,0.455275860,10.036918640,0.025561450,-0.044280290,-0.013291840
1640843942334109952,-0.094955380,0.612562950,9.706264500,0.055275860,0.093759600,-0.000630320
1640843942336589824,-0.088256060,0.484899520,9.777092930,0.013116000,-0.019720200,-0.003837050
1640843942338699776,-0.346174930,0.205764800,10.543473240,-0.020110610,-0.044767560,0.017492470
1640843942341539840,0.128484060,0.270267810,9.016519550,-0.032220780,0.023639200,-0.004871190
1640843942343629824,-0.143261880,0.196281310,9.963482860,0.003123280,-0.005826350,-0.008520480
1640843942347040000,-0.254200730,0.371579110,10.124899860,-0.001570580,0.065644080,-0.006595250
1640843942349289984,0.041224520,0.447956410,9.352280620,-0.018484890,-0.019317860,-0.007711350
1640843942351670016,-0.348748450,0.190338940,10.381546970,-0.001284480,-0.010351830,0.007992980
1640843942353750016,-0.156455770,0.469230950,9.333578110,-0.007380550,0.043746830,0.011870270
1640843942356559872,-0.181708560,0.454512600,9.554153440,-0.021111970,-0.039285420,0.015367570
1640843942358690048,-0.141607570,0.206906210,9.920238490,-0.036968290,0.074063240,0.015652180
1640843942361529856,0.210588010,0.219140040,9.353735920,-0.001978870,0.092734400,-0.004096330
1640843942363709952,-0.252250760,0.041889320,10.475616460,0.049236430,-0.023537870,-0.004456940
1640843942367030016,-0.051334430,0.181084080,9.418859480,-0.002376740,-0.006733840,0.011971590
1640843942368809984,-0.028025960,0.010159490,9.182453160,-0.037005540,0.012716650,0.000265240
1640843942371970048,-0.302682970,-0.305011480,10.128746030,-0.002580880,0.088094160,-0.003749130
1640843942373760000,-0.128150850,-0.004452660,9.711667060,0.072534380,0.052331390,-0.009186570
1640843942376509952,-0.169232770,0.227200940,9.751557350,0.075054170,-0.013309720,0.000181790
1640843942379030016,-0.198503170,0.279335080,9.894168850,-0.015850360,0.056125230,0.005185600
1640843942381690112,-0.311890100,0.230429600,9.793994900,0.009621680,0.033673650,0.008794670
1640843942384219904,-0.398136590,0.176712100,9.784446720,0.086706880,-0.024601820,-0.002795460
1640843942386720000,-0.227233320,0.386660400,9.521958350,0.097122800,0.049239400,-0.010940430
1640843942388999936,-0.218319590,0.592037740,9.694158550,0.026005510,0.094483810,-0.003115830
1640843942391529984,-0.392027850,0.374010290,10.618058200,-0.016529860,-0.000114740,0.000786780
1640843942393939968,-0.234460130,0.311419130,9.724144940,0.046390300,-0.009262560,0.002568960
1640843942396590080,-0.120906350,0.358835610,9.287044530,0.083678960,-0.018548970,-0.006468600
1640843942398779904,-0.370670710,0.327052740,10.331720350,0.050678850,0.077301260,-0.001779200
1640843942402050048,-0.229334830,0.440247710,9.857046130,0.017242140,0.060479340,0.000250340
1640843942404640000,-0.238195480,0.367249730,10.263010980,-0.004664060,-0.078135740,0.013543670
1640843942406779904,-0.122033480,0.460969600,9.636199950,0.029698010,0.046263640,0.016368930
1640843942408720128,-0.051439430,0.547240560,9.504972460,0.031313310,0.045636310,-0.005088750
1640843942411680000,-0.540783050,0.486708250,10.895277980,0.012636190,0.005613270,0.001502040
1640843942413769984,-0.283949140,0.605451350,9.468434330,0.008688870,-0.008642670,0.011497740
1640843942417120000,-0.184410410,0.627117690,9.634190560,-0.021758670,-0.042989850,-0.002461670
1640843942420919808,-0.423783810,0.800977950,10.237069130,-0.039824850,0.092536200,0.021430850
1640843942421870080,-0.007303520,0.710097130,9.542997360,-0.038111210,0.017136340,0.024370850
1640843942424909824,-0.147512050,0.365004660,10.431449890,0.001372400,-0.033965710,0.025972730
1640843942426869760,0.025408010,0.372303960,9.486077310,0.019484760,0.075465440,0.025726860
1640843942428750080,-0.023633140,0.337640970,9.818296430,-0.039944050,-0.016404690,0.024406610
1640843942431660032,-0.365028350,0.175406440,10.419270520,-0.084665420,0.005647540,0.028197470
1640843942436169984,0.206548210,0.069852930,8.961221690,-0.059397530,0.042858720,0.004275140
1640843942436950016,-0.086662440,0.047984940,10.148401260,0.008091330,0.042428070,0.002653900
1640843942439190016,-0.157205280,0.231614470,9.951079370,0.028415030,0.105410810,0.013293330
1640843942441740032,-0.041801800,0.374019740,9.758481030,-0.042332700,-0.039477640,0.020621720
1640843942443689728,-0.435122370,0.109548750,10.226785660,-0.064468390,0.000497700,0.037042800
1640843942446579968,-0.080043290,0.009456210,9.011030200,-0.002931060,0.062204900,0.017002230
1640843942448769792,-0.296251620,0.109119220,9.944289210,0.052259870,0.047129400,0.017708540
1640843942451660032,-0.298754960,0.115693410,9.913613320,0.039145350,0.116324420,0.018975140
1640843942453779968,-0.105154840,0.146956650,9.836205480,-0.002320110,-0.004804130,0.018234550
1640843942456529920,-0.375084460,0.021415560,10.014167790,0.019788750,-0.005237760,0.030611460
1640843942459019776,-0.063542080,0.034109950,9.040327070,0.032848120,0.047120450,0.005520880
1640843942461519872,-0.181732910,0.098137390,9.950751300,0.060364600,0.086289640,0.010308620
1640843942463689984,-0.331474160,0.093703180,10.116016390,0.068211560,0.088840720,-0.004586580
1640843942466980096,-0.136746600,0.201465100,9.816938400,0.062221290,-0.039507450,0.000651180
1640843942468729856,-0.364422710,0.338960620,9.546130180,0.045068560,0.017321110,0.030779840
1640843942471649792,-0.344232410,0.026063990,9.525630950,0.039558110,0.040964790,0.005295870
1640843942473739776,-0.529366020,0.058077660,10.261843680,0.109227020,0.047254560,0.021135810
1640843942476689920,-0.400786280,0.131808830,9.549878120,0.131040810,0.008012360,0.005751850
1640843942478720000,-0.142286840,0.110181670,9.698095320,0.086046760,-0.005880000,0.006832180
1640843942481649920,-0.248825250,0.336564300,9.861000060,0.051103530,0.091072920,0.026474890
1640843942484039936,-0.328731120,0.057647560,10.046170230,0.073079760,-0.032025580,0.005227330
1640843942486650112,-0.426293670,0.176271110,10.028768540,0.153191390,-0.058233740,0.011222060
1640843942488770048,-0.187444200,0.447516140,8.825654030,0.125309840,0.020429490,-0.001563130
1640843942491569920,-0.389918740,0.315298140,10.220147130,0.069406630,0.040937960,-0.007803740
1640843942493710080,-0.488235740,0.675740180,10.383403780,0.059193370,0.035385780,0.027345120
1640843942496499968,-0.256208780,0.518413480,9.673200610,0.081253060,-0.115810350,0.006562470
1640843942498710016,-0.353104200,0.456005690,9.984553340,0.113368050,-0.031925740,0.022260850
1640843942501720064,-0.265248780,0.635253010,9.353927610,0.088728960,0.070174040,0.014887750
1640843942504629760,-0.502589880,0.314378320,10.639309880,0.062774130,-0.072169300,0.018015500
1640843942506559744,-0.297679360,0.479240030,9.875575070,0.061608850,-0.046922270,0.031533840
1640843942508940032,0.077854070,0.503729520,9.096889500,0.034061080,-0.034491720,0.005416570
1640843942511639808,-0.360998480,0.309974670,10.726558690,0.047735870,0.025898220,0.015559790
1640843942513749760,-0.398799960,0.502129610,10.071393970,0.066180530,-0.014489890,0.010786950
1640843942516829952,-0.380561710,0.452627000,9.857849120,0.052770980,-0.197911280,0.000211600
1640843942518720000,-0.336858870,0.645042480,9.567854880,0.007839500,-0.005073850,0.026266280
1640843942521779968,-0.093856330,0.859555780,9.291222570,-0.050549210,0.045521560,0.013631580
1640843942523990016,-0.357922850,0.554086270,11.083126070,-0.004599990,-0.046655540,0.024206930
1640843942526769920,-0.112438990,0.618179440,10.020322800,0.042602420,-0.048422810,0.005225840
1640843942528709888,0.024049220,0.677400830,9.397653580,0.014461580,-0.121061510,-0.001385810
1640843942531520000,-0.412115720,0.623641610,10.320299150,-0.061342110,-0.004972520,0.030249350
1640843942533969920,-0.045190650,0.590583980,9.332175250,-0.117290030,-0.006091600,0.033928460
1640843942536519936,-0.035602310,0.155817240,10.177843090,-0.040170550,-0.071617960,0.018222630
1640843942539279872,-0.059617690,0.191703440,10.098479270,0.023652620,0.052227090,0.012765830
1640843942541580032,0.029098100,0.336279960,9.658993720,-0.005827850,-0.044453160,-0.001709160
1640843942544410112,-0.493354170,0.177304460,10.685020450,-0.082764040,-0.115631510,0.022497770
1640843942546700032,-0.076704490,0.170128520,8.993365290,-0.126694140,-0.014710430,0.022679570
1640843942549110016,-0.050163560,0.091644890,9.513486860,-0.027264660,-0.009895860,0.012035670
1640843942555079936,-0.217536270,0.263481910,10.431416510,0.027035180,0.073258590,0.018048290
1640843942556239872,0.083296630,0.446827980,9.854437830,-0.013825300,-0.008918350,0.015974050
1640843942556709888,-0.299872430,0.134360070,10.476136210,-0.057044640,-0.118277980,0.035864120
1640843942558859776,-0.112281520,0.030920200,9.226116180,-0.051473080,-0.016745930,0.036755200
1640843942561590016,-0.024091370,0.140531240,9.096294400,-0.001549720,-0.000336770,0.014485420
1640843942563719936,-0.193486970,0.072328570,10.227045060,0.005075340,0.067479910,0.024124980
1640843942566690048,0.022378600,-0.003343600,10.013869290,0.003376600,0.044634940,0.015142560
1640843942568839936,-0.295420680,-0.115612730,10.143271450,0.043123960,-0.094908480,0.023579600
1640843942572000000,-0.344126080,0.009651510,9.464238170,0.018486380,-0.074087090,0.033670660
1640843942573959936,-0.279187560,0.060925360,9.094297410,-0.007118280,0.011460480,0.031894450
1640843942576560128,-0.345266010,-0.139538240,9.847493170,0.027993330,0.066655880,0.012078880
1640843942578749952,-0.251302180,-0.086525880,10.277080540,0.096094620,0.022922460,-0.008082390
1640843942581679872,-0.180463240,0.220658970,9.859017370,0.128717710,-0.048336380,0.015360120
1640843942583869952,-0.219825730,0.277430980,9.725416180,0.025795400,-0.063957270,0.021298230
1640843942586779904,-0.403147010,0.110526550,9.796838760,0.004792210,0.005377830,0.027124580
1640843942588729856,-0.245351020,-0.062915660,9.226391790,0.104460130,-0.030298530,0.012218950
1640843942591599872,-0.212484930,-0.074306290,9.774632450,0.178547220,-0.006280840,-0.005964930
1640843942593679872,-0.143771310,0.326415540,9.758665080,0.133837760,0.070916120,0.010581320
1640843942596560128,-0.405672010,0.217086050,10.425133710,0.033427770,-0.077657410,0.010728840
1640843942598749952,-0.648132150,-0.082294590,10.150451660,0.068615360,-0.124722700,0.015176830
1640843942601869824,-0.245976980,0.106751860,8.545894620,0.161923470,-0.071720790,-0.003926460
1640843942603819776,-0.410036090,0.245681000,9.903242110,0.161002590,0.046484170,-0.025197860
1640843942606639872,-0.450975390,0.448397160,10.382588390,0.109356640,0.069676330,0.007031860
1640843942609380096,-0.192008240,0.443374310,10.129060750,0.075942260,-0.167484550,0.015150010
1640843942611549952,-0.263719320,0.168438660,9.859248160,0.109249380,-0.118950020,0.004917380
1640843942613769984,-0.030348180,0.289732690,8.968297960,0.150482370,-0.005353990,0.002317130
1640843942616559872,-0.430823180,0.392268690,10.454970360,0.141079720,-0.034810610,-0.004868210
1640843942618949888,-0.415065290,0.361165290,10.246905330,0.092206910,-0.060333320,-0.004686420
1640843942621549824,0.011283080,0.495731090,9.462718960,0.070272390,-0.126849130,0.002539160
1640843942623800064,-0.372712580,0.467148150,10.188427930,0.086066110,-0.040456650,-0.008575620
1640843942626579968,-0.333387640,0.573914950,9.841062550,0.097370150,-0.041709840,-0.013871490
1640843942628719872,-0.430770040,0.632975880,10.097106930,0.097745660,-0.157059700,0.009858610
1640843942631569920,-0.426179980,0.402875720,9.736369130,0.075289610,-0.068795680,-0.006355350
1640843942633740032,-0.079864990,0.617121820,9.485767360,0.036694110,-0.035941600,-0.004331770
1640843942636819712,-0.308414130,0.673839570,10.559960370,0.028845670,-0.050546220,0.013534720
1640843942638769920,0.008861440,0.380576340,9.971716880,0.039714570,-0.076557700,-0.003109870
1640843942641649920,0.163673820,0.463806270,9.798277850,0.069142890,-0.103871520,0.005303320
1640843942643699968,-0.139673400,0.411959170,9.909626960,0.069083270,-0.041213640,0.002272430
1640843942646659840,-0.028445870,0.430268140,9.685991290,0.001201030,-0.083820530,0.011333820
1640843942648739840,-0.076816100,0.462621720,9.930512430,-0.022141640,-0.069345540,0.008049610
1640843942651719936,-0.047538420,0.088914390,9.754858970,0.014093520,-0.012695790,-0.015272200
1640843942653789952,-0.037776300,0.134861710,10.022851940,0.091879080,-0.048980120,-0.012810530
1640843942656590080,-0.352340370,0.384139420,9.969047550,0.087730590,-0.058378280,-0.006254020
1640843942659260160,-0.229165990,0.136437850,9.680422780,-0.022557380,-0.104744740,0.000642240
1640843942661509888,-0.192285790,0.048123190,9.659063340,-0.010930000,-0.020621720,0.012537840
1640843942663689728,-0.173445220,-0.037684800,9.501067160,0.080770250,-0.004622340,-0.018310550
1640843942666679808,0.009476060,0.075912710,10.071344380,0.109122700,-0.041307510,-0.021539630
1640843942668900096,-0.151814970,0.377618460,10.022602080,0.069122020,0.006793440,-0.011183320
1640843942671549952,-0.181305900,0.048744850,10.007904050,0.006334480,-0.116097930,-0.020363920
1640843942673779968,-0.294992270,0.109585500,9.829911230,0.062528260,-0.090055170,0.004790720
1640843942676519936,-0.207893890,0.244471830,8.914509770,0.104478010,-0.014342370,-0.023844840
1640843942678729984,-0.291521490,0.155630170,10.342102050,0.088134420,0.004068020,-0.023719670
1640843942681589760,-0.471649800,0.378044690,10.342041020,0.094297540,0.013086200,-0.018550460
1640843942683980032,-0.247559370,0.144500370,9.680545810,0.081175550,-0.172993530,-0.032988190
1640843942686939904,-0.353933870,0.238725200,9.838875770,0.093053280,-0.071275240,-0.003804270
1640843942688709888,-0.227049320,0.453718900,9.169114110,0.068955130,0.029900670,-0.029294190
1640843942692449792,-0.341711460,0.127037530,10.724611280,0.076147900,-0.064218040,-0.029046830
1640843942693679872,-0.304356630,0.442658220,10.125250820,0.116796800,-0.046190620,-0.025616590
1640843942696509952,0.029437770,0.654199000,9.331923480,0.077895810,-0.128130600,-0.042629230
1640843942698789888,-0.293774840,0.668368460,10.508262630,0.013245640,-0.030340260,-0.014171010
1640843942701619968,-0.267076910,0.778060140,9.647445680,0.009851160,-0.008098780,-0.027109690
1640843942703899904,-0.356425320,0.427867710,10.309724810,0.082471970,-0.164212290,-0.035411120
1640843942706699776,-0.359615800,0.650398550,9.876270290,0.101070110,-0.046750900,-0.019064550
1640843942709699840,-0.198277090,0.892513040,9.339171410,-0.000743570,-0.044867390,-0.027048590
1640843942711500032,-0.447683600,0.570286930,10.836665150,-0.075249360,-0.083680440,-0.009141860
1640843942713779968,-0.142433150,0.407703280,9.658493040,-0.024946040,-0.049524020,-0.011335320
1640843942716620032,-0.010858860,0.223551240,9.713249210,0.069691240,-0.115735840,-0.046329200
1640843942718749952,-0.412187670,0.489285320,10.554274560,0.045746560,-0.021548570,-0.029285250
1640843942721609728,-0.152088030,0.758017060,9.402890210,-0.093315550,-0.103153300,-0.012430550
1640843942723800064,-0.116803600,0.272794600,10.111608510,-0.124683980,-0.145150690,-0.017312170
1640843942726539776,-0.055581280,0.270791950,9.710769650,-0.024795540,0.045603520,-0.028575960
1640843942728699904,0.032161960,0.429761920,9.850381850,0.051932040,-0.062453750,-0.039722030
1640843942731590144,-0.414456900,0.406897340,10.802522660,-0.002877410,-0.102743510,-0.022490320
1640843942733719808,-0.080352690,0.401901930,9.101526260,-0.109687430,-0.099699190,-0.009112060
1640843942736960000,-0.051004750,0.035490560,9.524531360,-0.083449490,-0.102138530,-0.013718010
1640843942738759936,-0.159169320,0.049379780,9.879400250,-0.008268660,0.057797140,-0.032855570
1640843942742259968,0.172385540,0.250266020,9.723724370,0.025787960,-0.029207770,-0.034600500
1640843942743699968,-0.262456300,0.116801100,10.876383780,0.001043080,-0.084915760,-0.025196370
1640843942747139840,-0.088445620,0.046169150,9.544206620,-0.059217220,-0.077149270,-0.027991830
1640843942748940032,-0.167246040,-0.003697060,9.400705340,-0.014927980,-0.124460460,-0.019840890
1640843942751520000,-0.344302270,0.014615180,9.651202200,0.009678310,0.020779670,-0.035737460
1640843942754099968,-0.111593190,0.148884560,9.692501070,0.016817450,0.002129380,-0.057300930
1640843942756609792,-0.337893280,0.174564930,10.445671080,0.036208330,-0.073319660,-0.031685830
1640843942758839808,-0.223732920,0.118279680,9.671955110,0.015175340,-0.091378400,-0.037382540
1640843942761539840,-0.226091030,0.085674530,9.684446330,0.020809480,-0.085732360,-0.028610230
1640843942763759872,-0.279300720,0.035322630,9.819844250,0.032532210,0.000098350,-0.032772130
1640843942766579968,-0.244650650,0.008350090,9.963377000,0.059545040,-0.062125920,-0.057530410
1640843942768780032,-0.129314210,0.277690230,9.731992720,0.088544190,-0.069667400,-0.031867630
1640843942771520000,-0.051439580,0.331964110,9.656489370,0.019584600,-0.039546190,-0.045292080
1640843942773839872,-0.356560320,0.214722470,10.398392680,0.024168200,-0.067061190,-0.026372080
1640843942776559872,-0.355035130,0.277258690,9.664558410,0.084362920,-0.105927890,-0.038018820
1640843942778939904,-0.318622260,0.272398620,9.526288030,0.091129540,-0.115127880,-0.061145440
1640843942781560064,-0.341421100,0.480166970,9.790624620,0.058083240,0.007234520,-0.040988630
1640843942783769856,-0.379059280,0.599400160,10.280964850,0.000698860,-0.055332470,-0.052481880
1640843942786559744,-0.482195880,0.360459830,10.495680810,0.029017030,-0.155228390,-0.042365500
1640843942788760064,-0.199458960,0.526755930,9.273872380,0.081145780,-0.115400550,-0.043277450
1640843942792899840,-0.335819480,0.574598670,9.823007580,0.051099070,-0.066325070,-0.055760150
1640843942793799936,-0.489346500,0.508682010,10.436068530,0.008745490,-0.061000880,-0.017505880
1640843942797609984,-0.159983620,0.570626560,9.753946300,-0.006376210,-0.152051420,-0.024461750
1640843942798769920,-0.139477860,0.397512380,9.998945240,0.015641750,-0.125028190,-0.035128000
1640843942803269888,0.025759750,0.560627220,9.733560560,0.022131210,-0.025965280,-0.026534500
1640843942804080128,-0.226472040,0.691874380,10.460651400,-0.013463200,-0.106987360,-0.038301950
1640843942806809856,-0.329851000,0.511375490,10.364302640,-0.030741100,-0.152647500,-0.034430630
1640843942808829952,0.006345780,0.697653110,9.149426460,-0.046458840,-0.134673680,-0.034724180
1640843942811769856,-0.304891140,0.771452490,10.063530920,-0.051642950,-0.073872510,-0.037217140
1640843942813730048,-0.180200640,0.599631850,10.137857440,-0.061467290,-0.048924980,-0.014622510
1640843942816519936,-0.004214100,0.528967800,9.987643240,-0.052011010,-0.118987250,-0.015570220
1640843942819000064,-0.216779040,0.269873290,10.227751730,-0.040160120,-0.094957650,-0.016285480
1640843942821539840,-0.019426690,0.248722170,9.734294890,-0.056651240,-0.099492070,-0.004489720
1640843942823809792,-0.199223310,0.332106320,9.972564700,-0.091086340,-0.118957470,0.002188980
1640843942826759936,0.075024540,-0.001529790,9.668997760,-0.096885850,-0.044144690,-0.008404260
1640843942828729856,0.254381920,0.087863040,9.904341700,-0.041264300,-0.017099080,-0.022424760
1640843942831539968,-0.031935280,0.247510220,10.323183060,-0.010257960,-0.053612890,-0.019121170
1640843942833710080,0.030178370,0.240214260,9.968482020,-0.063835080,-0.127127780,-0.014239550
1640843942836920064,-0.193802600,0.314213480,9.700367930,-0.088554620,-0.100527710,-0.005228820
1640843942838769920,-0.251019900,0.045231880,9.387187960,-0.056886680,-0.045743580,-0.013011690
1640843942842439936,-0.133183970,0.150544350,9.922849660,-0.000697370,-0.016701220,-0.016945600
1640843942843889920,-0.170963300,0.338895050,10.018409730,-0.000670550,0.024952000,-0.014320020
1640843942846589952,-0.139782190,0.029661090,10.415111540,-0.045861300,-0.086468470,-0.022919480
1640843942848769792,-0.291640220,0.004175010,10.027766230,-0.012382860,-0.091277060,-0.011958180
1640843942851579904,-0.182281400,-0.033031490,8.919241910,0.012190640,-0.098054120,-0.030826030
1640843942853750016,-0.196102840,-0.153503060,9.853864670,0.010779500,-0.016880040,-0.025385620
1640843942856599808,-0.101074890,0.138076380,9.785905840,0.013522810,0.090385970,-0.026988990
1640843942859010048,-0.117549720,-0.045122790,10.566921230,0.027106700,-0.099018200,-0.029848510
1640843942862119936,-0.292843760,0.155127480,10.350507740,0.051459670,-0.083647670,-0.002671780
1640843942863680000,-0.128453300,0.318499890,8.920007710,0.022171440,-0.096724930,-0.028228770
1640843942866629888,-0.467679260,-0.007026950,10.207058910,0.033329430,-0.041894620,-0.023499130
1640843942869009920,-0.338657470,0.343451380,9.586490630,0.068280090,0.042594960,-0.027984380
1640843942871510016,-0.155095100,0.377917380,9.923592570,0.066097080,-0.108450660,-0.031872090
1640843942874019840,-0.362453850,0.369311150,10.666760440,0.037981570,-0.034457450,-0.011816620
1640843942878409984,-0.158326190,0.461889000,9.597299580,0.004027780,-0.067912030,-0.031478710
1640843942879229952,-0.446333230,0.155032250,10.416828160,0.062660870,-0.148920710,-0.030186780
1640843942881549824,-0.151139960,0.452441810,9.408826830,0.076213470,-0.012609360,-0.025549530
1640843942883729920,0.069638240,0.699197890,9.513332370,0.020827350,-0.024223320,-0.028303270
1640843942886970112,-0.383976910,0.450808940,11.129016880,-0.018085540,-0.041309000,-0.002397600
1640843942888759808,-0.146210300,0.394058970,9.831480980,0.013752280,-0.111602240,-0.025540590
1640843942891739904,-0.243923200,0.373656270,9.723058700,0.072020290,-0.184129190,-0.034743550
1640843942894759936,-0.370087410,0.566826110,9.957064630,0.025767090,0.010843580,-0.025595730
1640843942896549888,-0.233533070,0.836983320,9.950387000,-0.066466640,-0.004258750,-0.031639640
1640843942898809856,-0.446196380,0.536805750,10.957957270,-0.045195230,-0.133702170,-0.017043950
1640843942901540096,-0.007136340,0.487562840,9.695816990,0.010465080,-0.082918990,-0.026838480
1640843942903790080,0.010474130,0.687734900,9.581902500,0.028522320,-0.065599390,-0.035977370
1640843942906999808,-0.356585650,0.597655480,10.670240400,-0.051605710,-0.035014740,-0.007358190
1640843942908789760,-0.062629660,0.566820030,9.983827590,-0.110611330,-0.080281500,-0.007100400
1640843942911500032,0.068758250,0.407158730,9.882320400,-0.061382360,-0.109712790,-0.011877720
1640843942913809920,0.100803890,0.446516280,10.058087350,-0.029338890,0.010789930,-0.018110870
1640843942916499968,0.118516880,0.613524790,10.096202850,-0.042919810,-0.007240470,-0.022619960
1640843942918959872,-0.142611530,0.339574280,10.462102890,-0.080086300,-0.084970900,-0.007724760
1640843942922030080,-0.088012180,0.232205260,9.953628540,-0.088220820,-0.080557160,-0.003142650
1640843942923810048,-0.113357460,0.311907560,9.556241040,-0.048512220,-0.039964920,-0.003157560
1640843942926970112,-0.195149780,0.404851410,10.087120060,-0.086504230,-0.028558080,-0.014838580
1640843942928759808,-0.017071620,0.350981590,10.164387700,-0.091028240,0.033187870,0.002342460
1640843942931529984,0.058552850,0.097978070,9.997253420,-0.041326880,0.004290040,-0.011432170
1640843942933739776,-0.175450210,0.148007540,10.566321370,-0.015750530,-0.086620440,-0.008779760
1640843942936989952,-0.138991030,0.398100350,9.486843110,-0.050412120,-0.045247380,0.012744970
1640843942939119872,0.036486530,0.109380750,9.335992810,-0.117677440,-0.032679730,0.009858610
1640843942941579776,-0.110401960,-0.127547950,10.325224880,-0.050324190,0.086461020,-0.001181660
1640843942944130048,0.239710180,0.080217070,9.637873650,0.042797630,0.052833560,-0.021681190
1640843942946689792,-0.000542630,0.200769630,10.723418240,0.011241440,-0.061602900,-0.013200940
1640843942948769792,-0.225111810,0.323914970,10.047948840,-0.065472730,0.020205980,0.019532440
1640843942951510016,-0.086866730,-0.112260920,9.299572940,-0.063169000,-0.070081640,0.003705920
1640843942953850112,-0.491981390,-0.217983960,9.948408130,0.058065350,0.006754700,-0.004495680
1640843942956620032,-0.044760010,0.249538970,8.965515140,0.080253180,0.101566320,-0.005277990
1640843942958860032,-0.289605920,0.124954040,10.748067860,0.004480780,0.027839840,0.013282900
1640843942961560064,-0.508592490,0.013697950,10.669151310,-0.017538670,-0.002749260,0.007589160
1640843942963719936,-0.037761770,0.030328350,9.171401980,0.057068470,-0.116418290,-0.016792120
1640843942966589952,-0.379574950,0.080871090,9.806418420,0.099727530,0.010851030,-0.014293200
1640843942968740096,-0.069918290,0.335497050,9.376102450,0.050258650,0.129817440,-0.020068880
1640843942971809792,-0.121938930,0.261449720,10.539863590,0.035469230,0.006382170,-0.015912950
1640843942973819904,-0.179394860,0.163790300,10.232837680,0.068487230,-0.038927790,0.006721910
1640843942976640000,0.059716380,0.282242480,9.323765750,0.101420280,-0.056219100,0.007566810
1640843942978739968,-0.367302480,0.192032350,10.089924810,0.083659600,0.024805960,0.010612610
1640843942981629952,-0.436982330,0.125048240,10.045363430,0.056865820,0.036424400,0.000084940
1640843942983759872,-0.267101230,0.221638950,10.038013460,0.095713150,-0.043649970,-0.010095540
1640843942986820096,-0.250625670,0.436951490,9.843137740,0.084757810,0.018453600,-0.015424190
1640843942989239808,-0.315549490,0.549485150,10.163298610,0.050003830,0.000582640,-0.021444260
1640843942991539968,-0.406552020,0.551764970,10.176231380,0.068897010,-0.037088990,-0.019083920
1640843942993729792,-0.253208880,0.552155440,9.611865040,0.073081250,-0.076302890,-0.021699070
1640843942996519936,-0.106097080,0.615109380,9.798397060,0.084830830,0.020384790,-0.009159740
1640843942998759936,-0.077608100,0.699142040,10.085992810,0.030709810,0.069326170,-0.010922550
1640843943001659904,-0.150488140,0.550193970,10.740369800,-0.002282860,-0.055958330,-0.007797780
1640843943004209920,0.042170630,0.416268770,9.940981860,0.054547200,-0.030894580,0.007116800
1640843943006599936,-0.019949280,0.405744050,9.617486950,0.051757700,-0.019994380,-0.027008360
1640843943008920064,-0.397612510,0.579867120,10.434460640,0.024923680,-0.006601210,-0.009064380
1640843943011510016,-0.256666240,0.631414470,9.762866970,-0.034169860,-0.010937450,-0.012212990
1640843943013809920,-0.155333940,0.379119220,10.018502240,-0.037409360,-0.056423250,-0.017623600
1640843943016579840,-0.182004510,0.445421700,10.218267440,0.038939710,0.051328540,-0.006969270
1640843943019189760,-0.017866510,0.566497620,9.910966870,0.022783880,0.022491810,-0.025284290
1640843943021989888,-0.314491630,0.522568400,10.693560600,-0.025524200,-0.054965920,-0.015817580
1640843943023799808,-0.021689110,0.586679160,9.569241520,-0.065200030,-0.021690130,0.012642150
1640843943026639872,0.108077070,0.293878940,9.572027210,-0.048539040,-0.005203490,-0.012688340
1640843943028790016,-0.029213400,0.423758750,10.129709240,0.006084140,0.070704520,0.006797910
1640843943031549952,0.258288260,0.520511810,9.806492810,-0.010378660,0.048694020,0.008507070
1640843943033730048,-0.000722930,0.040168830,10.565259930,-0.033576790,-0.001484160,0.008003410
1640843943036659968,-0.082935020,0.028071010,9.957170490,-0.013631580,0.005111100,0.013355910
1640843943038749952,-0.113132860,0.118309070,9.497077940,0.000193720,-0.027427080,0.004114210
1640843943042599936,-0.289048250,0.081627380,9.743249890,-0.031235820,0.057595970,0.003726780
1640843943043809792,0.039754580,0.226828280,9.714461330,-0.033524640,0.109690430,-0.003682080
1640843943046700032,-0.207499130,0.135007740,10.573328970,0.026708850,0.060732670,-0.022047760
1640843943049609984,-0.114542850,0.321295170,9.944161420,0.045001510,-0.008334220,-0.006426870
1640843943052280064,-0.033101400,0.611435650,9.544205670,-0.003559890,-0.005301830,0.008903440
1640843943053720064,-0.201860070,0.214640010,9.765606880,-0.053028760,0.092358890,-0.002166630
1640843943057109760,-0.001232380,0.075460810,9.859284400,0.014321510,0.068576630,-0.005534290
1640843943058840064,-0.044199790,0.182427080,9.947646140,0.099314750,0.076623260,-0.010468070
1640843943061819904,0.106286970,0.066118430,9.780697820,0.048749160,0.066423420,-0.018852950
1640843943063760128,-0.181852450,0.154973790,10.456100460,-0.013068320,0.041565300,0.007873770
1640843943067200000,-0.285978700,-0.088852760,9.709262850,0.006054340,0.034572190,-0.013986230
1640843943068729856,-0.188280310,-0.183850040,9.503513340,0.080713640,-0.010584300,-0.020828840
1640843943071539968,-0.247820020,0.355082810,9.717275620,0.107532760,0.170148910,-0.012256210
1640843943073839872,-0.226491870,0.366624830,10.169376370,0.027108190,0.109134610,-0.023058060
1640843943076499968,-0.493526100,0.336134700,10.933743480,0.030976540,-0.024724010,0.004801150
1640843943078779904,-0.173984810,0.493736000,9.104822160,0.071467460,0.006711480,-0.010536610
1640843943081849856,-0.149589510,0.310055050,9.633069040,0.075708330,0.040660790,-0.020565090
1640843943083899904,-0.409994010,0.701734960,10.503110890,0.068417190,0.158949210,-0.004650650
1640843943086939904,-0.087624910,0.709944250,9.940965650,0.005966430,0.024913260,-0.027352580
1640843943088790016,-0.036883270,0.456813720,10.375420570,0.018484890,-0.011195240,0.011985000
1640843943092229888,0.068719400,0.680676460,9.556513790,0.036250050,0.112585750,-0.008830430
1640843943093809920,-0.193982740,0.428916600,10.269899370,0.039963430,0.032494970,-0.010739270
1640843943096539904,-0.520091120,0.392627810,10.477677350,0.038459900,0.005762280,0.027501590
1640843943099239936,-0.074117650,0.478774580,9.137917520,-0.003290180,0.019478800,-0.011070070
1640843943101609984,-0.234568540,0.338499340,10.310290340,-0.016424060,0.087818510,-0.002144280
1640843943103909888,-0.263082180,0.665909410,10.496929170,-0.015796720,0.118656460,0.005535780
1640843943106589952,-0.130396630,0.623791750,10.115348820,-0.007307530,-0.020122530,-0.020259620
1640843943109439744,-0.205793800,0.517835080,10.150228500,0.008569660,0.005649030,-0.001950560
1640843943111529728,0.020100400,0.797431950,9.321269040,-0.023303930,0.093044360,0.003151600
1640843943114009856,-0.099704230,0.702382500,10.278747560,-0.064542900,0.057744980,0.011378520
1640843943116519936,0.077342760,0.466763410,10.255056380,-0.076264140,0.091223430,0.032307210
1640843943118959872,0.307742330,0.305131110,9.770796780,-0.016616280,0.066325060,-0.004605950
1640843943121529856,-0.122136790,0.049317020,10.507175450,0.015585120,0.062601280,-0.012966990
1640843943123859968,-0.189960780,0.195744770,9.783663750,-0.037258860,0.046445430,0.017793480
1640843943126540032,-0.217402350,0.141385480,9.603603360,-0.091007340,0.014187400,0.001417100
1640843943128769792,-0.107445450,-0.104472940,9.774084090,-0.072905420,0.142975150,0.005136430
1640843943131589888,0.098074040,0.146529260,9.866070750,0.010868910,0.162284060,0.010579820
1640843943133719808,-0.167575930,0.200380920,10.584509850,0.052025930,0.094160440,0.005343560
1640843943136590080,-0.096149850,0.233437090,10.224333760,-0.015825030,0.022381550,0.027687850
1640843943138789888,-0.136791350,0.222791910,9.525364880,-0.038465860,0.044301160,0.034321840
1640843943141700096,-0.123832190,0.010718000,9.389336590,-0.003661210,0.108590710,0.011678040
1640843943143780096,0.017954280,0.164665210,9.985015870,0.049759460,0.164283830,0.018222630
1640843943146909952,0.015220190,0.180673840,10.117665290,0.061990330,0.179496410,0.003263350
1640843943148829952,-0.054426720,-0.058135250,10.648918150,0.032794480,0.032517320,0.002068280
1640843943151810048,-0.317870710,0.069794980,9.898209570,0.054231290,0.040668250,0.033845010
1640843943153740032,-0.184153650,-0.047527950,8.881492610,0.037947300,0.058963910,0.010038910
1640843943156580096,-0.324910790,-0.206333560,10.194634440,0.057490170,0.177329780,0.008416180
1640843943159209984,-0.300402850,0.042497160,9.937086110,0.117014360,0.195154560,0.009045000
1640843943161509888,-0.239305530,0.040371250,10.433681490,0.122486070,-0.002782050,0.001472230
1640843943163950080,-0.307156180,0.361543330,9.960367200,0.082802770,0.079496210,0.038747490
1640843943166529792,-0.146012080,0.356948320,9.175497060,0.034908950,0.078561910,0.010569390
1640843943168879872,-0.464188070,0.108860950,10.639849660,0.094610450,0.087045130,0.013482570
1640843943171510016,-0.134144540,0.492726830,9.415759090,0.155632210,0.136110190,0.003959240
1640843943173830144,-0.001662730,0.556952300,9.915011410,0.123861440,0.052359700,-0.000910460
1640843943176549888,-0.329283150,0.594980120,10.776031490,0.054207450,0.132967530,0.029861930
1640843943179229952,-0.203488390,0.517107250,9.640852930,0.036391620,0.027422610,0.024005770
1640843943181829888,-0.500489120,0.107454880,10.186572070,0.121267140,-0.035305320,0.022913520
1640843943183790080,-0.282860490,0.391367080,9.319805150,0.142951290,0.149163570,0.005885960
1640843943186640128,-0.224709720,0.652220310,9.990138050,0.065854200,0.114180150,0.005130470
1640843943188750080,-0.489392790,0.535977420,11.283100130,-0.002361830,0.055624550,0.025676190
1640843943192339968,0.017018120,0.584417880,9.499233250,0.029152630,0.009723010,0.015942750
1640843943194469888,-0.124875720,0.491061540,9.870694160,0.108933450,-0.001107160,0.008513030
1640843943196559872,-0.348751720,0.611585920,10.244464870,0.088498000,0.145879370,0.019490720
1640843943198759936,-0.210428740,0.808257520,9.947345730,0.000137090,0.036439300,0.017531220
1640843943201910016,-0.351382550,0.543267310,10.530490880,-0.028304760,-0.025771560,0.034910440
1640843943203739904,0.019473870,0.538168550,9.518657680,0.000984970,0.098162890,0.026936830
1640843943206579968,-0.142065610,0.679758070,10.045718190,0.040481980,0.073829300,0.015522540
1640843943209449984,-0.457474410,0.566139820,10.857450490,0.018019970,0.040550520,0.038802630
1640843943211869952,-0.039689970,0.552873610,9.580372810,-0.039266050,0.013415520,0.034627320
1640843943213760000,-0.161031500,0.406424370,9.948793410,-0.026358670,0.029809770,0.039790570
1640843943216529920,-0.218545270,0.459081080,10.182216640,-0.038154430,0.104494390,0.043800470
1640843943219120128,-0.004870390,0.449986340,9.870145800,-0.024853650,0.051668290,0.041204690
1640843943221529856,-0.066379360,0.214085440,10.175313000,-0.002218780,0.037962200,0.037938360
1640843943223820032,0.006635780,0.285415860,9.935217860,-0.006969270,0.074043880,0.040498380
1640843943226759936,-0.181271060,0.365637660,9.930621150,-0.027519470,0.031499560,0.045385960
1640843943228819968,-0.202670040,0.260719510,10.057413100,-0.073806940,0.025986140,0.056757040
1640843943231579904,-0.029058290,0.174536650,9.788520810,-0.038020320,0.109429660,0.042265650
1640843943233769984,-0.055181540,0.100789350,9.884682660,0.031808020,0.090777870,0.034035740
1640843943236539904,-0.174386800,0.170778190,10.368177410,0.028777120,0.048261870,0.036804370
1640843943238799872,-0.187104110,0.274495010,9.737819670,-0.015057620,0.061927740,0.052720310
1640843943241590016,-0.253057390,-0.023530980,9.801427840,-0.051081180,0.007931890,0.039133430
1640843943244560128,-0.323494170,-0.045585510,10.006749150,0.018206240,0.084500010,0.034070010
1640843943246639872,0.033667140,0.155181510,9.231443410,0.070893760,0.124782350,0.024102630
1640843943248800000,-0.192640170,0.092745040,10.750355720,0.042359520,0.070889280,0.025328990
1640843943251879936,-0.304047140,0.220833600,10.336761470,0.021080670,0.080849220,0.041945270
1640843943253769984,-0.152406890,0.077997350,9.420389180,0.022679570,-0.073462730,0.033792860
1640843943256559872,-0.459974740,0.088549120,9.943496700,0.052207710,0.041566790,0.038088860
1640843943260779776,-0.142521710,0.311546620,9.113962170,0.062219800,0.164386620,0.017037990
1640843943261489920,-0.346775770,0.217300210,10.741565700,0.068071470,0.041803710,0.022284680
1640843943263759872,-0.336333450,0.370948400,10.380539890,0.075125700,0.054824360,0.040672720
1640843943266599936,0.076858050,0.368597090,9.209538460,0.052422290,-0.025123360,0.036253030
1640843943268809984,-0.480277030,0.116296870,10.617642400,0.057575110,0.042501100,0.044594720
1640843943271489792,-0.356643410,0.186613320,9.685178760,0.085178030,0.106754900,0.023519990
1640843943274019840,-0.256154780,0.243348000,10.053396220,0.094369050,-0.063171990,0.019443040
1640843943278089984,-0.335993620,0.469857870,10.153351780,0.059351320,0.075237450,0.030709800
1640843943278839808,-0.086904030,0.734994350,9.641035080,0.002415480,0.053919850,0.022584200
1640843943281750016,-0.519462880,0.612854180,10.920673370,0.029163060,-0.043229750,0.033411390
1640843943284039936,-0.411291750,0.637932960,9.759235380,0.070191920,-0.009489060,0.029379130
1640843943287209984,-0.024584930,0.759949560,9.364539150,0.060123200,-0.022330880,0.020791590
1640843943288800000,-0.390395400,0.910979030,10.644676210,-0.020235780,0.107541700,0.038360060
1640843943291899904,-0.095205280,0.845531940,10.280563350,-0.075313460,0.012516980,0.037115810
1640843943293809920,-0.037481180,0.475442410,10.408989910,-0.012029710,-0.077499450,0.031840800
1640843943296609792,-0.061269800,0.428072930,9.651195530,0.041751560,0.016862160,0.027266140
1640843943298779904,0.018203840,0.542546210,9.701484680,-0.003355740,0.040943920,0.025054810
1640843943301920000,-0.430418820,0.435733320,10.725888250,-0.084523850,-0.000537930,0.039757790
1640843943303779840,-0.153760640,0.264074590,9.853517530,-0.110208980,-0.047749270,0.044007590
1640843943307169792,0.088977200,0.201783090,9.689056400,-0.029917060,0.009597840,0.022429230
1640843943308809984,-0.177176950,0.428830500,10.186121940,-0.007104880,0.089000170,0.016026200
1640843943311559936,-0.158742400,0.569385590,10.355361940,-0.049869720,-0.007365640,0.039546200
1640843943314439936,-0.220316740,0.423164580,10.208691600,-0.089068720,-0.049299010,0.049941240
1640843943316499968,-0.115085790,0.272728890,9.462647440,-0.085778530,-0.018046800,0.036434830
1640843943318799872,0.028624660,0.310629760,9.650535580,-0.020635130,0.045309960,0.036998090
1640843943321619968,0.028649410,0.277039620,10.067646980,-0.031986830,0.107516360,0.030769410
1640843943323869952,0.000747740,0.162516980,10.606092450,-0.058034070,0.013491510,0.021424890
1640843943326909952,-0.051758430,0.098944630,10.204231260,-0.032879400,-0.028201940,0.040177990
1640843943328800000,-0.114929420,0.093998190,9.353284840,-0.036898260,-0.046953560,0.021322070
1640843943331549952,-0.254966500,0.142543440,9.758655550,-0.036969780,0.032398100,0.038772830
1640843943333789952,-0.204412360,0.115432050,9.680196760,-0.025203830,0.135019450,0.030781330
1640843943336499968,-0.365440730,-0.016553030,10.502414700,0.010746720,-0.023685400,0.016450880
1640843943338869760,-0.356315790,0.269656570,10.134783740,0.036656860,-0.011247400,0.047096610
1640843943342029824,-0.155622070,0.278400150,9.369328500,-0.039187070,0.000832970,0.027543310
1640843943343780096,-0.526518290,0.031338390,10.465524670,-0.030159950,0.017181040,0.023096800
1640843943346659840,-0.223890980,0.247120560,9.608101840,0.038406260,0.031507020,0.012542310
1640843943348800000,-0.013693840,0.339415160,9.632640840,0.049361590,-0.015820560,-0.002555550
1640843943351529728,-0.205805240,0.565515580,10.400140760,0.005812940,0.076571110,0.027950110
1640843943353959936,-0.100882210,0.523841500,10.106585500,-0.044643880,0.000664590,0.029967730
1640843943356570112,-0.484596670,0.075990330,10.369289400,0.018376110,-0.121484700,0.025227670
1640843943359449856,-0.248210300,0.183752630,9.172643660,0.090925380,-0.012786680,0.026480850
1640843943361510144,-0.236897300,0.408338190,9.651860240,0.026004020,0.060434640,0.005160270
1640843943363780096,-0.699015620,0.362171950,11.116060260,-0.048370650,0.026692450,0.026935340
1640843943366880000,-0.287417980,0.433050570,10.139198300,-0.035028160,-0.088900340,0.023101270
1640843943368809984,-0.299953160,0.433429720,9.773653030,0.039809950,-0.111444320,0.001965460
1640843943371559936,-0.290583010,0.663036410,9.704415320,0.040982670,0.031584500,0.010143220
1640843943373839872,-0.209930140,0.892435190,10.144371030,-0.035910310,0.028932100,0.017815830
1640843943376479744,-0.382952120,0.585015240,10.741508480,-0.058454280,-0.086273250,0.035019220
1640843943378850048,0.150391590,0.581758680,9.643828390,-0.036689640,-0.081603240,0.042778250
1640843943381600000,0.099615790,0.667634730,9.691735270,-0.016370420,-0.003561380,0.022411350
1640843943384470016,-0.166306270,0.489840270,10.376079560,-0.048494340,0.009953970,0.023137030
1640843943386979840,-0.100365430,0.537713830,10.281090740,-0.069743400,-0.069862590,0.027503070
1640843943388779776,-0.197726830,0.337041020,9.855304720,-0.060568750,-0.087200110,0.017595290
1640843943391569920,-0.154467090,0.406491490,9.754850390,-0.067785390,-0.025250020,0.019989910
1640843943393769984,-0.112398880,0.664895240,10.040114400,-0.090305510,0.034318860,0.025475030
1640843943396539904,-0.041059420,0.256655510,10.109777450,-0.088158260,0.011217590,0.027185680
1640843943398769920,-0.004726830,0.122104440,10.317136760,-0.024807450,-0.038637210,0.034551320
1640843943401520128,-0.096841350,0.383480790,9.716838840,-0.016367440,-0.030511620,0.027130550
1640843943403869952,-0.076533040,0.223709390,9.530761720,-0.107638550,-0.079686950,0.045971580
1640843943406630144,-0.027365860,0.134162840,9.866584780,-0.123178960,0.053167350,0.049108270
1640843943408849920,0.056900570,0.042123220,9.738956450,-0.041316440,0.079014880,0.005225840
1640843943411510016,-0.034769420,0.163038940,10.645299910,0.012569130,-0.053842370,0.018370150
1640843943413830144,-0.104938190,0.562161860,9.879276280,-0.032906240,0.004719200,0.033259390
1640843943416539904,-0.179936570,0.257719840,9.515929220,-0.124089430,-0.063516200,0.019699330
1640843943418880000,-0.513451280,0.061522580,10.235381130,-0.068309890,-0.019147990,0.037275250
1640843943421540096,-0.220521210,0.219220910,8.906117440,0.017827750,0.040394070,-0.004681940
1640843943423899904,-0.268794950,0.152602210,10.177373890,0.017561020,-0.027512020,0.003910070
1640843943426550016,-0.448999970,0.381240190,10.583436970,-0.040033460,0.061303390,0.027664010
1640843943428799744,-0.185282250,0.098566540,9.699659350,-0.073948510,-0.098197170,0.007241960
1640843943431520000,-0.417868140,-0.067915360,10.304414750,-0.000600520,-0.101661680,0.035771730
1640843943434199808,-0.096787530,0.189053210,9.040901180,0.032095610,0.076361000,0.003953280
1640843943436539904,-0.165226280,0.174988460,10.190963750,0.002188980,-0.017045440,-0.016771260
1640843943438799872,-0.435403790,0.505056620,10.816814420,-0.026144090,-0.031192610,0.027593970
1640843943441839872,0.069458690,0.619885860,9.176833150,-0.052465510,-0.082391520,0.015780340
1640843943443889920,-0.249274790,0.517849450,10.290008540,-0.029803820,-0.071558360,0.012822450
1640843943446669824,-0.405741870,0.746826530,10.101448060,-0.002741810,0.047512350,0.019495190
1640843943448799744,-0.298662540,0.626559080,9.955601690,-0.005745890,-0.088918220,0.009337070
1640843943452090112,-0.538146790,0.587045430,10.541237830,-0.034752490,-0.097438700,0.028942530
1640843943453760000,-0.095597640,0.813262160,9.226981160,-0.099517410,-0.015203650,0.022073090
1640843943456610048,-0.096667020,0.534041640,10.021546360,-0.102435050,-0.044973200,0.021940470
1640843943459409920,-0.238009080,0.402411070,10.544967650,-0.055679680,-0.004729630,0.016468760
1640843943461540096,0.185536160,0.445878030,9.616795540,-0.021694600,-0.071997950,0.007441640
1640843943463759872,-0.099521440,0.362078960,10.335000040,-0.057663030,-0.088220830,0.017417970
1640843943467200000,-0.062702730,0.530554060,9.754913330,-0.154657660,-0.018067660,0.037179890
1640843943469019904,0.100085470,0.257141740,9.696175580,-0.142455100,-0.047914680,0.034067040
1640843943471529984,-0.146595900,0.082073770,10.171079640,-0.038520990,0.004053120,0.016696750
1640843943473870080,0.015429060,0.472520860,9.690130230,-0.000260770,-0.012680890,0.015273690
1640843943476569856,-0.222330790,0.466441540,10.113956450,-0.082241010,-0.067943330,0.029873850
1640843943478870016,-0.260663300,0.311965580,9.911362650,-0.172388540,-0.038343660,0.034502150
1640843943481859840,-0.087375920,0.080407130,9.692220690,-0.101698940,-0.011630360,0.013811890
1640843943483859968,-0.163153890,0.095112760,9.939553260,-0.004915890,0.013323130,-0.003410880
1640843943486739968,-0.073201250,0.330059080,10.013810160,-0.016745920,-0.007995960,0.002045930
1640843943488799744,-0.070239930,0.282205310,9.955091480,-0.084416560,-0.007902080,0.022742150
1640843943492679936,-0.088751300,-0.057876370,9.873242380,-0.110581520,-0.053985420,0.023651120
1640843943493749760,-0.207173410,-0.094658140,9.923848150,-0.019073490,-0.036206830,0.015951690
1640843943496519936,-0.021851950,0.164212050,9.393567090,0.010195370,0.028546150,0.004665550
1640843943499409920,-0.256032170,0.190190390,10.450919150,-0.056214630,0.011433660,0.000610950
1640843943501890048,-0.292401520,0.282089080,10.377393720,-0.048649310,-0.008225440,0.019921360
1640843943503779840,-0.078750800,0.311319590,9.543546680,-0.027866670,-0.081342470,0.009225310
1640843943506759936,-0.405756650,0.411723610,10.072647090,-0.012215970,-0.027206540,0.008028750
1640843943509840128,-0.179607260,0.542339620,9.561355590,-0.031906380,0.052726280,0.005939600
1640843943511539968,-0.315300430,0.424986060,10.375134470,-0.044448670,-0.051331520,-0.005641580
1640843943513870080,-0.274597290,0.484325350,10.178350450,-0.016394260,-0.031192610,0.019939250
1640843943516679936,0.159782130,0.633811650,9.374660490,-0.042724610,-0.006321070,0.015550850
1640843943518970112,-0.264886770,0.548329470,10.671109200,-0.072219980,-0.011157990,0.014925000
1640843943521549824,-0.226745750,0.454678860,10.180880550,-0.060065090,-0.017443300,0.020371370
1640843943523869952,-0.104080040,0.373682650,9.729443550,-0.041837980,-0.100283320,0.006549060
1640843943526549760,-0.326088430,0.432769030,10.017938610,-0.030471380,0.008738040,0.011871760
1640843943528780032,-0.058623150,0.757867220,9.784821510,-0.102660080,0.034829980,0.014474990
1640843943531599872,-0.196238040,0.624137400,10.548316000,-0.140333180,-0.037094950,0.021305680
1640843943533789952,-0.210201200,0.342686980,10.209783550,-0.071154530,-0.037689510,0.011748080
1640843943536939776,0.013066440,0.587038160,9.659780500,-0.034387410,-0.039090220,0.003278260
1640843943538789888,-0.306963620,0.724110130,10.306212430,-0.093083080,-0.000974540,0.022488830
1640843943541590016,-0.081829180,0.614438650,9.950626370,-0.181998330,-0.007830560,0.037337840
1640843943543769856,0.165097400,0.379857000,9.927925110,-0.153107940,0.001417100,0.029066210
1640843943547109888,-0.053028310,0.256599840,10.204690930,-0.061899430,0.033387550,0.011390450
1640843943548829952,0.004915430,0.404099520,10.140724180,-0.065903370,-0.023984910,0.021529200
1640843943553009920,-0.213471100,0.419069650,10.006339070,-0.131273270,-0.024123490,0.035388770
1640843943553779968,-0.102237820,0.160369680,9.619977950,-0.189355030,-0.018042330,0.037205220
1640843943556569856,0.118298830,0.126767100,9.740367890,-0.109310460,0.059060760,0.028648980
1640843943558899968,-0.001045140,0.189190800,9.957297330,-0.045265260,0.095061970,0.008431080
1640843943564019968,0.028314180,0.283045500,10.517019270,-0.067916520,-0.008776780,0.021956870
1640843943564499968,-0.078080430,0.271977600,10.072314260,-0.119318080,0.018809740,0.041322410
1640843943566459904,-0.086943420,0.047194510,9.417232510,-0.124581160,-0.033356250,0.027479230
1640843943568800000,-0.088962550,0.137219120,9.802621840,-0.054934630,0.033961240,0.037951770
1640843943571549952,0.079494190,0.259163290,9.375308990,-0.043180590,0.158602000,0.023703280
1640843943573859840,-0.007611760,-0.002083140,10.607026100,-0.052493820,0.051255530,0.016510490
1640843943576900096,-0.256170570,0.140629980,10.551255230,-0.019906460,0.031280510,0.036281350
1640843943578959872,-0.117122640,0.170317650,9.038159370,-0.045502180,-0.068730100,0.021360810
1640843943581590016,-0.391720000,-0.036258010,9.903834340,-0.058856610,0.021235650,0.032916670
1640843943583749888,-0.235219330,0.010688720,9.416288380,-0.020416080,0.182631610,0.009241700
1640843943587079936,-0.164843500,-0.016176340,10.254591940,0.040379160,0.016789140,-0.008879600
1640843943588819968,-0.202234000,0.195814060,10.558139800,0.043936080,0.052554910,0.030547380
1640843943592439808,0.088082650,0.329583440,9.319660190,-0.030383470,0.032575430,0.008332730
1640843943593819904,-0.365337340,-0.005906760,10.466180800,-0.011448560,-0.030438600,0.021304190
1640843943596649984,-0.221661450,0.041377230,9.427510260,0.059755150,0.068011900,0.017954410
1640843943598820096,0.113644500,0.241636810,9.040196420,0.093750660,0.033932920,-0.009444360
1640843943601549824,-0.324165820,0.372171310,10.789339070,0.049114230,0.120872260,0.012761360
1640843943603790080,-0.225347560,0.526501540,10.222899440,-0.024609270,0.037851920,0.019259750
1640843943606589952,-0.461993280,0.306488420,10.152159690,0.032918150,-0.124236940,0.010612610
1640843943609809920,-0.435394610,0.256920900,9.444289210,0.095434470,0.027960540,0.006233160
1640843943611619840,-0.185712780,0.527961430,9.310066220,0.085155690,0.118212420,-0.003731250
1640843943614019840,-0.550997610,0.543225350,11.032171250,0.031901900,0.054135920,0.010696050
1640843943616529920,-0.087543350,0.459629650,10.104939460,-0.007763510,-0.024208430,0.026234990
1640843943619020032,0.123518680,0.408680380,9.537374500,0.053994360,-0.032076240,0.015689430
1640843943621499904,-0.140944730,0.391143710,10.171879770,0.072233400,0.067074610,-0.002667310
1640843943623899904,-0.159791280,0.541519280,10.182172780,0.047960880,0.030820080,0.000432130
1640843943626540032,-0.196061280,0.633117440,10.005410190,0.019831960,-0.054460760,0.003130730
1640843943628819968,-0.075965200,0.583180670,9.784305570,-0.036655370,0.028052930,-0.002947450
1640843943631549952,-0.171158720,0.747741280,10.034919740,-0.007021430,0.057126590,-0.003908580
1640843943634279936,-0.353964920,0.810186740,10.412570000,0.018574300,0.009144840,0.004349650
1640843943636539904,-0.243996690,0.714062810,10.191442490,-0.014480950,-0.038561220,-0.002284350
1640843943638870016,-0.069800090,0.686497690,9.573877330,-0.015510620,0.019736590,0.016462800
1640843943641680128,-0.126721980,0.564153790,10.078887940,-0.045883660,0.058817870,0.005181130
1640843943645169920,-0.068907190,0.479574590,10.424505230,-0.061580550,0.025691100,0.017978250
1640843943646550016,0.138333310,0.358810040,9.749301910,-0.021968780,0.001385810,0.014248490
1640843943648839936,0.095497410,0.224093690,9.931885720,-0.024989250,0.013527280,-0.019554790
1640843943651799808,-0.038196070,0.401977630,9.941331860,-0.033922490,0.064617400,0.007094440
1640843943653839872,-0.169836010,0.492193220,9.915626530,-0.077670820,-0.001740460,0.004871190
1640843943656580096,-0.206374660,0.319470470,10.160882950,-0.092893830,-0.008414680,0.001645090
1640843943660669952,-0.028577130,0.407877330,9.459869380,-0.027109680,0.079834470,0.001852210
1640843943661919744,-0.080826200,0.457211170,10.000226970,-0.014181440,0.057740510,-0.006252530
1640843943663810048,-0.231784400,0.293461740,10.400867460,-0.033621490,0.063663730,0.014260410
1640843943666619904,-0.022356570,0.223419640,9.625390050,-0.059099500,0.001168250,0.020274520
1640843943668859904,-0.163509940,-0.069026210,10.028394700,-0.032563510,-0.006824730,0.004267690
1640843943671469824,-0.058553020,-0.021496220,9.476910590,-0.001153350,0.092460200,0.004883110
1640843943673910016,0.134869640,0.061908920,9.756842610,-0.001877550,0.080029650,-0.004868210
1640843943678350080,-0.157285880,-0.078686750,10.679975510,-0.009958450,0.095236310,-0.012786690
1640843943679059968,0.048013550,0.022591060,9.614747050,0.015656650,0.004130600,-0.000625850
1640843943681629952,-0.228891150,0.214017930,9.769921300,0.038874160,-0.022324930,-0.000518560
1640843943683810048,-0.350410100,0.184691590,9.545633320,0.006224220,0.102311380,-0.005573030
1640843943686569984,-0.241126250,0.240475060,9.807682990,0.011189280,0.056219090,-0.010032950
1640843943688809984,-0.479430530,0.148282860,10.366535190,0.064933290,0.065155330,-0.012953580
1640843943691709952,-0.119657030,0.176948890,9.590728760,0.081409510,0.032950940,-0.007693470
1640843943694989824,-0.244933500,0.362409710,10.239231110,0.054065890,0.016902380,0.010354820
1640843943696539904,-0.264243960,0.109423580,9.864624020,0.022228060,0.060154500,0.002378230
1640843943698849792,-0.094102350,-0.064717690,9.690436360,0.073421000,-0.011336800,-0.006121400
1640843943701560064,-0.191303340,0.185685280,9.826839450,0.130476070,0.082357240,-0.011996930
1640843943703769856,-0.061375810,0.280731800,9.774977680,0.069695710,0.065757340,-0.030250850
1640843943706899968,-0.371101020,0.520248230,10.665819170,0.031322240,-0.007939340,0.000296530
1640843943708879872,-0.337321730,0.540281950,9.627502440,0.038897990,-0.004532930,-0.019873680
1640843943711469824,-0.301989230,0.408169270,9.779100420,0.081811850,-0.037175420,-0.016766790
1640843943713860096,-0.487811030,0.842880490,10.120057110,0.102087880,0.092668830,-0.002166630
1640843943717009920,-0.372888090,0.804405090,9.966093060,0.023628770,0.019566710,-0.019136070
1640843943718880000,-0.344205170,0.571846010,10.543110850,0.002971290,-0.063882770,0.018595160
1640843943721469952,-0.066541000,0.678461430,9.400741580,0.036358830,0.034338240,-0.015236440
1640843943723939840,-0.004255010,0.472162750,9.914835930,0.032652920,-0.000487270,-0.019706790
1640843943726889728,-0.203041850,0.573413370,10.610836980,0.028145310,0.050811470,0.018188360
1640843943728809728,-0.023463380,0.415321170,9.766859050,-0.010113420,-0.017970800,-0.023639200
1640843943731539968,-0.103218290,0.243030370,10.238366130,0.002183020,-0.066605210,0.008103250
1640843943734109952,-0.186992880,0.647798240,9.603524210,0.000880660,0.048792360,0.012284520
1640843943736569856,-0.020105060,0.387080610,9.616072650,-0.032131380,0.008945170,-0.006103520
1640843943739219968,-0.240099340,0.291134690,10.516707420,0.012551250,0.028231740,0.029066210
1640843943741560064,-0.061394150,0.505133630,9.560730930,0.031332680,0.030645730,-0.011043250
1640843943743830016,-0.254961040,0.391013440,10.296626090,-0.007075070,-0.064149500,-0.002482530
1640843943749459968,-0.303717790,0.481725160,9.934280400,-0.048378110,0.016124550,0.028671330
1640843943750299904,0.076244820,0.246115610,9.246903420,-0.036676230,0.035928190,-0.018337370
1640843943752049920,-0.072197560,0.113931540,10.417829510,0.041854390,0.043755770,-0.011530520
1640843943754299904,0.073744990,0.429261300,9.668803220,0.043936080,0.064623360,0.002387170
1640843943757079808,0.020421770,0.159790160,9.980851170,-0.006607170,-0.047105550,0.000099840
1640843943758880000,-0.195598690,-0.099119360,10.128908160,-0.020419060,0.004675980,0.027754910
1640843943761560064,-0.068754110,-0.059273210,9.127998350,0.032493470,0.025035440,0.007079540
1640843943765339904,-0.236917420,-0.176191840,9.996307370,0.084479160,0.023877620,-0.012947620
1640843943766749952,-0.248096700,0.115557400,10.193872450,0.056587160,0.107111050,-0.015714770
1640843943769799936,-0.233018400,0.185278390,10.347541810,0.037303570,-0.013147300,-0.013735890
1640843943771669760,-0.302592720,-0.038853770,10.384891510,0.075365610,-0.035642090,-0.006708500
1640843943773860096,0.034640860,0.269634430,9.418704990,0.104799870,0.032438340,-0.009587410
1640843943776609792,0.175828380,0.293804710,10.015457150,0.114378350,0.109016920,-0.023908910
1640843943778849792,0.172998760,0.169617250,10.839806560,0.075256820,0.112558920,-0.012269620
1640843943781570048,0.364578130,0.223158170,10.399595260,0.117871170,0.003623960,0.009301310
1640843943784129792,0.225477960,0.077668960,9.971397400,0.148704650,0.017729400,0.002531710
1640843943786819840,-0.074037860,0.150177580,10.230951310,0.102780770,0.054675340,-0.013946000
1640843943788869888,-0.571786640,0.274239480,10.522126200,0.119203330,0.068269670,-0.013893840
1640843943791549952,-0.476315980,0.273953560,10.089191440,0.118738410,0.004330280,-0.028437370
1640843943793989888,-0.486992030,0.526122810,10.504298210,0.118105120,0.068229440,-0.032314660
1640843943796679936,-0.404995830,0.889904440,10.562162400,0.111313160,0.127348320,-0.029152630
1640843943798820096,-0.262301770,0.756316900,10.977108960,0.082391490,0.031711160,-0.021901720
1640843943801519872,-0.232137370,0.665878120,10.680900570,0.114928190,0.012978910,-0.010912120
1640843943803849984,0.229407310,0.664495230,9.552960400,0.135593130,0.049568710,-0.025956330
1640843943806550016,0.072717890,0.673892080,10.632273670,0.079055150,0.095237810,-0.025676200
1640843943810609920,0.024115060,0.849019470,10.785140990,0.021167100,0.081481040,-0.007234520
1640843943811479808,0.272849890,0.511907280,10.247331620,0.023248790,0.026322900,-0.033761560
1640843943813849856,-0.048959880,0.335246980,10.732288360,0.087568170,0.062571470,-0.053121160
1640843943816849920,-0.345512750,0.657845910,10.670176510,0.101752600,0.084212420,-0.056439640
1640843943822619904,-0.473722640,0.671787320,10.568973540,0.010792910,0.007008020,-0.033394990
1640843943823269888,-0.492753770,0.397708030,10.371530530,-0.032460680,0.026239460,-0.031295420
1640843943823819776,-0.163004670,0.310209540,9.912205700,0.029836600,0.131766510,-0.037150090
1640843943826599936,-0.011235480,0.393988790,10.633204460,0.088466700,0.127409410,-0.047136840
1640843943829120000,-0.048254110,0.418844550,11.103716850,0.072823460,0.086632370,-0.035536290
1640843943831569920,0.306804420,0.422423270,10.276263240,-0.003607570,0.032727430,-0.026486820
1640843943834080000,0.213124560,0.226327330,10.094678880,-0.011479850,0.055824220,-0.045001510
1640843943836570112,0.059380050,0.195930330,10.085445400,0.049699840,0.126738860,-0.055618580
1640843943838830080,0.270313170,0.412735340,10.065686230,0.058481100,0.141273440,-0.066752740
1640843943841479936,-0.100839100,0.361168030,10.701884270,0.047297780,0.129382330,-0.080908850
1640843943843819776,-0.220374790,0.271341170,10.510971070,0.032117970,0.065323700,-0.077109040
1640843943846629888,-0.296655890,0.212461040,10.152475360,0.056752570,0.057570650,-0.061407690
1640843943850230016,-0.441950080,0.118095760,10.105308530,0.059250000,0.115956370,-0.070093570
1640843943853159936,-0.134418850,0.037027360,10.254577640,0.058293350,0.167977810,-0.082291670
1640843943854990080,-0.038336700,0.089195910,10.444103240,0.093999510,0.177589060,-0.078256430
1640843943856580096,0.052829160,0.011186180,10.299834250,0.113150480,0.100784010,-0.084219870
1640843943859030016,0.038394730,0.070889870,10.420046810,0.086295600,0.083360080,-0.072056060
1640843943861510144,-0.085830810,0.068870200,9.800981520,0.088155270,0.124718260,-0.081716460
1640843943863809792,-0.110563350,-0.097330380,9.930397030,0.116188830,0.101849440,-0.114917760
1640843943866839808,-0.087284150,0.271717670,10.328965190,0.141632570,0.199273260,-0.110736510
1640843943869139968,-0.156289860,0.462650000,10.335354800,0.131061670,0.164954390,-0.113835950
1640843943871510016,-0.343311730,0.357547340,10.949825290,0.100182020,0.055295240,-0.101737700
1640843943873890048,-0.448822800,0.417508840,9.998703000,0.130899250,0.084781650,-0.088359420
1640843943876559872,-0.351256610,0.305966230,9.361694340,0.164020060,0.090040270,-0.098241870
1640843943878939904,-0.366430340,0.221510720,10.456884380,0.151465850,0.182436420,-0.104740280
1640843943881959936,-0.240015190,0.380508600,10.413581850,0.130613150,0.190286350,-0.117887560
1640843943884739840,0.031700130,0.365660700,10.468314170,0.122548640,0.047035520,-0.118397180
1640843943886999808,0.011440130,0.391200660,10.414034840,0.131388020,0.113169850,-0.124509630
1640843943888859904,-0.008800160,0.554692270,9.808957100,0.131815670,0.137552620,-0.131486370
1640843943891500032,-0.282990220,0.523031350,10.527201650,0.129149870,0.077646970,-0.128181290
1640843943893779968,-0.371169980,0.617591500,10.071519850,0.116808720,0.090996920,-0.133861600
1640843943896519936,-0.067667250,0.816462640,9.448520660,0.092673310,0.117580590,-0.127795350
1640843943898959872,-0.358769120,0.860600650,10.824254040,0.063593690,0.170855240,-0.146347280
1640843943901769984,-0.416772310,0.834425570,10.797950740,0.054913760,0.103984760,-0.151127590
1640843943903879936,-0.143736680,0.774795470,10.037590980,0.078736250,0.016506020,-0.155659030
1640843943906569984,-0.152502130,0.748113990,9.860318180,0.076311830,0.127810250,-0.172366200
1640843943908900096,-0.083574010,0.762102960,10.146206860,0.021396580,0.180384520,-0.158794240
1640843943911719936,0.003459040,0.804498310,10.482319830,-0.030894580,0.111646970,-0.138637420
1640843943914189824,0.132668580,0.308052720,10.130108830,-0.003062190,0.089886780,-0.154669580
1640843943918929920,0.214010480,0.100916980,9.932472230,0.062091650,0.144341590,-0.158992420
1640843943919469824,0.011590240,0.450248960,10.160285950,0.056616970,0.163015740,-0.168560450
1640843943921499904,-0.282476810,0.443458910,10.545224190,-0.046247240,0.088886920,-0.164292750
1640843943923830016,-0.096319500,0.396835480,9.930417060,-0.094270710,0.102497640,-0.160630060
1640843943926539776,-0.064116080,0.333490130,9.575572970,0.007100400,0.171090660,-0.198368740
1640843943928920064,-0.286117050,0.489985260,10.395966530,0.058390190,0.177760420,-0.216192020
1640843943933539840,-0.301075250,0.922292350,10.334540370,0.001719590,0.135806190,-0.187097490
1640843943935089920,-0.296323690,0.575729730,9.914949420,-0.083394350,0.069844720,-0.191825610
1640843943936600064,-0.179489200,0.156468020,9.808604240,-0.073698160,0.121550270,-0.185245280
1640843943939059968,0.058144740,0.227084930,9.531558990,0.041437150,0.218808670,-0.191214680
1640843943942359808,0.118623980,0.137850400,10.237130170,0.038228930,0.191789870,-0.203077540
1640843943943820032,0.116186150,0.019854070,10.504759790,-0.035448380,0.161740180,-0.184294580
1640843943946879744,0.095247910,-0.235574130,9.758955000,-0.022070110,0.107362870,-0.186480550
1640843943950619904,-0.143125730,-0.383754400,9.601827620,0.041374580,0.087343160,-0.200074940
1640843943952090112,-0.246777920,0.029354710,9.585218430,0.051182520,0.172068220,-0.222800700
1640843943954370048,-0.254909840,0.248525750,9.703055380,0.005218390,0.233815630,-0.232073710
1640843943956480000,-0.365367680,0.244130760,10.433270450,0.002177060,0.166176270,-0.237533450
1640843943958789888,-0.356233420,0.378142180,10.174081800,0.082530080,0.116311030,-0.238344090
1640843943961699840,-0.310369850,0.616761920,9.426609040,0.073142360,0.104245560,-0.229334880
1640843943964039936,-0.416368160,0.409917950,9.817173960,0.011789800,0.152438880,-0.222763420
1640843943966769920,-0.324450310,0.094301440,9.803369520,0.044639410,0.188136150,-0.232361290
1640843943968940032,0.023991910,0.127717060,9.465798380,0.092874470,0.147064050,-0.243735310
1640843943971909888,-0.038314040,0.124750580,10.151202200,0.083021820,0.156196970,-0.250263510
1640843943974360064,-0.100125280,0.264149640,10.097434040,0.030682980,0.149318590,-0.242623700
1640843943976470016,-0.248347510,0.136633350,9.826950070,0.029820210,0.063245000,-0.246925670
1640843943979169792,-0.382912640,0.022765730,9.782508850,0.093410910,0.091075900,-0.261145860
1640843943981599744,-0.227797700,0.533093330,9.287892340,0.089891250,0.202827140,-0.264194550
1640843943983849984,-0.438195380,0.735314730,10.260508540,0.035572060,0.159642100,-0.288531180
1640843943987219712,-0.482310300,0.738013030,10.504976270,0.003895160,0.080600370,-0.278151040
1640843943988869888,-0.133325060,0.855088530,9.134992600,0.023856760,0.074127320,-0.276705650
1640843943991479808,-0.185612830,0.694011390,9.690068240,0.053167350,0.125382840,-0.289057220
1640843943993939968,-0.315721420,0.789013680,10.302082060,0.017333030,0.202628970,-0.277131800
1640843943996549888,-0.098959460,0.787817900,9.877071380,-0.020186600,0.074675690,-0.279165800
1640843943998919936,-0.101125390,0.340355600,10.085095410,-0.031712650,0.053288050,-0.277200370
1640843944001580032,0.072811110,0.500985620,9.360705380,-0.024805970,0.175823320,-0.280688760
1640843944003879936,0.021491100,0.477103080,9.942660330,-0.018046800,0.133159770,-0.295113120
1640843944006660096,-0.232431170,0.326853930,10.522354130,-0.040128820,0.126405030,-0.288386610
1640843944008889856,0.062359500,0.552843150,9.411128040,-0.060071050,0.094991930,-0.292252000
1640843944011549952,-0.062677150,0.544841830,9.866465570,-0.059157610,0.115489940,-0.308296050
1640843944013890048,-0.185543480,0.673225760,9.787837980,-0.084650540,0.182819400,-0.298780260
1640843944016480000,0.045316590,0.686786530,9.616715430,-0.079624350,0.119955860,-0.295692680
1640843944018839808,-0.149620730,0.381750700,10.010048870,-0.057436530,0.154265760,-0.302328200
1640843944021509888,-0.061471680,0.359671470,9.564549450,-0.047729910,0.152768210,-0.306952000
1640843944023859968,-0.279355410,0.413704010,10.016266820,-0.067907580,0.118242200,-0.289265810
1640843944026749952,-0.276464310,0.109790080,9.507437710,-0.121948150,0.131364170,-0.303472610
1640843944028839936,0.030740160,-0.150965770,9.428726200,-0.082220140,0.154881190,-0.315524640
1640843944031589888,-0.079338130,0.000468550,9.761693000,-0.003410880,0.234384860,-0.324974980
1640843944033910016,-0.051155690,0.014968930,9.839778900,-0.022019450,0.147418710,-0.326404040
1640843944036549888,-0.144976240,0.105462510,10.201840400,-0.063465540,0.097942370,-0.311303230
1640843944038919936,-0.106498460,-0.009278670,9.085005760,-0.068555790,0.153690580,-0.329297870
1640843944041570048,-0.224535910,-0.121945430,9.495390890,-0.010359290,0.118452330,-0.350275730
1640843944044039936,-0.239897610,0.358743370,9.560991290,0.028412050,0.248117740,-0.340105590
1640843944046569728,-0.162002070,0.369699150,9.542590140,-0.024223330,0.174209490,-0.355456770
1640843944048879872,-0.488213120,0.198234590,10.679311750,-0.031919780,0.094857810,-0.331898120
1640843944051519744,-0.263356240,0.203579950,8.975996020,0.010707970,0.125545250,-0.330169440
1640843944053859840,-0.265278730,-0.043751240,9.151108740,0.050692270,0.107049960,-0.350405370
1640843944056519936,-0.418241170,0.074837590,10.014373780,0.035230820,0.257732000,-0.340798500
1640843944058919936,-0.221265610,0.141654190,9.448681830,0.002181530,0.151620810,-0.358757470
1640843944061489920,-0.305602370,-0.160724800,10.193361280,0.033245990,0.029812760,-0.353688060
1640843944063819776,-0.204271080,0.200203670,9.066462520,0.050909820,0.163140880,-0.353515120
1640843944066629888,-0.203929350,0.300302450,9.368114470,0.041121240,0.129650550,-0.367541610
1640843944068919808,-0.625021040,0.234356640,10.643610000,0.037436190,0.159783660,-0.354517970
1640843944071919872,-0.254915150,0.602629660,9.232427600,0.038957610,0.083872690,-0.379507330
1640843944073959936,-0.158404740,0.742817040,9.572931290,0.032399590,0.052706910,-0.379788960
1640843944076619776,-0.328741130,0.907289860,9.832261090,-0.014607610,0.202535060,-0.371333930
1640843944078879744,-0.202674870,0.895424960,9.676839830,-0.022301080,0.095872590,-0.380790230
1640843944081580032,-0.429609570,0.632737280,10.293761250,0.025494400,0.035931180,-0.374566080
1640843944083950080,-0.099725850,0.533056560,9.018156050,0.020514430,0.122345970,-0.377839740
1640843944086999808,-0.066188540,0.650610920,9.690961840,-0.040453660,0.122734900,-0.376109720
1640843944088869888,-0.358480900,0.401109520,10.348664280,-0.085730870,0.131195810,-0.353457120
1640843944091509760,0.104287590,0.171974970,9.253557210,-0.053632270,0.049692400,-0.381054040
1640843944093880064,-0.031462540,0.272317830,9.759482380,0.010347370,0.109466910,-0.398030940
1640843944096489984,-0.200085430,0.521013800,9.834841730,-0.023937230,0.164382140,-0.405520200
1640843944098899968,-0.225971030,0.767000560,10.056260110,-0.119309120,0.041088460,-0.385728420
1640843944102880000,-0.202094060,0.704162060,9.580093380,-0.131598110,0.081333530,-0.384922330
1640843944103940096,0.100168850,0.539261820,9.133264540,-0.076918290,0.145043420,-0.392118070
1640843944106919936,-0.051527580,0.797354220,10.030391690,-0.019562240,0.193025190,-0.382091100
1640843944109089792,-0.120761210,0.703296010,9.843480110,-0.084815930,0.123995560,-0.387339290
1640843944111759872,-0.059523310,0.292908100,9.752793310,-0.144231320,0.024342540,-0.370354950
1640843944113939968,-0.057319020,0.170250370,9.095122340,-0.108732290,0.147570670,-0.383520130
1640843944118639872,-0.047526470,-0.084972690,9.250600810,-0.074577340,0.157928470,-0.400984320
1640843944120460032,-0.171124010,0.017613300,10.175150870,-0.056558860,0.175932090,-0.389629660
1640843944121499904,0.024929680,-0.014535120,9.424968720,-0.078231110,0.170461880,-0.413279290
1640843944123960064,-0.183629270,-0.280774210,10.087839130,-0.076283520,0.056664650,-0.408053400
1640843944126479872,-0.336219310,0.196844850,9.387931820,-0.039626650,0.131620480,-0.398197770
1640843944128839936,-0.063467200,0.190247100,8.701681140,-0.084921730,0.108379130,-0.417394940
1640843944131510016,-0.164896880,0.085741250,9.998094560,-0.062486540,0.210970680,-0.396324750
1640843944133989888,0.112778650,0.244186070,9.347253800,0.005283950,0.256334250,-0.409512280
1640843944136580096,-0.015950420,0.105154220,10.219434740,0.024619700,0.049778820,-0.401744250
1640843944139180032,-0.320321680,0.316017660,9.790116310,-0.023268160,0.119067730,-0.370170210
1640843944142230016,-0.078272870,0.057494070,8.451582910,-0.069692730,0.102728630,-0.403071940
1640843944143839744,-0.592951060,-0.256445680,9.955558780,0.003609060,0.144326690,-0.409349800
1640843944146679808,-0.329864500,0.049697690,8.968828200,0.076113660,0.238001390,-0.425846930
1640843944148900096,-0.238995790,0.017615850,9.921439170,0.054696210,0.104454180,-0.442975820
1640843944151549696,-0.604873360,0.128935310,10.569322590,0.002597270,0.140635670,-0.414240450
1640843944153879808,-0.159988760,0.079444130,8.786865230,0.002354380,0.068537890,-0.421810150
1640843944156559872,-0.553178370,0.043386020,9.826537130,0.072498620,0.048872830,-0.417850910
1640843944158870016,-0.265290800,0.408162980,8.916563990,0.078965740,0.230515030,-0.417251970
1640843944161530112,-0.100753190,0.548614320,9.704693790,0.036777560,0.120805230,-0.421179830
1640843944163879936,-0.456138370,0.509889540,10.650727270,0.018474460,0.106085830,-0.394742220
1640843944166619904,0.104899450,0.438535960,8.898467060,0.028663880,0.075213610,-0.408484070
1640843944168900096,-0.246116920,0.391677500,9.978322030,0.075118250,0.078055270,-0.426320790
1640843944173139712,-0.430301250,0.537266610,9.779936790,0.043678280,0.179289300,-0.422351060
1640843944175289856,-0.068360630,0.483662130,9.281630520,0.003062190,0.045724210,-0.419040020
1640843944176549888,-0.320265230,0.467585180,9.868617060,0.018131730,0.121761880,-0.421179890
1640843944178909952,-0.010271190,0.627957220,9.147873880,-0.004382430,0.161767010,-0.427231280
1640843944181589760,-0.326033500,0.588972390,10.266694070,0.013582410,0.075568270,-0.420728330
1640843944183820032,-0.421685250,0.588314060,9.763337140,0.007122760,0.085814300,-0.428000090
1640843944186899968,-0.029753830,0.622010530,9.118624690,-0.016181170,0.060234980,-0.419536290
1640843944188889856,-0.265544710,0.791360260,9.840050700,-0.041167430,0.164753200,-0.406508120
1640843944191500032,-0.046337200,0.644043560,9.650457380,-0.084662450,0.158071560,-0.418643710
1640843944193869824,0.012931250,0.408772470,10.107181550,-0.041925910,0.074571370,-0.404082240
1640843944196519936,-0.044713960,0.321929960,9.431765560,0.009755790,0.118872520,-0.425964620
1640843944198889984,0.048441960,0.285910220,9.326663020,-0.028412050,0.090594580,-0.428093910
1640843944201479936,-0.201918020,0.501745640,9.600420000,-0.099371380,0.151836870,-0.392581490
1640843944205260032,0.031280000,0.103163820,9.217377660,-0.121292490,0.141033570,-0.429776400
1640843944207879936,-0.029317330,-0.041344020,9.884168620,-0.009019670,0.142334450,-0.430715140
1640843944208950016,-0.106512800,0.363604780,9.341415410,0.036448250,0.184395940,-0.435851600
1640843944211569920,-0.274896620,0.230499680,9.915266040,-0.050306320,0.072215500,-0.429624350
1640843944213899776,-0.418764440,0.355039150,9.652480130,-0.100426380,0.123645350,-0.404292350
1640843944216489984,-0.132535520,0.127775830,8.740828510,-0.069808970,0.128302010,-0.433620900
1640843944219159808,-0.178817320,0.037438720,9.769148830,0.025464600,0.181818050,-0.420826730
1640843944221760000,0.030745830,0.351731810,9.262716290,0.037530060,0.237864300,-0.424782990
1640843944223869952,-0.003744520,-0.029835510,10.055737500,-0.019471340,0.103510910,-0.431014570
1640843944226459904,-0.210750560,-0.087684910,9.817806240,-0.020459300,0.119870920,-0.396820960
1640843944228849920,-0.012596530,-0.031742070,8.533408160,-0.001503530,0.110092770,-0.428038840
1640843944231569920,-0.277174740,-0.261626150,9.711486820,0.036460160,0.171834230,-0.425353740
1640843944234200064,-0.234248560,0.087099220,9.367650990,0.058546670,0.256949690,-0.435309200
1640843944236829952,-0.317600640,0.088702300,9.853595730,0.059212760,0.088520360,-0.451609580
1640843944239310080,-0.468805670,0.227669130,9.766675950,0.045041740,0.124900040,-0.418321820
1640843944241590016,-0.326240570,0.521706280,8.844559670,0.016534330,0.128676010,-0.437516030
1640843944244039936,-0.641529860,0.233287200,10.039440160,0.043906280,0.131484900,-0.431501920
1640843944246729728,-0.433496300,0.434751390,9.419593810,0.080885010,0.158636290,-0.427658920
1640843944250690048,-0.102346080,0.516805110,9.258074760,0.089326510,0.109930360,-0.434237720
1640843944251549952,-0.221547990,0.345196750,10.098122600,0.033655760,0.178389270,-0.414966110
1640843944254020096,-0.046314000,0.534322620,9.613788600,-0.002668800,0.128923370,-0.416451720
1640843944256519936,-0.199022050,0.155104960,9.787734990,0.053574150,0.046913330,-0.428402450
1640843944258889984,-0.140226450,0.180608000,9.198696140,0.085788990,0.127182920,-0.429792760
1640843944261469952,-0.204636780,0.605543380,9.334088330,0.056934360,0.157867370,-0.442589850
1640843944263859968,-0.534005220,0.574121830,10.331690790,-0.025455660,0.117155910,-0.421199140
1640843944266749952,-0.322942700,0.601460460,9.563474660,-0.031360980,0.074104970,-0.414037700
1640843944270390016,-0.341783460,0.612145420,9.373722080,0.035505000,0.085452180,-0.431653830
1640843944271589888,-0.442215860,0.666504500,9.791501050,0.031012300,0.141038020,-0.430381360
1640843944274329856,-0.484748040,0.866449180,9.803463940,-0.002628560,0.096137830,-0.415153890
1640843944276710144,-0.308674570,0.611909510,9.629045490,-0.056353220,0.051605700,-0.418597490
1640843944278899968,0.002942220,0.437586670,9.392886160,-0.063696510,0.127041350,-0.412721930
1640843944281619968,0.064675030,0.508456230,9.631407740,-0.003920500,0.156113520,-0.415807960
1640843944283910144,0.109472860,0.206855640,9.970852850,-0.012147430,0.117954630,-0.417122270
1640843944286469888,-0.001005300,0.234352720,9.704867360,-0.027553740,0.085102030,-0.398758110
1640843944288889856,-0.059260980,0.213733930,9.201301570,-0.046296420,0.073491040,-0.397399100
1640843944291460096,-0.249627560,0.106374580,9.556170460,-0.065548720,0.100694620,-0.399070980
1640843944293819904,-0.308832650,0.286317410,9.428516390,-0.019797680,0.155335660,-0.401051400
1640843944296509952,-0.203750160,0.125306520,9.560198780,-0.005923210,0.132192690,-0.428283270
1640843944298990080,-0.312931300,0.279639360,9.900165560,0.009982290,0.135567770,-0.419597270
1640843944303160064,-0.183788240,0.578322890,9.227950100,-0.022797290,0.109863290,-0.409233570
1640843944304109824,-0.306327370,0.204734250,9.830198290,-0.073924660,0.069083280,-0.409817790
1640843944306659840,-0.299367870,0.106146980,9.263310430,-0.015282630,0.144048050,-0.401385130
1640843944308999936,-0.023978770,0.014312150,9.109869960,0.045594580,0.117120150,-0.424809750
1640843944311519744,-0.182567720,-0.042767470,9.951749800,0.041720270,0.175435840,-0.414101870
1640843944314560000,-0.023051850,0.142307300,9.382349970,-0.010225180,0.148049010,-0.399224490
1640843944316509952,-0.254896790,-0.224203110,10.137128830,-0.028243660,0.048300630,-0.402577220
1640843944318869760,-0.380466190,-0.200361520,9.294884680,0.057321790,0.112427780,-0.399619340
1640843944321499904,-0.175336550,0.136765380,8.855452540,0.100731850,0.094677530,-0.420422850
1640843944324169984,-0.588834580,0.263143930,10.076981540,0.041687500,0.189270120,-0.426867690
1640843944326530048,-0.405745030,0.611518860,9.581938740,-0.013591350,0.129221390,-0.422315300
1640843944328849920,-0.437086970,0.567236840,9.979669570,0.011581180,0.008387860,-0.419928070
1640843944331669760,-0.399795860,0.601176260,9.315315250,0.059822210,0.122046490,-0.419816460
1640843944333900032,-0.231399040,0.838875230,9.294381140,0.046813490,0.104987640,-0.420962330
1640843944336489984,-0.611304280,0.596256200,10.481345180,0.006332990,0.114966940,-0.409375130
1640843944339000064,-0.197427720,0.410689980,9.341940880,-0.005662440,0.052313510,-0.405652820
1640843944341989888,-0.108319790,0.397778780,9.531300540,0.019010900,0.040863450,-0.393897320
1640843944343930112,-0.212193440,0.304406170,9.670998570,-0.004237890,0.170718180,-0.396624300
1640843944347190016,-0.048559170,0.354074950,9.793295860,-0.007100400,0.080771730,-0.397817820
1640843944348870144,-0.333212670,0.247683300,10.187648770,0.002807380,0.040803850,-0.398822220
1640843944351480064,-0.121178080,0.309620950,9.084597590,-0.009019670,0.070221710,-0.413604020
1640843944353829888,-0.322696090,0.657797520,9.675259590,-0.016364460,0.069224840,-0.403907920
1640843944356839936,-0.419841290,0.753521800,9.727563860,-0.070931020,0.120444600,-0.408415500
1640843944358909952,-0.104452820,0.618219610,9.501278880,-0.068026790,0.059308120,-0.411808490
1640843944361529856,-0.295375970,0.621549610,9.933148380,0.008949640,0.104865430,-0.410302010
1640843944364440064,-0.193480800,0.615262030,9.486250880,-0.021520260,0.071214120,-0.415742340
1640843944366560000,-0.191028010,0.562221530,9.765228270,-0.076127060,0.041279200,-0.364521180
1640843944368969984,-0.079535520,0.089607180,9.403358460,-0.101797290,0.126512360,-0.364197790
1640843944371539712,0.118549440,-0.337342410,9.543673520,-0.027301910,0.113148970,-0.390604110
1640843944374609920,-0.053425300,-0.095998190,9.814353940,0.056952240,0.124296540,-0.379319460
1640843944376519936,-0.013952610,-0.087629410,9.480717660,-0.025032460,0.078664720,-0.408183070
1640843944379010048,-0.332678080,-0.202293370,9.984020230,-0.066168610,0.055383150,-0.388446450
1640843944381600000,-0.378488030,-0.122567520,9.250434880,-0.015054640,0.080536310,-0.404140350
1640843944383849984,-0.354371880,-0.026388040,9.331542970,0.044608110,0.076793120,-0.430127980
1640843944386530048,-0.380582900,0.523439410,9.546644210,0.044497840,0.170540780,-0.407181710
1640843944388880128,-0.328410240,0.489638480,9.976172450,-0.018636880,0.107704110,-0.410760940
1640843944391470080,-0.433792170,0.195334690,10.240924840,0.014097990,0.041380520,-0.384365050
1640843944393990144,-0.159064170,0.399455700,8.990072250,0.060649220,0.044348850,-0.378471700
1640843944396649728,-0.286733960,0.123512410,9.545187000,0.048238040,0.090830040,-0.393863020
1640843944398919936,-0.323772190,0.085642070,9.875931740,0.028967860,0.159876090,-0.382624630
1640843944401609984,-0.181811300,0.103302300,9.861480710,0.025510790,0.038120150,-0.398027930
1640843944404079872,-0.289366420,-0.148794920,9.992393490,0.061935190,0.054062910,-0.398162040
1640843944406499840,-0.062548820,0.278029380,9.282389640,0.061649100,0.084210950,-0.404821430
1640843944408959744,-0.502837600,0.462031100,10.193093300,0.027163330,0.068509580,-0.414201650
1640843944411539968,-0.487895160,0.402864580,9.792383190,0.031983860,0.069421550,-0.391285180
1640843944413910016,-0.275462900,0.637109340,9.405653000,0.051003700,0.013561550,-0.398828090
1640843944416499968,-0.431696710,0.678673450,9.931040760,0.060664130,0.113524500,-0.400157300
1640843944418899968,-0.151427430,0.868919310,9.739352230,-0.000636280,0.095592450,-0.380852910
1640843944421499904,-0.292830470,0.726793830,10.260011670,-0.015228990,0.034166880,-0.373029770
1640843944424209920,-0.178252210,0.322665210,9.686261180,0.020781160,0.055512790,-0.378720520
1640843944426459904,-0.065823260,0.372961100,9.533832550,0.057955090,0.041681540,-0.375489950
1640843944428930048,-0.390863150,0.435560260,9.859073640,0.003710390,0.085958850,-0.363861020
1640843944431599872,0.129767180,0.163153380,9.483680730,-0.066204390,0.076597940,-0.363633130
1640843944433979904,0.021424790,-0.016552900,9.969164850,0.000762940,0.132772330,-0.381763340
1640843944436539904,-0.101527840,0.011417130,9.990679740,0.072151430,0.088720040,-0.400482210
1640843944439139840,-0.248846340,0.269566680,10.086887360,0.061470280,0.010161100,-0.376759470
1640843944441829888,-0.378240290,0.415434120,9.268730160,-0.027206550,0.050733980,-0.372357700
1640843944444449792,-0.153983460,0.117880660,9.294881820,-0.050678850,0.097025940,-0.379696520
1640843944446650112,-0.236667390,0.256991650,9.920681000,0.054030120,0.194883350,-0.374504950
1640843944448900096,-0.131869880,0.405395690,9.944418910,0.086669620,0.082695480,-0.390137760
1640843944451479808,-0.253584710,0.365269420,10.463944440,0.038313880,0.024722520,-0.359018240
1640843944453829888,-0.162166700,0.206253810,9.217023850,-0.014682120,0.094030820,-0.364230660
1640843944456509952,-0.203986120,-0.296755190,9.532534600,0.034415720,0.050061950,-0.384964050
1640843944459030016,-0.110946530,-0.053032610,9.471440320,0.115433340,0.190107540,-0.372147560
1640843944461550080,0.029611050,0.008296600,9.584078790,0.077059870,0.148482620,-0.392614390
1640843944463939840,-0.440983300,-0.173861000,11.099482540,0.059303650,0.076241790,-0.358286560
1640843944466560000,-0.220297600,-0.037597890,9.259839060,0.082729770,0.036248570,-0.370702210
1640843944468969728,-0.420979500,-0.112784240,9.344190600,0.112183400,-0.002563000,-0.383494730
1640843944471510016,-0.463567440,0.215397430,9.636783600,0.107795010,0.224199940,-0.372619990
1640843944473979904,-0.335515260,0.396564360,9.901906970,0.081636030,0.158181830,-0.404667940
1640843944476780032,-0.619921980,0.373521800,11.001286510,0.123602170,0.003804270,-0.372341360
1640843944478919936,-0.101400950,0.648826120,9.030966760,0.110557700,0.053153940,-0.375187400
1640843944481469952,-0.306788950,0.490928590,9.526739120,0.088179110,0.056362160,-0.391340320
1640843944483859968,-0.466632340,0.327030480,10.259473800,0.097407410,0.167801980,-0.357125700
1640843944486490112,-0.108274190,0.387863190,9.677745820,0.116986020,0.079891080,-0.383107300
1640843944488910080,-0.185115470,0.342217890,10.226326940,0.120171920,0.037071110,-0.372312990
1640843944492029952,-0.004799730,0.547372460,9.729444500,0.064031790,0.133568050,-0.367228720
1640843944493899776,-0.323269490,0.373914420,10.106990810,0.035895410,0.056736180,-0.389975340
1640843944497720064,-0.557902750,0.173598630,10.228797910,0.093501790,0.019799170,-0.381129980
1640843944498899968,-0.220685850,0.578533650,9.152633670,0.128100810,0.073587890,-0.390143660
1640843944501560064,-0.445906550,0.734833600,10.002386090,0.064736610,0.119115430,-0.386343930
1640843944503939840,-0.327775240,0.906619970,10.437888150,-0.029309100,0.116919000,-0.359270070
1640843944506979840,-0.105010740,0.709191080,10.153114320,0.002978740,0.067740690,-0.371153650
1640843944509239808,-0.114323500,0.391871870,10.075483320,0.088772200,0.056175900,-0.377644600
1640843944511539968,-0.048832420,0.770958780,9.770687100,0.085331480,0.101989520,-0.367724900
1640843944514070016,-0.190783050,0.703505520,9.718116760,-0.024224820,0.095601380,-0.360417370
1640843944516450048,-0.009884980,0.241237670,9.908679010,-0.088974850,0.084607330,-0.342337850
1640843944518899968,0.033636040,0.050167640,9.899538990,0.013080240,0.159965440,-0.362718050
1640843944521509888,-0.151802660,-0.125423680,10.139813420,0.106769790,0.114287440,-0.391347740
1640843944523919872,-0.345166500,0.256777520,10.352361680,0.056831540,0.054389250,-0.364516680
1640843944526710016,-0.297628100,0.440986690,9.415003780,-0.066962840,0.095644620,-0.356200400
1640843944528930048,-0.079449900,0.017446810,9.588722230,-0.096243630,0.122992700,-0.361958150
1640843944531620096,-0.232232450,0.279831770,10.049106600,0.069266560,0.203238440,-0.363184510
1640843944533910016,-0.064989010,0.492448420,9.623438840,0.118753340,0.122691710,-0.384125170
1640843944536460032,-0.183672030,0.386100740,10.417656900,0.026631360,0.075091430,-0.358046650
1640843944539259904,-0.146737680,0.351108250,9.457403180,-0.046888000,0.161564370,-0.343093280
1640843944541519872,-0.075286860,-0.261341900,9.755370140,-0.005680320,0.087733580,-0.373636280
1640843944543939840,-0.197869380,-0.025746610,9.951848980,0.103592870,0.183297710,-0.365361600
1640843944546599936,0.095974100,0.147799880,9.277250290,0.093524180,0.196513560,-0.382801980
1640843944548889856,-0.330698850,-0.301999960,10.932585720,0.047999620,0.133784120,-0.349929960
1640843944551509760,-0.395739140,-0.064869330,9.573007580,0.063201800,0.117711760,-0.350870250
1640843944553920000,-0.277493830,-0.187889670,9.234556200,0.103040040,0.025185940,-0.376212570
1640843944556480000,-0.464626970,0.094637770,9.801085470,0.102151950,0.246609760,-0.373747940
1640843944559119872,-0.232315060,0.402361390,9.651737210,0.076216460,0.234253730,-0.389944110
1640843944561760000,-0.525552450,0.180092680,11.093804360,0.128242400,0.081394640,-0.378266040
1640843944564049920,-0.256396800,0.562741640,9.405279160,0.139430180,0.093786420,-0.370754300
1640843944566530048,-0.145993720,0.634968400,9.234855650,0.071787830,0.089348860,-0.363141360
1640843944568940032,-0.480647800,0.217986850,10.416879650,0.057019300,0.235386210,-0.349532070
1640843944571539968,-0.227955070,0.250328300,9.726659770,0.122128450,0.151686370,-0.370532300
1640843944574339840,-0.303236780,0.200973540,10.379925730,0.173388410,0.039984280,-0.379012470
1640843944576499968,-0.195897420,0.394686910,9.619529720,0.088177620,0.186750310,-0.373266640
1640843944578939904,-0.325015750,0.462049070,9.856044770,0.020976360,0.125704720,-0.381603780
1640843944581549824,-0.739993630,0.197205930,10.692832950,0.066377220,0.096301740,-0.381001830
1640843944583869952,-0.233573440,0.487772760,9.223595620,0.124578190,0.102087880,-0.392957120
1640843944586899968,-0.299920020,0.694170060,9.888615610,0.117652140,0.138460100,-0.388656590
1640843944588899840,-0.375644740,0.883224070,10.569131850,0.002716480,0.198301690,-0.368796230
1640843944591830016,-0.090441870,0.803783660,10.036137580,-0.013807420,0.083853310,-0.357784330
1640843944594029824,-0.164207680,0.458440240,10.092615130,0.058436400,0.069610790,-0.363554120
1640843944596629760,-0.049205600,0.660625220,9.657363890,0.071077060,0.172187390,-0.375320050
1640843944598979840,-0.214093710,0.767826500,9.968116760,0.021187960,0.142458080,-0.367575910
1640843944601699840,-0.155134650,0.483562530,10.152728080,-0.066594790,0.111869000,-0.358749990
1640843944603909888,0.108888200,0.218020080,9.768583300,-0.030821560,0.182621200,-0.364150140
1640843944606540032,-0.098837850,0.115889940,10.143036840,0.043410060,0.162109720,-0.383824050
1640843944608950016,-0.370102610,0.248108220,10.459859850,0.034113230,0.124351690,-0.369018320
1640843944611510016,-0.316844050,0.291982920,9.678352360,-0.025966770,0.106677430,-0.355200500
1640843944613929984,-0.173999410,-0.027606110,9.516387940,-0.068643710,0.140103730,-0.353409410
1640843944616519936,-0.198570940,0.101372520,9.966161730,0.009606780,0.243720460,-0.374007230
1640843944619209984,-0.046825300,0.332002640,9.848997120,0.055633490,0.201748310,-0.378234710
1640843944621489920,-0.139879940,0.380620510,10.559786800,0.004750490,0.119817280,-0.371319060
1640843944623989760,-0.120448960,0.353067130,9.863363270,-0.026455530,0.184413790,-0.357909500
1640843944626899968,-0.069185990,-0.083715010,9.546519280,0.003416840,0.131304580,-0.378066300
1640843944629380096,-0.282366250,0.067197730,9.969170570,0.060780350,0.195607540,-0.368294150
1640843944631729920,0.080030570,0.151154310,9.246646880,0.036740310,0.265206460,-0.372471000
1640843944633869824,-0.231198850,-0.262091160,10.891779900,0.014635920,0.197094690,-0.369758930
1640843944636539904,-0.441315030,-0.138839950,10.298581120,0.071434680,0.172942910,-0.353117320
1640843944638939904,-0.157735320,-0.107082900,9.132402420,0.073009710,0.069940080,-0.382491920
1640843944641539840,-0.527012710,-0.054062470,9.873458860,0.048136710,0.234597940,-0.370839240
1640843944643919872,-0.360026810,0.217444660,9.561023710,0.043842200,0.302660550,-0.392505620
1640843944646599936,-0.492253300,0.191331310,10.832714080,0.088156760,0.126148780,-0.391224030
1640843944648909824,-0.360380920,0.553336020,9.827099800,0.106883050,0.162501630,-0.367359850
1640843944651529984,-0.068937900,0.681098100,9.361672400,0.046820940,0.166924300,-0.376302030
1640843944653959936,-0.544992510,0.391092300,10.822273250,0.023604930,0.241410730,-0.364273790
1640843944657349888,-0.238068680,0.359349520,9.630732540,0.081801420,0.180387500,-0.370007780
1640843944659020032,-0.159288630,0.313406230,10.032165530,0.120896120,0.107190020,-0.375723840
1640843944661779968,-0.216173630,0.402805300,9.902896880,0.059737270,0.275239440,-0.365670080
1640843944665439744,-0.231209840,0.440337180,10.115173340,-0.007267300,0.174807030,-0.383907590
1640843944666749952,-0.663177550,0.150777740,10.931021690,0.025354330,0.102277100,-0.392505560
1640843944668900096,-0.342195630,0.314999730,9.149602890,0.081327560,0.151222940,-0.398796890
1640843944671469824,-0.453748170,0.756409700,9.973128320,0.062529750,0.168441240,-0.396572080
1640843944673889792,-0.678647460,0.913154960,10.644341470,-0.038331750,0.259330960,-0.363500510
1640843944676479744,-0.227944580,0.757620160,9.904019360,-0.060185790,0.108177970,-0.362680850
1640843944678889984,-0.281209860,0.535502250,10.454700470,0.033122300,0.109270220,-0.374309720
1640843944681499904,-0.102850300,0.598997890,9.650470730,0.039204950,0.237236900,-0.371020970
1640843944684019968,-0.233612330,0.714367510,10.368563650,-0.032725930,0.138980150,-0.367623630
1640843944686579968,-0.463592020,0.481222210,10.569824220,-0.122240170,0.126144300,-0.358331140
1640843944689039872,0.175588430,0.215783150,9.130653380,-0.096578880,0.159443890,-0.379765000
1640843944691479808,-0.136736360,0.214507270,10.236918450,0.001651050,0.212343070,-0.386935500
1640843944694540032,-0.308245000,0.456313130,10.391838070,-0.015269220,0.225499290,-0.381371410
1640843944696719872,-0.234016750,0.428234550,10.122195240,-0.090961160,0.090464960,-0.368718800
1640843944698959872,-0.473354700,0.122270710,10.112471580,-0.114803000,0.134029950,-0.351062390
1640843944701449984,-0.240105050,0.177313510,9.418169020,-0.061947110,0.202059750,-0.371396570
1640843944703899904,-0.322161110,0.371768150,10.125058170,-0.020781160,0.204178710,-0.368741180
1640843944706560000,-0.235831390,0.383818920,10.258791920,-0.073057420,0.225172940,-0.353448120
1640843944708959744,-0.139957250,0.202499290,10.281609540,-0.071336330,0.157099960,-0.356756180
1640843944711510016,-0.276374340,-0.000375930,10.097362520,-0.048226120,0.125582520,-0.362886520
1640843944714159872,-0.022870410,0.181324440,9.258264540,-0.042401250,0.159052000,-0.359126900
1640843944716470016,0.048246220,0.114601990,9.672217370,-0.060865290,0.275310870,-0.366810050
1640843944718969856,-0.063767470,-0.083157580,10.457697870,-0.068423170,0.270898730,-0.372041820
1640843944721519872,-0.208801430,-0.031186370,10.444473270,0.005678830,0.138503360,-0.357990030
1640843944723990016,-0.253713310,0.027996250,9.470814700,0.010241570,0.120572760,-0.346763490
1640843944727069952,-0.446673540,-0.001043830,9.591452600,-0.054706630,0.193987800,-0.332888960
1640843944728940032,-0.587202070,-0.014736520,9.831927300,-0.036282840,0.286899540,-0.338016450
1640843944731819776,-0.493679050,-0.081597420,10.142580030,0.011885170,0.183141230,-0.365531470
1640843944733909760,-0.402543870,0.212696450,10.071908950,0.061041130,0.188240440,-0.353500250
1640843944736480000,-0.160731260,0.391441490,9.638934140,0.002433360,0.207923380,-0.344841210
1640843944738880000,-0.515872360,0.056503140,10.591014860,-0.030103330,0.168345880,-0.341740250
1640843944741550080,-0.372536090,0.116217280,9.499429700,0.043696170,0.160352930,-0.335052670
1640843944743969792,-0.055226500,0.073892470,9.392011640,0.052335860,0.150129200,-0.359916690
1640843944746879744,-0.301736030,0.187361080,10.216569900,0.029292710,0.310789140,-0.332772790
1640843944748950016,-0.298623800,0.221283610,10.146887780,0.005243720,0.186342020,-0.330755110
1640843944751529984,-0.691655810,-0.010995310,10.753518100,0.033169990,0.041711330,-0.328825440
1640843944754020096,-0.478896080,0.177800070,8.837195400,0.056365140,0.146935880,-0.319856460
1640843944756559872,-0.512304370,0.142428410,9.664632800,0.039929160,0.197339060,-0.342957710
1640843944759179776,-0.918140290,0.272230270,10.968496320,0.031290940,0.276437370,-0.329357330
1640843944761720064,-0.394309730,0.542869630,9.749110220,0.027467320,0.081044450,-0.332962070
1640843944763909888,-0.545220260,0.479779480,10.438923840,0.022096930,0.045992440,-0.320132050
1640843944766530048,-0.339440880,0.601316990,9.329057690,0.012061000,0.227055000,-0.318312640
1640843944768920064,-0.351600290,0.396564930,10.093179700,0.032231210,0.101733210,-0.319264860
1640843944771450112,-0.630310060,0.444452380,10.761461260,0.033611060,0.128835440,-0.311054320
1640843944773959936,0.030691430,0.638800560,9.128221510,-0.025399030,0.124207150,-0.310716000
1640843944776679936,-0.443908990,0.466385220,10.880827900,-0.052399940,0.102119160,-0.298634170
1640843944779310080,-0.490671660,0.617113890,10.139077190,-0.043500950,0.152513380,-0.295026630
1640843944782729984,-0.321192350,0.421799990,9.694111820,-0.006701050,0.006228690,-0.315316020
1640843944783979776,-0.681946460,0.482208880,10.385033610,-0.010165570,0.127276790,-0.292691620
1640843944787049984,-0.464842470,0.750540970,9.611907010,-0.076523430,0.152245160,-0.307178530
1640843944788919808,-0.707167510,0.476424160,10.859686850,-0.110375880,0.026306510,-0.285203730
1640843944793669888,-0.421147530,0.581575390,9.909896850,-0.080405180,0.099051000,-0.270569350
1640843944794849792,-0.054420160,0.536429110,9.560819630,-0.050793590,0.084827850,-0.288650420
1640843944796720128,-0.353223980,0.467415480,10.777222630,-0.073951480,0.145249080,-0.267598030
1640843944798909952,-0.059295790,0.626229520,9.905854230,-0.130160150,0.099532310,-0.260677960
1640843944801489920,-0.261991590,0.287515190,10.490326880,-0.131490840,-0.008516010,-0.258466630
1640843944803899904,-0.208454210,0.389610800,9.671317100,-0.117047120,0.120165940,-0.246088180
1640843944806479872,-0.123640280,0.565974770,9.497044560,-0.125811990,0.101149100,-0.254116950
1640843944809399808,-0.458805740,0.252158340,10.823077200,-0.140897930,0.141032010,-0.230871160
1640843944811990016,-0.187212800,0.288742300,9.969534870,-0.132165860,0.125376880,-0.236637910
1640843944817469952,-0.341006190,0.226868440,10.265778540,-0.109978040,0.024940070,-0.239713490
1640843944817989888,-0.342760710,0.288530920,9.924119950,-0.139112770,0.110454880,-0.212985280
1640843944819299840,0.037550750,0.284565510,9.227672580,-0.168809340,0.143492270,-0.213579860
1640843944821509888,-0.162957030,-0.091151100,10.269671440,-0.129289930,0.165256870,-0.217999520
1640843944824000000,-0.024211660,0.101529230,10.181817050,-0.071251390,0.154808210,-0.207725210
1640843944826710016,-0.236200940,0.144946280,10.097645760,-0.094367560,0.059096530,-0.206352770
1640843944829659904,-0.313589720,0.098117900,9.873196600,-0.166831930,0.080585490,-0.188207660
1640843944831460096,-0.375295370,0.003536550,9.850753780,-0.153173520,0.166195630,-0.190302740
1640843944833910016,-0.468389960,-0.111299100,9.921937940,-0.069658470,0.172354280,-0.204536320
1640843944836519936,-0.274596630,0.195635480,10.016982080,-0.029411920,0.127674650,-0.185489680
1640843944839020032,-0.370027570,0.242679030,10.000758170,-0.087952610,0.155733530,-0.176754610
1640843944841519872,-0.347689450,-0.142471890,10.047014240,-0.132095780,0.102378440,-0.166255240
1640843944844379904,-0.505852820,-0.111935290,10.091002460,-0.048434730,0.091461840,-0.173021870
1640843944846599936,-0.196344200,-0.014061650,9.155108450,-0.024384260,0.139130670,-0.202216210
1640843944849079808,-0.147108840,0.119320720,10.108355520,-0.051723420,0.196151440,-0.181470830
1640843944851599872,-0.391106250,0.194340880,10.448615070,-0.071707370,0.203259330,-0.170341160
1640843944853969920,-0.464880560,-0.083511710,10.208182330,-0.036385660,-0.012157860,-0.169962640
1640843944856639744,-0.586947440,0.170628430,9.381895070,0.009784100,0.050072380,-0.145554570
1640843944859069952,-0.540986960,0.174063530,9.082993510,-0.044001640,0.170911860,-0.169630350
1640843944861949952,-0.845684230,-0.009266000,10.719115260,-0.036536160,0.180347250,-0.153552000
1640843944863899904,-0.643199860,0.211117630,10.144081120,-0.001463290,0.087869170,-0.160078720
1640843944866530048,-0.474593610,0.202023800,9.981581690,-0.010941920,0.006794930,-0.166897480
1640843944868919808,-0.484130140,0.393893660,9.853742600,-0.029174990,0.142340380,-0.128644700
1640843944871510016,-0.439577370,0.269771720,9.939718250,-0.050076850,0.078867380,-0.141538690
1640843944874609920,-0.587668960,0.200289530,10.346237180,0.010934470,0.034974520,-0.127677620
1640843944876519936,0.046119700,0.493836460,9.010495190,-0.003562870,0.081841660,-0.125974420
1640843944881979904,-0.242209840,0.576128360,10.419869420,-0.070424380,0.116722300,-0.127847510
1640843944882789888,-0.398662600,0.578455630,10.581007000,-0.079858310,0.113445520,-0.107082750
1640843944884039936,-0.418269220,0.367859990,10.184212680,-0.047442320,-0.069764250,-0.129027650
1640843944887059968,-0.730523530,0.448139520,9.896815300,-0.008380410,0.014659770,-0.120405870
1640843944889009920,-0.466784660,0.688261270,9.237771990,-0.076609850,0.112997000,-0.123398010
1640843944891510016,-0.851030170,0.505377230,10.976157190,-0.147010390,0.079874700,-0.100867450
1640843944894240000,-0.460753110,0.452145460,10.075762750,-0.106689330,0.039543220,-0.081247100
1640843944896450048,-0.162345900,0.254548250,10.062818530,-0.054967410,-0.031670930,-0.100854050
1640843944898889984,-0.343926880,0.385821010,10.156011580,-0.064896050,0.106924780,-0.073303280
1640843944901479936,-0.178054540,0.478195460,9.744019510,-0.137872990,0.031413140,-0.075598050
1640843944903869952,-0.451509980,0.303030430,10.805186270,-0.177302990,-0.024764250,-0.070649410
1640843944906579968,-0.032382540,0.509941820,9.197943690,-0.144889970,0.075127180,-0.074842580
1640843944909839872,-0.158567350,0.520728830,10.133359910,-0.115790980,0.025519730,-0.076347610
1640843944911579904,-0.567923010,0.564497050,10.820314410,-0.130377720,0.106710210,-0.056402400
1640843944914129920,-0.228053820,0.504872800,9.564313890,-0.173193200,-0.020538270,-0.058689710
1640843944917609984,-0.667255040,0.224366900,10.706790920,-0.169886660,-0.033868850,-0.041280690
1640843944919129856,-0.387419880,0.342571140,9.311858180,-0.162872670,0.109569730,-0.036868460
1640843944921700096,-0.221619140,0.051341720,10.001044270,-0.167337050,0.019004940,-0.036096570
1640843944923939840,-0.340172200,0.008292110,10.714471820,-0.136142980,0.122022640,-0.014001130
1640843944926470144,0.051912210,-0.008989940,9.670456890,-0.128491240,0.045783830,-0.041350730
1640843944928890112,-0.417945360,-0.115391190,10.637727740,-0.132124130,-0.040701030,-0.016665460
1640843944931840000,-0.275413960,0.239813240,9.209275250,-0.171023620,0.053673990,0.005140900
1640843944933879808,-0.165748420,-0.128970640,9.630467410,-0.164088610,0.039771200,-0.012676420
1640843944936539904,-0.378634390,-0.048527570,10.364182470,-0.100816770,0.149406480,-0.008337200
1640843944939419904,-0.069785950,0.303186660,9.759758000,-0.080978880,0.054024160,-0.007754560
1640843944942809856,-0.467325840,0.013651950,10.758278850,-0.114975860,0.010466570,-0.003935400
1640843944943919872,-0.383782330,0.062263780,9.640359880,-0.146664650,0.054498010,0.013467670
1640843944946799872,-0.584231500,-0.190062850,9.641824720,-0.078882270,-0.016601380,-0.001010300
1640843944949489920,-0.500655830,-0.173875410,9.619172100,-0.044675180,0.084070870,-0.000987950
1640843944951920128,-0.100404900,0.001308050,9.518975260,-0.074373200,0.140050070,0.009496510
1640843944954329856,-0.406994850,-0.216151360,10.839620590,-0.079044680,0.088478630,0.012850760
1640843944956460032,-0.227255720,-0.131457700,10.299179080,-0.053472820,-0.005456810,0.031991300
1640843944958950144,-0.346871140,-0.044893700,9.503144260,-0.018846990,-0.029125810,0.022029880
1640843944959259904,-0.426392500,-0.042985380,9.418294910,-0.041113800,0.069695710,0.026127700
1640843944963970048,-0.509170170,0.164915840,10.041563990,-0.045390420,0.112867350,0.025649370
1640843944966459904,-0.616145850,0.238482240,10.021300320,-0.027273600,0.040820250,0.024479630
1640843944969039872,-0.412875260,0.284840760,10.042994500,-0.022542470,-0.029672680,0.042130050
1640843944969609984,-0.564521850,0.348633770,9.939064980,-0.020040570,0.070096550,0.049003960
1640843944973969920,-0.638117970,0.165057690,10.042137150,-0.033977620,-0.002770130,0.041842460
1640843944976610048,-0.676816400,0.201154290,10.165245060,-0.007984040,-0.011923910,0.049762440
1640843944979030016,-0.318861250,0.207166660,9.244153980,-0.032523270,0.045798720,0.029195850
1640843944979439872,-0.439231570,0.283105310,10.398909570,-0.046072900,0.026926400,0.038802620
1640843944983919872,-0.602385940,0.511091890,10.463033680,-0.049535940,0.019691880,0.041121240
1640843944986629888,-0.502683700,0.189917890,9.789177890,-0.052855910,-0.120811190,0.032897290
1640843944988979712,-0.519372400,0.408786300,9.782854080,-0.017586350,-0.024966900,0.060175360
1640843944989280000,-0.475208280,0.568208040,9.709103580,-0.075614450,0.092789540,0.042401250
1640843944993929984,-0.653199370,0.433728160,10.982206340,-0.105223070,-0.029863420,0.069975850
1640843944996489984,-0.497655480,0.511496900,10.131962780,-0.073944050,-0.068390370,0.082111370
1640843944999339776,-0.366713790,0.240462200,9.523614880,-0.066435320,-0.089094040,0.046934190
1640843945000039936,-0.520919020,0.357534440,10.025523190,-0.062793490,0.016951560,0.070366260
1640843945004119808,-0.550374390,0.419131610,9.967219350,-0.106689320,-0.018912550,0.059071190
1640843945006629888,-0.425253330,0.183337880,10.497745510,-0.132364030,-0.097380590,0.071544950
1640843945009819904,-0.126966010,0.400916870,9.821716310,-0.103792560,0.000211600,0.080071390
1640843945010419968,-0.076035720,0.317048490,9.952428820,-0.109823050,-0.031745440,0.073413550
1640843945013979904,-0.239000920,0.230193350,10.543096540,-0.090582650,-0.004076960,0.105771410
1640843945016519936,-0.100215830,0.262587880,9.614673610,-0.114634660,-0.047491500,0.099857170
1640843945018980096,-0.356386510,0.055985720,10.061690330,-0.113336760,-0.093282770,0.107660900
1640843945019409920,-0.309800330,0.224131960,9.588906290,-0.116872810,0.018128750,0.116714840
1640843945023959808,-0.218926650,0.013286230,9.850231170,-0.141507400,-0.007648770,0.094653670
1640843945026479872,-0.419175620,-0.223759280,10.661095620,-0.073683260,0.024257600,0.101922450
1640843945028989952,-0.176973150,0.077010200,9.818151470,-0.055429340,-0.022587180,0.086435680
1640843945029389824,-0.406696230,0.029763340,10.114841460,-0.100594770,-0.080193590,0.112439710
1640843945033919744,-0.264575480,0.092690350,9.352517130,-0.141114000,0.022572280,0.129991780
1640843945038249984,-0.159164860,-0.153808060,9.721102710,-0.103285920,0.012820960,0.096248100
1640843945039749888,-0.266416910,-0.195569380,10.127510070,-0.005868080,0.048173960,0.106170780
1640843945040429824,-0.041562280,0.247869100,9.628321650,-0.020883980,-0.003680590,0.107084210
1640843945043979776,-0.476481290,0.013228930,10.490411760,-0.100301210,-0.022962690,0.108867890
1640843945046550016,-0.442483100,-0.150987880,9.659497260,-0.096547610,-0.010441240,0.121729080
1640843945049019904,-0.583648860,-0.142072560,9.742492680,-0.011961160,-0.051590800,0.098161400
1640843945050129920,-0.631648000,-0.154310570,9.693723680,0.027093300,0.058385740,0.101359200
1640843945053949952,-0.264025000,0.144160840,9.670768740,-0.029622020,0.043344500,0.111553100
1640843945056489984,-0.644893880,0.059862200,10.826142310,-0.064343210,-0.009670850,0.112290680
1640843945058959872,-0.229951920,-0.058662270,9.568208690,-0.024664400,-0.049032270,0.135323410
1640843945059259904,-0.301195230,0.051561290,9.683276180,0.033794350,-0.063867870,0.112877790
1640843945064209920,-0.591239510,0.193373840,9.977822300,0.015291570,0.055110450,0.099939090
1640843945066839808,-0.441105750,0.298118200,9.930122380,-0.040863450,-0.028353930,0.108744200
1640843945070109952,-0.666770280,0.386920420,10.270438190,-0.043721500,-0.056284670,0.117202110
1640843945070999808,-0.358791560,0.436859100,9.466890340,-0.037004050,-0.018988550,0.111076240
1640843945074040064,-0.463245570,0.615909870,10.222762110,-0.024166710,-0.018310550,0.119087110
1640843945076459776,-0.681183760,0.539257050,10.308545110,-0.038856260,-0.011593100,0.120133150
1640843945079010048,-0.377810390,0.323128880,9.882535930,-0.050900880,-0.091840330,0.119662280
1640843945079360000,-0.490850780,0.338291970,9.883007050,-0.050015740,-0.027123090,0.122845180
1640843945084319744,-0.383973720,0.367589120,9.755677220,-0.085695080,-0.024399160,0.123298150
1640843945086469888,-0.331049770,0.336858270,10.282869340,-0.087337200,-0.049984460,0.137446820
1640843945089009920,-0.262034330,0.191006470,9.716972350,-0.077988190,-0.030386440,0.112837550
1640843945089299968,-0.198097070,0.274426520,9.994661330,-0.062625120,-0.048291680,0.115941470
1640843945094070016,-0.438762460,0.538159610,10.343870160,-0.082023430,-0.000472370,0.136251750
1640843945094720000,-0.333355990,0.481565060,9.852160450,-0.161349740,-0.082699960,0.135150550
1640843945099119872,-0.240893380,0.399374040,9.819433210,-0.130328540,-0.056298080,0.154151040
1640843945100590080,-0.221422490,0.277332960,9.414232250,-0.086429720,0.052349270,0.129884480
1640843945103940096,-0.224163800,0.215124580,10.238788600,-0.077319130,-0.010260940,0.137773170
1640843945106530048,-0.431699690,0.285357420,10.379410740,-0.110635180,-0.022228070,0.158265280
1640843945108929792,-0.278890730,-0.162127930,9.596009250,-0.152386740,-0.099615760,0.134347380
1640843945109249792,-0.231690700,-0.123441100,9.625249860,-0.106926280,-0.027862190,0.150984540
1640843945114289920,-0.084733290,0.037253790,9.315310480,-0.086380550,0.100077690,0.132618840
1640843945116009984,-0.040184050,-0.231819510,10.427878380,-0.088968870,0.031001870,0.136129560
1640843945119049984,-0.272556130,0.071517750,10.376701350,-0.067016470,0.002284350,0.151909860
1640843945119469824,-0.187115590,0.104803590,9.285246850,-0.103080270,-0.106884550,0.133807960
1640843945124089856,-0.483852770,-0.037004750,9.715860370,-0.096192960,-0.017255540,0.155796110
1640843945124679936,-0.514948370,0.187352820,9.203002930,-0.086054210,0.100989640,0.124189280
1640843945129040128,-0.676792090,-0.101102700,10.449031830,-0.043560570,-0.012774770,0.115129350
1640843945129779712,-0.697452070,0.130985540,10.071618080,-0.018318000,0.009225310,0.143982470
1640843945134369792,-0.478764120,0.083343400,9.287777900,-0.073392700,-0.075358150,0.117349620
1640843945134830080,-0.757188800,-0.295038400,10.365082740,-0.074812780,-0.008700790,0.154295580
1640843945138969856,-0.356003550,-0.205763100,9.159420010,-0.024068360,0.033430750,0.128296020
1640843945139340032,-0.142547670,-0.243553610,9.966439250,0.021570920,-0.047419970,0.105188790
1640843945143980032,0.024764630,0.130019470,10.029606820,-0.013045970,0.117071000,0.133687270
1640843945144429824,0.131573870,0.249760780,9.822990420,-0.068868700,-0.013430420,0.115107020
1640843945148969984,-0.456895770,0.168683630,10.843887330,-0.036357340,-0.103715080,0.139319910
1640843945149469952,-0.273322700,0.433430760,8.749282840,-0.006599730,-0.015683470,0.129310790
1640843945154160128,-0.561478910,0.392982100,9.573653220,-0.004756450,-0.028093160,0.125364960
1640843945154819840,-0.939636290,0.592149500,10.664131160,-0.050717590,0.114585470,0.147576630
1640843945159859968,-0.557864550,0.582772550,9.900739670,-0.092585410,-0.029836600,0.134496390
1640843945160610048,-0.713372350,0.250301390,10.644288060,-0.049711770,-0.107143840,0.148583950
1640843945164019712,-0.405293230,0.415499780,9.268855090,-0.031740960,0.049456960,0.133721550
1640843945164460032,-0.290839280,0.197380130,9.758977890,-0.054143380,-0.011487310,0.135314460
1640843945168939776,-0.526002170,0.119455780,10.650009160,-0.072266170,0.011044740,0.154897570
1640843945169289728,0.132299530,0.306811270,9.192434310,-0.089018050,-0.030848380,0.133521870
1640843945174019840,-0.058119110,0.323368850,10.200752260,-0.093325990,-0.032801930,0.146091000
1640843945174399744,-0.184608070,0.585869490,10.006709100,-0.117032240,0.070707500,0.152915730
1640843945179020032,-0.138951260,0.448984470,9.907016750,-0.102454420,-0.040811300,0.133773700
1640843945179409920,-0.649459120,0.355074110,10.432143210,-0.078508250,-0.028415020,0.150674600
1640843945184069888,-0.419392290,0.603524270,9.189987180,-0.109314910,-0.002281370,0.153128800
1640843945184669952,-0.660016600,0.403345110,10.125352860,-0.158512610,-0.016020240,0.156208890
1640843945189070080,-0.537663940,0.105833860,9.895054820,-0.164653380,0.068750980,0.161375110
1640843945189549824,-0.155621050,-0.072738750,9.761810300,-0.077889870,0.006973740,0.143679990
1640843945194080000,-0.320790320,-0.118720580,10.282831190,-0.048950330,0.026959180,0.149627030
1640843945195219968,0.038446360,0.018545140,9.398503300,-0.119966280,0.025159120,0.168125350
1640843945198929920,-0.093490950,-0.095797200,10.040571210,-0.165858850,0.000897050,0.162844330
1640843945199259904,-0.068592320,-0.185201990,9.595075610,-0.129726530,0.083756450,0.153256950
1640843945203990016,-0.037543910,0.053469700,9.520297050,-0.054201490,0.011506680,0.137673320
1640843945204460032,-0.418292670,0.279188480,10.001100540,-0.058729950,0.071418290,0.133758800
1640843945209009920,-0.506899180,0.169828770,9.830930710,-0.134103000,0.032638010,0.152973850
1640843945209379840,-0.812832180,0.002967260,10.207122800,-0.099997230,-0.020340090,0.158132630
1640843945216800000,-0.754499970,-0.102417150,9.288269040,-0.057318810,0.035770240,0.134544070
1640843945217589760,-0.563488250,-0.115488300,9.725639340,-0.043188040,0.047656890,0.150154550
1640843945219780096,-0.606717940,-0.060202830,10.113855360,-0.046794120,0.134965780,0.154264290
1640843945220759808,-0.303293350,-0.288917010,9.839931490,-0.064142050,-0.019970530,0.137387220
1640843945224069888,-0.312347050,-0.132095710,9.853011130,-0.029467040,-0.029391050,0.173798190
1640843945224509952,-0.119859460,-0.046429550,8.913331990,-0.039756300,0.079271200,0.141161680
1640843945228989952,-0.436876060,-0.229473980,10.412761690,-0.030142070,0.029166050,0.138138250
1640843945229349888,-0.618469240,0.272371740,10.080030440,-0.001418590,0.040200350,0.140424090
1640843945234360064,-0.318683860,0.302583010,9.282146450,-0.050061950,-0.033274300,0.111405570
1640843945235289856,-0.662019970,0.505290870,10.333475110,-0.052630910,0.056138640,0.154517640
1640843945239049984,-0.653017460,0.722325150,9.626549720,-0.055624550,0.057205560,0.141258550
1640843945239329792,-0.734979630,0.282363090,10.281620980,-0.033006060,-0.093623990,0.136031210
1640843945244999936,-0.679592070,0.470514330,9.455702780,-0.011064110,0.040058790,0.158274140
1640843945246150144,-0.387374580,0.332486930,9.428999900,-0.050975390,0.026880200,0.133356470
1640843945249090048,-0.665589210,0.227532860,10.914630890,-0.098754470,0.028996170,0.160488500
1640843945249699840,-0.252800970,0.337437150,9.439684870,-0.098602480,-0.004211070,0.150413830
1640843945254070016,-0.163136600,0.063162760,9.964600560,-0.056293620,-0.060921910,0.134262440
1640843945254659840,-0.404792190,0.406487380,9.944209100,-0.042791660,0.081475090,0.152069330
1640843945259279872,-0.329317000,0.578759610,9.612360000,-0.110951070,-0.025910140,0.145162610
1640843945259789824,-0.739947200,0.381166880,10.580608370,-0.146324950,-0.068126620,0.162661090
1640843945264059904,-0.502561270,0.503419460,9.053267480,-0.114151860,-0.000749530,0.143410270
1640843945264469760,-0.594881950,0.524657670,9.736076350,-0.103534760,-0.015285610,0.131210650
1640843945268960000,-0.889435290,0.481502770,10.519964220,-0.124603530,0.058878960,0.154422220
1640843945269369856,-0.518690110,0.282271060,9.656953810,-0.141821830,-0.060448060,0.154480340
1640843945275079936,-0.529397070,-0.018262580,10.052439690,-0.108523670,-0.087277600,0.151065010
