timestamp,accel_x,accel_y,accel_z,gyro_x,gyro_y,gyro_z
1640784775087999744,0.107102120,0.615666930,9.036372180,-0.013139840,-0.107133400,-0.012756880
1640784775089319936,-0.461234960,0.325762450,9.778757100,-0.030995900,-0.051209320,-0.010329480
1640784775096570112,-0.055007660,0.207688630,9.002388950,-0.040529660,0.052776930,0.017474590
1640784775097159936,0.115302320,0.121526730,10.067356110,-0.020323690,0.039534270,0.028458240
1640784775097410048,0.035417310,-0.086205060,10.729829790,-0.014783440,0.078061220,0.018136210
1640784775097839872,0.385651260,0.073315190,9.962877270,0.001806020,-0.039887430,-0.004328790
1640784775102560000,-0.184903790,0.111022840,10.328104020,-0.021535160,-0.096397110,-0.027714670
1640784775104069888,-0.074616890,0.075904080,8.776061060,-0.041954220,-0.014768540,-0.031155350
1640784775108529920,-0.185647520,0.048523530,9.267523770,0.021646920,0.014314060,-0.041724750
1640784775109139968,-0.538027580,0.175086330,10.132905960,0.040578840,0.112119340,-0.034870210
1640784775113410048,-0.226555020,0.478010240,9.807494160,0.007253880,-0.030981000,-0.000356140
1640784775113979904,-0.471464070,0.366776850,10.489108090,-0.028236210,-0.076092780,0.010934470
1640784775120669952,-0.092163440,0.418228830,9.308702470,-0.059156130,0.008454920,0.003148620
1640784775121760000,0.027173020,0.272942160,9.829574580,0.015293060,-0.015118720,-0.003984570
1640784775125959936,-0.069484800,-0.040433420,10.356465340,0.066386160,0.092822300,-0.033921000
1640784775126789888,0.222705960,0.015372480,9.641094210,0.070165100,-0.004503130,-0.057211520
1640784775127689728,-0.370654020,0.044287940,10.518450740,0.026176870,-0.088070340,-0.052595150
1640784775128120064,-0.303807590,0.128939170,9.220815660,-0.051964820,-0.041504200,-0.036239620
1640784775132629760,-0.393750430,0.401481840,9.435505870,-0.031472750,-0.091134010,-0.023905930
1640784775134680064,-0.550595050,0.537777900,10.132606510,0.005806980,0.067061190,0.002129380
1640784775138219776,0.128553020,0.623829360,9.719937320,0.016754860,0.060319900,0.002028050
1640784775140679936,-0.185511380,0.524888750,11.279355050,0.048822170,-0.005294380,-0.003141170
1640784775144800000,-0.018222470,0.457890240,10.095363620,0.001499060,-0.030092890,-0.013771650
1640784775146729984,0.080494410,0.402721700,9.169863700,-0.036737320,-0.157256420,-0.024272500
1640784775147569920,-0.308438750,0.220888230,9.257390020,-0.029228630,-0.018841030,-0.027903910
1640784775149649920,0.266114920,0.277095760,8.566016200,-0.035072860,0.071053210,-0.017540160
1640784775152770048,-0.103715760,0.130221810,10.609604840,0.010268390,0.052918500,-0.002357360
1640784775157999872,0.007400960,0.093633110,10.596515660,0.000005960,0.043942040,-0.000607970
1640784775159589888,0.118723600,0.118551980,10.118982320,-0.014287230,-0.108118360,-0.007307530
1640784775160219904,-0.450584110,-0.015093230,10.132114410,-0.008432570,-0.061984370,-0.017890340
1640784775162589952,-0.041893170,-0.001318930,8.654324530,-0.015600030,0.010062760,-0.037275250
1640784775163229952,-0.335894500,-0.043316860,9.714339260,0.034590070,0.035791100,-0.058989230
1640784775167409920,-0.364670960,0.104808830,9.813933370,0.042048100,0.068829960,-0.052934890
1640784775169379840,-0.089565580,0.288875130,9.930573460,0.011619930,-0.058871510,-0.031565130
1640784775172469760,-0.498584660,0.257879880,10.388408660,0.006805360,-0.059831140,-0.012315810
1640784775173830144,0.023008210,0.404002700,9.217473030,-0.004282600,-0.040005150,0.002798440
1640784775178119936,-0.002104510,0.271810350,10.128249170,0.015585130,0.038397320,0.000326340
1640784775178779904,-0.022833520,0.100628250,10.190645220,0.058458740,0.101934360,-0.027081370
1640784775182779904,0.099173500,0.304250900,10.201850890,0.070104010,-0.060586630,-0.044777990
1640784775183670016,-0.404685050,0.301816670,10.032369610,0.028491020,-0.082080070,-0.049610440
1640784775190009856,-0.279564080,0.418029130,8.797415730,-0.030642750,-0.087477270,-0.044809290
1640784775196019968,-0.527785180,0.636916520,9.742236140,-0.034029790,-0.022491820,-0.032030050
1640784775197139968,-0.346388280,0.639078970,9.702348710,-0.022551420,0.083366040,-0.003944340
1640784775197579776,0.103312530,0.583680990,10.462162020,0.017046930,0.015532970,0.008693340
1640784775198079744,-0.052078110,0.413349090,11.028753280,0.027346610,0.028091670,-0.001789630
1640784775198400000,0.214035760,0.254925940,9.531574250,-0.011265280,-0.093762560,-0.005686280
1640784775208729856,-0.090762360,0.013626270,9.719142910,-0.031170250,-0.121115150,-0.021338460
1640784775210909952,0.019562700,-0.223098130,8.522300720,-0.028267510,0.047045960,-0.045405340
1640784775211599872,0.159887780,-0.072567220,9.274170880,0.010071690,0.036677720,-0.045564760
1640784775212039936,-0.308873830,0.115327620,10.890836720,0.005310770,0.089862950,-0.019338730
1640784775212519936,0.045313590,0.198324640,9.805576320,-0.027677420,-0.025324520,-0.009533760
1640784775212849920,-0.300059850,0.339970800,10.599966050,-0.006932020,-0.136958080,-0.004220010
1640784775217509888,-0.305616800,0.273705840,9.303537370,-0.013698640,0.032211850,-0.002576410
1640784775219360000,0.036902540,0.094710980,9.008654590,0.036397580,-0.004519520,-0.021708010
1640784775224689920,-0.427272260,0.048714710,10.556263920,0.088681290,0.082285700,-0.054128470
1640784775225260032,0.059234500,0.102391420,9.230430600,0.041586160,0.039689240,-0.057135530
1640784775229179904,-0.204165740,0.210339860,10.434556010,-0.002466140,-0.115789470,-0.035096710
1640784775235239936,-0.367688330,0.324075160,9.764377590,-0.038918850,0.003783400,-0.024795530
1640784775241019904,0.141944940,0.456645400,9.021843910,-0.030083960,-0.058504940,-0.020724540
1640784775248049920,-0.264606210,0.408358960,10.725419040,0.042274600,0.071954730,0.000824030
1640784775249239808,0.238540310,0.243500620,9.760315900,0.059859450,0.124570710,-0.025658310
1640784775250180096,-0.016696160,0.175981480,10.789389610,0.084196030,-0.072944170,-0.030717260
1640784775251069952,-0.392367120,0.210558910,9.935770990,0.028194490,-0.044561930,-0.033850970
1640784775251389952,-0.020111380,0.307925520,8.466787340,-0.049927830,-0.099149340,-0.040440250
1640784775251649792,-0.437105180,0.432534610,9.773339270,-0.035373870,0.023263690,-0.014950340
1640784775251940096,0.006961980,0.526117560,9.427187920,-0.019760430,0.142762040,-0.011257830
1640784775252499712,0.189299540,0.425349650,10.983153340,0.038622320,0.039461250,-0.011347230
1640784775253350144,0.027864120,0.404150310,10.900025370,0.062559550,0.036303700,-0.013016170
1640784775263109888,0.310982080,0.269645090,9.486556050,-0.000393390,-0.101360680,-0.019271670
1640784775265639936,-0.106019680,-0.041230470,9.539037700,-0.019399820,-0.027137990,-0.015860800
1640784775266330112,0.001344990,-0.153837710,8.405380250,-0.003889200,0.091643650,-0.026969620
1640784775267739904,-0.107264430,-0.122656730,9.953165050,0.036679210,0.066767620,-0.033809250
1640784775268359936,-0.311983970,0.110402910,10.359243390,0.040271880,0.110325240,-0.018735230
1640784775268640000,-0.092303380,0.312587350,10.050632480,-0.008694830,-0.053152450,-0.022909040
1640784775272979968,-0.367777140,0.402456520,10.632434840,-0.021646920,-0.019046670,-0.015991930
1640784775274679808,0.073479160,0.409652290,8.920116420,0.005352500,0.066566470,-0.006948410
1640784775277859840,-0.008200410,0.106327030,10.205928800,0.070732830,0.045989460,-0.021129850
1640784775280779776,-0.020908220,0.061208910,9.961729050,0.109711300,0.145763160,-0.031152370
1640784775282670080,0.092957620,0.133049460,9.540101050,0.053864720,-0.042183700,-0.037705900
1640784775283269888,-0.495419650,0.154506040,10.513685230,-0.019919870,-0.036209820,-0.035324690
1640784775287539968,-0.196425050,0.404198560,8.717502590,-0.047233700,0.022812190,-0.036834180
1640784775288919808,-0.365130630,0.607593540,10.256290440,-0.015735630,-0.019207600,-0.032858550
1640784775292349696,-0.194100190,0.651758610,10.270989420,0.033745170,0.180412840,-0.005087260
1640784775293069824,0.261507510,0.580359340,10.005275730,0.058557100,0.064153970,-0.012739000
1640784775297509888,-0.238985330,0.368640070,11.392169950,0.039428480,-0.010304150,-0.008563700
1640784775298720000,0.050054740,0.206955480,8.816386220,-0.003987550,-0.010339920,-0.005120040
1640784775304859904,-0.124758630,0.070626120,9.126494410,-0.012409690,-0.108350840,-0.026480860
1640784775307010048,-0.298410950,0.153573200,9.272459030,-0.012308360,0.136296470,-0.030677020
1640784775309139968,0.223637160,0.309049280,9.107604980,-0.011460480,0.130695100,-0.028115510
1640784775309809920,-0.188069580,0.330181690,11.647145270,-0.000993910,0.069051980,-0.010886790
1640784775312489984,0.089489420,0.376503770,10.128213880,0.005389750,0.054936110,0.001300870
1640784775316800000,0.029652050,0.279762800,9.811464310,0.016608830,-0.111407040,-0.005762280
1640784775319549952,-0.334265590,-0.024050080,9.545567510,0.014229120,0.062304740,0.000697370
1640784775319990016,0.104793150,-0.146950440,8.342213630,0.037361680,0.094920380,-0.024279950
1640784775322609920,-0.299794730,-0.203918260,10.446207050,0.056858360,0.095766790,-0.039447840
1640784775324009984,-0.125169580,0.010983710,9.808526040,0.022330880,0.117859260,-0.021360820
1640784775328659968,-0.210056570,0.194982070,10.248918530,0.009609760,-0.068618360,-0.019741060
1640784775329530112,-0.452470300,0.413988530,10.221199990,-0.007824600,0.013105570,0.001548230
1640784775333339904,-0.036078290,0.543802320,8.828829770,0.015898050,0.039449340,0.000669060
1640784775335549952,-0.215353640,0.342653420,10.394348140,0.068429110,0.097195800,-0.018128750
1640784775340189952,-0.024743310,0.355463650,9.880217550,0.085711490,0.158979000,-0.029715900
1640784775341149696,-0.185804220,0.400744560,10.334481240,0.066077710,-0.055111950,-0.033776470
1640784775342239744,-0.474143860,0.365534540,10.017489430,-0.016541780,-0.036928060,-0.014971200
1640784775342749952,-0.163270380,0.577663000,8.468153000,-0.069025170,-0.020444400,-0.015816090
1640784775347419904,-0.384704200,0.623960320,10.079188350,-0.033514200,0.058850650,-0.007116800
1640784775349329920,0.120032330,0.705554780,9.819315910,-0.019039220,0.202183430,0.002621110
1640784775354339840,0.189930780,0.541753110,10.817460060,0.026868280,0.033146140,-0.002250080
1640784775355759872,-0.024225660,0.330204900,10.870761870,0.017803910,0.016780200,0.000859800
1640784775358639872,0.159588350,0.230513420,8.810444830,-0.040580330,-0.053590540,0.004610420
1640784775362700032,-0.343324100,-0.128597920,9.474208830,-0.038631260,-0.044929980,-0.004431610
1640784775364189952,-0.074744030,-0.105810450,8.714166640,-0.027287010,0.164823250,-0.010360780
1640784775364729856,-0.049684820,0.085830510,9.737236980,-0.005336110,0.098261240,-0.011684000
1640784775367389952,-0.315275520,0.148173390,11.121158600,-0.003267830,0.108097510,0.012286010
1640784775367970048,0.121125030,0.393548880,9.835128780,-0.018911070,0.013095140,0.008644160
1640784775372949760,-0.359078910,0.402098540,10.336652760,-0.017240640,-0.076758860,0.004547830
1640784775374709760,-0.075519080,0.271629240,8.896609310,-0.018881260,0.090579700,0.008766350
1640784775378409984,0.007875170,0.112636030,9.233422280,0.022493300,0.101675110,-0.021232670
1640784775379459840,-0.382864150,0.062092140,10.571465490,0.058032570,0.123173010,-0.031168760
1640784775382339840,-0.099768950,0.255833830,9.647265430,0.009417530,0.011032820,-0.007551910
1640784775386019840,-0.435733710,0.135732840,10.115760800,-0.044848030,-0.068321830,0.002585350
1640784775387320064,-0.302845930,0.148882250,9.386886600,-0.043009230,0.051793460,0.012840330
1640784775388049920,-0.179382530,0.265836690,9.781514170,0.018161530,0.068764400,0.006490950
1640784775393369856,-0.258792040,0.091839910,10.591965680,0.070512300,0.113011900,-0.000731650
1640784775395589888,0.147751870,0.353948350,9.926955220,0.060285640,0.043411560,-0.010797380
1640784775397500160,-0.249650940,0.358703580,10.387651440,-0.001733010,-0.022934380,-0.009319190
1640784775398370048,-0.246616830,0.435835600,9.238224030,-0.043894350,-0.026851890,-0.008110700
1640784775402429696,-0.320498290,0.714903710,9.207237240,-0.027786200,-0.035537780,-0.013095140
1640784775403369984,-0.306611600,0.807418700,9.487824440,-0.024613740,0.105218570,0.002449750
1640784775408730112,0.137342620,0.831082110,9.777739520,-0.021357840,0.106164830,0.033439700
1640784775410039808,-0.122520160,0.545037090,11.258241650,-0.017243620,0.068421670,0.028944020
1640784775412379904,0.101854230,0.277828900,10.077647210,-0.022193790,0.002145770,0.028932090
1640784775414449920,-0.074609540,0.005937840,9.730210300,-0.009685750,-0.112845020,0.023016340
1640784775417510144,-0.257087650,-0.295148580,9.102212910,-0.032377240,0.045685470,-0.010266900
1640784775420159744,0.154341460,-0.210100620,8.545514110,-0.040882830,0.089788440,-0.022991000
1640784775424800000,-0.324478510,-0.123116780,10.632081030,-0.010596220,0.106143960,-0.017075240
1640784775425580032,-0.044968280,0.056697910,10.006457330,-0.019223990,0.078256440,0.000785290
1640784775427849984,-0.136836830,0.376039890,10.381702420,0.002159180,-0.101248930,0.010859970
1640784775429659904,-0.507759510,0.417612970,10.090311050,-0.031888480,-0.003427270,0.031848260
1640784775432489984,0.141186710,0.409089510,8.678494450,-0.030574200,0.026983020,0.031551720
1640784775433280000,-0.290189980,0.230618610,10.507364270,0.044550010,0.092224770,0.016953050
1640784775437639936,0.001945230,0.301290360,9.828391080,0.036421420,0.133386270,0.001722570
1640784775439520000,0.018681690,0.521422150,10.056378360,0.000987950,-0.087486230,0.005736950
1640784775442400000,-0.577417190,0.491660830,10.152255060,-0.078865890,-0.030778350,0.011636320
1640784775447199744,-0.087278600,0.687099870,8.517045970,-0.117880110,-0.038170820,0.009432430
1640784775447719936,-0.420767660,0.601416230,10.196497920,-0.056207180,0.044010580,0.024224820
1640784775448109824,-0.098464410,0.427316190,10.101216320,-0.016500060,0.170083360,0.016802550
1640784775452509952,0.181421220,0.405500470,10.655288700,0.014747680,0.001858180,0.016082820
1640784775453420032,-0.263664720,0.220393600,10.879832270,-0.038337710,-0.012563170,0.043895840
1640784775461079808,0.229368390,0.052591490,8.661748890,-0.121133030,-0.076740970,0.036862490
1640784775462230016,-0.088531860,-0.026070680,9.265540120,-0.083988910,-0.015941260,0.012601910
1640784775462819840,0.007336230,0.147762210,8.937808040,-0.063370180,0.144587460,0.013533240
1640784775463019776,0.207723630,0.239639700,10.018507960,-0.036160640,0.082638850,0.024835760
1640784775467429888,-0.282159030,0.195247070,11.196510310,-0.027920310,0.064159930,0.035084790
1640784775468150016,-0.137491350,0.187421720,10.014188770,-0.058472160,-0.073817380,0.047291820
1640784775477919744,-0.454873170,-0.020503910,9.982873920,-0.036858030,-0.092951950,0.033161050
1640784775478560000,-0.209757720,-0.013780600,8.590771680,-0.041019920,0.084494040,0.009182100
1640784775478919936,0.035999380,0.113176010,9.346333500,-0.023508070,0.099611280,0.003837050
1640784775479259904,-0.138346370,0.279895720,10.432979580,-0.023339690,0.141322630,0.014837090
1640784775485149952,0.204213470,0.361325740,9.855654720,-0.063991550,-0.027252730,0.024227800
1640784775487439872,-0.209164500,0.293563040,10.498958590,-0.035989280,-0.085741270,0.036107010
1640784775488119808,-0.193157970,0.292576490,9.142695430,-0.031600890,0.026372080,0.029289720
1640784775488559872,-0.153915820,0.255838220,9.778637890,-0.026567280,0.010550020,0.023102760
1640784775493379840,-0.392305910,0.242339910,10.475728990,-0.008288030,0.138844560,0.020217900
1640784775494360064,0.078898500,0.409161120,9.697251320,-0.061178220,0.038534410,0.009897350
1640784775499409920,-0.269585160,0.519633230,10.730092050,-0.084362910,-0.037784870,0.032377240
1640784775500880128,-0.150350690,0.556894660,9.140541080,-0.091181680,0.017753240,0.031639630
1640784775502480128,-0.085412140,0.644817410,9.250776290,-0.079442570,-0.064530970,0.017866490
1640784775503069952,-0.347374740,0.578591880,9.869666100,-0.065563600,0.106833860,0.055269900
1640784775512669952,0.190972480,0.336915170,9.402229310,-0.073593860,0.101064150,0.059431800
1640784775513469952,-0.186256570,0.212593910,11.323177340,-0.066393620,0.001055000,0.059650840
1640784775513999872,-0.080074740,0.177490310,9.884174350,-0.076971950,0.015161930,0.060732660
1640784775514259712,0.192304670,0.097689080,9.241048810,-0.119136270,-0.086812670,0.021442770
1640784775517370112,-0.217085540,0.204501330,9.715981480,-0.115787990,0.095061960,0.005476180
1640784775517920000,0.185758320,0.315348450,8.831580160,-0.099433970,0.117135050,-0.000226500
1640784775524780032,-0.186187430,0.245651020,10.638205530,-0.073529790,0.025334950,0.019103290
1640784775527399936,-0.321355130,0.231887770,9.922976490,-0.061713160,0.034752490,0.053229930
1640784775529549824,-0.189531150,0.125791560,9.560804370,-0.089004640,-0.078666210,0.065581510
1640784775530010112,-0.641989950,-0.060128690,10.241547580,-0.094717750,0.019644200,0.066691640
1640784775532480000,-0.095352550,-0.235395970,8.937084200,-0.067645320,0.080391760,0.042220950
1640784775533210112,-0.159358490,-0.195627120,10.560077670,-0.012010330,0.045925380,0.006161630
1640784775538409984,-0.234207750,0.003341780,10.067049030,-0.014436250,0.094392900,0.016513470
1640784775541369856,0.058064200,0.181091170,9.585057260,-0.058752300,-0.105017420,0.030960140
1640784775544139776,-0.394098190,0.204739590,10.119960780,-0.076910850,-0.030189750,0.036601720
1640784775544559872,-0.090998690,0.410413560,8.733844760,-0.061219930,0.014641880,0.032420460
1640784775547289856,-0.196151780,0.476129530,10.474270820,-0.035126510,0.013683740,0.031563650
1640784775548079872,-0.190902080,0.450765280,10.436475750,-0.028485060,0.127057750,0.032356390
1640784775552499968,0.093016860,0.621137320,10.223776820,-0.039662430,-0.057239840,0.035229330
1640784775553819904,-0.380709620,0.531112850,10.673375130,-0.079005960,-0.034594540,0.047764190
1640784775560499968,-0.135724570,0.494961590,8.550154690,-0.112318990,-0.047346950,0.045168400
1640784775561090048,-0.316893070,0.431073550,9.509241100,-0.091576580,-0.068497670,0.032939020
1640784775562549760,-0.197980370,0.381712850,9.332745550,-0.097374610,0.128833920,0.048008560
1640784775564809984,0.069293100,0.124655950,9.916894910,-0.081890840,0.020292410,0.054195530
1640784775568059904,-0.167371450,-0.104204900,11.486813550,-0.036060810,0.014477970,0.057877600
1640784775571130112,0.055040390,-0.133621980,9.708320620,-0.056648270,-0.035507980,0.059974190
1640784775572269824,-0.060023700,-0.295889740,9.797649380,-0.059671700,-0.134374220,0.044503810
1640784775573159936,-0.056359110,-0.082605940,8.959704400,-0.080740460,0.082980100,0.019067530
1640784775577379840,0.241433500,0.203072350,8.660769460,-0.078193850,0.051458180,0.020359460
1640784775582729728,-0.307944890,0.301464080,10.707239150,-0.041955710,0.036337970,0.036443770
1640784775583859968,-0.074071970,0.500159440,9.539068220,-0.053590550,0.007398430,0.039936610
1640784775584239872,-0.292277370,0.320434420,10.274788860,-0.029532620,-0.135067120,0.058792540
1640784775595369728,-0.473841760,0.067496890,9.992872240,-0.017052890,0.043721490,0.063335880
1640784775595969792,-0.069140430,-0.051987980,9.220731740,-0.020472700,0.015011430,0.036028020
1640784775596809984,-0.377371430,-0.193640140,10.588906290,0.012375420,0.013631590,0.035455820
1640784775597430016,0.044761430,-0.028816090,9.082240100,-0.021041940,0.063012550,0.019955640
1640784775597820160,-0.057712150,0.117312290,9.811381340,-0.048537560,-0.096847130,0.019489230
1640784775598189824,-0.365779820,0.274980010,9.934459690,-0.034573680,-0.017407530,0.032913680
1640784775602899968,0.055864460,0.545205650,8.935927390,-0.032125410,-0.061595450,0.011546910
1640784775604089856,-0.326916070,0.568732500,10.727613450,-0.013117490,0.002220270,0.040137770
1640784775607479808,-0.013900290,0.579622270,9.942250250,-0.019118190,0.111062830,0.041359660
1640784775608179712,-0.029838600,0.543475270,10.591003420,-0.028717520,-0.066308680,0.045412780
1640784775612320000,-0.398609130,0.498811720,10.300813670,-0.034815080,-0.044740750,0.072520970
1640784775612890112,-0.006886300,0.468562630,8.403031350,-0.089187910,-0.102463360,0.038303440
1640784775617410048,-0.297757240,0.400161240,9.514632230,-0.097112370,-0.039999200,0.035657000
1640784775618850048,-0.005373960,0.269931050,9.070756910,-0.069694220,0.127986090,0.046919290
1640784775628300032,0.191453310,0.068574410,10.372459410,-0.036428870,0.010898710,0.032824280
1640784775629220096,-0.086753800,-0.015712190,11.100261690,-0.010679660,0.003130730,0.045485790
1640784775629779712,0.128843290,-0.018570570,9.469744680,-0.031073400,-0.095076870,0.041155520
1640784775630119936,-0.197443900,-0.107277590,9.860146520,-0.082090500,-0.094214090,0.027602910
1640784775633400064,-0.123732340,-0.031292470,8.725725170,-0.070820760,0.065726040,0.023010370
1640784775633900032,-0.050161730,0.098902940,9.399674420,-0.026825080,0.014604630,-0.003929440
1640784775637469952,-0.369476800,0.252086400,10.468728070,-0.001215930,0.065565110,0.009161230
1640784775638959872,-0.126385330,0.380916950,9.642169000,-0.009813900,-0.053960080,0.036500390
1640784775642619904,-0.368053790,0.205842450,10.463122370,-0.033402440,-0.128011390,0.046594430
1640784775643159808,-0.223468990,0.100161280,9.252489090,-0.029496850,0.023709240,0.050693760
1640784775647859712,0.007525530,0.055974370,9.632317540,0.007198750,-0.003342330,0.045695900
1640784775648909824,-0.132055040,0.050615660,10.563460350,0.016064940,0.088210410,0.031387810
1640784775652859904,0.117876360,0.329791130,9.495917320,0.001777710,-0.024782120,0.026518110
1640784775655109888,-0.206119330,0.404439390,10.362567900,-0.053222480,-0.132748480,0.023177270
1640784775659600128,-0.175877820,0.478871520,9.003672600,-0.072763860,-0.012606390,0.014872850
1640784775662429696,-0.119203740,0.581889270,9.201851840,-0.027215490,-0.076901930,0.016894940
1640784775664759808,-0.309481680,0.471856530,10.342135430,-0.003781910,0.080274050,0.029324000
1640784775668249856,0.147929460,0.383898140,9.514110570,-0.014264880,0.041708350,0.042735040
1640784775668849920,-0.144871800,0.145728330,11.046567920,-0.018975140,-0.074344870,0.066682700
1640784775669240064,-0.017152770,-0.048897080,9.654445650,-0.042235850,-0.000379980,0.063845520
1640784775672760064,-0.013113910,-0.182049350,9.063909530,-0.026050220,-0.136929780,0.035595910
1640784775674479872,-0.253861550,-0.288201570,9.657531740,0.001062450,0.020574040,0.004662570
1640784775677609984,0.171312450,-0.120421520,8.569437030,-0.004366040,0.084428470,-0.018161540
1640784775678279936,-0.245066230,-0.056258530,10.726889610,0.023642190,-0.017715990,0.000140070
1640784775682700032,-0.220011340,0.067423870,10.089517590,0.020961460,0.014516710,0.023230910
1640784775683499776,-0.118962140,0.203701140,9.422634120,0.013674790,-0.159206970,0.026416780
1640784775687350016,-0.465663430,0.218913140,10.047727580,0.018182400,-0.034154950,0.040432810
1640784775688349952,0.019645930,0.355729100,8.705313680,0.009752810,0.071999430,0.019641220
1640784775701050112,-0.242929340,0.302294550,10.539531710,0.045496220,-0.016422570,0.004856290
1640784775708369920,-0.188473050,0.486326220,10.137975690,0.049068030,0.038814540,0.017255540
1640784775708940032,0.025029530,0.488700570,9.312600140,0.002950430,-0.128182770,0.017455220
1640784775709329920,-0.458957820,0.350529910,10.134629250,-0.009769200,-0.083532930,0.024278460
1640784775709760000,0.026849090,0.442408200,8.535331730,-0.019800660,0.019532440,0.029386580
1640784775710029824,-0.028869100,0.175254270,10.185313220,0.001753870,-0.017273430,0.024171170
1640784775710319872,-0.146665390,0.147936940,10.618209840,0.045154990,0.098796190,0.026294590
1640784775710609920,0.164079460,0.220153660,9.898625370,0.024309750,-0.086769450,0.018593670
1640784775713280000,-0.322965740,0.084958580,10.479322430,-0.001843270,-0.116109850,0.027841330
1640784775715669760,-0.050705050,0.271551250,8.447254180,-0.040777030,-0.021429360,0.010348860
1640784775718009856,-0.115977800,0.288632070,9.302849770,-0.033360720,-0.044509770,0.012218950
1640784775718530048,-0.263980660,0.291780500,9.821022030,0.018678610,0.104321550,0.033658750
1640784775722390016,0.187896370,0.330781910,9.580726620,0.027850270,-0.013786560,0.024366380
1640784775725379840,-0.222331110,0.080715840,11.050887110,0.027245280,-0.066316130,0.048992040
1640784775727569920,-0.108665690,0.010799520,9.455471990,0.014740230,-0.043819840,0.030587620
1640784775729989888,-0.028452670,-0.106177390,9.489728930,-0.002162160,-0.103867080,-0.000305470
1640784775732300032,-0.189885870,-0.122416000,9.540518760,0.025163590,0.072224420,-0.008744000
1640784775732819968,0.170966220,0.169008330,8.988804820,0.031509990,0.046832860,-0.029133260
1640784775737700096,-0.230222150,0.215449110,10.646677020,0.021082160,-0.020137430,0.002303720
1640784775738629888,-0.165555060,0.214402680,9.439524650,0.038735570,-0.028695170,0.020702180
1640784775742799872,-0.202538030,0.197528470,9.658740040,0.057984890,-0.136488680,0.021913650
1640784775745750016,-0.497196610,0.107147860,9.987504010,0.059925020,0.019842390,0.030684470
1640784775748739840,-0.025021530,0.174756810,9.211419110,0.053608410,0.028572970,0.020232790
1640784775749879808,-0.174357830,0.277872200,10.843321800,0.047807400,0.013424460,-0.002884870
1640784775752349952,-0.044487090,0.520788790,9.767776490,0.025559960,0.026436150,0.007382040
1640784775753899776,0.082426850,0.673699200,9.561218260,0.009746850,-0.140380870,0.003419820
1640784775760929792,-0.245448990,0.687794570,9.615630150,0.002789500,-0.027221440,-0.004494190
1640784775761570048,0.117727650,0.695650160,8.564982410,-0.003269310,-0.007066130,0.010412930
1640784775762419968,-0.090339080,0.415809180,10.434574130,0.012855230,0.022093950,0.024738910
1640784775763520000,-0.009131300,0.153446320,10.001003270,0.023107230,0.089579830,0.027778740
1640784775767479808,0.064242030,0.042482890,10.293375020,0.022070120,-0.096462680,0.031678380
1640784775768610048,-0.260598690,-0.114552130,10.199395180,-0.005446380,-0.034688420,0.033280260
1640784775772969984,0.045987420,-0.101332590,8.437424660,-0.030994420,-0.040586300,0.005239250
1640784775774489856,-0.153994650,-0.024119020,9.656471250,0.001829860,0.015841420,-0.014120340
1640784775777580032,-0.072489800,0.139872280,9.342677120,0.017897790,0.123736280,-0.015291570
1640784775778909952,0.013968120,0.194340600,9.971711160,0.040389590,-0.044876330,-0.002832710
1640784775782419968,-0.241240200,0.131254580,10.497177120,0.054682800,-0.019411750,0.020821390
1640784775783579904,-0.018779600,0.118232810,9.073119160,0.030478840,-0.044454630,0.022891170
1640784775792709888,-0.201454010,0.024830550,10.001437190,0.047171120,-0.038708750,0.023567680
1640784775794960128,-0.082913210,-0.023215530,9.361789700,0.049233440,0.103549660,-0.007030370
1640784775798169856,0.059375440,0.089313960,9.639171600,0.058598820,-0.006744270,-0.019434100
1640784775799000064,-0.303401770,0.224342330,10.349791530,0.073650490,0.018228590,-0.002545120
1640784775799389952,-0.129990980,0.346572010,9.118857380,0.038394340,-0.053605430,-0.013041500
1640784775799759872,-0.408059630,0.495169370,9.900426860,0.029639910,-0.113053630,-0.002500410
1640784775802429952,-0.231922660,0.582885500,9.140853880,0.012578070,0.074481970,0.018009540
1640784775803239936,0.080732910,0.436812550,9.817253110,0.017522280,0.031130020,0.005012750
1640784775807379968,-0.159110530,0.428878750,11.061301230,0.069664430,0.073994700,0.011014940
1640784775811079936,0.153311970,0.406147030,9.606182100,0.045387450,-0.034311410,-0.004506110
1640784775812779776,-0.138219520,0.369228870,9.919879910,0.008277600,-0.138415400,-0.001882020
1640784775813259776,-0.216888590,0.330168810,8.713175770,-0.014550980,0.008574130,0.003407900
1640784775817410048,0.043042020,0.274506450,8.668720250,-0.035050500,0.004093350,0.001169740
1640784775817969920,-0.275327950,0.215602530,10.420775410,0.015732650,0.098378960,0.029061730
1640784775825280000,0.170311610,0.073601000,9.880070690,0.042152400,0.071449590,0.020618740
1640784775828790016,0.004621140,-0.010687980,10.847378730,0.050082810,-0.081834200,0.005143880
1640784775830550016,-0.198777630,-0.011070210,9.758536340,0.027771290,-0.006280840,0.012680890
1640784775832779776,0.110163910,-0.114437300,8.633852010,-0.002998110,-0.039476160,-0.010024010
1640784775833570048,-0.382374290,-0.023620230,9.713196750,0.024956470,0.044682620,-0.028036540
1640784775833890048,-0.086802120,0.253443780,8.833807950,0.039836760,0.097879770,-0.021840630
1640784775837449984,-0.234008240,0.285458830,10.313431740,0.043861580,-0.039760780,-0.017197430
1640784775838099968,-0.476736190,0.431554020,10.302254680,0.042970480,-0.005735460,-0.004643200
1640784775842989824,0.120050540,0.510602650,9.109958650,0.002650920,-0.062270460,0.024288890
1640784775845089792,-0.230846930,0.181017910,10.413539890,0.014548010,0.050696730,0.023014850
1640784775847299840,0.053218400,0.067093410,9.487077710,0.069183110,0.114920740,-0.005106630
1640784775848460032,-0.031898310,0.128018990,10.161467550,0.101424770,-0.052402920,-0.018641350
1640784775852369920,-0.566108290,0.212918480,9.912790300,0.036545100,-0.044427820,-0.021672250
1640784775853740032,-0.094457760,0.427712080,8.329314230,-0.052087020,-0.098289560,-0.020954010
1640784775857529856,-0.494170010,0.467967420,9.872764590,-0.050736960,0.000043210,-0.019305940
1640784775859330048,-0.116129960,0.557529210,9.426349640,0.000236930,0.125215950,-0.001323220
1640784775862639872,0.264951770,0.524070380,10.401299480,0.070621060,0.026765460,0.015027820
1640784775864519936,-0.064795920,0.319363620,10.976900100,0.069284440,0.018806760,0.012251740
1640784775867319808,0.369612370,0.287705900,8.964577670,-0.012606390,-0.090068580,0.016565620
1640784775868039936,-0.016217350,-0.033135700,9.309906960,-0.040781500,-0.082506240,-0.000308450
1640784775872329984,-0.143431480,-0.154809120,8.669651030,-0.019453460,0.080822400,-0.032140310
1640784775872979968,0.007318270,0.018142760,9.262482640,0.041109320,0.026221580,-0.044196850
1640784775877299968,-0.529999260,0.114340460,10.651753430,0.048065180,0.058354440,-0.029714400
1640784775881399808,-0.186664850,0.207560880,9.655859950,-0.003030900,-0.014990570,-0.010041890
1640784775882279936,-0.434908000,0.211474090,10.328064920,0.008204580,-0.094901030,0.005067890
1640784775883280128,-0.380738530,0.169162810,9.346795080,0.009223820,0.014525650,0.022876260
1640784775887399936,0.133626000,0.086598270,8.934296610,0.051711500,0.019021330,-0.000002980
1640784775888279808,-0.247192840,0.087670910,10.276598930,0.084060420,0.075438600,-0.025092070
1640784775893319936,0.070129520,0.326873420,9.565862660,0.034537920,0.011217590,-0.023449960
1640784775893809920,-0.151876400,0.405207460,10.056770320,0.010238590,-0.122733420,-0.025549530
1640784775897309952,-0.314126430,0.578144250,9.383995060,-0.033247460,-0.038661070,-0.019927320
1640784775897869824,0.219667610,0.720064880,8.761390690,-0.027851770,-0.001290440,-0.002086160
1640784775902259712,-0.116021630,0.509118850,10.390242580,0.026421250,0.117826470,-0.003357230
1640784775903539968,0.214621660,0.399862800,10.059389110,0.029528150,0.071807210,-0.002928080
1640784775907589888,-0.009468840,0.230672700,10.380716320,0.044895710,-0.091139980,-0.004455450
1640784775908300032,-0.382935200,0.049487270,9.516732220,-0.011597570,-0.077514350,-0.013163690
1640784775912219904,-0.070765440,0.025949490,8.247133260,-0.055183480,-0.054846720,-0.017134850
1640784775912839936,-0.438543500,-0.109797040,9.383872030,-0.002799930,0.088761750,-0.021071730
1640784775919539968,-0.088033250,0.017615880,9.586543080,0.022669140,0.123702000,-0.019177800
1640784775920159744,0.004987220,0.161600750,10.626008990,0.065311790,-0.017599770,-0.010722880
1640784775923169792,-0.032694660,0.215780740,10.234262470,0.012837350,-0.039462750,-0.007188320
1640784775923779840,0.304630670,0.336731610,8.984550480,-0.041048230,-0.064325330,0.000968580
1640784775927289856,-0.059204030,0.004300880,9.618477820,0.020809470,0.046293440,-0.015601520
1640784775927859968,0.024816760,-0.001489520,9.320966720,0.074833620,0.091184680,-0.049582130
1640784775932399872,-0.333107050,0.247704420,10.160244940,0.098621850,-0.024959450,-0.052753090
1640784775933709824,-0.525505070,0.325404700,9.806896210,0.014112890,-0.045785300,-0.032617150
1640784775937619968,-0.255224530,0.527895750,8.997200010,-0.069831300,-0.068104270,-0.002555550
1640784775938309888,-0.422728900,0.247733590,9.901079180,-0.024551160,0.034758450,0.021193920
1640784775942269952,0.246649160,-0.103802030,9.559782030,0.076060000,0.126010190,0.019878150
1640784775942859776,0.356213240,-0.484633210,10.540523530,0.193560120,0.045861300,-0.002045930
1640784775947310080,0.311151210,-0.809466540,10.105963710,0.195260350,0.023837390,-0.010432300
1640784775948160000,0.391170890,-0.859561380,9.105036740,0.120168930,-0.070938450,0.014705960
1640784775953949952,-0.370696250,-0.957342030,9.509752270,0.098304460,-0.033621490,0.016431510
1640784775954680064,-0.133545560,-0.542904970,8.477440830,0.120952730,0.052827600,0.010497870
1640784775957360128,-0.324972840,0.043411560,9.954491620,0.196985900,0.057122120,0.005805490
1640784775958119936,-0.316173200,0.599823420,10.321450230,0.204557170,0.149092050,-0.014407930
1640784775962210048,0.078027170,1.183066250,10.042407990,0.172914560,-0.020037590,-0.007295610
1640784775962810112,-0.440639940,1.191304450,10.392037390,0.120639810,-0.037705890,0.021076200
1640784775967320064,0.189135020,0.883511250,8.184203150,0.103984790,0.025387110,0.042521960
1640784775968400128,-0.165764270,0.264880660,9.545620920,0.203390420,0.027537350,0.032880910
1640784775972229888,-0.311092140,-0.150030030,9.755810740,0.239969830,0.136980410,0.017009680
1640784775972829696,0.098236520,-0.256813200,9.593443870,0.201138870,-0.023493170,0.010828670
1640784775977269760,-0.461214600,-0.299243030,10.803866390,0.100514290,-0.017058850,-0.005817410
1640784775977829888,0.134886890,0.096911260,9.019451140,0.027877090,0.036303690,-0.009728970
1640784775982699776,-0.047062570,0.326691450,10.132753370,0.109621900,-0.002199410,-0.008329750
1640784775986199808,-0.126985970,0.538084690,9.897792820,0.191695990,0.124928370,-0.022560360
1640784775987249920,0.356379300,0.945627510,9.164426800,0.207768400,-0.006349380,-0.022432210
1640784775987910144,-0.296246350,1.006633280,10.272340770,0.124949220,0.002343950,0.021837650
1640784775992349952,0.001552010,0.843359230,8.959304810,0.011777880,0.040513280,0.049832470
1640784775992849920,-0.193527100,0.526134670,9.945564270,0.058399140,-0.007094440,0.063288220
1640784775997289984,-0.309151680,0.224817620,9.993968010,0.125883500,0.088270010,0.042295460
1640784775997880064,0.343523260,0.272080780,9.249273300,0.123755630,0.046795610,0.010472540
1640784776002279936,-0.036699810,0.101717870,10.299510000,0.089015070,0.081689660,-0.007423760
1640784776002840064,0.106113440,0.085118250,9.228799820,0.011131170,0.047539170,-0.030969090
1640784776007670016,-0.097596120,0.080080770,9.464015010,0.048246990,-0.066520280,-0.028885900
1640784776008160000,-0.397832450,-0.130550640,9.212076190,0.097928940,0.049933790,-0.012899940
1640784776012249856,-0.233591650,-0.036963440,9.213054660,0.135900080,0.049801170,-0.016245240
1640784776012859904,-0.601744350,-0.009185490,10.614005090,0.151714680,0.075241920,-0.001913310
1640784776019059968,-0.150181170,0.266387880,9.840009690,0.072260210,0.051277880,0.003717840
1640784776019579904,0.060233090,0.464542030,9.983448980,0.036470590,-0.006590780,0.019718710
1640784776022390016,0.138364760,0.384815720,9.557369230,0.055116420,0.111149250,0.026795270
1640784776023000064,0.340490310,0.350423280,9.294114110,0.118738440,0.042803590,0.018171970
1640784776027249920,-0.126670270,0.171731770,10.050308230,0.191831560,0.022052230,0.003020460
1640784776027859968,-0.073170230,0.182200970,9.063725470,0.128261740,0.010277330,-0.011327870
1640784776032389888,-0.483077850,0.228546380,9.971059800,0.050811480,-0.020295380,0.001090770
1640784776034359808,-0.727127370,0.129300670,9.907514570,0.033719830,0.075861800,0.009614230
1640784776037240064,-0.451379540,0.443435640,9.704994200,0.070786480,-0.010582800,0.005367400
1640784776037849856,-0.611597600,0.633525010,10.336778640,0.113654140,0.032131370,0.019878150
1640784776042259968,0.006650680,0.661495150,9.099624630,0.074277830,0.048789380,0.010870400
1640784776042830080,0.009351520,0.616934900,9.901760100,0.043454770,-0.015550850,-0.006420910
1640784776047350016,0.114919040,0.333116920,9.585211750,0.054003300,0.067114840,0.007440150
1640784776048359936,0.486690640,0.111273820,9.244050980,0.083640210,-0.004011390,0.012952090
1640784776052649984,-0.022996900,-0.095014110,10.325432780,0.108064710,0.027035180,0.028587880
1640784776053220096,0.305891070,-0.144394560,9.135300640,0.056076050,0.066946440,0.040806820
1640784776057760000,-0.000333660,-0.115385430,10.124371530,0.034742060,-0.004649160,0.035446870
1640784776059099904,-0.272601160,-0.076207610,9.815855030,0.064261260,0.076593470,0.016827880
1640784776062229760,-0.031989880,0.163408910,9.032830240,0.082208220,0.000013410,0.000576670
1640784776062840064,-0.796560940,0.128600610,10.288768770,0.126089160,0.014725330,-0.004558270
1640784776067749888,-0.482803400,0.174358620,8.956521030,0.119325520,0.027146940,-0.013552610
1640784776068800000,-0.634278060,0.330548470,9.928749080,0.104150190,-0.053633760,-0.025877360
1640784776072229888,-0.791811760,0.421384390,10.067647930,0.069442400,0.056371100,-0.011040270
1640784776072929792,0.050881760,0.739368320,9.251773830,0.041309010,-0.008328260,-0.005728010
1640784776077240064,-0.133320640,0.857893760,10.653616910,0.045815110,0.023008880,0.017587840
1640784776077879808,0.483857240,0.766264320,9.342238430,0.031800570,0.077506920,0.048169500
1640784776082489856,0.580270950,0.491800580,9.993910790,0.065089770,-0.031369920,0.042772300
1640784776083299840,0.083250950,0.087557320,10.038088800,0.085407500,0.027492640,0.025980170
1640784776087339776,0.307115880,-0.050094920,8.737861630,0.065405650,-0.050397220,0.009636580
1640784776087899904,-0.515480700,-0.253880200,10.137293820,0.049552330,-0.025710460,0.005906820
1640784776092269824,-0.613528070,-0.140860080,9.349623680,0.022368130,0.053165860,0.007320940
1640784776092849920,-0.568059680,0.197038130,9.861113550,0.040279330,-0.036276880,0.016427040
1640784776097600000,-0.868636190,0.381640970,10.434835430,0.043465200,0.033316020,0.017839670
1640784776098219776,-0.149805840,0.772790490,9.071318630,0.026161970,-0.020191080,0.002856550
1640784776102239744,-0.281021570,0.856907840,9.960837360,0.034053620,-0.028577450,0.008404260
1640784776102840064,0.042168160,0.617718880,9.237522130,0.018681590,0.044232610,0.019393860
1640784776107319808,0.350103860,0.274856270,9.507338520,0.061118600,-0.036096570,0.023779270
1640784776107919872,-0.022521160,-0.166567520,10.265250210,0.078605120,0.019310410,0.018239020
1640784776112289792,0.331468550,-0.233731020,9.245118140,0.049944220,-0.018067660,0.008793180
1640784776113250048,-0.101629730,-0.112905870,10.268508910,0.025820730,-0.042426590,0.007708370
1640784776118350080,-0.119570480,0.112409730,9.561841960,-0.036568930,0.037260350,0.017645950
1640784776118739968,-0.033963910,0.385898380,9.601343150,-0.017715990,-0.014613570,0.024390220
1640784776122419712,-0.548975050,0.434867110,10.415545460,0.040400030,0.026413800,0.009135900
1640784776122969856,-0.303866060,0.560789170,9.269416810,0.073510410,-0.033618510,0.000120700
1640784776127249920,-0.669538020,0.632138130,9.915828700,0.075827550,-0.089041870,-0.000646710
1640784776127869952,-0.596278370,0.636441650,9.252758030,-0.029417870,0.001934170,0.013442340
1640784776132320000,-0.238535810,0.539070550,9.426868440,-0.054842230,-0.034795700,0.038662550
1640784776133159936,-0.324974090,0.340497230,10.454845430,-0.008584560,0.031796100,0.033769010
1640784776137229824,0.318164620,0.279179010,9.588448520,0.012077390,0.008562210,0.030758980
1640784776137879808,0.304010990,0.219494520,10.184051510,0.043147810,-0.068183240,0.025445220
1640784776142309888,0.381887320,0.093884830,9.339323040,-0.022093950,0.022587180,0.013677780
1640784776142940160,0.414390950,-0.055474350,9.122495650,-0.045230980,-0.041465470,0.017194450
1640784776147310080,-0.233629720,-0.352078410,10.018641470,0.024530300,0.006212300,0.009875000
1640784776147879936,-0.169968840,-0.292292330,9.241416930,0.059810290,-0.016865140,-0.004804130
1640784776152230144,-0.755822000,-0.044514270,10.253339770,0.078779450,-0.080481160,-0.000154970
1640784776153299712,-0.829211590,0.216066140,9.717101100,0.002500420,-0.006736820,-0.000876190
1640784776157329920,-0.448832840,0.681356130,9.443503380,-0.055322050,-0.064826010,-0.001473720
1640784776158929920,-0.596674920,0.750003220,10.238077160,-0.012542310,0.019183750,0.022068620
1640784776162249984,0.070395980,0.711150350,9.317175870,0.030106310,0.026540460,0.014099480
1640784776162849792,-0.063370320,0.645562290,10.243962290,0.088295350,-0.093862410,-0.000254810
1640784776167300096,0.084793740,0.404376450,9.446000100,0.043547160,-0.050480670,0.011973080
1640784776167859968,0.348256140,0.273191660,9.063731190,-0.061011320,-0.077024100,0.007568300
1640784776172209920,-0.223024850,-0.013941760,10.355772020,-0.050188600,-0.006607170,0.010220710
1640784776172859904,0.070316580,0.059220680,9.623702050,-0.009235740,0.003704430,0.004713240
1640784776177459968,-0.161964100,0.217310500,10.230660440,0.028188530,-0.099121040,-0.004422660
1640784776177959936,-0.294042470,0.320032570,9.658018110,0.005547700,-0.018480420,-0.007450580
1640784776182339840,0.043480510,0.554211620,8.905354500,-0.057062510,-0.047725440,-0.023390350
1640784776183749888,-0.419147880,0.410426800,9.960198400,-0.051568450,-0.017471610,-0.013516840
1640784776190680064,-0.071976680,0.266940800,9.179800990,-0.010471050,0.009873510,-0.014877320
1640784776193199872,-0.197587000,0.208526780,10.011712070,0.049318380,-0.068481270,-0.013393170
1640784776194039808,-0.470178660,0.009220400,10.188039780,0.024971370,-0.028111040,-0.003954770
1640784776195369984,-0.018641030,0.089887530,9.236292840,-0.034408280,-0.063996020,-0.009623170
1640784776197339904,-0.376053780,0.035132250,10.147287370,-0.042124090,-0.035496060,-0.028514870
1640784776197919744,0.054015280,0.200681690,9.082846640,-0.028538700,0.016489620,-0.022803250
1640784776202189824,0.174688100,0.337251340,9.569648740,0.014279790,-0.032357870,-0.014701490
1640784776202819840,-0.199440120,0.153700170,10.236165050,0.031007830,0.007244950,-0.006203350
1640784776207599872,0.075824220,0.238149400,9.465107920,0.035659960,-0.090946250,-0.008642670
1640784776207980032,-0.448781160,0.208766130,10.244413380,0.000962610,-0.114826850,-0.015796720
1640784776212229888,-0.216956850,0.270420730,9.190173150,-0.033393500,-0.003683570,-0.013345480
1640784776212839936,-0.123849650,0.586807250,9.815745350,-0.022344290,-0.005748870,-0.021083650
1640784776217319936,-0.358364910,0.813135210,10.474512100,-0.047953430,0.033099950,-0.012397770
1640784776217880064,0.201525630,0.975637320,9.330062870,-0.057743500,-0.059320040,0.003075600
1640784776222339840,-0.086823420,0.795729940,9.951587680,-0.051349410,-0.092279910,-0.008170310
1640784776223179776,0.079780760,0.552120150,8.857755660,-0.060199200,-0.004380940,-0.001232330
1640784776227309824,-0.018509900,0.214729120,9.514303210,-0.032719960,-0.042344630,0.017446280
1640784776227939840,-0.331523870,-0.259135870,10.382024770,-0.039193030,0.006891790,0.013549630
1640784776232339968,-0.011761060,-0.338878960,9.543365480,-0.036616630,-0.054217880,0.022549930
1640784776233589760,-0.378569360,-0.364987340,10.361038210,-0.040180980,-0.080877550,0.005660950
1640784776237239808,-0.073963850,-0.219969910,9.200726510,-0.076499570,0.009815390,-0.019627810
1640784776237859840,0.052576110,0.304694590,9.380342480,-0.043240190,-0.055944930,-0.017991660
1640784776242449920,-0.161404730,0.440327170,9.943850520,-0.043317680,0.026214130,-0.010195370
1640784776243209728,0.258011280,0.514295400,9.130346300,-0.018250940,-0.027889020,0.006051360
1640784776247360000,-0.201977970,0.468912150,10.421254160,0.022609530,-0.067123780,0.006736810
1640784776248100096,-0.164995950,0.374898140,9.660452840,-0.029852990,-0.003279750,0.006240610
1640784776252229888,-0.219197010,0.456192430,9.672142980,-0.045759970,-0.103481120,0.000253320
1640784776252859904,-0.432661920,0.393632230,9.988112450,-0.092716540,-0.003682080,-0.000256300
1640784776257449984,0.107777000,0.512154640,9.033357620,-0.104866930,0.025565920,0.008559230
1640784776259389952,-0.374996190,0.342928020,10.668591500,-0.032494970,-0.037318470,0.007523600
1640784776262269952,-0.150056760,0.321000160,9.706277850,-0.032632050,-0.028052930,-0.004112720
1640784776262849792,0.002443650,0.334623010,9.070944790,-0.044833130,-0.146324950,-0.005227330
1640784776267299840,-0.328967450,0.069908750,9.847217560,-0.082485390,0.002825260,0.003068150
1640784776267959808,0.215128480,0.070213300,9.166951180,-0.101718320,0.046934190,0.000758470
1640784776272349952,-0.148244110,0.038436780,10.816064830,-0.020287930,-0.051932040,0.010550020
1640784776274080000,-0.004904210,0.167655300,10.005208970,-0.034584100,-0.020590420,0.011381510
1640784776277269760,0.304225000,0.456037370,9.068639760,-0.075802210,-0.094532970,-0.005637110
1640784776277890048,-0.222129330,0.491517690,9.852229120,-0.117108230,-0.005587940,-0.001035630
1640784776282379776,0.197028610,0.608259140,8.752883910,-0.133480130,0.051812830,0.012238320
1640784776284059904,-0.191287160,0.319096150,10.165479660,-0.037658220,-0.043778130,0.012566150
1640784776287219968,-0.346446040,0.124117200,10.028802870,-0.004737080,-0.005032120,0.016081330
1640784776288110080,-0.137263240,0.007101500,9.398400310,-0.041607010,-0.080929690,0.007711350
1640784776292759808,-0.620803420,-0.282770450,10.356653210,-0.070306660,-0.039182610,-0.002302230
1640784776293799936,-0.074436160,-0.056727930,9.173306470,-0.094808640,0.013190510,-0.018770990
1640784776297279744,-0.133229060,0.089192950,9.906457900,-0.064499680,-0.024905800,-0.016175210
1640784776297900032,-0.076768530,0.289851780,9.916563030,-0.048811730,0.024031100,0.002704560
1640784776302279936,0.210745590,0.565240260,9.480886460,-0.039020180,-0.075332830,0.002862510
1640784776302870016,-0.205911870,0.514966960,9.993115430,-0.045475360,-0.081321580,0.008596480
1640784776307249920,0.072430460,0.584813300,9.095081330,-0.080437970,-0.012472270,0.025382640
1640784776308280064,-0.141613420,0.450163160,10.087526320,-0.082033880,-0.010226670,0.015544890
1640784776312199936,-0.249937920,0.390778660,10.259395600,-0.066813830,0.020033120,0.021778050
1640784776312849920,-0.014902800,0.529326560,9.756594660,-0.074517730,-0.057218970,0.029557950
1640784776317289728,-0.317199380,0.383579160,9.997404100,-0.104518230,-0.047251590,0.016331670
1640784776317879808,-0.032215980,0.439424310,8.880249020,-0.130997610,-0.032673780,0.007337330
1640784776322289920,-0.170953210,0.262267980,9.501131060,-0.121094290,-0.029240550,0.011608000
1640784776322860032,-0.119683450,-0.129667250,9.615562440,-0.071443620,0.048826640,0.011634820
1640784776327270144,-0.004926680,-0.224884900,10.027813910,-0.001063940,-0.040283790,0.021122390
1640784776327909888,-0.307165590,-0.391465600,10.500161170,-0.021116440,-0.041024380,0.015278160
1640784776332379904,0.071581860,-0.222780880,9.168031690,-0.083012890,-0.059583780,0.007279220
1640784776333710080,-0.111069620,0.134024520,9.711180690,-0.110466790,-0.036378210,-0.009994210
1640784776337309952,0.006967160,0.414665040,9.274838450,-0.118188560,0.083950150,-0.008758900
1640784776337889792,0.121215290,0.681013230,9.704830170,-0.050665430,-0.025199360,0.013904270
1640784776342279936,-0.329774950,0.514598250,10.470735550,0.001451370,-0.030286610,0.013604760
1640784776342870016,-0.065086090,0.418170870,9.068594930,-0.010052320,-0.075224040,0.024177140
1640784776347429888,-0.494003120,0.252683520,10.102416990,-0.039555140,-0.087676960,0.033073130
1640784776348169984,-0.341110500,0.075697490,9.551475520,-0.111618650,0.060987470,0.014695520
1640784776352439808,0.005968960,0.266206230,9.705510140,-0.092364850,-0.019633770,0.004465880
1640784776353750016,-0.330958930,0.411610480,10.706271170,-0.076839340,0.015304980,0.005953010
1640784776357339904,0.297033850,0.557177250,9.109443660,-0.087887030,-0.020460790,-0.004969540
1640784776358809856,-0.090107240,0.607584830,9.966453550,-0.071464490,-0.112515700,-0.011076030
1640784776362239744,-0.070168670,0.398112090,9.254170420,-0.094856320,0.027076910,0.010444220
1640784776362850048,0.230249050,0.123270330,9.146106720,-0.067511210,-0.014318530,0.027847290
1640784776367379968,-0.453766050,-0.179572090,10.967360500,-0.028657920,0.015847380,0.045371060
1640784776367970048,0.148203730,-0.196725700,9.399427410,-0.062021620,0.004093350,0.041420760
1640784776372239872,-0.125963750,-0.186857010,10.077269550,-0.070564440,-0.090621400,0.015920400
1640784776372859904,-0.294902710,0.058568550,9.587529180,-0.116135190,0.026434660,-0.006568430
1640784776377280000,0.128841040,0.409052130,8.813917160,-0.100395080,-0.023849310,-0.012944640
1640784776377869824,-0.560017880,0.358100890,10.395926480,-0.038303440,-0.009486080,0.001581010
1640784776382550016,-0.142524120,0.389933760,9.269736290,-0.024224820,0.002360340,0.003638860
1640784776383999744,-0.357818540,0.294956800,10.064290050,-0.005717580,-0.099132960,0.004448000
1640784776387259904,-0.585844580,0.149370250,10.063363080,-0.055018070,-0.014859440,0.013801460
1640784776387939840,-0.038153770,0.210633460,9.162805560,-0.098490720,-0.053378940,-0.003193320
1640784776392310016,-0.349434850,0.197905960,10.329026220,-0.067467990,-0.029061730,-0.004105270
1640784776392949760,0.153609100,0.391764580,9.459726330,-0.072701280,0.026357180,0.005523860
1640784776397319936,0.128034500,0.366850970,10.063850400,-0.042210520,-0.067831580,0.008431080
1640784776398200064,-0.100240050,0.284007010,9.993378640,-0.044077640,-0.035762790,0.005117060
1640784776402520064,0.155896460,0.374804940,9.119229320,-0.089907650,-0.066252060,0.004309420
1640784776403259904,-0.371346290,0.091800570,10.080469130,-0.066673780,-0.041286660,0.022311510
1640784776407339776,-0.171964850,0.008185170,9.451536180,-0.050126020,-0.005559620,0.013253090
1640784776407859968,-0.200592010,0.181779060,9.957249640,-0.036866970,-0.052425270,0.016979870
1640784776412199936,-0.260463510,0.129458280,10.043821330,-0.063504290,-0.001180170,0.027617810
1640784776412849920,0.157196070,0.371169980,9.431738850,-0.095558170,-0.040486460,-0.000220540
1640784776418850048,-0.103806680,0.449598010,9.924139020,-0.087596480,-0.017702580,-0.008255240
1640784776419409920,0.097345140,0.498374370,9.278878210,-0.069297860,0.000017880,-0.000597540
1640784776422339840,-0.086154150,0.341301470,9.842816350,-0.037118800,-0.064007940,0.003376600
1640784776424279808,-0.232065230,-0.031796720,9.609320640,-0.025421380,-0.017870960,0.008764860
1640784776427249920,0.015516120,-0.135453780,9.354095460,-0.033214690,-0.046567620,0.009365380
1640784776427919872,-0.337463560,-0.248428310,10.294172290,-0.048516690,0.003682080,0.000891090
1640784776432459776,-0.028061260,-0.005839070,9.512298580,-0.073079770,-0.004534420,-0.005394220
1640784776435590144,-0.136077490,0.274664100,10.144210820,-0.069935630,-0.053556270,0.009630620
1640784776437260032,-0.149101420,0.260113180,9.641925810,-0.065051020,0.022627420,0.013160710
1640784776437899776,0.005280530,0.311152490,9.504699710,-0.008597970,-0.068463390,-0.000050660
1640784776442259968,-0.568916680,0.300860850,10.345567700,0.024710600,-0.042919810,-0.004822020
1640784776442870016,-0.210569830,0.315427810,9.087036130,-0.015665590,-0.052258370,-0.014552480
1640784776447340032,-0.340270730,0.444439410,10.033978460,-0.053325300,-0.091971460,-0.000080470
1640784776448039936,-0.186480360,0.608374710,9.777053830,-0.111080710,0.060489770,0.011089440
1640784776452849920,0.309780660,0.736438750,9.563383100,-0.109207630,-0.017789010,0.023321810
1640784776453549824,-0.082012120,0.652989860,10.761756900,-0.062434390,-0.031675400,0.009752810
1640784776457769984,0.396233140,0.564301010,8.983467100,-0.063909600,-0.021511320,-0.004851820
1640784776458799872,0.133076650,0.288173850,9.734352110,-0.045511120,-0.089690070,0.011278690
1640784776462189824,-0.277753650,-0.173582880,9.853269580,-0.061294450,0.035838790,0.016689300
1640784776462859776,0.165968510,-0.367906060,8.909132960,-0.057598940,-0.052845470,0.016729540
1640784776467969792,-0.441383840,-0.415783760,10.455986980,-0.041599580,-0.009663400,0.018911070
1640784776468940032,-0.040438120,-0.153896290,9.352879520,-0.077386210,0.072430070,0.003992020
1640784776472189952,-0.140773270,0.203186060,10.093827250,-0.057786710,-0.087328260,-0.006480520
1640784776472859904,-0.403957220,0.455955980,10.101171490,-0.073945530,-0.006960330,-0.011768940
1640784776477249792,0.198217620,0.537564340,8.709340100,-0.050665440,-0.031343100,-0.004841390
1640784776477870080,-0.429228430,0.268467780,10.421596530,0.035071370,-0.003568830,-0.010465090
1640784776482419968,-0.165699330,0.309902010,9.471892360,0.017896300,0.040882830,-0.002443790
1640784776483389952,-0.133362320,0.265346830,9.763312340,-0.021740790,-0.098375980,0.014929470
1640784776487289856,-0.454191680,0.126049370,10.052993770,-0.083127630,-0.015449530,0.021426380
1640784776487899904,0.235680070,0.407193870,8.874870300,-0.112877780,-0.013707580,0.020609800
1640784776492300032,-0.147474530,0.268647670,10.493016240,-0.042131540,0.013816360,0.032652910
1640784776492930048,0.121921420,0.194006490,9.929440500,0.001852210,0.058756780,-0.003387030
1640784776497409792,0.134621740,0.267812970,10.080264090,0.027054550,-0.077612710,-0.021055340
1640784776498139904,-0.386869160,0.123526250,10.022014620,-0.008456410,-0.051981210,-0.007306040
1640784776502189824,0.021907710,0.121293450,8.658615110,-0.078295160,-0.051364300,-0.000688430
1640784776502939904,-0.308851630,0.161065180,9.717616080,-0.055027020,0.009693210,0.011835990
1640784776507479808,-0.035841360,0.286306080,9.508993150,-0.036941470,0.084109610,0.035554170
1640784776507930112,0.141126500,0.379231870,10.143345830,-0.021058320,-0.005194540,0.031377380
1640784776512430080,-0.141572820,0.359625490,10.443004610,-0.006562470,-0.006568430,0.014926490
1640784776513379840,0.120264900,0.368811070,9.371868130,-0.050075340,-0.066706520,0.018647310
1640784776517599744,-0.244883190,-0.009586800,9.761534690,-0.033481420,-0.027698280,-0.003062190
1640784776517989888,-0.159612130,-0.253000500,9.034972190,0.006578860,0.042659050,-0.020591910
1640784776522359808,-0.220245030,-0.201495270,9.738552090,0.032909220,-0.003045800,-0.018626450
1640784776523059968,-0.414872530,-0.205594210,9.990472790,0.027528410,0.024396180,-0.001946090
1640784776527279872,-0.012620200,0.146101070,9.437342640,-0.031413140,-0.071059190,0.006648900
1640784776528229888,-0.210363820,0.390374930,10.115533830,-0.053584580,-0.014197830,0.015702850
1640784776532320000,0.148400500,0.413950860,9.402589800,-0.029477480,0.059635940,0.021059810
1640784776532940032,0.054191180,0.481298090,10.427165030,0.053851310,-0.008676950,0.004075470
1640784776537230080,-0.175745200,0.428793010,10.098678590,0.074394050,0.021660330,-0.007827580
1640784776537869824,0.020200620,0.443446130,9.111572270,0.016689300,-0.102318820,-0.015749040
1640784776542209792,-0.567973610,0.436000880,9.917676930,-0.049030780,-0.063468520,-0.000973050
1640784776542879744,-0.157133530,0.405705960,8.640642170,-0.091357530,0.035014750,0.019147990
1640784776547389952,-0.143851700,0.434192930,10.169790270,-0.043420500,0.004780290,0.027865180
1640784776548059904,-0.190373300,0.279241140,10.652242660,0.001966950,0.100816790,0.026465950
1640784776552199936,0.281928840,0.234883410,9.769823070,0.008925800,-0.057406730,0.005783140
1640784776552849920,-0.289022510,0.085490000,10.486147880,0.004206600,-0.089575340,0.002789500
1640784776557699840,-0.018220320,-0.076668990,8.552167890,-0.039561100,-0.002253060,-0.001752380
1640784776558879744,-0.035729980,-0.149820740,9.126875880,-0.004372000,-0.058372320,-0.000786780
1640784776562209792,-0.338687480,-0.042480030,9.856668470,0.008390840,0.117623830,0.002440810
1640784776562899712,0.224619970,0.196229790,9.393271450,0.001022220,0.035792590,0.012055040
1640784776567299840,-0.316718820,0.405955880,11.120596890,0.007463990,-0.066626060,0.009596350
1640784776567989760,-0.035998810,0.600871620,9.356437680,-0.057508050,-0.010359290,0.014854970
1640784776572199936,0.110264170,0.494721110,9.259278300,-0.033397980,-0.062145300,0.018829110
1640784776572989952,-0.412669510,0.114618630,10.093185420,0.044418870,0.095589440,0.004462900
1640784776577390080,0.060673100,0.011762220,8.980418210,0.074823200,0.015038250,-0.021125370
1640784776577910016,-0.514989970,-0.083205870,10.441972730,0.074149670,-0.072294480,-0.010992590
1640784776583439872,-0.443228240,-0.078152620,9.448210720,-0.039441880,-0.005394220,-0.008234380
1640784776584069888,-0.090815650,0.171922090,9.379177090,-0.070708990,-0.095032160,-0.002548100
1640784776587329792,-0.323766830,0.239535260,10.331766130,-0.020420550,0.068403790,0.013589860
1640784776587919872,0.349668320,0.474077820,9.627963070,0.034858290,0.081965330,-0.001983340
1640784776592199936,0.008363940,0.584921960,10.925733570,0.085458140,-0.039851670,-0.001585480
1640784776593730048,-0.045384780,0.606136140,9.578279500,0.000433620,-0.035658480,0.001741950
1640784776597359872,0.146622940,0.636453930,8.774024010,-0.059874360,-0.099577020,0.006723400
1640784776597969920,-0.447891380,0.341331720,9.616854670,-0.031125550,0.021226710,0.013358890
1640784776602219776,0.006924220,0.456866710,9.036331180,-0.024130940,0.051479050,0.009401140
1640784776602919936,-0.074005830,0.381866310,10.446969030,0.001995270,0.037251420,0.025653840
1640784776607360000,-0.105031480,0.141184760,10.418523790,-0.033602110,0.063920010,0.016218420
1640784776608000000,0.124550890,0.128102230,9.987827300,-0.046274070,-0.080207010,0.003115830
1640784776612219904,-0.277277500,-0.184904800,9.748612400,-0.006933510,-0.037141140,0.004081430
1640784776612919808,0.023946060,-0.365611260,8.495376590,0.017784540,0.006800890,-0.024217370
1640784776617229824,-0.303465550,-0.299017280,9.642354970,0.055907670,0.033849480,-0.038398800
1640784776617929984,-0.346369560,-0.155308400,9.669417380,0.030730660,0.055997080,-0.014182930
1640784776622479872,-0.197120850,0.195179910,10.106543540,-0.014968220,-0.064730650,-0.009527800
1640784776623659776,-0.402559250,0.544801240,10.307891850,-0.023792680,-0.016492610,0.002036990
1640784776627389952,0.096991550,0.802481530,9.279725070,-0.032639500,-0.012843310,0.022253390
1640784776627889920,-0.008386230,0.676582630,10.171268460,0.014705960,0.038507580,0.001065430
1640784776632329984,0.111120440,0.414056240,9.630099300,0.065810990,0.089377160,-0.006182490
1640784776633879808,0.068405740,0.268181680,9.959131240,0.071546440,-0.068420180,-0.019834940
1640784776637229824,-0.432797520,0.146521310,9.905077930,0.013725460,-0.049327320,-0.021056830
1640784776637939968,-0.124709600,0.134825970,8.653662680,-0.063768030,-0.055858500,-0.009538230
1640784776642479872,-0.465900450,0.228304280,10.164946560,-0.062455240,0.005586450,-0.003209710
1640784776643460096,-0.106128050,0.267352520,9.809175490,-0.023089350,0.130307670,0.006991630
1640784776647329792,0.140045450,0.363005010,10.472544670,0.041115290,-0.003667180,-0.009083750
1640784776648160000,-0.230355280,0.365353640,10.716838840,0.045640770,-0.002971290,-0.010208790
1640784776652179968,0.220005390,0.304673110,8.652737620,-0.021468110,-0.079961140,0.004604460
1640784776652920064,-0.192142100,0.028271450,9.542422290,-0.015139580,-0.080400710,0.009346010
1640784776657359872,0.015844170,-0.083153770,8.752957340,-0.001041590,0.123247490,0.009047980
1640784776658299904,0.337661090,0.078276120,9.638033870,0.035007290,0.055985150,0.013828280
1640784776662220032,-0.222248760,0.160980810,11.341270450,0.023278600,0.085382180,0.014738740
1640784776662860032,0.254196410,0.386071560,9.503914830,-0.034600510,-0.039148340,0.000129640
1640784776667340032,-0.242111950,0.416060030,10.066975590,-0.028994690,-0.122162710,-0.002671780
1640784776667970048,-0.356174830,0.145212340,8.837377550,-0.000408290,0.080625710,-0.006031990
1640784776672809728,-0.097546580,-0.108030100,8.848178860,0.085213790,0.025191900,-0.041413310
1640784776674289920,-0.779838320,-0.138566990,10.763704300,0.121891510,0.067046290,-0.042799120
1640784776677209856,-0.154992120,-0.009455250,9.307706830,0.030240410,0.001396240,-0.021289290
1640784776677879808,-0.245441290,0.144037990,10.285255430,-0.017744300,-0.109946740,-0.008581580
1640784776682329856,-0.169931520,0.504402460,9.634340290,-0.061580550,0.072599950,0.007529560
1640784776684209920,0.448652090,0.598114490,9.307026860,-0.013791020,0.039437410,0.017046930
1640784776687239936,-0.052251280,0.511841360,10.906203270,0.087614360,0.050678860,-0.002262000
1640784776692099840,0.374569270,0.521497310,9.319599150,0.078006080,0.020162760,-0.017832220
1640784776693019904,-0.059080990,0.347255560,9.968296050,0.039787590,-0.097323950,-0.021027030
1640784776693379840,-0.583450790,0.222404760,9.605924610,-0.040154160,-0.000417230,-0.015904010
1640784776697309952,-0.185068610,0.341522100,8.781488420,-0.077228260,-0.040955850,-0.008408730
1640784776697949952,-0.560605410,0.338566010,10.189287190,-0.026462980,0.063787410,0.004431610
1640784776702179840,-0.101880880,0.425486090,9.819361690,-0.005377830,0.105188810,-0.003078580
1640784776702909952,-0.094561540,0.489163040,10.722221370,0.030736630,-0.039298830,-0.007462500
1640784776707409920,-0.245247780,0.303208410,10.060987470,0.004635750,-0.030758980,0.003586710
1640784776710259968,0.237806510,0.096372820,8.815310480,-0.040698050,-0.060413790,-0.001564620
1640784776712179968,-0.079872910,-0.165886090,9.489722250,0.008328260,0.039671370,-0.006489460
1640784776712859904,0.177821640,-0.120013270,9.029832840,0.016811490,0.088657450,-0.005887450
1640784776717270016,0.178578360,0.019619290,10.100297930,0.010737780,0.011688470,-0.001092260
1640784776717979904,-0.084562750,0.120355230,10.266291620,-0.017790500,0.031369920,-0.003899630
1640784776722349824,0.028604900,0.382042940,9.669451710,-0.040163100,-0.069274020,-0.005269050
1640784776724529920,-0.437424720,0.200292180,10.027999880,0.011335310,-0.006519260,-0.001217420
1640784776727249920,-0.339314070,0.105954250,9.125974660,0.057797130,0.042372950,-0.028546150
1640784776727899904,-0.561307430,0.109470040,9.966856000,0.078120820,-0.006388130,-0.032077720
1640784776732290048,-0.652273710,-0.016423350,9.690590860,0.054149330,0.033095480,-0.020015240
1640784776733870080,-0.347404480,0.139311950,9.414998050,0.008007880,-0.096224260,-0.013360380
1640784776737309952,-0.472434040,0.366659820,10.109565730,-0.013242660,-0.039234760,0.002327560
1640784776737969920,0.157879640,0.468683480,9.189241410,-0.024470690,0.046472260,0.009761750
1640784776742279936,0.182262480,0.497335610,10.739238740,0.016747420,0.021691620,-0.008267170
1640784776742869760,0.054754120,0.426870350,10.626527790,0.066104520,0.056606530,-0.013889370
1640784776747369984,0.175870780,0.384754450,9.647865300,0.061500080,-0.144547240,-0.016796590
1640784776748119808,-0.431598480,0.319846300,9.731218340,0.016693770,-0.115671760,-0.010035930
1640784776752260096,-0.077941920,0.241651950,7.914322850,-0.050373370,0.005568560,-0.009839230
1640784776753579776,-0.192091210,0.244518000,9.762022970,-0.046917800,0.026641790,0.005140900
1640784776757959936,-0.290013370,0.233894240,10.659474370,0.014102460,0.126798450,0.007382040
1640784776758499840,0.196829770,0.338563170,10.195992470,0.037246940,-0.062170640,-0.002284350
1640784776762169856,-0.409502710,0.367869290,10.967415810,0.019855800,-0.110425040,-0.000667570
1640784776762879744,-0.107121510,0.223530260,8.514320370,-0.039955970,-0.049375000,-0.003521140
1640784776767239936,-0.089547020,-0.009725760,9.001943590,-0.019322330,-0.068178760,-0.019991400
1640784776768199936,-0.444528220,-0.091161710,9.649053570,0.035858160,0.121916830,-0.024330620
1640784776772549888,0.200383250,0.010653520,9.281216620,0.051277880,0.000560280,-0.020797550
1640784776773540096,-0.249437990,0.166572570,11.207527160,0.043383240,-0.078220670,-0.006562470
1640784776777199872,0.063483140,0.428610380,9.485288620,-0.056038800,-0.025530160,0.006298720
1640784776777900032,0.189138950,0.368364630,9.677159310,-0.063684580,-0.087206070,0.014807290
1640784776782359808,-0.323186460,0.137853550,10.244966510,0.028020150,0.083430110,-0.003112850
1640784776784189952,0.133064020,0.197606070,9.028070450,0.097814200,-0.001192090,-0.025217240
1640784776787379968,-0.511336150,0.204417450,10.568337440,0.107097610,-0.088587400,-0.019361080
1640784776788059904,-0.543593530,0.335970460,9.255878450,-0.014966720,-0.046944610,-0.014930960
1640784776792269824,-0.246482090,0.563156660,9.263827320,-0.093773010,-0.138548020,0.003524120
1640784776792879872,-0.505083560,0.554418620,10.246923450,-0.079572200,0.065951050,0.023595990
1640784776797279744,0.241790800,0.642337020,9.727935790,-0.009322170,0.072075410,0.006848570
1640784776797939968,0.042927160,0.574976560,11.256215100,0.082598610,-0.038376450,-0.004988910
1640784776802309888,0.061475240,0.438030630,9.814526560,0.024382770,-0.050444900,0.000962620
1640784776802899712,0.312129940,0.204472660,8.869735720,-0.058427450,-0.153802340,0.006203350
1640784776807239936,-0.135140270,-0.167854410,9.276487350,-0.061292960,0.005795060,0.003267830
1640784776807889920,0.229336980,-0.192097890,8.772705080,-0.029270350,0.063231590,-0.000244380
1640784776812239872,-0.053497430,-0.141846450,10.752343180,0.044314560,0.036291780,0.011853870
1640784776812870144,-0.211257350,0.075575690,10.554099080,0.020055470,0.014457110,-0.003196300
1640784776818409984,-0.123529360,0.380635470,9.933814050,-0.053592040,-0.153176490,0.006224220
1640784776819129856,-0.552145420,0.210220810,9.713214870,-0.048764050,-0.041948260,0.016672910
1640784776822259968,-0.277049690,0.118204620,8.666748050,0.010074680,0.012186170,-0.018726290
1640784776822989824,-0.524591030,0.193537210,10.061810490,0.095607350,-0.002412500,-0.024239720
1640784776827200000,-0.388414890,0.276550530,9.684741970,0.067320470,0.019644200,-0.012168290
1640784776827899904,-0.056587320,0.436883000,9.868119240,-0.050000850,-0.108216730,-0.009188060
1640784776832470016,-0.222748010,0.524163960,10.342033390,-0.083349650,-0.019857290,0.017930570
1640784776833390080,0.245342000,0.523754600,9.422051430,-0.072218490,-0.019718710,0.021049380
1640784776837329920,0.120235960,0.384067480,10.510357860,0.024414060,-0.033280250,0.015743080
1640784776840479744,0.162360410,0.303632470,9.713300700,0.069139900,0.048774490,-0.005766750
1640784776842269952,0.131478000,0.290112700,9.731533050,0.005400180,-0.093372160,-0.014549490
1640784776842959872,-0.436209980,0.185635810,10.055920600,-0.057399270,-0.065030160,-0.002115970
1640784776847280128,-0.157128650,0.219357800,8.626151080,-0.102715220,-0.057353090,-0.003470480
1640784776848049920,-0.380110920,0.353845180,9.973841670,-0.066131350,-0.032274430,0.006382170
1640784776852429824,-0.211561340,0.360686810,9.911697390,-0.005184110,0.121440010,0.031378870
1640784776853329920,0.139424410,0.384377660,10.351239200,0.004529950,-0.027027730,0.013588370
1640784776858309888,-0.289740800,0.369798630,10.961325650,-0.019581620,-0.074844080,0.015902520
1640784776858649856,0.249080360,0.122309080,8.649304390,-0.077651440,-0.079289090,0.002259020
1640784776862190080,0.088425320,-0.130894270,9.380331990,-0.050383810,-0.047808890,-0.022077560
1640784776862909952,-0.102185580,-0.138699020,9.376902580,0.008688870,0.119577340,-0.023935730
1640784776867719936,0.221987530,-0.041826440,9.621393200,0.012804570,-0.012917820,-0.010907650
1640784776869189888,-0.373866500,0.019283110,11.047159190,-0.012283030,-0.042852760,0.006897750
1640784776872659968,-0.043655580,0.246000540,9.277299880,-0.054591890,-0.047333530,0.025384130
1640784776873250048,-0.192811180,0.229910250,10.165250780,-0.041386490,-0.073669860,0.036787990
1640784776877219840,-0.395142670,0.166201000,9.911881450,0.020967420,0.083249810,0.016529860
1640784776877910016,0.093755590,0.346891310,9.391409870,0.058957930,-0.008705260,-0.011797250
1640784776882479872,-0.471908030,0.369468270,10.752762790,0.038979950,-0.021138790,-0.021789970
1640784776883229952,-0.158054780,0.537125530,9.079093930,-0.037312510,-0.057214500,-0.018040840
1640784776887259904,-0.136407640,0.646738170,9.788177490,-0.071667140,-0.127898160,-0.001780690
1640784776888009984,-0.212131020,0.665563760,9.710320470,-0.070692600,0.070461640,0.022524600
1640784776892230144,0.308801030,0.538796250,9.665994640,-0.033615530,0.031819940,0.036352880
1640784776892900096,-0.043229510,0.354742410,11.240633010,0.023226440,0.018648800,0.021626060
1640784776897389824,0.124152920,0.175527240,9.607073780,-0.016680360,-0.034172830,0.023120640
1640784776898139904,0.054613460,-0.066016500,9.630401610,-0.050836810,-0.137671830,0.017388160
1640784776906070016,-0.317287920,-0.331324280,9.257224080,-0.047719480,0.021836160,0.002154710
1640784776906609920,-0.027308530,-0.283929200,8.834825520,-0.017905240,0.000345710,-0.005638600
1640784776907219968,-0.315223160,-0.044264820,10.577887540,0.024141380,0.048851970,-0.003875790
1640784776907929856,-0.081048100,0.246719480,9.961096760,-0.023391840,0.051894790,0.011594590
1640784776912289792,-0.031469010,0.534188930,10.404052730,-0.045160950,-0.103658420,0.009070340
1640784776913169920,-0.228878200,0.631240310,9.927932740,-0.051102050,-0.002861020,0.013947490
1640784776917579776,0.162632140,0.426764040,8.776097300,-0.020480150,-0.026856360,0.007198750
1640784776918079744,-0.175547670,0.157403080,10.134208680,0.071032330,0.043745340,-0.000998380
1640784776922939904,-0.113203110,0.078616790,9.471032140,0.046616800,0.063689050,-0.010034440
1640784776923579904,-0.243773490,-0.059497360,10.255331990,-0.000216070,-0.107774150,-0.000675020
1640784776927269888,-0.522628250,0.036501310,10.080926900,-0.052386530,-0.041525070,-0.002707540
1640784776930119936,-0.014900920,0.337342320,8.917513850,-0.093407930,-0.049109760,0.002516810
1640784776932309760,-0.269197670,0.272805210,10.605110170,-0.014925000,0.058320170,0.013430420
1640784776932930048,0.044357340,0.384072690,9.959567070,0.048707430,0.099128480,-0.012299420
1640784776937239808,0.046406770,0.409509390,10.425629620,0.061526900,-0.100615630,-0.012899940
1640784776938880000,-0.352119650,0.353714410,9.984864230,0.021012130,-0.062488020,0.002902750
1640784776942240000,0.000991080,0.480712860,8.436520580,-0.079911950,-0.080011790,0.000756980
1640784776942870016,-0.331531050,0.413301230,9.994739530,-0.087326770,-0.005887450,0.032448770
1640784776947299840,-0.003221800,0.418727460,9.591570850,-0.039321190,0.136250260,0.020501020
1640784776947939840,0.250222530,0.433689180,10.487648960,0.003193320,-0.008465350,0.000758470
1640784776952239872,-0.137437050,0.467704890,10.875825880,0.005002320,-0.011339780,0.000843410
1640784776952940032,0.215313170,0.370671180,8.955718040,-0.078471000,-0.079241390,-0.000672040
1640784776963409920,-0.225934850,-0.099917090,9.657991410,-0.065088280,-0.082348290,0.003758070
1640784776963929856,-0.308771160,-0.348315180,8.866486550,0.017727910,0.076884040,-0.011742120
1640784776964499968,-0.044551240,-0.281259660,9.485093120,0.039190060,0.002589820,-0.024074310
1640784776964890112,-0.453701140,-0.186994600,10.829178810,0.021363800,0.057382890,-0.002752240
1640784776967330048,0.041305690,0.129586380,9.677042960,-0.049808630,-0.021785500,-0.008751450
1640784776968349952,-0.037145330,0.378943200,10.339455600,-0.072184210,-0.090944770,0.010356310
1640784776972819968,0.048012580,0.297543110,9.303583150,-0.006152690,0.073586400,0.026617950
1640784776973600000,0.359915610,0.244749460,9.367714880,0.080895430,0.013656920,0.004653630
1640784776977299968,-0.229921640,0.196447800,10.587966920,0.111165640,0.050726540,-0.002156200
1640784776977910016,-0.122338390,0.193328990,9.292801860,0.029861930,-0.036248560,-0.003251430
1640784776982369792,-0.337995110,0.294320020,10.111677170,-0.059647860,-0.116942830,-0.009220840
1640784776983189760,-0.428354920,0.396793990,9.452284810,-0.076320770,0.070279830,-0.002411010
1640784776987279872,-0.067062880,0.555394290,9.723332410,-0.021387630,0.019265710,-0.003065170
1640784776987969792,-0.247750100,0.491604270,10.957188610,0.049090390,0.065357980,-0.010670720
1640784776992389888,0.166192890,0.517014030,9.517169000,0.040824720,0.012183190,-0.008440020
1640784776993909760,-0.041395850,0.362523260,10.243113520,0.001913310,-0.087779770,0.005279480
1640784776997289984,-0.247801380,0.029399780,9.329146390,-0.045731660,-0.004032250,0.003936890
1640784776998249984,0.054412250,-0.033483520,8.779411320,-0.033539530,-0.079004470,0.004372000
1640784777002240000,-0.080571760,-0.038944050,9.993745800,0.017622120,0.088866060,0.012204050
1640784777003310080,0.259246200,0.148720490,9.630221370,-0.001226370,0.129993260,-0.010198360
1640784777007330048,0.012637640,0.406081320,11.155477520,-0.009600820,-0.042815500,-0.012251730
1640784777008009984,-0.134564890,0.452305290,10.053998950,-0.044055280,-0.030045210,0.000308450
1640784777012280064,0.010408130,0.256606220,8.705080030,-0.025649370,-0.109609980,-0.009372830
1640784777012940032,-0.565267150,0.088381480,9.736585620,0.054642560,0.041940800,-0.021944940
1640784777017479936,-0.392774880,0.031124630,9.068761830,0.050747400,0.093671700,-0.031545760
1640784777017959936,-0.466863210,0.056687840,10.552370070,0.029294200,-0.064834950,-0.025558470
1640784777022739968,-0.335913690,0.245792760,10.295584680,-0.036913160,0.029917060,-0.017188490
1640784777024689920,0.106814380,0.484069710,9.440649030,-0.082576270,-0.062195960,-0.008834900
1640784777027340032,-0.123218940,0.498496590,10.494966510,-0.028866530,-0.006042420,0.017660850
1640784777028019968,0.265147150,0.378733370,9.157851220,0.019446020,0.075857340,-0.001953540
1640784777032339712,0.115475020,0.273604420,10.108238220,0.071369100,-0.058722490,-0.012876090
1640784777034279936,-0.278627720,0.211449790,10.095734600,0.048215690,0.012785200,0.001879040
1640784777037319936,0.014832970,0.193200480,9.010432240,-0.053550310,-0.079694400,-0.007680060
1640784777037999872,-0.460737110,0.302927790,10.389821050,-0.078906130,-0.040312110,0.003626940
1640784777042379776,-0.135714590,0.513125420,9.464016910,-0.081063810,0.089105950,0.016576050
1640784777042959872,0.003403840,0.424815240,10.332378390,-0.008729100,-0.011971590,-0.004552300
1640784777047299840,-0.270887940,0.616432370,10.567016600,0.042256720,0.025652350,-0.018410390
1640784777047989760,0.106580390,0.603465380,9.016813280,-0.029173500,-0.071464480,-0.000195210
1640784777052209920,-0.246472330,0.142085150,9.861087800,-0.065073380,-0.076891480,0.029671190
1640784777052899840,-0.045068030,-0.029163290,8.867725370,-0.045742090,0.055100020,0.018496810
1640784777057669888,0.203442200,-0.231284770,9.721392630,0.003819170,0.019437070,0.008365510
1640784777060189952,-0.050072050,-0.144548880,10.692332270,0.035861130,0.072690850,-0.004930790
1640784777062249984,0.438702290,0.255448280,9.565587040,-0.038117170,0.000754000,-0.027392810
1640784777062929920,0.103621640,0.313925800,10.320536610,-0.091275570,-0.031690300,-0.002686680
1640784777067369984,-0.082816650,0.247452910,9.224440570,-0.042748450,0.035829840,0.002847610
1640784777067970048,-0.172552600,0.118902570,9.411384580,0.046874590,-0.048512220,-0.020568070
1640784777072779776,-0.652915840,0.030666520,9.898605350,0.093983110,0.031080840,-0.004422660
1640784777073479936,-0.313613650,0.027295310,9.166125300,0.036755210,0.021995610,-0.006957350
1640784777077240064,-0.458378490,0.182031960,10.763314250,-0.048901140,0.001730030,-0.017400090
1640784777077929984,-0.209940390,0.362370850,9.894996640,-0.082211180,0.074881320,0.010640920
1640784777082370048,0.141898510,0.387900140,9.977340700,-0.032936040,-0.038883090,0.005532800
1640784777082959872,-0.036644770,0.379805030,10.208206180,0.053437060,0.049997870,-0.005653500
1640784777087239936,0.193871160,0.547573150,8.981352810,0.077068810,-0.016398730,-0.002592800
1640784777089839872,-0.126482590,0.417449000,10.099925040,0.003409390,-0.052839520,0.016576050
1640784777092710144,-0.062326310,0.217425290,9.246614460,-0.067451590,0.066632030,0.019685920
1640784777094009856,-0.003153550,0.240267630,10.001237870,-0.050728030,-0.025680660,0.011844930
1640784777097319936,-0.236877840,0.283486460,10.819870950,-0.009903310,0.071749100,0.000821050
1640784777098029824,0.141157880,0.473535420,9.344169620,-0.006729360,0.004130600,-0.007304550
1640784777102289920,-0.188166600,0.531830370,10.309804920,-0.033317510,-0.048232080,-0.007542970
1640784777102939904,-0.145031880,0.309201930,9.014219280,-0.070756680,0.083701320,0.016504530
1640784777107749888,-0.076251410,0.003059760,9.317211150,-0.017808380,-0.049923360,0.029027460
1640784777109019904,-0.432100830,-0.292941240,10.473050120,0.055235620,0.046765810,0.033085050
1640784777112229888,0.099199790,-0.296475680,9.089632030,0.027491150,0.039999190,0.004343690
1640784777112959744,-0.055003690,-0.210103390,10.715888980,-0.006516280,-0.018043820,-0.009223820
1640784777117600000,0.099184800,0.054332340,9.837064740,-0.048530100,0.108380620,-0.016337630
1640784777118109952,0.332605030,0.267314880,9.333044050,-0.029700990,-0.038033730,-0.009045010
1640784777123139840,-0.224888740,0.363833220,10.414042470,0.048209730,0.014309590,0.015987460
1640784777123809792,0.003445200,0.424721270,8.778097150,0.060953200,0.029876830,0.011299550
1640784777127229952,-0.346777560,0.371425840,10.015584950,0.044062730,-0.069600350,0.019288060
1640784777127960064,-0.468758110,0.305263850,9.985121730,-0.003398960,0.101999940,0.020474200
1640784777132310016,-0.006011920,0.264338170,9.652503970,-0.030724710,0.021904710,-0.008568170
1640784777132930048,-0.335932610,0.388275440,11.117757800,0.003074110,0.044325000,0.003387030
1640784777137359872,0.082408120,0.472958860,9.444865230,-0.001195070,0.067365170,-0.001749400
1640784777137989888,0.039196250,0.393084050,9.775484090,0.010369720,-0.086943790,-0.002683700
1640784777142210048,-0.192982720,0.555308580,9.358304980,-0.008320810,0.049382450,0.024503470
1640784777142919936,0.168697300,0.288782630,8.747804640,-0.054039070,0.035373880,0.028829280
1640784777148089856,-0.208035080,0.001620180,10.778485300,-0.011755530,0.047895320,0.034092370
1640784777148709888,0.064218720,0.038425790,9.952948570,0.029337410,0.085347890,0.025331970
1640784777152499968,0.111703050,-0.111098180,10.342968940,0.022836030,-0.037091970,0.005301830
1640784777154259968,-0.210220080,0.131872120,10.040816310,-0.008173290,0.045591590,-0.001262130
1640784777157339904,0.112480950,0.321857960,8.729985240,-0.071658190,0.017283860,-0.004009900
1640784777158180096,-0.269197850,0.207159090,9.859892850,-0.042843820,0.047449770,0.015169380
1640784777162230016,-0.249023480,0.203173260,9.385397910,0.045049190,0.084188580,0.014215710
1640784777162989824,-0.196678610,0.126041280,10.128639220,0.063493860,-0.037544970,0.005792080
1640784777168470016,-0.356151910,0.056025150,10.272779460,0.037084520,0.038672980,0.011219090
1640784777169740032,0.046959630,0.069947890,9.456398010,-0.021354860,0.029869380,-0.000379980
1640784777172219904,-0.100894690,0.062804470,10.465695380,-0.024540730,0.056052210,-0.010329490
1640784777172940032,0.005927190,0.276886520,9.380416870,0.022585690,0.088949510,0.003309550
1640784777177239808,-0.014222110,0.347347620,9.790879250,0.050213940,-0.046715140,0.007469950
1640784777177959936,-0.356013180,0.470131070,9.881924630,0.031235820,0.006195900,0.002934040
1640784777182329856,-0.087249740,0.581544160,8.925457950,-0.027179720,-0.017490980,0.018210710
1640784777182919936,-0.276464820,0.330397220,10.637402530,-0.038252770,0.054296850,0.001075860
1640784777187350016,-0.111634520,0.297660050,10.165037160,0.012601910,0.130972270,-0.014132260
1640784777188390144,-0.024641200,0.485370960,10.504266740,0.039227300,-0.041711330,-0.009237230
1640784777192699904,-0.200860070,0.432652590,10.196511270,0.001111630,0.012251730,0.003713370
1640784777193600000,0.140088470,0.547357680,8.299437520,-0.070832680,-0.028921670,0.001175700
1640784777197319936,-0.177180740,0.560247720,9.684806820,-0.091090810,0.006960330,0.026655200
1640784777198469888,-0.036140110,0.273099870,9.319242480,-0.061374910,0.168332430,0.031930210
1640784777204000000,0.119664800,0.110450060,10.349146840,0.014269350,0.009684270,0.009891390
1640784777204470016,-0.260481570,0.059649490,11.323018070,0.041945290,0.042712700,0.012093790
1640784777207279872,0.154619930,-0.001375910,9.172553060,-0.033928450,-0.001019240,0.004757940
1640784777208009984,-0.143953590,-0.089650500,10.009254460,-0.077389190,-0.049784770,-0.015884630
1640784777212260096,-0.118836700,0.058668770,8.939439770,-0.075285150,0.153920070,-0.014927990
1640784777212940032,0.065300440,0.090592480,8.979224210,-0.009605290,0.022119290,-0.002603230
1640784777217999872,-0.392924820,0.172280880,10.707190510,0.047469140,0.043235720,0.004591050
1640784777219290112,-0.018279720,0.355998430,9.309597020,-0.003951790,0.042754400,0.007475910
1640784777222279936,-0.211188760,0.203793200,10.593591690,-0.052842490,-0.058715040,0.029423830
1640784777222990080,-0.277572870,-0.016204330,10.175986290,-0.034627310,0.124162420,0.010010600
1640784777227269888,0.168178360,0.010186440,9.274382590,0.026991970,0.046075880,-0.028304760
1640784777228009984,-0.429734650,0.192211450,10.745064740,0.069232290,0.031495100,-0.007139150
1640784777232470016,-0.215414490,0.404784590,8.996621130,-0.018604100,0.030548870,-0.013439360
1640784777233700096,-0.306739780,0.549831450,9.533278470,-0.074012580,-0.108276310,0.002831220
1640784777237269760,-0.520313800,0.661993030,9.844112400,-0.085271900,0.067864360,0.032475590
1640784777237939712,0.145048950,0.560874820,9.408601760,-0.044918060,0.084377830,0.009144840
1640784777242439936,-0.105786170,0.445617320,11.400164600,0.041589140,0.068876150,0.007300080
1640784777242970112,0.007998670,0.492944960,10.193043710,0.005939600,0.060877200,-0.013445320
1640784777247340032,0.133672370,0.303181890,9.565574650,-0.061780220,-0.119967760,-0.006403030
1640784777248209920,-0.276726190,0.049088860,9.269328120,-0.080478190,-0.004053120,0.014045840
1640784777252989952,-0.002495820,0.061604220,8.272065160,-0.084887440,0.059819230,-0.006963310
1640784777253569792,-0.235983160,-0.082268230,10.287237170,-0.010684130,0.068007390,0.028197470
1640784777257349888,-0.252945720,-0.101622780,10.569090840,0.018188360,0.100356340,0.008526450
1640784777257989888,-0.042243470,0.096605930,10.571612360,-0.023691360,-0.065875050,-0.009152290
1640784777262230016,-0.345640330,0.004817870,10.460996630,-0.037921970,-0.020545720,0.011669100
1640784777263099904,-0.043302620,-0.073405370,8.796435360,-0.032493470,0.003470480,-0.027105220
1640784777267419904,-0.226033150,0.029582160,9.602490430,0.025491420,0.023488700,-0.038082900
1640784777268059904,-0.302490170,0.210842560,9.354932790,0.062237690,0.089873380,0.002427400
1640784777272199936,-0.074884170,0.366420570,9.740972520,0.005482140,-0.056940320,-0.007273260
1640784777272999936,-0.268296270,0.608537440,10.469404220,-0.058597330,-0.004369020,0.008474290
1640784777277210112,0.065657380,0.586162810,9.575044630,-0.078342840,0.024302300,0.020630660
1640784777277979904,-0.055914440,0.313556550,10.841550830,-0.012429060,0.011323390,-0.018215180
1640784777282369792,-0.058651560,0.339825180,9.987730980,0.069922210,0.076369950,-0.029347840
1640784777282979840,-0.055122280,0.272957150,9.652714730,0.050139440,-0.066669290,-0.016674400
1640784777287219968,-0.460237440,0.177859400,9.965278630,-0.029949850,-0.026161970,-0.004975500
1640784777287989760,-0.219998840,0.290418150,8.555461880,-0.100727390,-0.032687180,0.016549230
1640784777295310080,-0.326830600,0.268621620,10.104528430,-0.097838040,-0.017590820,0.020988290
1640784777295739904,-0.046168640,0.275196820,10.074045180,-0.028325620,0.147715230,0.002911690
1640784777297689856,0.191748050,0.380634700,10.551916120,0.025665760,0.009584430,-0.016275050
1640784777299180032,-0.138447400,0.373854760,11.213195800,0.019395350,-0.035832820,-0.013710560
1640784777303129856,0.258953360,0.167397750,8.604762080,-0.036774580,-0.046114630,-0.003725290
1640784777303639808,-0.090037170,-0.035396490,9.339501380,-0.050367420,-0.078415860,-0.006386640
1640784777307739904,-0.239954550,-0.037074090,9.070791240,-0.032110520,0.120821610,0.001668930
1640784777308829952,0.051845380,0.014162890,9.220438000,-0.008203090,0.032794480,0.006252530
1640784777312359936,-0.417084520,0.096336980,11.429815290,0.002041460,0.012703240,-0.006434320
1640784777313710080,-0.045696230,0.325770320,9.744941710,-0.038842860,0.016935170,-0.002443790
1640784777317989888,-0.156960130,0.142443430,10.233237270,-0.027982900,-0.113306950,0.002235170
1640784777318619904,-0.331304280,-0.077068950,9.810503010,0.029905150,0.078168530,-0.000567730
1640784777322240000,0.130213390,-0.048593430,8.601881980,0.069640580,0.032772130,-0.020459290
1640784777323059968,-0.472805500,-0.007844580,10.662401200,0.067305560,-0.004328790,-0.010593240
1640784777327469824,-0.224527300,0.214992910,9.269562720,-0.013785060,0.029802320,-0.006189940
1640784777328079872,-0.105704530,0.419021160,9.787380220,-0.058144330,-0.131674100,-0.004646180
1640784777332310016,-0.295884220,0.669584870,10.416635510,-0.054606800,0.055918100,0.018395480
1640784777333249792,0.394105640,0.563658480,9.420192720,-0.014053290,0.077195470,-0.004430120
1640784777337299712,0.100718640,0.425899710,11.187182430,0.079050650,0.018839540,-0.004601480
1640784777338009856,0.051531100,0.396454990,9.868862150,0.064507110,0.044895700,-0.004087390
1640784777342409728,0.144216510,0.118954900,9.112942700,-0.012752410,-0.128605960,-0.001032650
1640784777342949888,-0.425631550,0.071225660,9.553253170,-0.063522170,-0.027532880,0.017966330
1640784777347319808,-0.062600050,0.085084480,8.367253300,-0.078804800,0.063559410,0.014324490
1640784777348069888,-0.178840500,0.043574990,10.436656950,0.002010170,0.046755370,0.011634830
1640784777352279808,-0.209056420,0.265771090,10.797352790,0.052151090,0.114077350,-0.002041460
1640784777352949760,0.128541750,0.383065430,10.306633950,0.016732510,-0.055024020,-0.007069110
1640784777357809920,-0.233242570,0.272272380,10.374803540,-0.019022820,-0.050935150,0.015322860
1640784777359309824,-0.005229060,0.074988450,8.470227240,-0.038571660,0.009688740,0.004111230
1640784777362210048,-0.081942010,-0.185138460,9.260877610,0.038719180,0.016391280,-0.013886390
1640784777362949888,-0.339811560,-0.031800750,9.678084370,0.083491190,0.118306260,-0.022530550
1640784777367489792,-0.084168150,0.245645780,9.947148320,0.013470650,-0.026822090,-0.019207590
1640784777368049920,-0.353095000,0.414876070,10.843120570,-0.057639190,-0.032003220,0.005410610
1640784777372199936,-0.074331490,0.507941540,9.565602300,-0.080549720,0.014723840,0.020231300
1640784777373060096,-0.101753610,0.288958610,10.402164460,0.007434190,0.010685620,0.018136200
1640784777377479936,-0.300515290,0.236627330,10.035839080,0.111140310,0.068850820,-0.002832710
1640784777378469888,-0.083346370,0.292959120,9.288730620,0.079077490,-0.058838730,-0.019888580
1640784777382289920,-0.388418140,0.285046910,10.032270430,-0.019820040,-0.032909210,-0.010237100
1640784777384679936,-0.163004460,0.352009480,8.922335620,-0.102485720,-0.005228820,-0.001175700
1640784777387209984,-0.051375050,0.420366880,9.986614230,-0.081481050,-0.019922850,0.007055700
1640784777388000000,0.029037210,0.413536010,10.290380480,0.018101930,0.136719610,0.021523230
1640784777392379904,0.341966420,0.496988560,10.156771660,0.052832070,0.003360210,0.008450450
1640784777395419904,0.018149420,0.385631350,10.833090780,0.004686420,-0.035224860,0.011846420
1640784777397299968,0.157671330,0.098338130,8.773791310,-0.048361720,-0.017075240,0.024651000
1640784777398000128,-0.031361010,-0.230142150,9.282869340,-0.038650640,-0.060814630,0.002986190
1640784777403749888,-0.400576800,-0.299946520,9.554819110,0.020955500,0.125049070,-0.003984570
1640784777404140032,-0.153674080,-0.157615570,9.329597470,0.044205790,0.018842520,-0.007553400
1640784777407269888,-0.567889330,0.025688950,11.148433690,0.024852160,-0.020958490,-0.001332160
1640784777408099840,-0.271314590,0.370038450,9.559008600,-0.032085180,0.022068620,0.015732650
1640784777412299776,-0.109631400,0.385401280,9.893295290,-0.041352200,-0.079460450,0.025814770
1640784777413139712,-0.228303100,0.256498990,10.081684110,0.024065370,0.110790130,-0.003932420
1640784777417299968,0.230936710,0.334751040,9.040628430,0.085431340,0.047844650,-0.020183620
1640784777418040064,-0.259437650,0.260078970,10.793417930,0.087344660,-0.053448980,-0.012770300
1640784777422240000,-0.080912280,0.316713060,9.146504400,-0.001332160,0.015072530,-0.007574260
1640784777423009792,0.002657150,0.437380310,9.390730860,-0.067719820,-0.113707800,0.010499360
1640784777427789824,-0.272445470,0.451064110,10.362895010,-0.073912730,0.091621260,0.028809910
1640784777429149952,0.268756060,0.501461210,9.441452030,-0.027607380,0.098448980,0.012601910
1640784777432289792,-0.124455370,0.393138920,11.388953210,0.059197840,-0.021091110,0.018858910
1640784777433219840,-0.258229170,0.298254670,10.034491540,0.047175590,0.015437600,0.002492960
1640784777437260032,-0.092515060,0.169838890,8.914557460,-0.016213960,-0.143297020,-0.003413860
1640784777438050048,-0.509504680,-0.010504770,9.639843940,-0.038233390,-0.003303590,0.014871360
1640784777442289920,0.003411980,0.047763140,8.482689860,-0.059768560,0.121085350,0.012078880
1640784777444439808,0.066829060,0.058972440,10.656149860,0.011786820,0.050251190,0.026440620
1640784777447320064,0.044454190,0.181390490,10.890989300,0.039552160,0.088749830,0.020894410
1640784777448099840,0.388510470,0.308497040,9.842144010,0.002194940,-0.080077350,0.005219880
1640784777452239872,-0.098608310,0.158099320,10.235788350,-0.012302400,-0.057883560,0.011542440
1640784777453110016,0.047502870,-0.036477520,8.532494540,-0.017978260,0.066408520,-0.021123890
1640784777457789952,-0.157409000,-0.020847300,9.595087050,0.039774180,0.026606020,-0.025297700
1640784777458370048,-0.517524240,0.078303330,10.166035650,0.069269550,0.101812200,-0.001133980
1640784777462309888,-0.251237690,0.222609860,9.827779770,0.001607840,-0.048057740,-0.008401270
1640784777462960128,-0.530390800,0.446442460,10.636082650,-0.036996600,-0.065773720,0.025404990
1640784777467539968,-0.216153400,0.336091490,9.364744190,-0.053420670,0.045731670,0.029017030
1640784777468329984,-0.041751230,0.081114400,10.268796920,0.041084000,0.020961460,-0.012175740
1640784777472349952,-0.143670660,0.183271180,10.443858150,0.130318110,0.089396540,-0.017595290
1640784777473549824,0.131909490,0.201223840,9.512209890,0.074516240,-0.048115860,-0.026518110
1640784777477609984,-0.149327190,0.344207290,9.979842190,-0.020597880,-0.075308970,-0.021983680
1640784777478969856,0.010673980,0.613827230,8.622442250,-0.100058320,0.013811880,0.002895300
1640784777482400000,0.055887280,0.572237790,9.632250790,-0.089168560,0.000378490,0.007730720
1640784777483059968,-0.075800890,0.479536560,10.535116200,0.030094380,0.148721020,0.029267370
1640784777487299840,0.054267480,0.375212580,10.396152500,0.089560460,0.005167720,0.013414030
1640784777487990016,-0.296653870,0.139776920,10.996950150,0.057029740,-0.090505200,0.005000830
1640784777492270080,-0.181960810,-0.099496520,8.841567990,-0.037616500,-0.019928810,-0.003287200
1640784777492989952,-0.089752160,-0.235426550,8.900792120,-0.071755040,-0.030303000,-0.030048190
1640784777497289984,-0.267602030,-0.152099620,9.646767620,-0.007855890,0.137321670,-0.038534400
1640784777498040064,0.139357020,0.063905950,9.377887730,0.045226510,0.061774260,-0.029726330
1640784777502220032,-0.260951100,0.213785590,11.242569920,0.056231030,-0.057090820,-0.017203390
1640784777503039744,-0.101618450,0.395816740,9.771852490,0.007328390,-0.022014970,0.000140070
1640784777507259904,-0.010410620,0.286255930,9.599589350,-0.020188090,-0.083440550,0.011877710
1640784777507979776,-0.394017520,0.125813560,10.314981460,0.019627810,0.098593540,-0.011573730
1640784777512259840,0.043670730,0.341806290,9.127908710,0.056983530,0.066624580,-0.022318960
1640784777512969984,-0.257630880,0.403181970,10.630592350,0.054876500,-0.061181180,-0.018267330
1640784777517400064,-0.226419420,0.542450960,9.435154910,-0.011982020,0.004319850,-0.025388600
1640784777518409984,0.118681790,0.739431080,8.933518410,-0.083379450,-0.087222460,-0.007477400
1640784777522219776,-0.311277330,0.513529960,10.579499240,-0.064562260,0.066070270,0.011628870
1640784777523789824,0.208056510,0.322960730,9.519286160,0.008881090,0.097654770,0.007304550
1640784777527689984,0.090873630,0.123893900,10.998053550,0.074332950,-0.028428430,-0.001455840
1640784777528529920,-0.199113550,-0.023229350,10.274725910,0.041973590,0.029173500,-0.001509490
1640784777532349952,0.210931330,-0.130322070,8.640365600,-0.042068950,-0.111241640,-0.023204090
1640784777533519872,-0.294615330,-0.130472500,9.713949200,-0.068335240,0.000272690,-0.034220520
1640784777537629952,-0.050025020,0.045396120,8.764724730,-0.040864940,0.137443860,-0.027883050
1640784777538179840,-0.091210340,0.089550090,10.476902960,0.050997730,0.010579820,-0.028513370
1640784777542269952,-0.497270880,0.371468040,11.089054110,0.067846480,0.033766030,-0.007508700
1640784777543089920,-0.004339070,0.525700570,9.416074750,-0.009395180,-0.080358980,0.012046100
1640784777547350016,-0.302239600,0.260859820,10.292739870,-0.037765510,-0.032392140,0.016178190
1640784777548100096,-0.091622380,0.187263670,9.178261760,-0.005972380,0.118429940,-0.009848180
1640784777553529856,0.077994210,0.137480600,9.916867260,0.066274410,0.003467500,-0.023002920
1640784777554819840,-0.333700720,0.200523730,10.581450460,0.078745170,0.025503330,-0.029899180
1640784777558140160,0.032969180,0.494325310,9.157713890,-0.019887090,-0.066038960,-0.030592080
1640784777558720000,-0.168979030,0.545499740,10.079593660,-0.081646450,-0.063751640,-0.002166630
1640784777562919936,-0.187067580,0.514810090,9.616305350,-0.088679780,0.102160860,0.006099040
1640784777564110080,0.042197070,0.413594010,10.227528570,0.003613530,0.019104780,-0.003178420
1640784777567929856,-0.202019810,0.395680130,10.820007320,0.084270530,0.036284320,-0.003838540
1640784777568630016,0.127712100,0.326695440,9.254496570,0.011882190,-0.027886030,-0.005154310
1640784777573769728,0.034409530,0.138345260,9.731532100,-0.066544100,-0.060112770,-0.006864960
1640784777574279936,-0.031284970,0.030449460,9.093867300,-0.096029050,0.096373270,-0.011818110
1640784777578139904,0.033122320,-0.064451990,9.637446400,-0.037941330,0.023062520,-0.008475780
1640784777580139776,-0.369580510,-0.133835870,10.743895530,0.059041390,0.044311590,-0.006395580
1640784777582330112,-0.160721730,-0.017209390,9.755563740,0.045232480,-0.025714930,-0.019811100
1640784777583159808,-0.314715500,-0.055223220,10.425827980,-0.000895560,-0.058616700,-0.007571280
1640784777587649792,-0.236944760,-0.101601130,9.530999180,-0.015591080,0.070495910,-0.025381150
1640784777589560064,0.136618230,0.144389700,9.371148110,0.007165970,0.002475080,-0.041949750
1640784777592300032,-0.092808700,0.323126140,10.423131940,0.054278970,0.079646710,-0.018629430
1640784777593099776,0.147840250,0.554835980,9.464325900,0.037336350,0.017753240,-0.013110040
1640784777597949952,-0.176670910,0.726085250,10.408000950,-0.021222240,-0.110748410,-0.006310640
1640784777598639872,-0.308013530,0.677081700,9.624239920,-0.049860780,0.036638970,0.013396140
1640784777604069888,-0.069947150,0.493675110,9.529253960,-0.039246680,-0.011062620,-0.006748740
1640784777605039872,-0.431984840,0.320746600,10.981200220,0.036147230,0.063768030,-0.017359850
1640784777607239936,0.090635340,0.304635880,9.427599910,0.036588310,0.067636380,-0.019320850
1640784777608039936,0.074635730,0.199769090,10.271486280,-0.028079750,-0.060021890,-0.021292270
1640784777612640000,-0.077126390,0.195596490,9.707040790,-0.074166060,0.060087450,-0.012373930
1640784777614080000,0.243064720,0.189349370,8.776515960,-0.077845180,-0.032424930,-0.010901690
1640784777620379904,-0.310403050,0.034042630,10.491609570,-0.002554060,0.015239420,0.004957620
1640784777621739776,-0.095140150,-0.026299570,9.407886510,0.042523440,0.092983250,-0.003363190
1640784777623209984,-0.215795350,-0.051186870,10.548218730,0.043603780,-0.060211130,-0.007095930
1640784777623940096,-0.435233290,-0.027849960,10.416590690,-0.002515320,0.044617070,0.008457900
1640784777627259904,0.157129060,0.068276710,8.952305790,-0.035265090,-0.005452340,-0.020433960
1640784777628899840,-0.152023480,0.282646780,10.366103170,-0.017710030,0.008526440,-0.027288500
1640784777632939776,0.055320860,0.415434690,9.185328480,0.003221630,0.120426740,0.001464780
1640784777633839872,0.061682880,0.277159090,10.063822750,0.054089730,-0.056113310,-0.010249020
1640784777637229824,-0.489467200,0.237756090,10.643595700,0.063720340,0.003178420,-0.007843970
1640784777638000128,-0.133871470,0.241165890,9.013940810,0.014853480,-0.046689810,-0.004200640
1640784777642239744,-0.445235610,0.132280470,10.496644970,-0.011251870,-0.016328690,-0.018627940
1640784777643049984,-0.248502570,0.260729370,9.724605560,-0.023210050,0.118309250,-0.011491780
1640784777647449856,0.125240580,0.390635790,10.016469960,0.005044040,-0.009001790,-0.011838970
1640784777648229888,-0.228020880,0.413665000,10.764406200,0.027215480,0.014843050,-0.014653800
1640784777653169920,0.066310140,0.595257520,8.969513890,-0.015664100,-0.042821470,-0.020426510
1640784777654029824,-0.295276610,0.465482380,10.017092700,-0.037097930,-0.087837870,-0.001236800
1640784777657999872,-0.308537750,0.174473790,9.449751850,-0.035902860,0.072948650,0.001131000
1640784777658840064,-0.048030280,0.081895990,9.800032620,0.012123590,-0.006033480,0.001615290
1640784777663889920,-0.206651630,0.052073450,10.870713230,0.041562320,0.047127900,0.022813680
1640784777664909824,0.216441740,-0.036407710,9.480542180,-0.008583070,0.024163720,0.000771880
1640784777670850048,0.116694280,0.073573810,10.187214850,-0.033298140,-0.062401600,-0.018788880
1640784777671769856,-0.032911730,0.136740340,9.431817050,-0.036349890,0.059092040,0.001658500
1640784777673600000,-0.051782950,0.006379880,9.310138700,0.010690090,-0.047710540,-0.017254060
1640784777674000128,-0.530662660,0.111710530,10.279289250,0.077253590,-0.013603270,-0.023168330
1640784777677459968,-0.295154060,0.235284980,9.181982990,0.030033290,0.023558730,-0.019367040
1640784777679539968,-0.440109130,0.203618450,10.549855230,-0.008957090,-0.033280250,-0.015471880
1640784777682749952,-0.280839200,0.410117950,10.207913400,-0.024458770,0.054809450,-0.007751590
1640784777684259840,0.184620620,0.392253790,9.573964120,-0.018508730,-0.030964610,0.005185600
1640784777687539712,-0.022809820,0.272223620,10.528752330,0.046516950,0.033365180,0.013095140
1640784777688459776,0.223472710,0.280985180,9.286054610,0.053313380,0.029897690,-0.008979440
1640784777692299776,-0.107763130,0.235538770,10.116067890,0.025022030,-0.106538840,-0.007072090
1640784777694829824,-0.268985270,0.226886570,9.640904430,-0.022023920,0.023616850,0.002731380
1640784777697609984,0.038060250,0.207833950,9.233615880,-0.053824500,-0.004535910,-0.012779240
1640784777699529984,-0.342963370,0.181060000,10.927448270,0.011314450,0.039204960,-0.000210110
1640784777702299904,0.076335050,0.347193630,9.657974240,0.040528180,0.069357460,-0.007884200
1640784777703019776,0.035379760,0.303934630,10.298434260,0.019370020,-0.064034760,-0.006739800
1640784777707520000,-0.184354010,0.374233870,9.854460720,-0.017237660,0.020569560,0.003512200
1640784777708699904,0.141582710,0.175594140,8.711289410,-0.032995640,-0.026506190,0.010685620
1640784777712250112,-0.376861960,-0.219671930,10.350258830,0.023010370,-0.000375510,-0.004583600
1640784777713399808,-0.163226990,-0.029245620,9.367671970,0.074347860,0.064204640,-0.025247040
1640784777717690112,-0.044391080,-0.054941510,10.131716730,0.048419840,-0.045391920,-0.022175910
1640784777718499840,-0.259614140,0.076354910,10.460815430,0.009565050,0.047227730,-0.025221710
1640784777722400000,0.267760930,0.481696610,9.199995040,-0.035741930,-0.001293420,-0.010705000
1640784777724259840,-0.083307200,0.365227610,10.583704950,-0.012087820,-0.005272030,0.019370020
1640784777728179968,-0.048792110,0.344054850,9.457545280,0.061169280,0.067359210,0.008629260
1640784777729189888,-0.123919710,0.407299160,9.808238030,0.080558670,-0.077974800,-0.017954410
1640784777732709888,-0.618701880,0.258652930,10.274465560,0.039649010,0.002010170,-0.011987980
1640784777733329920,-0.228314560,0.246663420,9.061780930,-0.004948680,-0.021378700,-0.020174680
1640784777737390080,-0.370780230,0.348867390,10.494169240,-0.025744740,-0.017198920,-0.015714760
1640784777739980032,-0.047740530,0.424655680,9.693598750,-0.025029480,0.114896900,0.009056930
1640784777744940032,0.302376180,0.472103330,10.031320570,0.011484320,-0.011049210,0.004094840
1640784777745990144,0.029486230,0.412536890,10.576389310,0.015145540,0.026339290,-0.001092260
1640784777747330048,0.273472130,0.369448210,8.916397090,-0.003534560,-0.037105380,0.014469030
1640784777748119808,-0.065279580,-0.017383620,9.974246030,0.000855330,-0.065946580,-0.002343950
1640784777752209920,-0.119645920,-0.220801220,9.235801700,0.014257430,0.078535070,-0.010505320
1640784777753089792,-0.071527100,-0.226696760,9.690443040,0.046409670,-0.000889600,-0.001344080
1640784777757220096,-0.383595110,-0.231608080,10.785534860,0.039523840,0.064170360,-0.007352230
1640784777758089984,-0.011756460,0.199363380,9.374699590,0.005002320,-0.008729100,-0.008732080
1640784777762639872,-0.305185470,0.380974710,10.379609110,-0.014589730,-0.071792300,0.011418760
1640784777763589888,-0.189990370,0.409963040,9.267175670,-0.010116400,0.083775820,0.008942190
1640784777767879936,-0.204772260,0.355743910,9.526586530,0.055110450,-0.038576130,-0.014950340
1640784777768399872,-0.510096430,0.297948600,10.475004200,0.101418810,0.025208300,-0.009854140
1640784777772199936,-0.052267700,0.402840140,9.058700560,0.049455470,-0.003713370,-0.024738910
1640784777772999936,-0.214743850,0.402837010,10.485350610,-0.022752580,-0.067308550,-0.012160840
1640784777777760000,0.129661990,0.529570640,9.760216710,-0.083829460,0.106705730,0.011198220
1640784777779739904,0.350988750,0.374084620,9.793708800,-0.041569770,0.001284480,0.015358630
1640784777782359808,-0.049367610,0.296687040,10.930750850,0.055557490,0.011377040,0.005239250
1640784777783160064,0.187044840,0.389343770,8.953056340,0.045104330,-0.014194850,-0.008514520
1640784777787269888,-0.270516040,0.188674360,9.758076670,-0.004884600,-0.106218460,0.002606210
1640784777788079872,-0.397077020,0.074555810,9.534957890,-0.052763510,0.073696680,0.008451940
1640784777792389888,-0.133571480,0.057322810,9.383148190,-0.044253470,0.001850720,-0.011903050
1640784777793619968,-0.358175400,0.086499900,10.959334370,0.024181610,0.032930080,0.014129280
1640784777797639936,0.170883000,0.248476620,9.505260470,0.026942790,0.081148740,-0.000642240
1640784777798269952,0.123854660,0.394020830,10.086269380,-0.012283030,-0.071761020,-0.013434890
1640784777802259968,-0.092738400,0.415960790,9.677034380,-0.041700900,0.031766300,0.022970140
1640784777802990080,0.166857110,0.082954060,8.664878850,-0.026017430,-0.019796190,0.000929830
1640784777807260160,-0.341199930,-0.175229000,10.196773530,0.060282660,0.004684930,-0.002565980
1640784777808149760,-0.111284430,-0.048915250,9.356254580,0.080326200,0.079965600,-0.018185380
1640784777812329984,-0.086979460,-0.117126320,10.310285570,0.019338730,-0.023980440,-0.031818440
1640784777812989952,-0.217586290,0.116764960,10.522146220,-0.022076070,0.064931810,-0.007261340
1640784777817760000,0.171970620,0.398164060,9.306166650,-0.038294490,0.004965070,-0.004410740
1640784777818279936,-0.255708750,0.251451310,10.312024120,0.026588140,-0.011713800,0.004975500
1640784777822199808,-0.175906960,0.465597480,9.083059310,0.092016160,0.035589940,-0.003597140
1640784777823000064,-0.257292060,0.488532750,9.595552440,0.055840620,-0.056022410,-0.014229120
1640784777827319808,-0.487518040,0.377347860,10.062170030,-0.010082130,0.046433520,0.000055130
1640784777828919808,-0.004820210,0.478176300,9.475926400,-0.038078430,0.027070950,0.004461410
1640784777833449728,-0.213287490,0.354704740,10.939971920,-0.020474200,0.026349720,-0.005333130
1640784777834179840,0.107771460,0.433182980,9.780871390,0.020197030,0.056114800,-0.004082920
1640784777837250048,0.143125830,0.511640850,9.824186330,0.016383830,-0.058391700,-0.009693210
1640784777838169856,-0.080802520,0.386775080,9.542947770,-0.031168760,0.028900800,-0.004531440
1640784777842209792,0.133596110,0.221532490,8.630553250,-0.033165520,0.007151070,0.017124420
1640784777843079936,-0.247109030,-0.117273170,10.308141710,-0.005991760,0.024330620,0.016753380
1640784777847319808,-0.082298460,-0.206599310,9.669606210,0.039233270,0.079320380,0.007930400
1640784777848259840,-0.111241040,-0.149036120,10.264279370,0.052207710,-0.044602150,0.002646450
1640784777852199936,-0.236753080,-0.067736090,10.377998350,-0.010709460,0.055603690,-0.016286970
1640784777853070080,0.119394880,0.299785230,8.988004680,-0.040501360,-0.001697240,-0.025901200
1640784777857600000,-0.297543910,0.406035040,10.212183000,-0.016355510,0.006644430,-0.012467800
1640784777858969856,-0.129421620,0.410151300,9.059041020,0.027337680,0.082018970,0.001753870
1640784777862579712,-0.231898320,0.351056070,9.723436360,0.077453260,-0.072968010,-0.004549320
1640784777863369984,-0.476006090,0.169806750,10.286160470,0.040233130,0.048995020,0.011366600
1640784777867309824,0.032679500,0.114075320,9.134300230,0.001262130,0.016677380,0.012646620
1640784777868089856,-0.349124520,-0.048782330,11.018943790,0.007349250,-0.012460350,-0.001935660
1640784777872509952,0.158756230,0.230438430,9.537368770,0.000071530,0.104574870,0.002051890
1640784777873390080,0.197538410,0.330031900,9.780220990,0.021401050,-0.039508940,-0.004509090
1640784777877329920,-0.258275450,0.415650370,10.419930460,0.019975010,0.021561980,-0.006842610
1640784777878289920,0.132374760,0.674509700,8.408610340,-0.014390050,-0.022500750,-0.012566150
1640784777882339840,-0.370220900,0.437847140,10.137269970,-0.006124380,-0.047437850,-0.002506380
1640784777883909888,-0.284866690,0.381964590,9.754413600,-0.009983780,0.121849780,-0.001090760
1640784777887229952,0.000872970,0.287374020,9.845087050,0.012922290,-0.026190280,0.002583860
1640784777888059904,-0.285845910,0.079377080,10.893445010,0.030438610,0.035803020,0.018279250
1640784777892209920,0.282052840,0.239875730,8.914637570,-0.019010900,0.042766330,-0.004704300
1640784777893060096,-0.051620570,0.210202810,9.930204390,-0.041727720,-0.053207580,-0.001195070
1640784777900120064,-0.099141130,0.129713190,9.300924300,-0.038820510,0.075119720,0.017045440
1640784777900829952,0.039855740,-0.151108860,9.097239490,0.027774280,-0.012856720,-0.009882450
1640784777902179840,-0.495098290,-0.317823830,10.632316590,0.103020680,0.014267860,-0.006808340
1640784777903059968,-0.142191420,-0.173901770,9.443923000,0.064176330,0.039659450,-0.018185380
1640784777907199744,-0.213491750,-0.153665260,10.334428790,0.008794670,-0.032289330,-0.032033030
1640784777908089856,-0.210862160,0.254910770,9.971399310,-0.018517670,0.076282020,-0.007115310
1640784777912480000,0.115343430,0.569665310,9.205008510,-0.010213260,-0.006601220,-0.008669500
1640784777913039872,-0.240442620,0.549166560,10.166275020,0.048819190,0.008307400,0.016693770
1640784777917399808,-0.112811730,0.660155360,9.196348190,0.079789760,0.017130380,0.019571180
1640784777918099968,-0.369251100,0.456298290,10.068915370,0.047031050,-0.075790310,0.009787090
1640784777922289920,-0.382201110,0.180635780,9.960716250,0.014974180,0.036913160,0.006842610
1640784777923149824,-0.053048060,0.235913520,9.711192130,0.001204010,0.011821090,-0.008478760
1640784777927249920,-0.221174580,0.200020690,10.758177760,-0.003227590,0.048856440,-0.005801020
1640784777928339968,0.154608280,0.446257080,9.535172460,0.004236400,0.034068530,0.006495420
1640784777932359936,-0.022067320,0.576778230,9.919961930,-0.019137560,-0.085805360,-0.005346540
1640784777933910016,-0.040674300,0.557036700,9.141466140,-0.037804240,0.016374880,0.011838970
1640784777937289984,-0.008387590,0.435026350,9.076787950,-0.018329920,-0.009542700,0.024463240
1640784777938119936,-0.345139530,-0.039196920,10.618493080,0.017410520,0.040261450,0.029794870
1640784777942279936,-0.041009250,-0.171059280,9.746276860,0.064741080,0.042483210,0.021421910
1640784777942999808,-0.227540980,-0.211952910,10.588270190,0.042033190,-0.064951170,0.005561110
1640784777947340032,-0.132628110,-0.119112010,9.746798520,-0.025857980,0.040893260,-0.017479060
1640784777948140032,0.134552970,0.269270060,8.838564870,-0.050193080,-0.028710070,-0.019355120
1640784777953569792,-0.338786570,0.331711320,10.074010850,-0.030334300,0.032681230,-0.013411050
1640784777954190080,0.038456720,0.465925510,9.029224400,0.037069620,0.039042540,0.004233420
1640784777957259776,-0.294163760,0.346329210,10.319438930,0.087867680,-0.092197960,0.016844270
1640784777958089728,-0.311977270,0.124454800,10.198859210,0.049491230,0.037035350,0.025567410
1640784777962599936,0.053695330,0.034942930,9.527440070,0.013686720,-0.023879110,0.010815260
1640784777963490048,-0.373880330,-0.074600520,10.961762430,-0.004741550,-0.005497040,-0.000569220
1640784777967959808,0.189277530,0.185848940,9.156228070,-0.002813340,0.061041130,-0.001004340
1640784777968410112,-0.112497150,0.343079510,9.978272440,0.048707430,-0.092011690,-0.013777610
1640784777972239872,-0.389166030,0.654686330,9.839355470,0.004327300,-0.013731420,-0.010561940
1640784777973069824,0.105203230,0.869159280,8.530706410,-0.045822560,-0.041510170,0.007256870
1640784777977210112,-0.366028900,0.496744450,10.709426880,-0.036396090,0.011730190,0.015465920
1640784777978080000,0.064586070,0.414537700,10.001463890,0.004132090,0.118939590,0.015461450
1640784777982300160,0.044861630,0.274330620,10.517347340,0.058820840,-0.072947150,0.023886560
1640784777984259840,-0.269791160,0.008832560,10.529057500,0.018268830,-0.024558610,0.028061870
1640784777987200000,0.240799410,0.161226820,8.222543720,-0.064139080,-0.042955570,0.004205110
1640784777988069888,-0.230197440,0.045995140,9.513294220,-0.084064910,-0.022317470,0.011751060
1640784777992770048,-0.113489310,0.018904510,9.334150310,-0.034971540,0.117865210,0.012014800
1640784777993219840,-0.041720750,0.037171900,10.094277380,0.056613980,-0.032988190,-0.016173720
1640784777997339904,-0.485657160,0.052815390,11.149558070,0.068099790,-0.058250130,-0.007420780
1640784777998200064,0.016708260,0.154242550,9.149821280,-0.008179250,-0.038345160,0.000360610
1640784778003320064,-0.177919460,-0.051392560,10.003898620,-0.025376680,-0.017122920,-0.010198360
1640784778003729920,-0.138573110,0.132552880,9.721029280,0.001874570,0.100740800,0.000685450
1640784778007239936,0.057215970,0.381347120,9.436292650,0.043125450,-0.036512320,0.010864440
1640784778008059904,-0.318301080,0.384638760,10.233149530,0.038908430,-0.058926640,0.012522940
1640784778012179968,-0.120253240,0.690479220,9.017975810,-0.014063720,-0.044867400,0.007411840
1640784778013360128,-0.305295620,0.531573410,9.962870600,-0.051113960,-0.053000460,0.006370250
1640784778017469952,-0.209053320,0.316418710,10.236649510,-0.019083920,0.078631940,0.002129380
1640784778018339840,0.019394270,0.350612880,10.203707700,0.047203900,0.011740630,-0.006365780
1640784778023549952,-0.252973350,0.224566090,10.759804730,0.044603640,-0.037322930,-0.003382560
1640784778024179968,0.024813230,0.312465610,9.003755570,-0.025130810,-0.077621650,0.006371740
1640784778027879936,-0.144909690,0.284094210,9.116031650,-0.090554360,-0.093503300,0.005604330
1640784778028509952,-0.048845130,0.152054310,9.021745680,-0.082181390,0.074073670,0.022469460
1640784778032249856,0.053111850,0.057325870,9.845587730,0.012825430,0.038407740,0.012359020
1640784778033079808,-0.208130810,-0.156088640,11.175705910,0.083358590,0.003542010,-0.000739100
1640784778038199808,0.062539730,-0.081231960,9.863300320,0.076355030,-0.055807830,0.013068320
1640784778039970048,-0.270927130,-0.199375540,10.024831770,-0.006105010,-0.107017180,0.000074510
1640784778042169856,-0.164804950,-0.122866790,8.997690200,-0.056386000,0.031876570,-0.012037160
1640784778043069952,-0.019386360,0.173996250,8.852845190,-0.000329320,0.012132520,-0.006045400
1640784778047269888,-0.480299060,0.198067860,10.503927230,0.071375080,0.027312340,-0.005872550
1640784778048950016,-0.083793580,0.547461390,9.472183230,0.083276630,-0.046390300,-0.002340970
1640784778055759872,-0.421298120,0.535808320,10.324756620,0.032116480,-0.136536360,0.020587450
1640784778056289792,-0.238053410,0.278305290,9.738591190,-0.019657610,0.048501790,0.011818110
1640784778057449728,0.145722020,0.289701070,9.622658730,0.027574600,0.009153780,-0.007879730
1640784778058119936,-0.219866100,0.238209560,11.001050950,0.063774000,0.030118230,-0.014472010
1640784778062649856,0.266988780,0.470149870,9.230611800,0.041332840,-0.010615590,-0.009228290
1640784778063879936,-0.132261430,0.575969400,9.827005390,-0.008752940,-0.162409250,-0.004945690
1640784778067449856,-0.219601510,0.579284490,9.125549320,-0.076654580,-0.025811800,0.013095140
1640784778068339712,0.210315150,0.446437660,8.570903780,-0.045916440,0.004310910,0.024163720
1640784778072189696,-0.231989380,0.023241820,11.049295430,0.042541330,0.076897440,0.001810490
1640784778073069824,0.176042110,0.090364250,10.238658910,0.078672170,0.078511240,0.003296140
1640784778077209856,-0.000617600,-0.000303480,10.470760350,0.043506920,-0.148776170,0.011360650
1640784778078080000,-0.244913920,-0.145912040,9.684408190,-0.052778430,-0.051330030,0.003926460
1640784778082690048,0.100755780,0.044822020,7.920011040,-0.060249880,-0.018973650,-0.000707810
1640784778083559936,-0.404213460,-0.007561050,9.742636680,0.013248620,0.034704800,-0.015783310
1640784778087219968,-0.176481600,0.173652950,9.633376120,0.073011230,0.098462430,-0.011877720
1640784778088110080,-0.110908830,0.358547210,10.366148950,0.087119640,-0.095748910,-0.011494760
1640784778092219904,-0.281940730,0.255478440,10.552117350,0.008068980,-0.028440360,0.012348590
1640784778093050112,0.206895350,0.196699710,9.059903140,-0.030353670,0.000947710,0.010664760
1640784778097400064,-0.164752870,-0.002525910,10.305340770,0.034223500,0.010631980,-0.010196860
1640784778099079936,-0.061644140,0.148454860,9.455652240,0.083890560,0.059476500,-0.004643200
1640784778103040000,-0.111051290,0.330086830,9.434068680,0.087660560,-0.094035270,-0.010214750
1640784778103749888,-0.477523920,0.370190710,9.855672840,0.002551080,-0.054647030,0.005728010
1640784778107329792,-0.066486250,0.557153280,8.916958810,-0.060060630,-0.018660720,0.015677510
1640784778108079872,-0.234346090,0.296614860,10.494807240,-0.011827050,0.030836460,0.007933380
1640784778112399872,0.083548080,0.228196670,10.405420300,0.071397430,0.108777000,-0.012734530
1640784778114109952,0.128598480,0.427286600,10.382053380,0.104396050,-0.049440560,-0.022642320
1640784778120620032,-0.118998400,0.339745400,10.042424200,0.031329700,-0.071644780,-0.002761190
1640784778121079808,0.080989050,0.345846300,8.257216450,-0.065405670,-0.076597940,0.002917650
1640784778122220032,-0.254941700,0.255165930,9.112164500,-0.064791740,-0.013999640,0.012786690
1640784778123289856,-0.001395830,0.143086150,9.378680230,0.005815920,0.139199170,0.023134050
1640784778127219968,-0.020641640,0.187378030,10.648478510,0.082796800,0.021781030,0.002416970
1640784778128219904,-0.161021500,0.207046330,11.110944750,0.055220730,-0.028052920,0.003953280
1640784778132429824,0.224003230,0.190604880,9.308149340,-0.033602110,-0.057148930,0.017289820
1640784778133019904,-0.244105520,-0.093144190,9.725025180,-0.042398280,-0.040572890,-0.010333960
1640784778137250048,-0.103474160,-0.100440870,8.821723940,0.028318170,0.081627080,-0.022359190
1640784778138059776,-0.230720670,0.136279170,9.408877370,0.095041100,-0.009325150,-0.022888180
1640784778142159872,-0.546517130,0.228305190,10.395472530,0.061814490,-0.008025770,-0.014261900
1640784778143079936,-0.018271350,0.585124730,9.285156250,-0.026042760,-0.035859640,0.007826090
1640784778147310080,-0.354713110,0.550753950,10.550530430,-0.072476270,-0.036145750,0.026200720
1640784778148630016,-0.009905200,0.362352100,9.973710060,-0.020664930,0.095003850,0.010591750
1640784778152299776,0.158620010,0.359775750,10.045504570,0.090624400,-0.021234150,-0.022903090
1640784778154399744,-0.291886810,0.271548150,10.474050520,0.095734010,-0.022695960,-0.019235910
1640784778158269952,0.084392960,0.426338790,8.604811670,-0.004759430,-0.056128200,0.001201030
1640784778158720000,-0.334891260,0.363166540,9.544023510,-0.099067400,-0.102803130,0.019909440
1640784778162259712,-0.154714840,0.305215750,9.258439060,-0.116203730,0.086204720,0.030404330
1640784778163079936,0.261113380,0.263175160,9.813266750,0.000503660,0.063183910,0.014635920
1640784778168029952,-0.203247090,0.128757880,11.699660300,0.084030640,0.039196010,-0.016084320
1640784778169410048,0.232943520,0.295885380,9.680879590,0.059793890,-0.045591590,-0.005573030
1640784778172160000,-0.133254450,0.113312130,9.591274260,-0.035892430,-0.148302320,0.000245870
1640784778173070080,-0.308425960,-0.096763890,8.737452510,-0.086097410,0.024616720,0.001867120
1640784778177299968,-0.069276790,0.047223700,8.541543960,-0.023773310,0.046254690,-0.000268220
1640784778178089984,-0.577789660,0.055735040,10.741099360,0.043763230,0.031049550,-0.005662440
1640784778182550016,-0.100046460,0.370143680,9.840128900,0.032176080,0.006069240,0.000239910
1640784778183159808,-0.157850400,0.425564440,10.405643460,-0.010478500,-0.096572940,0.009027120
1640784778193179904,-0.191381070,0.072065170,10.148019790,-0.054675340,0.030282140,0.015565750
1640784778193859840,0.199074760,-0.018992840,9.211379050,0.027486680,-0.003409390,-0.004008410
1640784778194289920,-0.199103490,-0.156993240,10.210204120,0.101920970,0.008703770,-0.018797810
1640784778194599936,-0.058752590,0.058263140,9.205658910,0.065322220,0.006155670,-0.011616950
1640784778197690112,-0.248914300,0.357786830,9.706856730,-0.005972390,-0.130313630,-0.009642540
1640784778198909952,-0.244277720,0.515144230,9.631931300,-0.101882200,-0.008182230,0.004351140
1640784778202449920,0.126269580,0.640997110,9.540071490,-0.062011170,0.049121670,0.007705390
1640784778203079936,-0.215938970,0.498035400,11.322608950,0.061297430,0.051333020,-0.018069150
1640784778207190016,0.002145240,0.646180990,10.247832300,0.085420910,-0.013189020,-0.013962390
1640784778208259840,-0.150411230,0.519732300,9.695728300,0.025549530,-0.156331030,0.011169910
1640784778212219904,-0.258901510,0.201343820,8.986481670,-0.075265770,-0.028055910,0.032870470
1640784778213079808,0.013061310,0.100321530,8.371173860,-0.093880280,0.020593400,0.038348140
