# timestamp,accel_x,accel_y,accel_z,gyro_x,gyro_y,gyro_z
1640836991.949990,-0.059720490,0.482665690,9.096232410,-0.008286540,-0.030614440,-0.060433150
1640836991.952950,-0.116733510,0.296633750,9.536902430,-0.083737070,0.035884970,-0.064790240
1640836991.955080,-0.260389660,0.026208920,10.304207800,-0.056205680,0.023719660,-0.054620210
1640836991.959260,-0.238050700,0.180500640,9.894281390,0.088866060,-0.078390540,-0.047916180
1640836991.960039,-0.140128540,0.215179980,9.303701400,0.071959200,-0.092324610,-0.043819840
1640836991.962960,-0.314697360,0.396869810,9.699890140,-0.045241420,-0.000089410,-0.016936660
1640836991.965200,-0.373969760,0.078828500,9.928019520,-0.060263280,0.036615130,-0.037214160
1640836991.968840,-0.303697410,-0.156404210,10.249513630,0.040580330,-0.105385470,-0.060422720
1640836991.971010,-0.188997890,0.431668280,9.618440630,0.128869710,-0.049427160,-0.049853340
1640836991.973039,0.028316220,0.613115850,9.262288090,0.018301610,-0.010587280,-0.056241460
1640836991.976060,-0.342104640,0.641759040,10.617614750,-0.093506280,-0.027039650,-0.029841070
1640836991.978040,-0.243712920,0.622540000,9.737871170,-0.019562250,-0.055815280,-0.031420590
1640836991.980049,-0.076177090,0.359408970,9.677843090,0.071883220,-0.139200730,-0.029508780
1640836991.983060,-0.306895050,0.940307140,9.927367210,0.063526640,0.031888480,-0.016906860
1640836991.989440,-0.142826600,0.958916900,9.635238650,-0.071567300,-0.017300250,-0.020474200
1640836991.990170,-0.330765690,0.488886300,10.691138270,-0.123330950,-0.115166610,0.011152030
1640836991.990569,-0.058262820,0.435275520,9.338865280,-0.011627380,-0.020581480,-0.013665860
1640836991.993029,-0.120652220,0.242431130,9.720953940,0.055916610,-0.083994870,-0.035034120
1640836991.995040,-0.530551910,0.646841530,10.395060540,-0.016461310,-0.028131900,-0.005523860
1640836991.998040,-0.018857720,0.653233770,9.077108380,-0.144346060,-0.073634100,-0.000505150
1640836992.000120,0.002304190,0.076598500,10.198665620,-0.132991390,-0.054655980,0.023795660
1640836992.003190,0.087866340,0.187315660,9.813441280,0.020480160,0.073944030,-0.001487140
1640836992.005450,0.095891630,0.377320560,9.991144180,0.054696210,-0.108970710,-0.017121430
1640836992.008060,-0.278770210,0.510053040,10.251348500,-0.066035990,-0.092434890,0.031127040
1640836992.010000,0.112925270,0.361443790,8.673816680,-0.161276760,-0.029766560,0.022512680
1640836992.013110,-0.167102980,-0.084207220,9.982564930,-0.079342730,-0.031183660,-0.005987290
1640836992.015050,-0.213455230,0.246826530,9.778520580,0.057594490,0.051726410,-0.006704030
1640836992.018200,0.072858120,0.476284060,9.570128440,0.020393730,-0.059749190,-0.011365120
1640836992.020010,-0.343826470,0.226125660,10.568916320,-0.099311780,-0.016985840,0.033478440
1640836992.023039,-0.138936790,-0.066150480,9.415928840,-0.082543480,-0.035223370,0.030514600
1640836992.025139,-0.247492190,-0.322865640,9.678091050,0.046844780,-0.104200850,0.009408590
1640836992.027910,-0.112799720,0.015849760,9.198357580,0.072018800,0.047093630,0.006237630
1640836992.029980,0.005262890,0.308961090,9.641086580,-0.014075640,0.047555570,0.002075730
1640836992.033470,-0.402039200,-0.004873460,10.749875070,-0.054183610,-0.028838220,0.009916720
1640836992.036360,-0.181458740,0.017888700,9.601959230,0.032682720,-0.128650670,0.020860140
1640836992.038120,-0.263085220,0.200877460,9.365576740,0.115025040,-0.061097730,0.007300080
1640836992.040069,-0.308721780,0.445840330,9.531073570,0.034031280,0.061962010,0.004194680
1640836992.043180,-0.433253020,0.609911020,10.455921170,-0.026150050,-0.009320680,0.020805000
1640836992.044970,-0.283353780,0.383961830,10.027635570,0.001956520,-0.070124870,0.007370110
1640836992.047979,-0.013207080,0.433506880,9.373546600,0.062647470,-0.105896590,0.015868250
1640836992.049980,-0.226057810,0.733973090,9.775734900,0.071276720,0.020599370,0.010594730
1640836992.053069,-0.244237530,0.511247040,9.856168750,-0.013922160,0.003519650,0.015321370
1640836992.055050,-0.434931640,0.451860100,10.579740520,-0.011540950,-0.119994590,0.047960880
1640836992.057960,-0.087555460,0.422992890,9.400343890,0.026692450,-0.047172610,0.031808020
1640836992.060000,0.029218390,0.385684400,9.512814520,0.019392370,-0.022923950,0.022058190
1640836992.062980,-0.329077040,0.901202560,10.531671520,-0.008516010,0.021921090,0.031399730
1640836992.065410,-0.015646110,0.574514570,9.579164510,-0.069113060,-0.062529740,0.032272940
1640836992.068590,-0.171086490,0.331902650,10.059152600,-0.009675320,-0.119209300,0.039422510
1640836992.070400,-0.231254190,0.703429640,9.493817330,0.035998230,0.012749430,0.016115610
1640836992.072950,-0.107598960,0.569783930,9.474888800,-0.046987830,-0.070808820,0.035507970
1640836992.074980,-0.199620050,0.562076030,10.273475650,-0.093521190,-0.000479820,0.056061150
1640836992.077930,0.202818720,0.122591750,9.434643750,-0.050950050,0.056460510,0.033974650
1640836992.080080,-0.088211030,-0.218420360,10.534489630,0.061199060,-0.097519150,0.046128030
1640836992.082960,-0.189246620,0.337594810,9.611247060,0.048334910,-0.044919560,0.039644540
1640836992.085310,0.148680140,0.078829200,8.635128020,-0.095726570,-0.063045330,0.031395260
1640836992.088620,-0.268023070,-0.159425140,10.342773440,-0.091499090,0.048628450,0.043071810
1640836992.089969,-0.101970570,-0.036446550,9.678223610,0.048425790,0.054670870,-0.006911160
1640836992.092939,-0.115626680,0.096737530,9.991279600,0.127115850,-0.138624030,0.003406410
1640836992.096779,-0.346587900,0.669748070,9.840295790,0.022961200,0.006313620,0.036509340
1640836992.097960,-0.128471990,0.345948610,9.165916440,-0.101754080,0.003306570,0.032199920
1640836992.100020,-0.580872950,-0.117115320,10.559140210,0.005604330,-0.042946630,0.051216780
1640836992.103439,-0.256382940,0.271652940,9.315457340,0.142219690,-0.006614630,0.019742550
1640836992.105100,0.007226040,0.432938670,9.257654190,0.106383880,-0.044113410,0.011253360
1640836992.107980,-0.351135310,0.573912140,10.480615620,-0.047542160,0.047160690,0.043915220
1640836992.110000,-0.048165340,0.315898690,9.768321040,-0.065778200,-0.022916500,0.024881960
1640836992.112970,-0.277272020,-0.035333830,10.253928180,0.081557050,-0.124369580,0.027415160
1640836992.115029,-0.294148090,0.521260740,9.589797970,0.134775060,-0.030314920,0.023840370
1640836992.118240,-0.204212250,0.781741920,9.371164320,0.018213690,0.005728010,0.022536520
1640836992.120030,-0.577170610,0.528698620,10.693602560,-0.100474070,-0.034220510,0.060060610
1640836992.122969,-0.124360130,0.444239740,9.713161470,-0.017152730,-0.053855780,0.055925550
1640836992.124980,0.053939190,0.278084840,9.464946750,0.110921260,-0.064784290,0.019890070
1640836992.128019,-0.195159870,0.689881090,10.117382050,0.063808260,0.018663710,0.037394460
1640836992.130080,-0.195380060,0.883643210,9.811079030,-0.060524040,-0.041206170,0.046105680
1640836992.133030,-0.198710010,0.159519700,9.979263310,-0.099334110,-0.119023010,0.056418770
1640836992.135470,-0.076054820,0.144544810,9.544648170,0.021739300,-0.015278160,0.048826630
1640836992.138029,0.016310460,0.319645050,9.327062610,0.101396440,0.014850500,0.018996000
1640836992.140750,-0.148599710,0.377280530,10.212673190,-0.013846160,-0.031004850,0.039774180
1640836992.142900,-0.058329350,0.396378070,9.765836720,-0.078436720,-0.015601510,0.060331830
1640836992.145450,-0.060908560,-0.289498450,9.731758120,-0.023525960,-0.066904720,0.048232090
1640836992.147960,-0.314665680,-0.071364100,9.926006320,0.098808110,-0.073541710,0.043264020
1640836992.149940,-0.097100180,0.415148680,8.916133880,0.088638060,-0.007598100,0.022327900
1640836992.152989,-0.071485090,0.253353300,9.737541200,-0.066696110,0.028863550,0.034491720
1640836992.155059,-0.433478120,0.281424250,10.633592610,-0.043001770,0.029155620,0.054757300
1640836992.157909,-0.171533670,-0.059019510,9.554278370,0.102661570,-0.115796940,0.024363400
1640836992.160030,-0.272336930,0.179026290,9.492544170,0.146511200,-0.118552170,0.046175720
1640836992.162969,-0.263480370,0.543073180,9.165572170,0.037346780,0.078547010,0.045216090
1640836992.165050,-0.074368180,0.037135670,9.876454350,-0.069649500,0.035811950,0.027540320
1640836992.168100,-0.437873040,0.076610190,11.002840040,0.056324890,-0.059919060,0.049568710
1640836992.170250,0.094554610,0.313616280,9.122964860,0.158074540,-0.094088930,0.019906460
1640836992.173090,-0.143827530,0.535673140,9.476271630,0.072726610,-0.081363320,0.032769150
1640836992.175050,-0.495606570,0.706442770,10.039205550,-0.027354070,0.052143640,0.055947910
1640836992.177950,-0.193173840,0.287226440,9.669734000,-0.011740620,-0.045248870,0.027288500
1640836992.180009,-0.492622760,0.441163300,10.464073180,0.106693810,-0.134888290,0.046595920
1640836992.182880,-0.073853360,0.976203200,9.205036160,0.091522940,-0.005929170,0.042960050
1640836992.185490,-0.120690260,0.889948730,9.777296070,-0.052522130,-0.027741490,0.039540220
1640836992.188580,-0.436637160,0.751684490,10.767602920,-0.073283900,-0.031566620,0.069308270
1640836992.189999,0.044089110,0.473955330,9.508780480,0.020653010,-0.076316290,0.048084550
1640836992.193080,-0.165819230,0.499690380,9.804202080,0.075465440,-0.129310800,0.040142250
1640836992.195050,-0.205286090,1.027920840,9.549144740,-0.017979740,0.013192000,0.052292640
1640836992.197929,0.141956790,0.880776640,9.230679510,-0.164549070,-0.012980400,0.035507980
1640836992.200039,0.122866840,0.958053470,10.038930890,-0.156065820,-0.049830980,0.041775410
1640836992.203400,0.727777720,1.622903350,8.906709670,-0.103242700,0.050866600,0.017412010
1640836992.207720,0.911652510,2.461021900,9.007892610,-0.201894360,0.018998980,-0.017698110
1640836992.208079,0.790642020,3.368016000,9.610888480,-0.418593050,0.079377000,0.019547340
1640836992.210029,1.155038950,3.161962270,8.650572780,-0.544172590,0.121869160,0.018383560
1640836992.212940,0.584901690,2.251908300,9.799003600,-0.436273220,0.065404170,0.010560450
1640836992.214980,0.147551720,1.752761010,8.955987930,-0.293049250,0.121122610,0.012254710
1640836992.218240,-0.045852910,0.792176720,8.473717690,-0.386908680,0.024613740,0.013874470
1640836992.220029,-0.772768200,-0.286615580,9.519672390,-0.576734600,0.164674220,0.055004660
1640836992.223770,-0.397317170,-1.357352850,8.778764720,-0.590883260,0.185121640,0.017729400
1640836992.225410,-0.633619070,-1.921477910,10.201543810,-0.401952860,0.093759600,-0.024366380
1640836992.227910,-0.156856340,-0.791168930,8.912595750,-0.325663480,0.185343650,-0.056777910
1640836992.229990,0.304992590,0.162188460,8.984962460,-0.491680290,0.126196470,-0.059188910
1640836992.232940,0.101307360,0.768350840,9.776641850,-0.616128800,0.206738760,-0.005352500
1640836992.235050,0.648376230,1.159476640,8.758304600,-0.496764540,0.136293500,-0.005917250
1640836992.238030,0.223650750,1.369245290,9.481840130,-0.324736540,0.106656560,0.025197860
1640836992.241310,0.087950600,1.822519060,8.864650730,-0.386628510,0.196057570,0.042484700
1640836992.242970,-0.238896620,1.245707990,9.360989570,-0.566671850,0.151312370,0.058701640
1640836992.245050,-0.671729270,-0.056314930,9.669360160,-0.573857190,0.144289460,0.061595450
1640836992.247939,-0.413445380,-0.659334240,8.939185140,-0.389227270,0.124575210,0.020167230
1640836992.250020,-0.748412430,-0.894640560,9.443417550,-0.319439230,0.171890900,-0.027023260
1640836992.253080,-0.773437860,-0.636714280,9.560131070,-0.455825120,0.146661700,-0.021778050
1640836992.255110,-0.752710760,-0.491892810,9.716815950,-0.536313770,0.081360360,-0.003372130
1640836992.258190,-0.378650010,-0.339037540,9.043275830,-0.471820000,0.068974500,0.016468770
1640836992.260049,0.024242560,0.602385280,9.234569550,-0.345523740,0.143498210,0.023651130
1640836992.262940,0.326364640,1.514385460,9.288129810,-0.393305780,0.232349380,0.037662680
1640836992.265060,0.484664680,1.687444570,9.875967980,-0.524233220,0.122869010,0.086031850
1640836992.269510,0.406505350,1.320540790,9.858131410,-0.502015710,0.126035560,0.090499240
1640836992.270640,0.360413820,0.709305410,8.713223460,-0.414383440,0.075332820,0.052484870
1640836992.273090,-0.216520830,0.472078980,9.353884700,-0.379559400,0.093492870,0.053159890
1640836992.275450,-0.366056470,-0.060550480,8.543249130,-0.475244310,0.219705750,0.034634780
1640836992.278050,-0.701176940,-0.901715930,9.737630840,-0.512668550,0.102081890,0.034677990
1640836992.280040,-1.069819570,-1.120046850,10.010597230,-0.393687220,0.148060920,0.041167440
1640836992.282980,-0.698095140,-0.976660850,8.637845990,-0.321535740,0.013113020,0.008399780
1640836992.285070,-0.777699170,-0.219847170,9.530998230,-0.375413890,0.069737430,0.038500140
1640836992.290850,-0.077058540,0.366732030,8.417921070,-0.478564290,0.246587430,0.034219030
1640836992.292870,0.144970330,0.392030000,9.967457770,-0.432661180,0.110059980,0.024576490
1640836992.293249,0.295842170,1.041232110,9.907526970,-0.290353600,0.144962980,0.021576880
1640836992.295040,0.790421490,1.387429710,8.401010510,-0.316746500,0.030401350,0.023730100
1640836992.297880,0.096879460,1.008288150,9.937850000,-0.444327350,0.112783930,0.081747770
1640836992.300060,-0.050545820,0.313167210,8.904818530,-0.450524780,0.211358100,0.069050510
1640836992.303320,-0.507753250,-0.650019940,9.774218560,-0.294937160,-0.003416840,0.051200390
1640836992.305280,-0.741388380,-0.608106730,9.303603170,-0.228983190,0.116199270,0.058597340
1640836992.308630,-0.480953510,-0.477601650,8.438946720,-0.353325900,0.132286560,0.021912160
1640836992.310000,-1.224980590,-0.678068760,10.654636380,-0.438544210,0.093229140,0.042504080
1640836992.312899,-0.862623630,-0.348225440,9.288094520,-0.333228800,0.042401260,0.007317960
1640836992.314999,-0.614842710,0.133245620,9.175672530,-0.211547320,-0.071293120,-0.015291570
1640836992.318030,-0.418470980,1.134444710,9.286877630,-0.278261330,0.150674580,0.023284550
1640836992.320089,0.103207970,1.633255360,9.292247770,-0.413125840,0.126738850,0.049982960
1640836992.323140,0.175132720,1.167357920,10.434661870,-0.417409870,0.037351250,0.083062060
1640836992.325700,0.761670170,0.899900200,9.077731130,-0.284442340,0.055801860,0.096403050
1640836992.327920,0.726449490,0.553296090,9.040386200,-0.205248620,0.060294580,0.075627860
1640836992.329980,0.156205650,0.202902750,9.590112690,-0.326788400,0.114548190,0.077369790
1640836992.332990,-0.102546030,-0.257609670,9.338423730,-0.433269140,0.037819150,0.077758730
1640836992.335070,-0.509230020,-1.105820300,9.487977030,-0.363677800,0.029958790,0.039812930
1640836992.338050,-0.767263350,-0.942358080,9.144996640,-0.207638760,0.056251880,0.009302800
1640836992.342909,-0.996477780,-0.218922080,9.311381340,-0.187556450,0.060465930,0.001120570
1640836992.343550,-0.913555380,0.161162930,9.186660770,-0.340560170,0.064963100,0.031055520
1640836992.345300,-0.728859960,0.361062650,9.708601000,-0.361254810,0.017216800,0.076252230
1640836992.347910,-0.226249950,0.277752490,9.247031210,-0.222316380,0.070422900,0.056900080
1640836992.349959,0.259115340,0.607400420,9.134447100,-0.122667860,0.005418060,0.047373770
1640836992.353170,0.480100450,1.020616530,9.474059100,-0.197651980,0.121828940,0.057324770
1640836992.355310,0.746518080,0.455474380,9.223019600,-0.345674250,0.112108910,0.060293090
1640836992.358060,0.181486710,-0.306221990,10.537245750,-0.257375840,-0.023482740,0.065876540
1640836992.359979,0.136928620,-0.560636880,8.684947010,-0.089393550,0.021022550,0.028148290
1640836992.362890,-0.301501870,-0.679172990,8.730998990,-0.090169910,-0.050529840,0.030496720
1640836992.365010,-0.954037370,-0.252392290,9.682304380,-0.225827140,0.155442970,0.044360760
1640836992.368219,-0.886264560,-0.357734650,9.290901180,-0.289794830,0.052034850,0.025303660
1640836992.370420,-1.335884210,-0.258948090,10.616466520,-0.132554770,-0.114043080,0.046265140
1640836992.374620,-0.726009130,0.581661820,8.570291520,-0.040505830,0.028753280,0.017325580
1640836992.375190,-0.592115880,0.978974820,9.249288560,-0.128018830,-0.018946820,0.021682680
1640836992.377920,-0.604384420,1.116238000,10.416536330,-0.231505900,0.074331450,0.063613040
1640836992.380050,0.280572830,0.713101210,8.919798850,-0.191275780,-0.045260790,0.049947210
1640836992.382949,0.474070670,0.350617970,9.735572810,-0.075867780,-0.095327200,0.071914500
1640836992.386160,0.768471900,0.463892100,8.886506080,-0.075176370,0.132447500,0.076195580
1640836992.388300,0.572585520,0.075186010,9.536257740,-0.176745650,0.003989040,0.058014690
1640836992.390060,-0.167683210,-0.389957400,10.530088420,-0.203001500,-0.039239230,0.079330810
1640836992.392920,-0.086501230,-0.651700320,8.537647250,-0.096063320,-0.075159970,0.049991910
1640836992.395040,-0.674872640,-0.530678270,9.249403000,-0.016359980,-0.063262880,0.019158420
1640836992.397910,-0.927099590,0.340357420,9.258419040,-0.106884530,0.079867230,0.032356380
1640836992.400260,-0.734645370,0.485517680,9.340485570,-0.191229600,-0.011308490,0.037424270
1640836992.403120,-0.911565420,0.148593320,10.346395490,-0.124996900,-0.037676100,0.050345060
1640836992.405249,-0.478351180,0.421252850,9.129847530,0.028145320,-0.070399050,0.053346160
1640836992.408599,-0.173992630,0.565083560,8.900196080,0.033368170,-0.096137820,0.050655010
1640836992.409999,0.318275630,0.500674250,8.789284710,-0.145527740,0.051233170,0.069598850
1640836992.412959,0.634611430,-0.014058830,9.613956450,-0.149339420,0.094868240,0.061842800
1640836992.415030,0.481253030,-0.796533290,10.233285900,0.016386800,-0.019697840,0.031982360
1640836992.418020,0.221444000,-0.662420810,9.574707980,0.164924560,-0.178422050,0.033660230
1640836992.420320,-0.170081650,-0.307200370,8.576730730,0.063313540,-0.075797740,0.035873060
1640836992.422950,-0.512630940,-0.570830110,8.773995400,-0.125101210,0.022344290,0.041785840
1640836992.425040,-1.130639910,-0.444776300,10.331585880,-0.015001000,0.012235340,0.031465300
1640836992.427950,-0.848521290,-0.075185690,9.349160190,0.170862690,-0.085152700,0.005424020
1640836992.429999,-0.771431510,0.702624560,9.360754010,0.183913110,-0.166657580,0.027026240
1640836992.433270,-0.656969010,1.293408630,9.207014080,0.011907520,0.025059280,0.039930640
1640836992.435750,-0.288630430,0.868355040,9.221130370,-0.084850190,-0.041101870,0.040829190
1640836992.438190,-0.355453310,0.491102190,10.529205320,0.090970090,-0.142681570,0.056974590
1640836992.441429,0.468309130,0.504461110,8.507912640,0.219354050,-0.065249200,0.011432170
1640836992.442900,0.379490140,0.468423400,9.430623050,0.112989570,-0.098808120,0.041057180
1640836992.445040,0.073202680,0.284942840,10.099885940,-0.051058840,0.013054910,0.072424110
1640836992.447929,0.350910480,-0.468379200,9.013679500,-0.023904440,-0.119705500,0.038430100
1640836992.450100,-0.298317700,-0.634699580,10.128293040,0.180147590,-0.171086210,0.038136550
1640836992.452920,-0.339886900,0.108232490,8.679054260,0.211677000,-0.022847950,0.005884470
1640836992.455299,-0.698789950,0.642028510,9.364560130,0.036296250,-0.137703140,0.013457240
1640836992.458130,-0.909320530,0.813867690,10.066501620,-0.079704830,-0.069575000,0.057293480
1640836992.459990,-0.171842660,0.619299170,8.540225980,0.037281220,-0.052990020,0.022237000
1640836992.462930,-0.425775080,0.691467290,10.107133870,0.214172900,-0.120897600,0.011277200
1640836992.465459,-0.085848870,1.164312360,9.215257640,0.167615760,-0.043682770,0.037133690
1640836992.467970,0.268055920,0.744098130,8.957509040,-0.010038910,-0.136987880,0.056563320
1640836992.470059,0.178360850,-0.174525770,9.849702840,-0.046394770,-0.051504380,0.065684330
1640836992.472990,0.613001940,-0.591776730,8.822620390,0.132346170,-0.026170910,0.028805440
1640836992.475250,0.305368990,-0.637508150,9.612264630,0.251422820,-0.101673620,-0.001896920
1640836992.477919,0.021662340,-0.340796230,9.447999950,0.132241860,-0.041648750,0.018846990
1640836992.480520,-0.272826760,-0.386333670,9.418403630,0.028862060,-0.107839700,0.016890470
1640836992.482940,-0.675615550,-0.652653100,9.570167540,0.100332510,-0.114004320,0.014942890
1640836992.485030,-0.691400350,-0.051635850,8.984338760,0.264315340,-0.110305850,0.016978380
1640836992.488360,-0.639387730,0.616260890,9.114190100,0.249087810,-0.031718620,-0.006672740
1640836992.490120,-0.382109790,0.870033620,9.452960970,0.105381030,-0.011847910,0.009986760
1640836992.492930,-0.416982590,0.886477830,10.346291540,0.113707790,-0.109103320,0.033529110
1640836992.495040,0.097624300,0.529557170,8.926710130,0.211195650,-0.144006310,0.020137430
1640836992.497959,0.176381690,0.455797200,9.134074210,0.259016450,-0.154285150,0.030781330
1640836992.500049,0.026491420,0.538410430,9.560593610,0.185947140,0.041815640,0.032046440
1640836992.502900,0.127713010,-0.179180150,9.562460900,0.111511350,-0.102499130,0.031842290
1640836992.505139,-0.234582250,-0.425565840,10.365758900,0.189667940,-0.188001990,0.043109060
1640836992.508610,0.162876870,-0.249538990,8.346801760,0.265583400,-0.059109930,0.006908180
1640836992.510010,-0.315682710,-0.042411810,9.697292330,0.219607380,-0.116884720,0.009523330
1640836992.513130,-0.718299270,0.597855750,10.194613460,0.145046410,-0.029334430,0.027696790
1640836992.515110,-0.288954850,0.505794230,8.968823430,0.134813800,-0.176934910,0.008608400
1640836992.517920,-0.664577420,0.904450770,10.217595100,0.206384080,-0.175631050,0.025710470
1640836992.520049,-0.243879740,1.511461850,8.774393080,0.202249040,-0.019040700,0.018462540
1640836992.522950,-0.178499210,1.338630560,9.653059010,0.102381410,-0.161233560,0.032071770
1640836992.525190,-0.085974920,1.138330100,10.093009950,0.084561110,-0.071693960,0.059317060
1640836992.528040,0.640913780,0.525544460,8.592404370,0.145919650,-0.080239800,0.037854920
1640836992.530079,0.118570040,0.115493440,10.245655060,0.198382170,-0.140291470,0.039486590
1640836992.532930,0.132942990,0.240181790,9.224434850,0.140878560,-0.078336900,0.040440260
1640836992.535060,0.352168650,-0.271344390,8.718418120,0.043366850,-0.155453380,0.038269170
1640836992.538200,-0.068070920,-0.575080220,9.931974410,0.096131850,-0.017963350,0.038209550
1640836992.540109,0.006453780,-0.303985150,9.332443240,0.220674320,-0.012572110,0.011248890
1640836992.542990,-0.480504810,0.209952490,10.124346730,0.217163610,-0.184443620,0.005014240
1640836992.545519,-0.531781670,0.743142900,9.277514460,0.082099450,-0.139951710,0.045710810
1640836992.547940,-0.140405550,0.604759160,8.439604760,0.034871700,-0.060443590,0.039045520
1640836992.550000,-0.240231260,0.440430130,9.592103960,0.174513470,0.007025900,0.027972460
1640836992.552899,0.151754410,0.861879350,9.640356060,0.263836980,-0.038777300,0.023229420
1640836992.555150,0.321208570,0.985322360,9.501979830,0.161828150,-0.084963460,0.039352480
1640836992.558220,0.229847060,0.156879450,9.576897620,0.035640600,-0.081759710,0.053742540
1640836992.560099,0.046736980,-0.398153130,9.555202480,0.136947650,-0.090515600,0.045303990
1640836992.562960,0.030005320,-0.656430300,8.804054260,0.300383570,-0.068718200,-0.004732610
1640836992.565019,-0.092445080,-0.403119680,9.191612240,0.249959540,-0.054645530,0.002223250
1640836992.567930,-0.481941820,-0.052507680,9.842991830,0.131529580,0.028589370,0.018112370
1640836992.570030,-0.398164630,-0.390364320,9.525053020,0.124944760,-0.122308750,-0.002582370
1640836992.573030,-0.663878140,-0.023894870,9.924924850,0.270690110,-0.175589320,0.018936400
1640836992.575189,-0.255113810,0.712894020,8.511358260,0.328326260,-0.016529860,-0.003394480
1640836992.578029,-0.248973980,0.916506890,9.554366110,0.178930130,-0.041913990,0.002938510
1640836992.580020,-0.305751860,1.158654570,10.396734240,0.120472910,-0.002466140,0.036242610
1640836992.582890,0.359192550,0.672337530,9.020885470,0.206841530,-0.142899170,0.020706650
1640836992.585039,0.173236060,0.539578620,9.735692020,0.281672120,-0.142544480,0.027152900
1640836992.588040,0.242035170,0.751685260,9.032772060,0.235207420,0.027251250,0.022326410
1640836992.590040,0.079607440,0.154804720,9.666829110,0.115337980,-0.080281500,0.021862980
1640836992.593030,-0.392160650,-0.027285850,10.504192350,0.141818840,-0.111630560,0.038608910
1640836992.595059,0.090990220,0.074866890,8.781862260,0.217047330,-0.085441750,-0.002908710
1640836992.597869,-0.242460030,0.386637750,9.446891780,0.197020170,-0.070643430,-0.005950030
1640836992.600060,-0.444112660,0.796667460,9.965142250,0.127719340,-0.005276500,0.009629130
1640836992.602970,-0.133486060,0.734281300,9.263195040,0.103476650,-0.072373450,-0.001429020
1640836992.605219,-0.262438650,0.645728050,9.856555940,0.168076170,-0.136762870,0.021107490
1640836992.609779,-0.058323490,0.916425110,9.351186750,0.194545110,-0.026981530,0.023764370
1640836992.610740,0.265329600,0.979333820,8.884077070,0.109520580,-0.027406220,0.019024320
1640836992.612939,0.161515670,0.539547090,10.171310420,0.057387350,-0.019212070,0.056950750
1640836992.615039,0.405846540,0.188340770,9.516278270,0.122986740,0.025117400,0.038455420
1640836992.617920,0.294481370,-0.170518370,9.443223000,0.210717340,-0.125193600,0.014966730
1640836992.620339,-0.110567440,0.017291120,9.569538120,0.174045560,-0.072667010,0.029805310
1640836992.622980,0.025344790,0.114846740,8.498974800,0.056722760,0.008803610,0.011116260
1640836992.627139,-0.302457120,-0.315575240,9.863874440,0.070627030,-0.016240770,0.000517070
1640836992.627940,-0.429700970,-0.026735720,9.950289730,0.190255020,0.025650860,-0.014060730
1640836992.630050,-0.154410360,0.451216910,9.115985870,0.255480350,-0.086989990,-0.033900140
1640836992.632959,-0.297339170,0.721109330,9.540132520,0.133624670,-0.048936910,0.003117320
1640836992.635089,-0.121605720,0.745989800,9.122291560,0.045563280,0.043195490,0.039078300
1640836992.638180,0.037207750,0.162202460,9.524686810,0.136952100,-0.016064940,0.003650780
1640836992.640149,0.059367210,0.117422310,9.666741370,0.268414590,-0.038714700,0.004069510
1640836992.644440,0.341071930,0.488195510,9.098657610,0.254189970,-0.011722740,0.003139670
1640836992.645320,0.114934360,0.283164920,9.563781740,0.085438800,0.025810300,0.011162460
1640836992.647910,-0.151560710,-0.065354080,10.115109440,0.058273970,-0.032255060,0.018393990
1640836992.649989,-0.223300780,-0.139161470,9.552887920,0.224806370,-0.045323380,-0.012400750
1640836992.652920,-0.356758450,0.090848050,9.018180850,0.291118060,-0.070244070,-0.022546950
1640836992.659180,-0.500538710,0.767788410,9.603832240,0.179317610,0.002793970,-0.003798310
1640836992.659969,-0.372980360,0.962592480,9.428114890,0.030620400,0.061570110,-0.005549190
1640836992.660820,-0.215921920,0.667392790,10.074159620,0.063312060,-0.088980810,0.015488270
1640836992.662920,-0.074715320,0.812726560,9.997006420,0.237634790,-0.010435280,0.014998020
1640836992.665069,0.203093390,0.916566970,8.959417340,0.236058250,-0.018475950,-0.015674530
1640836992.667950,-0.085991220,1.006657360,10.180637360,0.077031560,-0.054514410,0.031493610
1640836992.670050,0.116272620,0.679983620,9.237018590,-0.015181300,0.046351550,0.038161870
1640836992.673450,0.395421770,-0.069247080,9.230958940,0.063033420,-0.065928710,0.016807030
1640836992.675160,0.062620360,0.116650850,10.176085470,0.215040160,0.045254830,0.002287330
1640836992.678350,0.222121890,0.403240890,8.842252730,0.173182770,0.033959740,-0.024810440
1640836992.680130,-0.236260800,0.326592420,10.221284870,0.002306700,-0.083437570,0.002291800
1640836992.682950,-0.489302250,0.227211160,9.747515680,-0.011098380,0.030605500,0.029644370
1640836992.685040,-0.135314810,-0.074970560,8.705649380,0.126689670,-0.066445770,-0.009992720
1640836992.688279,-0.495147940,0.432722180,10.001997950,0.210109350,0.014850500,0.001405180
1640836992.690120,-0.049264560,0.879858310,8.952095990,0.098170340,0.098484760,0.006975230
1640836992.694640,0.091066210,0.411836060,9.878262520,-0.017277900,-0.013232230,0.020541250
1640836992.695430,-0.130499230,-0.016636860,10.355164530,0.087700790,0.006648900,0.034552810
1640836992.697899,0.346439450,-0.065399800,8.748359680,0.228850540,-0.057694320,-0.006924570
1640836992.700090,0.072465320,0.111706240,9.336016650,0.186166180,-0.014807280,-0.006875400
1640836992.702980,-0.041122870,0.169205860,9.481780050,0.041943790,0.116732720,0.013661390
1640836992.705200,-0.130241870,-0.227687390,9.859206200,0.047317150,0.024046010,-0.004981460
1640836992.708040,-0.480999320,-0.329339710,10.037734030,0.218403320,-0.088511410,-0.007569790
1640836992.710690,-0.375343260,0.299448370,8.983869550,0.260768860,-0.060839950,-0.003208220
1640836992.712940,-0.398781540,0.586402060,9.011256220,0.132259730,0.068540860,-0.005665420
1640836992.715040,-0.599765600,0.384591040,10.245129590,0.043463700,0.045824050,-0.000418720
1640836992.717880,-0.426159740,0.384059940,10.199761390,0.159721080,-0.043924160,-0.004096330
1640836992.720389,0.019384200,0.521029230,9.014945980,0.273710520,-0.081758220,-0.032299760
1640836992.725459,0.037645710,0.939694400,9.483437540,0.182175650,-0.016991790,0.003339350
1640836992.726519,0.070357670,0.892061110,9.648038860,0.044661760,0.106343630,0.022462010
1640836992.727910,0.030391090,0.177312780,10.066205020,0.070877370,-0.053805120,0.008235870
1640836992.730019,-0.146020010,0.109175880,10.256471630,0.214777920,-0.098249320,0.027993320
1640836992.732920,0.192629200,0.401754530,8.561843870,0.242835300,-0.014227630,0.010304150
1640836992.735129,-0.174038100,0.537311380,9.713589670,0.058518360,0.026063620,0.006392600
1640836992.738000,-0.209517520,0.720967890,10.149714470,-0.035892430,0.072011340,0.024317200
1640836992.740440,0.027356390,0.191414060,9.516441350,0.094667080,-0.047169630,-0.007975100
1640836992.742970,-0.370769710,0.259170950,10.009414670,0.246840730,-0.069382790,-0.010472540
1640836992.745020,-0.175490900,1.036184190,8.941780090,0.196732600,-0.004366040,0.000314410
1640836992.747920,-0.208627430,0.812571110,9.276421550,-0.032331050,-0.013893840,0.029544530
1640836992.750000,0.060856380,0.374522330,9.910414700,-0.069597370,0.062745810,0.049678980
1640836992.753229,0.338302170,-0.033278120,9.716949460,0.171537700,0.092300780,0.008824470
1640836992.755360,0.110303550,-0.035165210,9.977395060,0.286293030,-0.052763530,-0.003746150
1640836992.758720,0.019413620,0.533490660,9.524372100,0.133189560,-0.068303950,0.023317340
1640836992.760110,0.056587400,0.266202300,8.511861800,-0.085735330,0.028268990,0.024223320
1640836992.762879,-0.014814260,-0.389462530,9.429855350,-0.027056040,0.052669650,0.006762150
1640836992.765100,-0.285017850,-0.193870690,10.273032190,0.260973010,0.108350840,-0.021766130
1640836992.769500,-0.106039190,0.443396330,9.385074620,0.305575160,-0.020624700,-0.052103400
1640836992.770850,-0.336533310,0.793923320,9.973209380,0.070889290,-0.080740460,0.019069020
1640836992.772980,-0.468248220,0.535921450,9.227837560,-0.084082790,0.084033610,0.036507850
1640836992.775179,-0.281412540,-0.216670660,9.114709850,0.099702180,-0.020259620,-0.003881750
1640836992.778020,-0.605201780,0.127866920,10.244485860,0.342245460,-0.029000650,-0.012092290
1640836992.780040,0.002476890,0.916184480,8.651882170,0.229331850,0.068269660,-0.022694470
1640836992.782920,-0.057106410,0.672565940,10.024787900,-0.032268470,-0.014290220,0.021426380
1640836992.785140,-0.369062690,0.277049510,10.634707450,-0.037403400,0.035475190,0.032542650
1640836992.787910,0.181776930,-0.016377680,9.017089840,0.202885290,-0.076945130,-0.012639170
1640836992.790210,-0.269420710,0.376870390,9.981402400,0.303645430,-0.072020300,0.001221900
1640836992.793049,-0.146815020,1.025414940,9.116177560,0.101046260,0.092490020,0.012044610
1640836992.795080,-0.029492330,0.718013410,9.663406370,-0.090715300,-0.006632510,0.026941300
1640836992.797920,-0.461390610,0.357406170,10.744169240,0.002826750,-0.041010970,0.031289460
1640836992.800370,-0.053674180,0.547921120,9.036231990,0.204834360,-0.052557890,-0.018511710
1640836992.803110,-0.374439030,0.940664890,9.620573040,0.179876390,-0.059762600,-0.021865960
1640836992.805130,-0.478721590,1.098414900,9.839326860,-0.025822220,0.048959260,0.014960770
1640836992.808159,-0.166125670,0.626106680,9.734863280,-0.104446720,-0.025016070,0.025059280
1640836992.810030,-0.200211350,0.178668320,10.092288020,0.038412210,-0.068122160,0.023376950
1640836992.812899,0.110235910,0.283456120,9.313970570,0.159943100,-0.019331280,0.016935170
1640836992.815160,0.108920130,0.603004340,9.462839130,0.076358020,0.005596880,0.015759470
1640836992.817900,-0.087868240,0.271439820,9.909315110,-0.074669730,-0.019940730,0.037431720
1640836992.820030,0.034395760,-0.023602560,9.825619700,-0.064636770,-0.065508480,0.033597650
1640836992.823230,0.082097600,-0.143484590,9.184596060,0.095058970,-0.008445980,-0.002543630
1640836992.827000,-0.071796150,0.157733250,9.586524010,0.131987020,-0.021784010,-0.015088910
1640836992.828050,-0.213650440,0.725082460,9.777120590,0.020031630,0.026413800,0.005669890
1640836992.830080,-0.297851920,0.384341980,9.456965450,-0.077076260,-0.032436850,0.012874610
1640836992.832970,-0.460936490,-0.122599550,10.074424740,0.012856720,-0.084120040,0.014884770
1640836992.835559,-0.354779360,0.165065300,9.139735220,0.194649400,-0.002941490,-0.005532800
1640836992.837900,-0.231009900,0.285446820,9.170289990,0.133363900,-0.045840450,-0.019803640
1640836992.840330,-0.238564280,0.447951320,10.026269910,-0.045445550,0.046120580,0.018666680
1640836992.842960,-0.043364220,-0.064741000,9.556494710,-0.024399160,0.033235550,0.003394480
1640836992.845640,-0.197114770,-0.719372390,10.338336940,0.158245860,-0.147877630,0.001968440
1640836992.848179,-0.263382230,0.006472970,9.404120450,0.272157790,-0.072456900,-0.004567210
1640836992.850050,-0.128605310,0.285860780,8.629853250,0.080804530,-0.033105910,-0.018583240
1640836992.852890,-0.379519080,0.198469310,10.284298900,-0.087487680,0.008529430,0.012604890
1640836992.855090,-0.365190770,0.158561840,10.111014370,0.072899470,0.016173720,-0.018914040
1640836992.857970,-0.158002750,0.270621180,9.719798090,0.260634750,-0.178891420,-0.042514510
1640836992.860489,-0.382049290,1.111864810,9.693582530,0.210331430,-0.089105960,-0.007595120
1640836992.862880,-0.266231780,1.213604210,9.048959730,-0.028830770,0.029186910,-0.004918870
1640836992.865090,-0.395491570,0.495796050,10.254563330,-0.081393130,-0.073461240,0.017111000
1640836992.867940,-0.532537400,0.285244670,10.421875000,0.152450800,-0.115098080,0.007700920
1640836992.870030,0.085597660,0.505422830,8.805337910,0.235569520,-0.098836440,-0.024314220
1640836992.872890,-0.083479230,0.746787910,9.750149730,0.041012470,-0.045005970,0.014241040
1640836992.875160,-0.259755820,0.522670510,10.535964970,-0.116345280,0.018157060,0.015677510
1640836992.877920,0.033754720,0.036841080,9.723920820,-0.021378700,-0.136868660,-0.007550420
1640836992.880129,-0.186859240,0.213030030,9.958415030,0.171929570,-0.214971590,-0.007735190
1640836992.882920,0.024606280,0.972618940,8.918552400,0.113920870,0.008863210,-0.021101530
1640836992.885049,0.067782920,1.114980700,9.371195790,-0.103150320,-0.020240250,-0.005269050
1640836992.887869,-0.331675980,0.713319540,11.061573980,-0.136889520,-0.058582430,0.030671060
1640836992.890349,0.047984030,0.473107870,9.454315190,0.038164850,-0.079475350,0.001159310
1640836992.892930,-0.173678560,0.569895740,9.582558630,0.137247120,-0.194245560,-0.013203920
1640836992.895069,-0.452603040,0.838918980,9.643136980,-0.008554760,-0.036272400,0.020214920
1640836992.898120,0.077527720,0.483486000,8.710656170,-0.172381090,-0.009728970,0.021854040
1640836992.901209,-0.090749870,-0.241586520,10.433918000,-0.102725630,-0.034932800,0.001762810
1640836992.902910,0.081437010,-0.321255030,10.004611020,0.096510350,-0.022014980,-0.010962780
1640836992.905069,0.148896570,0.060410500,9.440245630,0.140853230,-0.162467360,-0.024102630
1640836992.908069,-0.163296860,0.221738380,9.571794510,-0.058174140,-0.088980790,0.001093750
1640836992.910060,0.051605850,-0.018500630,9.097150800,-0.164505810,-0.002120440,0.009161230
1640836992.913280,-0.123307790,-0.275314000,9.955331800,0.009219350,-0.007665160,-0.029248000
1640836992.915419,-0.099574050,0.088631560,9.826459880,0.172117350,-0.063936410,-0.035107140
1640836992.917909,-0.121292760,0.879822190,9.650139810,0.104127820,-0.106464330,-0.014865400
1640836992.920169,-0.178126320,0.754130840,9.245493890,-0.104793930,-0.015765430,0.007028880
1640836992.923030,-0.336737930,0.081099320,9.965653420,-0.111812380,-0.072817500,0.011076030
1640836992.926149,-0.464947520,0.065429990,10.009334560,0.136156400,-0.049078470,-0.011682510
1640836992.928000,-0.090557330,0.261092510,8.954758640,0.186063360,-0.091595950,-0.046268110
1640836992.930369,-0.310517490,0.730595470,10.154397010,-0.004427140,-0.067652760,-0.004304950
1640836992.934700,-0.213487910,0.471508860,9.670413970,-0.147341160,0.041526560,-0.014621020
1640836992.935320,-0.133440020,-0.262741510,10.048966410,-0.023515530,-0.170440970,-0.028128930
1640836992.937889,-0.325483230,0.239452850,10.168292050,0.188896070,-0.103048980,-0.015291570
1640836992.940050,0.170276390,0.711891650,8.537731170,0.108087060,-0.030279170,-0.049631310
1640836992.943230,-0.208065170,0.875164270,10.425255780,-0.127248480,-0.067640840,0.007292630
1640836992.945720,-0.222591650,0.784385380,10.217050550,-0.152528300,-0.004756450,0.017969310
1640836992.947909,0.230623660,0.147273150,9.349443440,0.035986310,-0.159038600,-0.023129580
1640836992.950029,-0.254266320,0.663072710,10.262634280,0.148877500,-0.082735720,-0.025071210
1640836992.952930,-0.123329500,1.083789350,9.154065130,-0.010718410,0.010183460,-0.022342800
1640836992.955060,-0.239565190,0.567389430,10.029590610,-0.212374330,-0.112767520,0.005236270
1640836992.958289,-0.377020000,0.221327290,10.299758910,-0.132869170,-0.078614060,0.009845200
1640836992.960140,0.241835820,-0.033028450,8.747470860,0.060352690,-0.045983490,-0.042629240
1640836992.964020,-0.093089950,0.336482730,9.956940650,0.076107670,-0.056546920,-0.035916270
1640836992.965819,-0.104084630,0.583803000,10.020578380,-0.089295210,-0.001063940,0.004184250
1640836992.968010,0.107211910,-0.074813580,9.560024260,-0.172643380,-0.082656740,0.008420650
1640836992.970059,-0.110273060,-0.421964880,10.072106360,-0.023555760,-0.112572330,-0.009515880
1640836992.972880,0.026194630,-0.071410240,9.274315830,0.116229080,-0.033444170,-0.020810960
1640836992.977500,0.150449040,0.381011130,9.116018300,0.018982590,-0.014761090,-0.039328630
1640836992.978999,-0.091521760,0.348112200,10.199843410,-0.129529800,0.009247660,-0.008448960
1640836992.980090,-0.106998180,-0.013701200,10.101135250,-0.084154310,-0.036978730,-0.003136690
1640836992.982930,-0.170425370,-0.045299600,9.452455520,0.109124170,-0.137880430,-0.036716450
1640836992.985060,-0.333900780,0.212220240,9.350546840,0.124540930,-0.097431250,-0.026907030
1640836992.987880,-0.335394530,0.466637730,9.348501210,-0.043809410,0.045427680,-0.024199480
1640836992.990049,-0.301199080,-0.035739000,10.001354220,-0.081311170,0.016513470,-0.031048060
1640836992.993569,-0.412769760,-0.355345250,10.669470790,0.061085830,-0.121994340,-0.025346880
1640836992.995530,-0.121896360,0.178677080,9.296537400,0.174295920,-0.102187700,-0.030684470
1640836992.997920,-0.069046750,0.236210510,9.170911790,0.059843070,-0.055643920,-0.021861500
1640836993.002240,-0.364463690,0.257841410,10.396044730,-0.072996320,0.007224080,0.005908310
1640836993.002900,-0.111009720,0.117809990,9.854509350,0.021834670,-0.047113000,-0.021688640
1640836993.005139,0.010592130,0.147474330,9.849933620,0.141349450,-0.158330810,-0.033697490
1640836993.008040,0.008547020,0.955155850,9.727928160,0.103801500,-0.020521880,-0.011953710
1640836993.010380,0.001648730,1.006510620,9.675222400,-0.038085880,0.009866060,-0.026878720
1640836993.012940,-0.342451780,0.634221320,10.610620500,-0.081713490,-0.112873320,-0.004531440
1640836993.015080,-0.242116760,0.594949600,9.831239700,0.073830780,-0.105063620,0.005280970
1640836993.017949,-0.104738970,0.532458420,9.155101780,0.120611500,-0.073935090,-0.032292310
1640836993.020040,-0.321566910,0.800931270,10.089033130,-0.012816490,-0.048798320,0.001586970
1640836993.022899,-0.124099410,0.643089230,9.995710370,-0.115233680,0.006067750,0.011140110
1640836993.027690,0.168943780,-0.055379720,9.699394230,-0.057561700,-0.064583120,-0.014154620
1640836993.028440,-0.165172410,0.008049280,10.595435140,0.105306510,-0.108173500,-0.022043290
1640836993.030930,-0.048113250,0.497809140,9.468762400,0.092968350,-0.053176280,-0.034822520
1640836993.032950,0.096621940,0.523474510,9.109752660,-0.101551440,-0.105765480,-0.012017790
1640836993.035090,0.036639250,0.300736640,10.281524660,-0.144372880,0.025130810,0.011187790
1640836993.037920,0.336512830,0.024858280,9.489671710,0.021022550,0.084765250,-0.013084710
1640836993.040530,-0.012458580,0.145713370,10.436112400,0.158280150,-0.138126310,-0.030119710
1640836993.043030,-0.262331400,0.705594120,9.881934170,0.039751840,-0.065629200,-0.006498400
1640836993.045169,0.130685180,0.358368810,8.380702970,-0.146013510,-0.040151180,0.007960200
1640836993.047930,-0.237585480,-0.319314450,10.314273830,-0.080619750,0.023572150,-0.013071300
1640836993.050040,-0.143067780,-0.170441270,9.965488430,0.127877310,0.077082220,-0.047074260
1640836993.052909,0.093362130,0.134064110,9.603950500,0.172062220,-0.098457940,-0.054955490
1640836993.055719,-0.243957010,0.218361210,10.241909980,-0.001463290,-0.030818580,-0.017330050
1640836993.059280,-0.162210290,-0.023100090,9.307312970,-0.091816510,0.003685060,-0.001794100
1640836993.060160,-0.273531820,-0.469937680,9.753137590,0.072373460,-0.066649910,-0.021931530
1640836993.063059,-0.211642190,-0.116647370,9.577980040,0.210224110,-0.000804660,-0.041839480
1640836993.065110,-0.024856880,0.604356290,9.648941040,0.125178680,0.040902190,-0.042545790
1640836993.067979,-0.162109660,0.480630640,10.391616820,-0.025454170,0.032269950,-0.023983420
1640836993.070020,-0.160173700,0.118584870,10.274762150,0.007785860,-0.095032150,-0.004647670
1640836993.072960,-0.074959540,0.274661570,9.614730830,0.192713750,-0.067450110,-0.018672640
1640836993.076380,-0.057103270,0.418934080,9.108504300,0.187768040,0.021459160,-0.036361820
1640836993.077910,-0.449016210,0.703327480,10.498070720,0.036698580,0.000905990,-0.015036760
1640836993.080050,-0.314795640,0.621953130,10.088438030,-0.020198530,-0.013053420,-0.016014280
1640836993.082939,0.042584460,0.103235970,9.498024940,0.059933970,-0.119332990,-0.021079180
1640836993.085090,-0.203476890,0.547651890,10.301139830,0.166179220,0.004339220,-0.026294590
1640836993.087989,-0.093435430,0.788930890,9.506021500,0.097082580,0.057055060,-0.037455560
1640836993.090099,-0.295113650,0.403140340,10.545543670,-0.021511320,-0.130067780,-0.000956650
1640836993.093030,-0.209993690,0.390280460,9.972912790,0.016337630,-0.031870600,0.009751320
1640836993.095130,0.253855680,0.103813500,8.754793170,0.106883050,-0.026562810,-0.014452640
1640836993.097880,-0.143043320,0.507511560,10.521329880,0.098596530,-0.002749260,-0.013278430
1640836993.100070,0.137133850,0.828732730,9.690902710,0.003625450,0.068534920,-0.009170170
1640836993.102939,0.259985600,0.126043900,9.875358580,-0.023989380,-0.082893670,-0.000193720
1640836993.105450,-0.279936580,0.119710400,10.753871920,0.088012220,-0.022131200,-0.007732210
1640836993.108170,-0.009657330,0.396593480,8.833373070,0.131571310,-0.033590200,-0.028257070
1640836993.110070,-0.136066760,0.324483280,9.545447350,0.027266150,-0.070168080,-0.015771390
1640836993.113000,-0.193224360,0.289599750,10.003273960,-0.046725570,0.144170210,-0.014607610
1640836993.115860,-0.044538880,-0.166079150,9.944150920,0.059251490,0.020761790,-0.031603880
1640836993.117879,-0.355706210,-0.148118810,10.661477090,0.186459760,-0.135229530,-0.026731190
1640836993.120119,-0.123327670,0.258240730,9.045557980,0.128699820,-0.034910430,-0.013016160
1640836993.122990,-0.003372720,0.102590810,9.115830420,-0.012579560,0.029318030,-0.017476080
1640836993.125759,-0.302860440,-0.196411430,10.536761280,0.027884550,0.086718820,-0.020577010
1640836993.129660,-0.026788290,0.001258850,10.046412470,0.188586100,-0.040498370,-0.040128830
1640836993.130180,0.112196530,0.546418010,9.556091310,0.202000160,-0.080497560,-0.044664740
1640836993.132890,-0.052003390,0.624934380,9.686825750,0.056092450,0.023120640,-0.014451150
1640836993.135110,-0.284074990,0.455915090,10.270619390,-0.001679360,0.028043990,-0.016058980
1640836993.137980,-0.371138540,0.218935310,9.992601390,0.138403490,-0.052414830,-0.037330390
1640836993.140090,-0.201819580,0.441760900,9.741284370,0.205330600,-0.084339080,-0.055937480
1640836993.142989,-0.157588720,1.033260580,9.699520110,0.101177410,0.070139770,-0.033846500
1640836993.145910,-0.125635950,0.692975340,9.941329000,-0.019668040,0.029033420,-0.038363040
1640836993.147910,-0.300495590,0.361233260,10.876081470,0.016796590,-0.073367360,-0.029584770
1640836993.150169,-0.019438430,0.486970750,9.539711950,0.166305870,-0.021971760,-0.035114590
1640836993.153020,0.012232200,0.420490980,9.658065800,0.153911130,-0.052757560,-0.042679910
1640836993.155229,-0.148138790,0.952065940,10.267342570,-0.008833410,0.052309030,-0.013266500
1640836993.158160,0.292748510,0.634362760,9.516706470,-0.076600900,0.039897850,-0.017614660
1640836993.160120,0.192842420,0.007175890,10.503235820,0.030687450,-0.031019750,-0.021372740
1640836993.162920,0.064700250,0.501183330,10.059909820,0.181473810,0.036072730,-0.032925620
1640836993.165140,0.029641460,0.601449850,9.407338140,0.098049650,-0.049154460,-0.055357810
1640836993.168510,-0.236544100,0.692997630,9.976840020,-0.108908120,-0.023435060,-0.015720730
1640836993.170110,-0.046447750,0.563451530,9.484390260,-0.104843090,0.104604680,-0.023308400
1640836993.172930,0.030661570,-0.045112380,9.984642030,0.062246630,0.060148540,-0.054584450
1640836993.175680,-0.261557460,0.331811520,10.568729400,0.177405800,-0.003404920,-0.051784530
1640836993.178360,-0.043029940,0.678689420,9.328330990,0.062838200,-0.000588600,-0.037026410
1640836993.180070,-0.026123190,0.085151220,9.431287770,-0.130948420,0.011064110,0.000606480
1640836993.182910,-0.361185760,-0.258573620,10.467057230,-0.049884630,0.078214720,-0.022830070
1640836993.185259,-0.012300750,-0.205324190,9.493238450,0.144825880,0.051444770,-0.070431840
1640836993.187889,-0.048847980,0.165740700,9.804142000,0.167529280,-0.039577480,-0.059466060
1640836993.190379,-0.186953510,0.613328520,10.146511080,-0.005498530,0.095447920,-0.040388120
1640836993.193019,0.027781430,0.277689370,9.543249130,-0.101405400,0.070114430,-0.037620970
1640836993.195160,-0.405514480,-0.017957200,10.754069330,0.065162790,-0.065113610,-0.033089520
1640836993.197870,-0.253354280,0.512727140,9.678873060,0.189799070,0.035560130,-0.058108570
1640836993.200369,-0.093901640,0.931342070,9.097581860,0.071769960,0.023862720,-0.066681210
1640836993.202980,-0.514258980,0.881248710,10.808741570,-0.086122750,0.064378970,-0.025668740
1640836993.205109,-0.155958880,0.573563160,9.952317240,-0.071594130,0.053030260,-0.034007440
1640836993.208030,-0.044977150,0.390632090,9.882898330,0.098465390,-0.072926270,-0.050260130
1640836993.210080,-0.234040860,0.537346540,10.281727790,0.120517630,0.030271710,-0.040049850
1640836993.212890,-0.012280010,0.704617740,9.476266860,-0.020276010,0.077256560,-0.034427650
1640836993.215590,-0.193036350,0.264525120,10.460938450,-0.100015100,-0.025197860,-0.015090410
1640836993.217919,-0.052506930,-0.030253550,10.169227600,-0.024242700,0.020484630,-0.013726950
1640836993.220080,0.217823030,0.242057840,9.298129080,0.094702830,0.020174680,-0.046280020
1640836993.223080,-0.123926710,0.451013360,10.289473530,0.042136020,0.035183130,-0.045579680
1640836993.225160,-0.147926080,0.668469190,10.058667180,-0.083075470,0.043955450,-0.015802680
1640836993.228070,-0.136040340,0.438752590,9.940670010,-0.062802430,-0.020492080,-0.012061000
1640836993.230059,-0.214091110,0.189210330,10.021175380,0.024861100,0.008927290,-0.025299190
1640836993.232960,-0.119238790,0.729905250,9.595291140,0.060626870,0.035648040,-0.024458760
1640836993.235630,-0.032860140,0.693274740,9.657688140,-0.021110480,0.071246940,-0.022053720
1640836993.237880,-0.026444620,0.160495940,10.197599410,-0.088880960,0.070163610,-0.008383390
1640836993.240249,-0.172084150,-0.029365780,10.529753680,0.016912820,-0.004526970,-0.006301700
1640836993.245040,0.024548190,-0.197185980,9.325621600,0.095705690,-0.022166970,-0.033648300
1640836993.245800,-0.001455770,0.004668210,9.496503830,0.036454200,0.007586180,-0.011672080
1640836993.248040,-0.072103890,0.115539010,9.921351430,-0.045683990,0.185979930,-0.022661690
1640836993.250130,-0.020557490,-0.338718830,10.083093640,-0.016136470,0.045594580,-0.041216620
1640836993.252910,-0.376641960,-0.059795900,10.598930360,0.134991120,-0.089627500,-0.020135940
1640836993.255100,-0.121997620,0.466932360,8.797764780,0.121806560,0.038848820,-0.043289370
1640836993.258220,-0.228627400,0.382380550,9.545948980,-0.019505620,0.038163370,-0.021860000
1640836993.260170,-0.686240490,0.472691180,11.010478970,-0.012303890,0.119982660,-0.019977990
1640836993.262920,-0.111374100,0.297853620,9.497756960,0.092123440,0.004504620,-0.052435690
1640836993.265630,-0.177594080,0.465894550,10.176682470,0.159619790,-0.096927590,-0.015810130
1640836993.268740,-0.111141740,0.774528210,9.574489590,0.060260300,0.141286860,-0.015725200
1640836993.270079,0.028001950,0.214537020,9.674206730,-0.033499300,0.036975730,-0.022375580
1640836993.272920,-0.494869890,-0.005556580,11.207999230,0.053156910,-0.048196320,-0.015050170
1640836993.275339,0.091705650,0.166455880,9.044468880,0.146669160,0.010615590,-0.058914720
1640836993.278859,0.100220550,0.536658700,9.578522680,0.085932020,-0.003424290,-0.051362820
1640836993.280150,-0.377641590,0.900317250,10.937971120,-0.051479040,0.122073300,-0.023052090
1640836993.282909,0.047097870,0.696410660,9.757860180,-0.053818530,0.026543440,-0.029601160
1640836993.285100,-0.211192580,0.577368970,10.489761350,0.079798680,-0.106126070,-0.029668210
1640836993.287900,-0.210858880,1.023687480,9.622940060,0.099723040,0.042214990,-0.025327500
1640836993.290340,0.017522860,1.214171530,9.261354450,-0.041711320,0.043731930,-0.026060640
1640836993.292990,-0.310029980,0.868971350,10.826085090,-0.153511750,0.040382150,-0.005595390
1640836993.295440,0.209712160,0.382881700,9.989363670,-0.059722370,0.073730950,-0.001333650
1640836993.298179,0.157023360,0.201413040,10.128542900,0.088644030,0.000500680,-0.044339900
1640836993.300109,-0.206009050,0.491860240,10.275992390,0.039751830,0.003091990,-0.044903160
1640836993.302909,-0.005229890,0.578095140,9.346189500,-0.146350260,0.010418890,-0.006526710
1640836993.305090,-0.090961130,0.018432620,9.806700710,-0.172401980,0.051943960,-0.010298190
1640836993.308280,-0.057452730,-0.248294770,10.052807810,-0.006461140,0.089193870,-0.029902160
1640836993.310160,-0.022736360,0.256283040,10.190805440,0.120605550,0.042007860,-0.037181380
1640836993.313160,-0.085196340,0.592153790,9.854372020,-0.011913480,0.021946430,-0.023610890
1640836993.318519,-0.149731260,0.474140940,10.080503460,-0.180520090,0.015753510,0.014346840
1640836993.319120,-0.274666910,0.022586320,10.009791370,-0.096450730,0.064188230,0.002585350
1640836993.320129,-0.109020120,-0.240141290,9.427929880,0.116635860,0.010502340,-0.049230460
1640836993.322980,-0.164585590,0.399854120,9.940578460,0.133061410,0.031445920,-0.034570690
1640836993.325440,-0.092553970,0.647723080,9.561574940,-0.065112110,0.140906870,-0.025327510
1640836993.328070,-0.145085920,-0.081256520,10.424829480,-0.164964810,-0.010274350,-0.020946560
1640836993.330230,-0.405148920,-0.171804530,10.629405020,0.037901100,-0.014582280,-0.017590820
1640836993.332899,-0.071406980,-0.044647190,8.864573480,0.191049280,0.003857910,-0.063136220
1640836993.335240,-0.331447960,0.393615720,10.269221310,0.066120920,0.034262240,-0.043477120
1640836993.337900,-0.485906090,0.738379720,10.371394160,-0.099258140,0.135172920,-0.008107720
1640836993.340099,-0.108302940,-0.010297240,9.902993200,-0.066919630,-0.061064960,-0.035680830
1640836993.343060,-0.335141960,0.249733600,10.570263860,0.121729090,-0.055421890,-0.030787290
1640836993.345229,0.012333900,0.740768070,8.976563450,0.154325370,0.081902760,-0.039817400
1640836993.348340,-0.166173190,0.679124120,10.235931400,-0.022180380,0.013126430,-0.038175290
1640836993.350100,-0.435211600,0.793596570,11.002188680,-0.114043060,0.027175250,0.009049480
1640836993.352900,0.233901110,0.282016100,9.218642230,-0.008006390,-0.035378340,-0.014406450
1640836993.355110,-0.056864320,0.269227800,10.345877650,0.118565570,-0.018537050,-0.023958090
1640836993.358219,-0.334018020,0.836790320,10.168597220,0.066640980,0.080572050,-0.029313560
1640836993.360299,-0.104800370,0.593256240,9.650773050,-0.078174470,-0.032687190,-0.015631320
1640836993.363620,-0.464175820,0.175114110,10.657207490,-0.091050590,-0.050812970,0.001339610
1640836993.365140,-0.116488800,0.260607450,9.513039590,0.038629770,0.031407180,-0.029905140
1640836993.367930,-0.000115020,0.421816590,9.769767760,0.073228780,-0.003796820,-0.044493370
1640836993.370110,-0.164105400,0.608203230,10.523176190,-0.024078790,0.046907370,-0.016780200
1640836993.372990,0.210734530,0.390817220,9.849845890,-0.084181130,0.036445260,-0.000295040
1640836993.375470,0.052564900,-0.149452340,10.291266440,-0.000217560,-0.042845310,0.000232460
1640836993.378719,-0.152957720,0.058778610,9.801477430,0.095160310,-0.040438770,-0.012286010
1640836993.380740,0.109265220,0.337944780,9.025341990,0.036016110,0.003202260,-0.008596480
1640836993.382890,-0.039876810,0.069750090,9.870811460,-0.065630670,0.103361930,-0.009740890
1640836993.385160,-0.276880120,-0.202752830,10.776657100,-0.007703900,0.063681610,-0.012622780
1640836993.387920,-0.281461600,-0.098348630,10.256547930,0.134609650,-0.072692330,-0.044250490
1640836993.390300,-0.308488880,0.218051750,9.294642450,0.119154160,-0.102424620,-0.034639240
1640836993.393020,-0.297737900,0.469451870,9.503234860,-0.027515000,0.050519420,-0.019083920
1640836993.395200,-0.230841800,0.196975400,9.800756450,-0.039309260,0.156879410,-0.035545220
1640836993.397920,-0.259622840,-0.051954440,10.665431020,0.118817390,-0.054249170,-0.036887820
1640836993.401010,0.047360420,0.448656650,10.061204910,0.211289540,-0.062128890,-0.023661550
1640836993.402910,0.199208990,0.524577320,8.901307110,0.076612840,0.027456880,-0.017160180
1640836993.405110,-0.144666660,0.204381420,10.561021800,-0.059165070,0.028096150,-0.006778540
1640836993.408110,-0.263781580,0.102946360,10.395112990,0.049622360,0.056763000,-0.016520920
1640836993.410280,-0.027263010,0.006789290,9.553890230,0.188069060,-0.120562310,-0.047746300
1640836993.413910,-0.232731310,0.680749180,10.180255890,0.146661700,-0.005233290,-0.025241080
1640836993.415109,-0.254569740,0.961440320,9.475162510,-0.022290650,0.109335790,-0.032712520
1640836993.417879,-0.508789840,0.428631750,10.736242290,-0.066401060,-0.072555250,-0.030481820
1640836993.420110,-0.626562420,0.539505420,10.605749130,0.105699900,-0.058572000,-0.023476780
1640836993.422910,-0.083121910,0.771541060,8.869548800,0.167955470,-0.046281520,-0.048699980
1640836993.426720,-0.210416080,1.063547130,10.313945770,0.008969010,0.023755430,-0.025106970
1640836993.427919,-0.070877920,1.138930440,10.380773540,-0.131638360,0.103610750,-0.000475350
1640836993.430199,0.311402260,0.422662080,10.122976300,-0.059922040,-0.069437930,-0.018021470
1640836993.432880,0.047878810,0.301535280,10.631600380,0.094327320,-0.075711300,-0.030818580
1640836993.435170,0.141174210,0.770365830,9.161752700,0.083471830,0.000803170,-0.036595770
1640836993.437870,0.059394600,0.727953020,9.617070200,-0.116263350,-0.030633810,-0.009165710
1640836993.440220,-0.090148640,0.425148190,10.461059570,-0.189009340,0.055404020,0.009268530
1640836993.445560,0.150627460,0.094191420,9.865950580,-0.034187730,0.040398540,-0.018458060
1640836993.446770,-0.157204660,0.166526360,10.460476880,0.111223780,-0.069525850,-0.037673120
1640836993.447909,-0.327136750,0.697921220,9.912879940,0.024122000,-0.030781330,-0.018541510
1640836993.450080,-0.115433440,0.724150960,9.182448390,-0.189812530,-0.011225050,-0.012315810
1640836993.452910,-0.147026270,0.125137910,10.004014020,-0.188981010,0.047566000,-0.006183980
1640836993.455210,-0.031139440,0.096267450,10.162514690,0.028257070,0.069656980,-0.035287440
1640836993.458300,0.130828170,0.560744760,9.893803600,0.104181490,-0.025324530,-0.037343800
1640836993.461910,0.000835500,0.498658900,10.033811570,-0.058197990,-0.028282410,-0.004065040
1640836993.463420,-0.063801800,0.151518290,9.942410470,-0.192774850,0.022603570,0.016948580
1640836993.465119,-0.074842520,-0.368430260,9.745514870,-0.065536800,0.027818980,-0.014403470
1640836993.467949,-0.154145140,-0.328996570,9.987433430,0.097124300,-0.012360520,-0.035811960
1640836993.470100,-0.155162380,0.533872430,9.957723620,0.051116940,0.042264160,-0.024178620
1640836993.473830,-0.118526050,0.458520290,9.820677760,-0.115118940,0.036169590,-0.017571450
1640836993.475319,-0.412404690,0.187071770,10.691920280,-0.139927880,-0.044697530,-0.006091590
1640836993.477939,-0.333219710,0.443713280,9.892592430,0.039827820,-0.015106800,-0.025103990
1640836993.480660,-0.185616510,0.654488500,9.455805780,0.082184380,-0.044946370,-0.038462880
1640836993.482950,-0.404090170,1.205961590,10.440879820,-0.074644390,0.034032770,-0.007982550
1640836993.485159,-0.096787800,1.031792280,9.847499850,-0.183781980,0.058396170,0.002059340
1640836993.487900,0.088866400,0.143809900,10.398032190,-0.092241170,-0.083376460,0.011236970
1640836993.490219,-0.012598940,0.491331990,10.413310050,0.065670910,0.021968780,0.000980500
1640836993.493029,0.131876190,0.597038390,9.466974260,0.000205640,-0.004260240,-0.011050700
1640836993.495270,-0.168084740,0.350573720,10.611916540,-0.187240560,-0.049220040,0.026905540
1640836993.497890,-0.079237130,0.305778260,9.920580860,-0.177262720,0.043356420,0.020287930
1640836993.500100,0.288056580,-0.213965730,9.533797260,-0.028936570,-0.014747680,-0.010104480
1640836993.502910,-0.212113280,0.346191670,10.709585190,0.036360320,0.026810170,-0.022573770
1640836993.505169,-0.057351040,0.997332570,9.628060340,-0.080956520,0.021404030,-0.017844140
1640836993.508230,-0.031194040,0.434619750,9.968294140,-0.225116310,-0.079971540,0.022619960
1640836993.510150,-0.291577130,0.321750490,10.379193310,-0.135576740,0.029599670,0.024528800
1640836993.512900,0.183692490,0.308772770,9.213356020,0.019574160,0.040400020,-0.010770560
1640836993.515169,0.090719130,0.408398630,10.118268010,-0.002741810,0.008681420,0.011605030
1640836993.517920,0.038949030,0.507049260,10.268209460,-0.136655540,0.099669400,0.041306010
1640836993.520330,0.281033040,-0.240904260,9.786293980,-0.160233690,0.016517940,0.036647920
1640836993.522910,-0.207613650,-0.531882170,10.428045270,-0.010596220,-0.079819580,0.026491290
1640836993.525560,0.000220580,-0.104337040,9.101298330,0.058980290,0.031514470,-0.007033350
1640836993.527930,0.119724950,0.098554980,9.293951990,-0.060477850,0.100570920,-0.010594730
1640836993.530089,-0.451712400,0.012949700,11.086368560,-0.115451200,0.108787410,0.012949110
1640836993.532920,-0.223103730,0.028695150,10.244057660,-0.018440190,-0.036883350,-0.005546210
1640836993.535250,-0.258570520,0.355581220,9.412056920,0.079572210,-0.102268180,-0.004489720
1640836993.537979,-0.322142810,0.552173260,9.477027890,0.008913870,0.056658690,0.028613210
1640836993.540140,-0.280995400,0.479582640,10.150671960,-0.074285280,0.150366130,0.024704640
1640836993.543010,-0.340602220,0.161594350,10.609125140,-0.005061920,-0.017802420,0.017894810
1640836993.545400,0.091695970,0.111684840,10.025279050,0.076512990,-0.091004370,0.029437250
1640836993.547870,0.237122300,0.485442340,9.371339800,0.042431060,0.085914140,0.020721550
1640836993.550109,-0.004452330,0.355703060,10.082226750,-0.060762480,0.071045760,0.016450880
1640836993.552919,-0.309892510,0.185648530,10.955177310,-0.058762720,-0.017292800,0.028188520
1640836993.555090,-0.132390340,0.294341090,9.502037050,0.053173310,-0.049400340,0.005733970
1640836993.558169,-0.125267390,0.446411130,9.626628880,0.055643920,-0.033484400,0.012946130
1640836993.560190,-0.331891180,0.966890510,10.381199840,-0.059756650,0.120191280,0.032599270
1640836993.562929,-0.175147410,0.775882240,10.127423290,-0.117716190,0.048366190,0.020182130
1640836993.565130,-0.249344110,0.335344790,10.903748510,-0.036953380,-0.087012340,0.043013690
1640836993.568310,-0.057447680,0.630688970,9.651959420,0.066748250,0.012180210,0.034782280
1640836993.570140,0.089714990,0.621461690,9.269057270,-0.007091460,-0.002163650,0.012527410
1640836993.572919,-0.017577500,0.682627920,10.365270610,-0.161103890,0.043304260,0.049613420
1640836993.577420,0.383920610,0.411352250,9.679036140,-0.144603860,0.111302740,0.046402220
1640836993.579229,0.338920440,-0.318325460,10.490584370,0.008802110,0.005215410,0.027278070
1640836993.580099,-0.084574940,0.033976640,10.643974300,0.099910800,0.002199410,0.036410990
1640836993.582870,0.007027270,0.329219610,9.084365840,-0.026515130,-0.012844800,0.029218200
1640836993.585270,-0.031651950,0.076860680,9.650374410,-0.198507310,0.017975270,0.043371320
1640836993.587900,-0.217656140,-0.009786190,10.119708060,-0.115868470,0.180347260,0.043806440
1640836993.590099,-0.041467450,-0.088616510,9.961119650,0.096365820,0.059616570,0.000149010
1640836993.594920,-0.224532560,0.423765030,10.370754240,0.126716510,-0.057777770,0.018963220
1640836993.595600,-0.139727620,0.875899670,9.347567560,-0.066290800,0.048282750,0.059534610
1640836993.597900,0.080354870,0.158704680,9.468755720,-0.181190670,0.098952670,0.063677130
1640836993.600580,-0.333584250,-0.293354210,10.794769290,0.006642940,0.086249410,0.037693980
1640836993.602939,-0.003330190,0.111267180,9.890316960,0.196345170,0.017605720,0.028941040
1640836993.605160,0.268774690,0.371549430,9.344340320,0.094571710,0.025413930,0.035519890
1640836993.608219,-0.158479140,0.385068120,10.278348920,-0.117240830,0.107769680,0.062942490
1640836993.610159,-0.083544190,0.023556420,10.269988060,-0.107455250,0.080321740,0.057220460
1640836993.612919,-0.165057750,-0.174872040,10.060474400,0.118729470,-0.013823810,0.019341710
1640836993.615160,-0.249016030,0.519901040,9.959362030,0.179539590,0.003351270,0.018589200
1640836993.617930,-0.103878480,1.145971890,9.625826840,-0.014492870,0.141678770,0.039701170
1640836993.620110,-0.276127040,0.710168600,10.367686270,-0.150395940,0.074809790,0.056490310
1640836993.622880,-0.380368710,0.369231130,10.955972670,-0.035668910,-0.004871190,0.060221560
1640836993.625320,-0.138358590,0.569373790,9.532055850,0.158567730,0.010357800,0.036495930
1640836993.628010,-0.282454640,0.733433310,9.763406750,0.080068400,0.005236270,0.040443240
1640836993.630139,-0.316919650,0.974351820,10.353379250,-0.130830720,0.118604290,0.077523280
1640836993.633010,0.034883330,0.439288790,9.920481680,-0.161169480,0.067837540,0.063306100
1640836993.635140,0.006764610,-0.024009880,10.717421530,-0.001569090,-0.027011330,0.050590940
1640836993.637869,0.171681940,0.434622080,9.819334030,0.125621260,0.081039970,0.039748850
1640836993.642750,-0.001375750,0.584427180,9.639117240,0.006578860,0.015754990,0.024004280
1640836993.643329,-0.272626460,0.583467600,10.512578010,-0.189480190,0.004234910,0.079503660
1640836993.645870,0.004259250,0.311077240,9.486247060,-0.138168050,0.071010000,0.069513920
1640836993.648020,-0.032139320,0.029888370,9.806496620,0.030903520,0.029511750,0.024442380
1640836993.650420,-0.237021940,0.598439750,10.411703110,0.081913160,0.062723450,0.048781930
1640836993.653139,-0.089012810,0.713757930,9.681737900,-0.043666360,0.056716810,0.054889920
1640836993.655680,-0.232779100,0.112778340,10.231814380,-0.170749460,-0.004139540,0.070074210
1640836993.658560,-0.310766760,-0.211312280,10.148826600,-0.054846710,0.028453770,0.077997150
1640836993.660149,-0.012520590,-0.226627900,9.152671810,0.105242440,0.054489080,0.025419890
1640836993.663050,-0.026928490,0.111407410,9.935070040,0.050339100,0.056898600,0.026889150
1640836993.665910,-0.104320110,0.325705560,10.608671190,-0.085547550,0.114051980,0.069099670
1640836993.669469,-0.080988720,-0.199836490,10.565149310,-0.086215140,0.022254890,0.060383980
1640836993.670240,-0.480805610,-0.359616610,11.162324910,0.093238060,-0.096231690,0.048537560
1640836993.672910,-0.767637010,0.211742100,10.652847290,0.168234110,-0.030748550,0.039552150
1640836993.676299,-0.724610570,0.490854440,10.158050540,0.013378260,0.014020500,0.035254660
1640836993.677919,-1.126349690,0.383324330,11.534044270,-0.080107160,-0.013871490,0.060705840
1640836993.680179,-1.073138360,0.199833180,11.516567230,0.035057970,-0.073999170,0.057923800
1640836993.683080,-0.622797070,0.341844560,10.626187320,0.167168660,-0.157514210,0.041756040
1640836993.685600,-0.502570150,0.776649000,11.018980030,0.108239060,-0.096592300,0.065471230
1640836993.687990,-0.239048810,0.766383110,11.489613530,-0.052703910,0.026266270,0.077213340
1640836993.690250,0.106174360,0.471269190,11.650598530,-0.059731300,-0.060048700,0.074058780
1640836993.693179,0.119291620,0.247544020,11.919175150,0.095549230,-0.212433960,0.075513130
1640836993.695180,0.177791520,0.610153260,10.873251910,0.136114660,-0.152064830,0.054700670
1640836993.698320,0.012251530,0.930432440,10.390808110,-0.004370510,-0.087921340,0.062227260
1640836993.700240,-0.608835940,0.555621560,11.921860690,-0.106266150,-0.123342870,0.074961770
1640836993.702980,-0.831838730,0.237651410,12.015340810,-0.021269920,-0.156402600,0.064255300
1640836993.705220,-0.528687000,0.409816680,10.921836850,0.101861370,-0.195902620,0.050349540
1640836993.707929,-0.577571450,0.659189110,11.517245290,0.060015920,-0.147074460,0.043873490
1640836993.710760,-0.416051660,0.772763910,11.716511730,-0.099827340,-0.058799970,0.062048430
1640836993.713140,-0.006175890,0.435405550,11.369100570,-0.088563570,-0.126487020,0.074809800
1640836993.715250,-0.015282800,-0.122407060,11.842025760,0.066633530,-0.238683830,0.068525970
1640836993.717900,0.094622530,0.187236320,11.101327900,0.112557410,-0.190256550,0.053206090
1640836993.720180,0.274099800,0.552052020,10.427694320,-0.009857120,-0.143659130,0.051814320
1640836993.722900,0.081389470,0.165995790,11.698672290,-0.126585360,-0.098018370,0.041706860
1640836993.726889,-0.232741420,-0.200189020,12.338042260,-0.028818850,-0.128117200,0.030280660
1640836993.727919,-0.266788360,-0.167352910,11.531797410,0.169020910,-0.262686610,0.002881880
1640836993.730450,-0.528794230,0.226153400,11.104213710,0.155501100,-0.248858380,0.000087920
1640836993.733029,-0.670160170,0.452792470,10.995186810,-0.062087180,-0.137515380,0.018864870
1640836993.736199,-0.572134490,0.163338170,11.489303590,-0.099314760,-0.110213470,0.009101630
1640836993.737949,-0.587732490,-0.099581200,12.148784640,0.114814930,-0.202074650,-0.004020330
1640836993.740229,-0.282407730,0.291034220,11.481426240,0.234676940,-0.275462870,-0.005717580
1640836993.742900,-0.073028580,0.843487980,11.106724740,0.089967260,-0.219395760,0.022010510
1640836993.745400,-0.067289730,0.637882050,11.523468970,-0.087526450,-0.136844830,0.030766430
1640836993.748000,-0.096238300,0.159902190,11.975682260,-0.029036400,-0.201059890,-0.000360610
1640836993.750140,-0.104834580,0.284583240,11.807180400,0.175142300,-0.302852690,-0.026547910
1640836993.752879,-0.002073420,0.816562290,10.958317760,0.189827370,-0.250452760,-0.035226340
1640836993.755210,-0.080216710,1.082224850,11.108951570,-0.030282140,-0.179165620,-0.019679960
1640836993.758380,-0.324156370,0.836852370,12.056936260,-0.149518270,-0.187054250,0.004713240
1640836993.760150,-0.437997520,0.303391490,11.868709560,0.024597340,-0.259615420,0.006496910
1640836993.763069,-0.356374620,0.228816180,11.194176670,0.207771390,-0.329163760,-0.023314360
1640836993.765230,-0.526931170,0.783824560,11.164374350,0.103703150,-0.261917740,-0.020878020
1640836993.768720,-0.281541470,0.917305830,10.948999400,-0.134378670,-0.197078300,-0.012601910
1640836993.770520,0.145556910,0.241758840,11.359558110,-0.159925220,-0.178137470,-0.022888190
1640836993.772940,0.193573940,-0.003374610,12.095370290,0.070504830,-0.208590940,-0.051970780
1640836993.775240,0.093822210,0.453158860,11.646245960,0.213894260,-0.312970610,-0.069196520
1640836993.778350,0.130240870,0.849908470,10.673324580,0.022862850,-0.339071480,-0.031276050
1640836993.780279,0.160106750,0.548463880,10.463235860,-0.211045160,-0.195740160,-0.002425910
1640836993.783039,-0.009290170,-0.139892210,11.515326500,-0.105562810,-0.115999590,-0.036238130
1640836993.785220,-0.233177800,-0.123368890,11.979707720,0.168281790,-0.250922140,-0.084689270
1640836993.788100,-0.169342520,0.658476710,10.833089830,0.179634960,-0.346848340,-0.097958740
1640836993.790160,-0.285569700,0.712142170,10.691589360,-0.078690060,-0.252060590,-0.070096550
1640836993.793280,-0.540819940,0.131515860,11.494736670,-0.183951870,-0.164487930,-0.063346330
1640836993.796239,-0.522486980,-0.092856990,11.431237220,0.039945550,-0.257504020,-0.092154740
1640836993.798020,-0.251012890,0.247487660,11.133849140,0.210899110,-0.342786340,-0.124229510
1640836993.803360,-0.123400810,0.942866030,10.917458530,0.045782330,-0.187583310,-0.094109800
1640836993.803890,-0.071306830,0.856206000,11.247934340,-0.154830530,-0.206026410,-0.064609950
1640836993.805280,0.004384340,0.136720820,11.626405720,-0.090442610,-0.335908030,-0.077258050
1640836993.808080,0.176460420,0.178612650,10.823238370,0.120270240,-0.288257000,-0.100156660
1640836993.810240,0.312878760,0.737259270,10.748864170,0.143267230,-0.197142360,-0.127975640
1640836993.812980,-0.136976240,0.927682700,11.880479810,-0.064381960,-0.202415850,-0.116650750
1640836993.815590,-0.251430390,0.592919470,11.556371690,-0.183838610,-0.322371720,-0.098270200
1640836993.817910,0.134758340,0.260596870,10.529282570,-0.039884440,-0.305855210,-0.128357100
1640836993.820160,-0.036221220,0.450580300,10.699360850,0.116176930,-0.176164510,-0.156518820
1640836993.822919,-0.295791510,0.919762070,11.339576720,0.033432250,-0.202111930,-0.131894660
1640836993.825840,-0.314576570,0.793758690,11.453993800,-0.153690590,-0.277039440,-0.105141120
1640836993.827920,-0.058277990,0.206615160,10.728184700,-0.141058860,-0.289493830,-0.115036960
1640836993.831050,0.166213380,-0.108621870,10.787674900,0.029291210,-0.231057410,-0.142389510
1640836993.836470,0.140185390,0.374856890,11.083557130,0.078645330,-0.161147130,-0.171811880
1640836993.837190,0.278485180,0.712100800,10.898426060,-0.057210030,-0.202471030,-0.148706140
1640836993.837970,0.420070380,0.154336720,11.143188480,-0.171105560,-0.236168550,-0.132304430
1640836993.840340,0.249362920,-0.133842620,10.972809790,-0.052127250,-0.213715430,-0.153294210
1640836993.843040,0.078882860,0.070181950,10.556871410,0.123798850,-0.254806910,-0.170725580
1640836993.845170,0.156614050,0.379534900,10.242067340,0.038811560,-0.184625370,-0.180205700
1640836993.849150,0.035875390,0.417770360,10.791195870,-0.123345850,-0.096201900,-0.173540410
1640836993.850180,-0.170924530,0.005470380,11.587615970,-0.081564490,-0.154553370,-0.190067310
1640836993.853000,-0.130084140,-0.052005980,10.900753970,0.080354520,-0.258420410,-0.223830360
1640836993.855320,-0.168216600,0.243906440,10.226333620,0.131222620,-0.256629320,-0.224423440
1640836993.858000,-0.159380390,0.248214230,10.506761550,-0.002729890,-0.087790180,-0.215794160
1640836993.860250,-0.098414260,-0.028335350,10.941123010,-0.060936810,-0.090552870,-0.197160260
1640836993.862910,0.084032280,-0.154584210,11.134000780,0.069424510,-0.234276070,-0.202636420
1640836993.867760,0.292359980,0.106164160,10.574203490,0.133560610,-0.180427740,-0.213977690
1640836993.868630,0.311648100,0.461800310,10.445374490,0.065366910,-0.118066360,-0.214132640
1640836993.871330,0.054724850,0.378140840,11.251413350,0.004971030,-0.144609810,-0.227877500
1640836993.873040,0.081094870,0.138838460,10.818025590,0.045171380,-0.175203350,-0.250276950
1640836993.875860,0.218478620,0.518555820,10.423529620,0.114721060,-0.151389840,-0.282447070
1640836993.877950,0.122550580,0.905973020,10.852059360,0.082519650,-0.057040170,-0.282092390
1640836993.881980,-0.079856720,0.760067580,11.209815980,-0.005657970,-0.131672640,-0.269185040
1640836993.886780,0.063759980,0.573702870,10.925376890,0.008265680,-0.181519990,-0.252133640
1640836993.887420,0.295267790,0.306532470,10.206374170,0.095134970,-0.082997970,-0.270163950
1640836993.887849,0.165744450,0.263316540,10.809633260,0.118240720,-0.062106550,-0.275881620
1640836993.890460,0.044099990,0.472171190,11.375911710,0.026068090,-0.089398030,-0.266844060
1640836993.892940,0.375903550,0.303688680,10.379115100,-0.032041970,-0.117206580,-0.267367060
1640836993.895200,0.531206790,-0.063378490,10.412318230,0.036168100,-0.074873870,-0.287328660
1640836993.898020,0.351445730,0.236722160,10.840898510,0.110301380,0.020353490,-0.310716030
1640836993.900220,0.236615290,0.561743800,10.842272760,0.100126860,-0.046861160,-0.309136450
1640836993.903159,0.137390320,0.446108070,10.868909840,0.001049040,-0.089290750,-0.292834640
1640836993.906469,0.294600490,0.187730830,10.274484630,-0.002039970,-0.022327900,-0.298054520
1640836993.908190,0.215887520,0.072974880,10.517273900,0.108130280,0.025263430,-0.321511950
1640836993.910310,0.275838400,0.312906380,10.445125580,0.138855030,0.047343970,-0.341819290
1640836993.913230,0.366449650,0.320850580,10.474086760,0.072081390,0.007107850,-0.325995710
1640836993.916250,0.076716240,-0.099547150,11.014139180,0.041690470,0.013720990,-0.315146150
1640836993.917879,0.240995060,-0.275234520,10.161800380,0.119626520,0.015282630,-0.330701470
1640836993.920349,0.138710450,-0.223247660,10.299126630,0.194266420,0.009243190,-0.345043780
1640836993.923139,0.069326450,-0.131025430,10.585702900,0.138948860,0.120933380,-0.358518960
1640836993.925310,0.238888550,-0.156509340,10.543101310,0.109201680,0.117051620,-0.368891660
1640836993.927980,0.084946190,-0.249575330,10.946755410,0.194098060,0.010684130,-0.365397330
1640836993.930339,0.196523190,-0.157548900,10.026981350,0.256365570,0.035813450,-0.381553230
1640836993.934710,0.210580860,0.149597330,10.031863210,0.225476950,0.081317150,-0.377702770
1640836993.935439,-0.012238550,0.177793920,10.624524120,0.186121490,0.179469620,-0.374287460
1640836993.938180,0.052873530,-0.056905200,10.629224780,0.221218210,0.071984530,-0.383505250
1640836993.940209,0.015762280,0.299595030,10.600944520,0.287462860,0.030486290,-0.370578530
1640836993.942970,0.130309300,0.723235610,9.814648630,0.241376500,0.152744380,-0.380486340
1640836993.945340,-0.050659180,0.469038550,10.575162890,0.170759890,0.117613390,-0.380583200
1640836993.948010,-0.369237100,0.436430810,11.190329550,0.218771440,0.093340890,-0.388246860
1640836993.950150,0.080749790,0.530925040,9.706825260,0.299377830,0.060449550,-0.394842090
1640836993.953150,0.171952720,0.694710200,10.140860560,0.250652430,0.132666540,-0.395931360
1640836993.955279,-0.000477140,0.867452680,10.964014050,0.142642870,0.214874760,-0.382639470
1640836993.958690,0.091517410,0.539758860,10.887390140,0.156447310,0.091250240,-0.386855040
1640836993.960240,0.179438860,0.301963900,10.328181270,0.254745780,0.053590550,-0.391253920
1640836993.963519,0.175103320,0.433804930,9.933666230,0.284133910,0.133761780,-0.411294460
1640836993.965170,-0.066475280,0.714614630,10.457305910,0.178352030,0.184325900,-0.405718480
1640836993.968119,0.114586290,0.814556360,10.180655480,0.067684060,0.153918560,-0.384928320
1640836993.970150,0.205437880,0.467144010,10.588144300,0.122275950,0.114265080,-0.388214020
1640836993.972900,0.080602130,0.595243040,10.650339130,0.230947180,0.193643600,-0.415420620
1640836993.975240,0.156091940,0.921537760,9.947612760,0.227047520,0.153546050,-0.421631400
1640836993.978080,-0.204426350,0.864152490,10.595077510,0.088310250,0.091080370,-0.395864280
1640836993.980250,-0.061176440,0.498533930,9.975357060,0.034257770,0.187495350,-0.374412480
1640836993.983179,0.287253650,0.130379620,9.746911050,0.140418160,0.203920930,-0.411538870
1640836993.985190,0.047692860,0.059260550,10.615570070,0.243449240,0.185979930,-0.442399170
1640836993.987939,0.164626750,0.212960820,10.212276460,0.188837960,0.176346330,-0.428915110
1640836993.990130,0.217745480,0.054682680,10.111168860,0.089485970,0.169292120,-0.419890940
1640836993.993110,-0.070036590,-0.435638070,10.377500530,0.111210370,0.167065890,-0.419965480
1640836993.995290,-0.091663870,-0.377003400,10.153133390,0.235034560,0.140316780,-0.438584420
1640836993.998330,-0.060765480,0.199465990,9.694004060,0.268059970,0.197349530,-0.453558620
1640836994.000480,-0.069464680,0.384124220,9.887091640,0.168508340,0.228504870,-0.446984230
1640836994.003229,-0.300912710,0.329800930,10.917691230,0.120763500,0.180527570,-0.436392460
1640836994.005210,-0.204216020,0.506371680,9.973038670,0.233042270,0.134179030,-0.433130650
1640836994.007900,-0.020098240,0.361684320,9.511417390,0.286760930,0.097748660,-0.438949470
1640836994.010229,-0.240568410,0.529955510,10.384823800,0.228147250,0.234849780,-0.441972970
1640836994.013010,-0.174574700,0.362159910,10.190267560,0.178347530,0.250929620,-0.458712940
1640836994.016039,-0.136368900,-0.127699660,10.572578430,0.213374240,0.057847810,-0.468207960
1640836994.018090,-0.050401300,0.232577650,9.994015690,0.260388850,0.109641260,-0.460904900
1640836994.020239,0.209693360,0.416393310,9.336346630,0.246679780,0.223977910,-0.462503820
1640836994.023929,-0.077161730,0.344190510,10.690748210,0.171650980,0.209532720,-0.453433450
1640836994.025179,-0.308287530,0.464396120,10.958517070,0.203099890,0.126500470,-0.442083240
1640836994.027959,-0.013669830,0.398781810,9.663611410,0.262714950,0.062547620,-0.445322780
1640836994.030850,-0.014733220,0.691638110,9.485740660,0.238268080,0.157979150,-0.454370710
1640836994.034920,-0.256549300,1.047284720,10.403109550,0.154808160,0.216260570,-0.445136490
1640836994.036980,-0.057656970,0.797382300,10.195166590,0.119510320,0.172914610,-0.454779030
1640836994.042719,0.116769060,0.552627560,9.960721970,0.200197150,0.103156280,-0.465640520
1640836994.043280,-0.072271520,0.453788040,10.524939540,0.259880810,0.139553840,-0.450369780
1640836994.043700,0.058292090,0.683285650,9.619482040,0.194247110,0.186832280,-0.453035620
1640836994.045320,0.119386140,0.486409490,9.794557570,0.082144160,0.111013670,-0.443449680
1640836994.047940,0.111553050,-0.051706160,10.306646350,0.099316260,0.209157200,-0.434419600
1640836994.050750,0.255217110,-0.139614240,9.638955120,0.255622000,0.233230020,-0.454554020
1640836994.053510,-0.057792120,0.003996800,10.407986640,0.302524860,0.071674590,-0.465408030
1640836994.055179,-0.311071900,0.418887940,9.948162080,0.164864960,0.105167940,-0.448088440
1640836994.057999,-0.011105220,0.386946320,9.041300770,0.042063010,0.172223180,-0.450594810
1640836994.060119,-0.253342150,-0.015454720,10.257879260,0.145894290,0.223644120,-0.481453630
1640836994.063310,-0.392124300,0.255888040,10.499170300,0.328219000,0.158397870,-0.492282270
1640836994.065199,0.067331380,0.806520880,9.487087250,0.308847520,0.080385830,-0.477507770
1640836994.067950,-0.012213480,0.724982200,9.520803450,0.110848270,0.167368350,-0.443847570
1640836994.070299,-0.113751950,0.005344730,10.223955150,0.079341250,0.193925250,-0.440073100
1640836994.072950,-0.118630670,-0.240177900,10.171772960,0.292626020,0.128929330,-0.480406050
1640836994.075250,-0.100092670,-0.012182810,9.533183100,0.377643110,0.045081970,-0.501550850
1640836994.077920,-0.054018100,0.539852980,9.740897180,0.200869190,0.155670970,-0.477819230
1640836994.080430,-0.213307100,0.568912150,9.913321500,0.062078240,0.237308460,-0.471009400
1640836994.086040,-0.387762640,0.018749020,10.654912950,0.155413150,0.043503940,-0.474032820
1640836994.087080,-0.366182360,0.497484360,10.138243680,0.348573920,0.050711640,-0.471571180
1640836994.089429,-0.197835430,0.994206670,8.937428470,0.313410250,0.119367260,-0.483167260
1640836994.090220,-0.240736950,0.911058780,10.140390400,0.100713990,0.143873690,-0.450752740
1640836994.092890,-0.234741300,0.923407380,10.521416660,0.061908380,0.164383650,-0.443443750
1640836994.095199,0.299896330,0.378945890,9.672095300,0.219354080,0.040252510,-0.465585350
1640836994.098039,0.145684530,0.458826300,10.191905020,0.302061500,0.075870760,-0.470940830
1640836994.100250,0.013566570,1.071472760,9.580232620,0.193382840,0.161884750,-0.475874600
1640836994.103010,-0.065666770,0.505226730,9.918184280,0.029480460,0.059902680,-0.466829600
1640836994.105219,-0.407164130,0.249678400,10.457484250,0.064918410,0.043053940,-0.449651540
1640836994.107960,-0.098226100,0.416193840,9.248181340,0.229150100,0.092276950,-0.470741180
1640836994.110260,-0.201396140,0.449720200,9.784506800,0.215464860,0.091514010,-0.485637870
1640836994.113129,-0.338312690,0.988608120,10.368533130,0.076030190,0.116166490,-0.444708820
1640836994.115470,-0.093826050,0.521644000,9.826243400,0.030186780,0.087147970,-0.440067110
1640836994.118019,-0.153823960,0.043829120,9.977262500,0.113809130,-0.012879080,-0.463920920
1640836994.120190,-0.158132780,0.512762900,9.607279780,0.221118380,0.036688160,-0.464682340
1640836994.122920,0.237824260,0.503016950,8.881536480,0.141346480,0.142550510,-0.464569090
1640836994.125970,0.174030420,0.290582420,10.195715900,0.018982590,0.113236930,-0.454217260
1640836994.128209,-0.012460960,0.082315330,10.635456090,0.086821630,0.104983170,-0.449115100
1640836994.130230,0.177271350,-0.192382290,9.172959330,0.208178190,-0.036616630,-0.481063220
1640836994.132910,-0.329970840,0.139681260,9.576351170,0.217728350,-0.034266710,-0.461264010
1640836994.135330,-0.439840700,0.348766000,9.215915680,0.100256520,0.138165090,-0.458903700
1640836994.138379,-0.348708960,-0.042619620,9.394458770,0.047983240,0.076450420,-0.476069840
1640836994.140200,-0.630942110,0.034742980,10.789964680,0.180035830,0.006422400,-0.471946690
1640836994.143040,-0.208308790,0.436648670,9.275170330,0.255759060,0.022567810,-0.476032560
1640836994.145860,-0.170075820,0.536835310,9.375812530,0.172604670,-0.027985880,-0.459283650
1640836994.147889,-0.417282190,0.377050310,10.332269670,0.094999370,0.061467300,-0.424641430
1640836994.150400,0.058941540,0.035590290,9.093059540,0.168536620,0.021983680,-0.454087560
1640836994.152860,0.099257730,-0.011748410,9.677493100,0.268664990,-0.065462290,-0.470331400
1640836994.155229,-0.026379560,0.518720920,9.811906810,0.214000080,0.088061390,-0.454290300
1640836994.157990,-0.028738170,0.388985960,9.493480680,0.112400970,-0.006237630,-0.463119240
1640836994.160400,-0.474051800,0.089080720,10.525807380,0.136873130,-0.113536440,-0.461316200
1640836994.163650,-0.437187820,0.362756460,9.181024550,0.230740060,-0.028702620,-0.453062440
1640836994.165239,-0.360080930,0.575480580,9.164565090,0.235314710,-0.043250620,-0.469398560
1640836994.168350,-0.806892220,0.909876700,10.550245290,0.132511600,0.002990660,-0.453528850
1640836994.170159,-0.359012660,1.037246470,9.478484150,0.075534000,-0.063307590,-0.439360830
1640836994.173009,-0.115188810,0.575783730,9.716222760,0.147137060,-0.140030710,-0.432537590
1640836994.175190,-0.123572180,0.704546630,9.712287900,0.216756810,-0.003989040,-0.438878000
1640836994.177990,0.200932730,0.914656100,9.345998760,0.164605680,-0.044523180,-0.445716140
1640836994.180260,-0.142106120,0.581595240,10.389022830,0.057408220,-0.110068940,-0.427126970
1640836994.183070,0.081979080,0.362830250,9.438508990,0.056967130,-0.097177930,-0.420732800
1640836994.185500,0.191992980,0.162131680,9.106814380,0.146260870,-0.104957830,-0.443495810
1640836994.187899,-0.258299350,0.327022940,9.783099170,0.169065610,-0.044268380,-0.455327420
1640836994.190189,-0.219995020,0.736015920,9.520353320,0.079281630,-0.071704400,-0.438995690
1640836994.193009,-0.499896530,0.352080520,9.972701070,0.028944020,-0.155867680,-0.431348440
1640836994.195340,-0.492963790,0.120737550,9.590991970,0.098146510,-0.131706910,-0.426299870
1640836994.198140,-0.204267310,0.389088180,9.125782970,0.187037900,-0.099496560,-0.438617200
1640836994.202860,-0.282505070,0.473937300,9.558965680,0.127804320,-0.080846260,-0.437030260
1640836994.203580,0.077658800,0.449596430,9.636955260,0.046944620,-0.070485480,-0.403146450
1640836994.205180,0.090583290,0.051654120,9.864649770,0.087377440,-0.119926060,-0.417214690
1640836994.207990,0.027842640,-0.212552150,9.481867790,0.194369290,-0.187045380,-0.436602590
1640836994.210719,0.064410920,0.159912780,9.097517010,0.216627150,-0.174231870,-0.431257580
1640836994.212930,-0.119274020,0.269083050,8.981407170,0.104594250,-0.075155520,-0.444634320
1640836994.215250,-0.307994720,0.052313830,9.850967410,0.045409810,-0.099860150,-0.438127010
1640836994.218030,-0.451314690,0.119540210,10.093208310,0.181542380,-0.165463980,-0.436589210
1640836994.220420,-0.322313610,0.235416620,8.979415890,0.269770620,-0.238744960,-0.445175260
1640836994.222940,-0.399180230,0.672247050,9.359034540,0.190858570,-0.184638810,-0.409536120
1640836994.225340,-0.476261320,0.609656390,9.435937880,0.085254010,-0.066940490,-0.420279830
1640836994.227929,-0.316047970,0.047991840,9.849669460,0.124444080,-0.220565540,-0.421962200
1640836994.230350,-0.208427800,0.424502100,9.854322430,0.268045160,-0.240726800,-0.420782030
1640836994.233090,0.287152890,0.627179920,8.496388440,0.241485250,-0.158911940,-0.431636070
1640836994.235250,0.043669950,0.610638140,9.983599660,0.101250430,-0.172162100,-0.404253660
1640836994.237910,-0.174377900,0.659919200,10.032069210,0.088040520,-0.150667100,-0.411538750
1640836994.240219,-0.001724060,0.134713710,9.208040240,0.179474100,-0.321874080,-0.420102540
1640836994.243059,-0.267487470,0.724848390,9.644646640,0.235444310,-0.233426730,-0.406852360
1640836994.245250,-0.145683570,1.153879280,8.770399090,0.129500060,-0.104866940,-0.416658910
1640836994.247959,-0.287976710,0.868601260,10.216156960,-0.002630060,-0.243826240,-0.390388160
1640836994.250200,-0.293307190,0.994537290,10.064218520,0.066161160,-0.195300580,-0.384302440
1640836994.252859,0.090955220,0.570024610,8.812453270,0.181537900,-0.279465410,-0.412327110
1640836994.255380,-0.333358500,0.927477780,9.946996690,0.160376760,-0.252482350,-0.398340910
1640836994.257900,-0.177937450,1.263829230,8.925909040,0.009666380,-0.175029050,-0.383381550
1640836994.260219,0.156100940,0.391653930,9.377042770,-0.076314820,-0.278510240,-0.370541300
1640836994.263150,0.071555340,0.385745020,9.949340820,0.065249200,-0.137396130,-0.373961000
1640836994.265290,0.394834010,0.303743750,9.029561040,0.166726110,-0.193639100,-0.420573380
1640836994.267969,-0.097107380,0.432444600,10.322887420,0.086687530,-0.300544560,-0.382441370
1640836994.270890,-0.209029110,0.702186880,9.066827770,-0.060471900,-0.232510270,-0.367897750
1640836994.274040,0.068282900,-0.131661460,8.538599010,-0.074389580,-0.287403200,-0.376565750
1640836994.275509,-0.336774890,0.108349920,9.754989620,0.097128770,-0.141531270,-0.389562610
1640836994.277880,0.004135330,0.560226320,8.925840380,0.159704700,-0.155264140,-0.424747260
1640836994.280360,-0.212412950,0.537418430,10.191217420,0.021809340,-0.315690040,-0.378949940
1640836994.282909,-0.336902740,0.494334520,9.606817250,-0.052240490,-0.216266530,-0.357870700
1640836994.285240,0.124800890,-0.199836210,8.475363730,0.023731590,-0.292760190,-0.385961030
1640836994.288030,-0.273171840,0.001827290,9.694497110,0.167681310,-0.238397760,-0.382125440
1640836994.290870,0.250073670,0.556701720,8.411298750,0.110819950,-0.109179340,-0.402568310
1640836994.292840,0.057064780,0.215221150,9.933729170,-0.026050220,-0.268703760,-0.383593230
1640836994.295240,-0.343045290,0.077040160,10.049396510,0.028757750,-0.267742600,-0.371833150
1640836994.297960,0.099286300,-0.072381790,8.171614650,0.153484940,-0.356787470,-0.406274200
1640836994.300259,-0.544453740,0.150254670,9.604012490,0.169482840,-0.268110630,-0.388149980
1640836994.302970,-0.394915700,0.524919090,9.036280630,0.066761670,-0.110156840,-0.392700730
1640836994.306720,-0.339446690,0.241614710,9.906285290,0.014208260,-0.322571460,-0.394503860
1640836994.307969,-0.450164170,0.378124770,9.933518410,0.103206950,-0.316332370,-0.379161600
1640836994.310250,0.265534040,0.630159380,8.024816510,0.158418720,-0.283283030,-0.380489260
1640836994.312889,-0.285042020,0.691618030,9.808093070,0.110508520,-0.257097270,-0.375586810
1640836994.315320,-0.133368950,0.825878140,9.446315770,0.035004320,-0.212286410,-0.357231530
1640836994.317989,0.103694490,0.531891940,9.306436540,0.044953830,-0.378431470,-0.364059270
1640836994.320170,-0.098910730,0.584787910,9.603180890,0.085146750,-0.282062650,-0.369916920
1640836994.323240,0.110297570,0.931700350,8.846891400,0.071531550,-0.243856060,-0.373986420
1640836994.325250,-0.303886980,0.797923270,9.925811770,0.007382040,-0.329022200,-0.375115930
1640836994.328110,-0.196039180,0.679534020,9.285746570,-0.004260240,-0.293019500,-0.365312460
1640836994.330260,0.074433880,0.658353570,8.804522510,0.029633940,-0.330486980,-0.367862080
1640836994.332939,-0.174289300,0.691221300,9.596887590,0.028143830,-0.251114400,-0.371570940
1640836994.335320,-0.011701360,0.888404130,9.420952800,-0.031983850,-0.272886460,-0.347253710
1640836994.337920,0.020376180,0.642189920,9.601614000,-0.062781590,-0.348152310,-0.350506600
1640836994.342589,0.176958470,0.320897280,9.051446910,-0.014251470,-0.274775980,-0.352621140
1640836994.343020,0.230012860,0.497041580,9.075465200,0.022137170,-0.262999620,-0.361780880
1640836994.345310,-0.154729460,0.612027470,9.680376050,-0.037002560,-0.288461210,-0.356166150
1640836994.348310,0.132590350,0.562193510,9.013375280,-0.107805450,-0.330753620,-0.331956240
1640836994.350230,0.156586590,0.251491700,8.934203150,-0.073353950,-0.265865060,-0.344058900
1640836994.352970,0.084813350,0.098627100,9.162878040,0.018814210,-0.211627830,-0.363720950
1640836994.355300,0.041837660,0.449172080,9.525504110,0.026220090,-0.293849470,-0.360258010
1640836994.358100,-0.101586850,0.396288190,9.231570240,-0.063255430,-0.295752320,-0.339823960
1640836994.360540,-0.055750430,0.001408460,9.075344090,-0.102292020,-0.318929610,-0.334505800
1640836994.362939,-0.188647570,-0.110904510,9.187223430,0.008057060,-0.248755530,-0.357706840
1640836994.365300,-0.034380220,-0.022537500,8.789103510,0.074525180,-0.260216090,-0.377334710
1640836994.368130,0.018709590,0.455653100,9.374947550,-0.000381470,-0.259459020,-0.362509520
1640836994.372150,-0.014222860,0.425629260,9.194961550,-0.085519250,-0.209489460,-0.352765620
1640836994.372880,0.009532410,0.031438900,9.440788270,-0.044490410,-0.361076060,-0.335687490
1640836994.375990,-0.170406890,0.183123380,9.240978240,0.105090450,-0.287671390,-0.347563650
1640836994.378260,-0.022141200,0.212089110,8.463148120,0.090846430,-0.267003510,-0.366561170
1640836994.380710,-0.312357370,0.433203910,9.825710300,-0.015272200,-0.263437630,-0.343945620
1640836994.382969,-0.189665570,0.324466940,9.177257540,-0.054366890,-0.221826140,-0.362603400
1640836994.385939,-0.039278540,0.145214010,9.388340000,0.020442900,-0.401510390,-0.359980760
1640836994.388049,-0.232592600,0.673297820,9.348621370,0.102122140,-0.265178110,-0.352391660
1640836994.390260,0.066651550,0.625262800,8.489072800,0.022031370,-0.264030690,-0.380829040
1640836994.393070,-0.356312300,0.614900470,10.253511430,-0.038737060,-0.315837590,-0.339195190
1640836994.395500,-0.028569310,0.556834580,8.958105090,-0.005067880,-0.267724630,-0.351294850
1640836994.397980,0.217404470,0.427934020,9.127033230,0.026598580,-0.381051090,-0.353112880
1640836994.400400,-0.016731960,1.015101790,9.598516460,0.001098220,-0.191463530,-0.333455200
1640836994.405570,0.426156250,0.771583740,8.758717540,-0.081332040,-0.249272630,-0.366081360
1640836994.407160,-0.038543380,0.540858920,10.342590330,-0.059060760,-0.347848330,-0.318960910
1640836994.407930,0.237420370,0.579651300,8.608113290,0.017336010,-0.253365870,-0.342610510
1640836994.411110,0.262542070,0.486614730,8.817247390,-0.022412840,-0.338564810,-0.361715260
1640836994.413020,-0.074656190,0.960247400,9.674147610,-0.111368310,-0.180894180,-0.322860480
1640836994.415670,0.498203370,0.540087160,8.580569270,-0.153298690,-0.202463580,-0.352214280
1640836994.418320,-0.019790270,0.141684890,10.379015920,-0.046835850,-0.305916460,-0.334961770
1640836994.420210,0.006031930,0.467305570,8.894877430,0.039489570,-0.234891490,-0.359217850
1640836994.423139,0.101996560,0.361390050,8.439443590,-0.056305540,-0.352711980,-0.351312850
1640836994.425809,-0.228383420,0.451442690,9.380308150,-0.167620180,-0.175063310,-0.300374660
1640836994.427980,0.384098680,0.049655050,8.456813810,-0.134705050,-0.118780150,-0.339643750
1640836994.430359,0.064354000,-0.106261040,10.351424220,0.018008060,-0.273105500,-0.359588860
1640836994.433339,0.276744690,0.622268080,8.986250880,0.048065190,-0.196930770,-0.365167890
1640836994.439060,0.528835590,0.524475630,8.442256930,-0.110824410,-0.271283090,-0.357198750
1640836994.439620,-0.170184170,0.218547270,9.869129180,-0.166519000,-0.163081290,-0.326496390
1640836994.440179,0.227580430,0.023595460,8.405720710,-0.042261180,-0.176799310,-0.366060470
1640836994.442880,-0.117089620,-0.065647930,9.445325850,0.090628870,-0.299663840,-0.374136890
1640836994.447250,-0.083504590,0.470131370,8.799026490,0.015124680,-0.102916360,-0.363038510
1640836994.448289,-0.049045890,0.191136380,9.149844170,-0.119282330,-0.207667080,-0.365322860
1640836994.450420,-0.592435180,-0.188062190,10.291221620,-0.073948500,-0.237408300,-0.345923040
1640836994.452940,0.004463760,0.042816650,8.295080180,0.070168080,-0.241878640,-0.376786290
1640836994.455240,-0.162513050,0.262288390,9.174263950,0.076206040,-0.236976190,-0.383305550
1640836994.457860,-0.104781930,0.600374460,9.253065110,-0.041213640,-0.074024500,-0.360192390
1640836994.460559,0.161817910,0.523856820,9.448538780,-0.070820770,-0.251196320,-0.363351460
1640836994.462960,0.023389400,0.431142180,9.685990330,0.006309150,-0.260998310,-0.355331570
1640836994.465850,0.427402970,0.709285680,8.429089550,0.059585280,-0.199435650,-0.362679390
1640836994.470899,-0.043488170,0.796108130,9.593857770,0.003206730,-0.177907940,-0.374352960
1640836994.471410,-0.148670510,0.725668550,9.521572110,-0.076927240,-0.180414330,-0.345407460
1640836994.472930,0.056843760,0.501111270,9.136328700,-0.047856580,-0.287498620,-0.351274070
1640836994.475299,-0.060964850,0.367158110,9.076355930,0.004914400,-0.179155190,-0.371655820
1640836994.480310,0.056950150,0.643567920,8.960856440,-0.014053290,-0.157351810,-0.369466840
1640836994.481520,-0.189658480,0.599014280,9.730746270,-0.070539120,-0.192560270,-0.362882050
1640836994.483019,0.019231990,0.235636190,9.195678710,-0.086402900,-0.220143800,-0.347499640
1640836994.485280,0.090959840,0.243631450,9.258196830,-0.013244150,-0.228777540,-0.350712240
1640836994.488170,0.119734270,0.405494810,8.997564320,-0.003911550,-0.142045330,-0.352685150
1640836994.490239,0.462326590,0.613156080,8.952139850,-0.083118680,-0.163599860,-0.344698220
1640836994.492900,0.377971170,0.506934170,9.472674370,-0.104637460,-0.101693000,-0.342589620
1640836994.495260,0.431248490,0.150252270,9.164347650,-0.032481540,-0.170899900,-0.355403100
1640836994.498260,0.137005080,0.399611560,9.378401760,0.043353430,-0.248777880,-0.358220880
1640836994.500320,0.011073250,0.582436980,8.420817380,-0.033634900,-0.156496480,-0.367999110
1640836994.503039,0.030346050,0.388077170,8.949166300,-0.142474520,-0.121241820,-0.354035230
1640836994.505280,-0.343529430,0.184174550,9.915699960,-0.082947340,-0.042136020,-0.371962850
1640836994.508950,-0.125801190,-0.007274930,9.216535570,0.045776370,-0.221650300,-0.380539920
1640836994.510280,-0.215336430,0.385750060,9.223639490,0.076159830,-0.242707150,-0.355574520
1640836994.513090,-0.010432790,0.448878790,8.169378280,-0.084640090,-0.056518620,-0.355130430
1640836994.515309,-0.040937270,-0.049168580,9.611001970,-0.134955330,-0.127519650,-0.341872870
1640836994.518309,-0.107153880,-0.020987930,9.826216700,0.029659270,-0.098590580,-0.361411330
1640836994.521659,0.498624150,0.256437540,8.539224620,0.089135770,-0.222469870,-0.388190150
1640836994.522889,0.177782420,0.799370530,9.636190410,0.001099710,-0.122261060,-0.346626370
1640836994.525280,0.187047600,0.751963680,8.948163990,-0.131610040,-0.036571920,-0.363551110
1640836994.528220,-0.110674980,0.411591740,9.933650970,-0.081975770,-0.252221550,-0.352720920
1640836994.530380,-0.294015530,0.670562570,9.121383670,0.071109840,-0.138577820,-0.365872680
1640836994.535290,0.132111940,0.896769640,8.175609590,0.027522450,-0.142183930,-0.393261100
1640836994.537890,-0.485333440,1.148399350,10.255599020,-0.114266570,-0.069217380,-0.334128770
1640836994.538620,-0.025752410,0.814871490,9.122302060,-0.190110500,-0.083266210,-0.350520010
1640836994.540269,0.048419240,0.168374020,9.808049200,-0.049157440,-0.250454250,-0.351606310
1640836994.542919,-0.104870070,0.511295140,9.265278820,0.068907440,-0.080433500,-0.354234870
1640836994.545470,0.269227830,0.520851850,8.532648090,-0.054697700,-0.145314630,-0.366479190
1640836994.547950,-0.127013580,0.517076730,10.142020230,-0.190448750,-0.133657460,-0.311578780
1640836994.550439,0.470822690,0.265784920,8.567372320,-0.180315990,-0.059607630,-0.340959430
1640836994.553020,0.471677450,0.006438390,9.526642800,-0.026756530,-0.164507360,-0.365942810
1640836994.555450,0.141043190,0.752831760,9.498023030,0.024969880,-0.034941730,-0.367793530
1640836994.557870,0.366303890,0.813812730,8.577822690,-0.133192540,-0.147141530,-0.367927550
1640836994.560310,-0.273244770,0.459238050,10.037828450,-0.205390160,-0.143273190,-0.320300490
1640836994.563170,0.023391020,0.329801320,8.424247740,-0.119702530,-0.048339380,-0.356052880
1640836994.565250,-0.070576730,0.169229400,9.251729010,0.001798570,-0.149971260,-0.362980370
1640836994.568820,-0.238789050,0.628143070,9.446282390,-0.035016240,0.007228550,-0.343282520
1640836994.570259,0.284367110,0.424585670,8.804477690,-0.168629040,-0.075428200,-0.356051390
1640836994.572880,-0.270532700,-0.183271010,10.387470250,-0.139246880,-0.122587410,-0.316204130
1640836994.575320,0.185156210,-0.040133190,8.419700620,-0.011631850,-0.096841140,-0.360584290
1640836994.578019,0.252070750,0.092805090,8.771512990,0.011116270,-0.160254550,-0.363908710
1640836994.580449,0.035177000,0.457915570,9.310762410,-0.101825590,0.068144510,-0.338406890
1640836994.583240,0.282929780,0.206690910,9.222430230,-0.128440560,-0.045241420,-0.369736610
1640836994.585300,-0.309885890,0.072787550,10.480504040,-0.014254450,-0.200344620,-0.355666910
1640836994.587999,0.126966220,0.566403330,8.155104640,0.037667160,-0.105838490,-0.356484980
1640836994.590220,-0.094609670,0.532238250,8.945852280,-0.043462220,-0.081905730,-0.354385410
1640836994.593619,-0.528742550,0.590353610,10.018152240,-0.117419670,0.036326050,-0.332777230
1640836994.597129,-0.059333860,0.309543910,9.162739750,-0.054438420,-0.135321930,-0.350707830
1640836994.597900,-0.247645960,0.240817700,9.736892700,0.040161620,-0.168973220,-0.348796010
1640836994.602370,0.187310380,0.751730860,8.480609890,-0.010775030,-0.015777360,-0.341411020
1640836994.603070,0.005266360,0.534888390,9.535755160,-0.104588290,-0.065861650,-0.341837110
1640836994.605310,-0.176569600,0.399723590,10.055212970,-0.103187580,-0.062321140,-0.340603290
1640836994.608250,0.332432900,0.488011690,8.775041580,-0.003038350,-0.150290160,-0.352639050
1640836994.610750,0.117075960,0.587732140,9.443250660,0.005029140,-0.104016090,-0.352574970
1640836994.612900,0.267819050,1.123830440,8.993644710,-0.108075160,0.020073360,-0.338473980
1640836994.615249,0.187339100,0.827553390,9.593129160,-0.170584050,-0.079593080,-0.341920640
1640836994.617900,-0.011728210,0.501988410,9.856663700,-0.101743640,-0.071136660,-0.325745340
1640836994.620339,0.222533400,0.590951620,8.763234140,0.006888810,-0.081589810,-0.342951690
1640836994.624580,-0.186929580,0.682682160,9.340188980,-0.048683590,-0.083859290,-0.345772560
1640836994.626180,0.044252360,0.899267910,8.900521280,-0.211021330,-0.009712580,-0.314535290
1640836994.627879,0.282636970,0.304609840,9.147419930,-0.206667210,-0.011186300,-0.328706200
1640836994.630329,0.104590480,0.007019110,9.846343040,-0.062280890,0.006666780,-0.337620020
1640836994.634840,0.303441940,0.348105880,9.101295470,0.044788420,-0.075456490,-0.342622370
1640836994.636370,0.106351230,0.515658380,9.083143230,-0.101299590,-0.104348370,-0.340321660
1640836994.638480,0.182436510,0.468285860,8.891678810,-0.263877210,0.014010070,-0.318714980
1640836994.640230,0.235290170,-0.026121260,9.268009190,-0.159838780,0.055401030,-0.342765450
1640836994.643040,-0.075728080,-0.064115480,9.926419260,0.036986180,-0.030250850,-0.368964760
1640836994.645340,0.180229410,0.667110920,8.925484660,0.052428260,-0.072652110,-0.363126400
1640836994.647859,0.024909560,0.730897960,8.814881320,-0.170964020,-0.004775820,-0.323824610
1640836994.650310,-0.201060790,0.228025230,9.472966190,-0.246760250,0.045371060,-0.300693540
1640836994.653190,-0.159501310,-0.193465810,9.372400280,-0.020495060,-0.022025410,-0.352202390
1640836994.655310,-0.129837190,0.191873650,9.085910800,0.099608310,-0.086046760,-0.374603270
1640836994.658340,0.092645840,0.831882480,8.693385120,-0.029541550,0.041651720,-0.343039600
1640836994.660380,-0.082225740,0.486983600,9.505330090,-0.228814770,0.063727800,-0.336505470
1640836994.662910,-0.245874300,0.036145410,10.249800680,-0.147342700,-0.058257590,-0.332288470
1640836994.665599,-0.054474250,0.020451530,9.043255810,0.107663880,-0.098489240,-0.350624410
1640836994.667940,-0.119870860,0.474570420,8.744765280,0.079329310,-0.055615620,-0.362239840
1640836994.670270,-0.183999090,0.935925720,9.174952510,-0.126349910,0.066350390,-0.319431660
1640836994.673080,-0.121748370,0.435324850,9.587642670,-0.224758710,0.013796990,-0.329317150
1640836994.675360,-0.117277560,0.262006220,10.071283340,-0.047077240,-0.098323820,-0.338120790
1640836994.677889,0.079066640,0.653766390,8.953694340,0.125728580,-0.063584770,-0.353097980
1640836994.680260,0.002316480,0.959444880,9.072278020,-0.031331180,-0.039178140,-0.368727770
1640836994.683009,-0.250088040,1.156732440,9.725849150,-0.219205050,0.026014450,-0.328350070
1640836994.685609,-0.039110170,0.523507890,9.404767040,-0.204212980,-0.074785960,-0.324572620
1640836994.688010,0.025390080,0.371897190,9.565816880,-0.012336670,-0.097736730,-0.342144160
1640836994.690359,0.138136210,0.904613080,8.852379800,0.046688330,0.009053950,-0.353325960
1640836994.692920,0.044236630,0.817930160,9.571390150,-0.154830560,-0.014179950,-0.346824620
1640836994.695340,-0.135984090,0.647882520,10.034996990,-0.247192350,-0.028631090,-0.314380260
1640836994.698619,0.146966550,0.254366990,9.066835400,-0.154389490,-0.101877760,-0.340209990
1640836994.700250,0.032710960,0.416906420,9.257550240,-0.034399330,-0.073455280,-0.361265270
1640836994.703519,0.163048950,1.083109620,8.781795500,-0.087887060,0.040169070,-0.354036690
1640836994.705890,0.196974100,0.830599130,9.548593520,-0.263106820,0.002129380,-0.328007370
1640836994.708050,0.034388320,0.439428030,10.083838460,-0.224070250,-0.004659590,-0.308936830
1640836994.710250,0.219971450,0.347363470,9.119822500,-0.094300520,-0.082184370,-0.344116990
1640836994.712900,0.020975680,0.491620540,9.248091700,-0.081343930,-0.075913960,-0.325895790
1640836994.715400,0.202069890,0.650941130,8.653473850,-0.185848820,0.071203730,-0.320874210
1640836994.718109,0.320102720,0.173809680,9.414827350,-0.261837240,0.056529060,-0.329785050
1640836994.723820,0.019306200,-0.090127920,10.133881570,-0.127421350,0.026324400,-0.321424100
1640836994.724510,0.192379310,0.184673580,8.971526150,-0.033237040,-0.092232210,-0.363126430
1640836994.725289,-0.151641880,0.455780420,9.134298320,-0.126071290,-0.073859120,-0.340229270
1640836994.728020,-0.102319700,0.442115400,8.672220230,-0.245617340,0.082793830,-0.328299430
1640836994.730310,-0.069935830,-0.025087360,9.493880270,-0.188271720,0.047628580,-0.352463130
1640836994.733340,-0.205942110,0.204973490,9.983537670,-0.009770690,0.009596350,-0.338883730
1640836994.736709,0.123341260,0.704912600,8.927284240,-0.030881170,-0.048764040,-0.335921380
1640836994.738129,-0.184445900,0.526714320,9.431922910,-0.193595900,-0.016528370,-0.312182340
1640836994.740680,-0.093703570,0.208186400,9.030066490,-0.208601390,0.047945980,-0.308603080
1640836994.743110,0.026472430,-0.124146160,9.205772400,-0.048470500,-0.024853650,-0.354377990
1640836994.745260,0.038335580,0.306942610,9.275316240,0.034889580,0.016497080,-0.351385800
1640836994.748060,0.256804730,0.829323830,8.980250360,-0.112515700,0.034849350,-0.344665350
1640836994.750350,-0.221627670,0.312510400,10.060775760,-0.214834540,-0.006775560,-0.321720570
1640836994.753209,-0.216902420,0.214004350,9.327770230,-0.102883580,-0.064158440,-0.334355260
1640836994.758989,-0.220043260,0.360695600,8.905375480,0.017669800,-0.094403350,-0.348730440
1640836994.760130,-0.317292060,0.668987210,9.028039930,-0.030463930,0.051274900,-0.340537730
1640836994.760730,-0.238559800,0.959609450,9.517148020,-0.179736350,0.039544710,-0.339196710
1640836994.762960,-0.347209270,0.584999800,10.264468190,-0.194326060,-0.063773990,-0.327041770
1640836994.765250,-0.020584740,0.492249580,9.170060160,-0.057792670,-0.089746740,-0.327596070
1640836994.768790,0.023608460,0.764674480,9.011573790,-0.011472400,-0.064922880,-0.353977080
1640836994.770670,-0.104598870,0.945659640,9.382575990,-0.130973760,0.016580520,-0.326029930
1640836994.772940,0.157979380,0.891924740,9.419101720,-0.231283950,-0.040344900,-0.330053300
1640836994.775519,0.145575140,0.594392420,9.786555290,-0.187088550,-0.068862740,-0.336512950
1640836994.778020,0.334457010,0.750531790,9.149861340,-0.095754870,-0.038066510,-0.341071220
1640836994.780449,0.106653880,0.996400890,9.450194360,-0.123405480,-0.046581040,-0.368157090
1640836994.783540,-0.222717230,0.883413020,9.585337640,-0.227762770,-0.044587250,-0.333611700
1640836994.786739,-0.139159260,0.604691680,9.215713500,-0.240218640,-0.086845460,-0.324678450
1640836994.788849,-0.324873720,0.386871760,9.429245000,-0.179298250,-0.055614120,-0.341364740
1640836994.790249,-0.141986210,0.657135730,9.150204660,-0.146801770,-0.032868990,-0.327391950
1640836994.793820,-0.006423970,0.640623450,9.403631210,-0.213313150,-0.034552810,-0.322683240
1640836994.795250,0.142128380,0.302824650,9.510844230,-0.251309600,-0.004047160,-0.319376590
1640836994.798070,0.309275360,0.204258160,9.473499300,-0.184042780,-0.055690120,-0.317603410
1640836994.803000,0.244463800,0.215269540,9.314698220,-0.136929750,-0.083383930,-0.325013730
1640836994.804210,0.424610350,0.598714410,8.755634310,-0.190116470,-0.046658520,-0.307817760
1640836994.805780,0.429939540,0.561838980,9.110004430,-0.274613440,0.039193030,-0.322318050
1640836994.808090,0.276463600,0.243891450,9.542204860,-0.224967330,0.044173010,-0.331909950
1640836994.810690,0.043144110,0.455358680,9.730696680,-0.108501340,-0.088918220,-0.357756080
1640836994.813099,-0.172373680,0.628001210,8.883702280,-0.133134440,-0.091078890,-0.355486660
1640836994.816040,-0.323300000,0.657842580,8.729660030,-0.257055490,-0.035348540,-0.325316190
1640836994.818100,-0.416928260,0.255912270,9.317569730,-0.262959300,0.050149860,-0.340190470
1640836994.820360,-0.350495990,-0.095995650,9.441824910,-0.134031500,-0.019358100,-0.350773420
1640836994.823089,-0.150154950,0.258806710,9.517422680,-0.046351560,-0.091667470,-0.337746830
1640836994.825420,0.135940860,0.297587310,8.800515170,-0.164793460,-0.002449750,-0.318195020
1640836994.828009,0.153171730,0.054288910,9.477942470,-0.258834660,-0.033487380,-0.298362970
1640836994.830240,0.216443750,-0.093308820,9.573471070,-0.152236250,0.009790070,-0.326681230
1640836994.835130,0.373933230,0.075892780,8.953726770,-0.031413150,-0.088974860,-0.362244310
1640836994.836020,0.190204560,0.943994160,9.289203640,-0.085791950,-0.054459280,-0.366243720
1640836994.838610,0.120072080,1.132238510,8.775373460,-0.263205200,0.022518630,-0.351549710
1640836994.840400,-0.328564490,0.786306500,9.967894550,-0.262482490,-0.094795230,-0.342020390
1640836994.842900,-0.425792100,0.808016120,9.524334910,-0.096014160,-0.054147850,-0.351634710
1640836994.845379,-0.371977960,0.829303740,8.805552480,-0.070154670,-0.102771830,-0.350654130
1640836994.848009,-0.529115800,1.043476220,9.677785870,-0.195784900,-0.010003150,-0.329345520
1640836994.851910,-0.227449920,0.698859930,9.226173400,-0.312756060,0.001662970,-0.320123230
1640836994.853020,-0.037903970,0.088177580,9.864013670,-0.224560500,-0.149533170,-0.311586260
1640836994.855350,0.411349710,0.223135280,8.930294040,-0.078117850,-0.014792380,-0.344857600
1640836994.858420,0.529050650,0.433891770,8.856533050,-0.142781440,-0.034040220,-0.353226130
1640836994.860230,0.096552290,0.674599050,10.299272540,-0.268831880,-0.028434400,-0.327165420
1640836994.863010,0.299835860,0.507938090,8.990305900,-0.317171250,-0.096102070,-0.341601700
1640836994.865370,0.161366160,0.481035050,9.244751930,-0.211080940,-0.145086650,-0.339429110
1640836994.868160,0.114056940,0.937835220,8.844387050,-0.135533510,0.070244080,-0.360050860
1640836994.870370,0.021184510,1.016494390,9.191211700,-0.230805590,-0.030021370,-0.361579660
1640836994.872929,-0.392021060,0.908012210,10.377499580,-0.298464300,-0.062815850,-0.302281980
1640836994.875300,-0.061405290,0.343826410,8.682882310,-0.274065080,-0.081215800,-0.322207840
1640836994.878090,-0.188734470,0.068497670,9.277074810,-0.183676200,-0.130140780,-0.329667360
1640836994.880400,0.033832140,0.343841370,8.837381360,-0.181014840,0.085468600,-0.338561860
1640836994.883240,0.427875250,0.056909260,9.012122150,-0.276804030,0.000919400,-0.357122720
1640836994.885390,0.183375670,-0.161329480,10.427445410,-0.256778240,0.004482270,-0.330950290
1640836994.888000,0.517874420,-0.244346510,8.713560100,-0.161525590,-0.055371220,-0.358657510
1640836994.890240,0.110884820,0.007296520,9.304900170,-0.118038070,-0.163637120,-0.346246390
1640836994.892940,0.047005990,0.581881640,8.616221430,-0.212609770,0.056077540,-0.343036590
1640836994.895249,0.104250030,0.342813790,8.933385850,-0.282235440,0.011587140,-0.367578950
1640836994.897960,-0.430607620,0.293589060,10.600193980,-0.160701600,0.007951260,-0.351470770
1640836994.900620,-0.034502000,0.581986370,8.834075930,-0.065408650,-0.065544250,-0.377775790
1640836994.902900,-0.269478080,0.772489790,9.311635970,-0.130683180,-0.138947410,-0.337491990
1640836994.905300,-0.173293770,0.762004910,8.807547570,-0.277157100,0.092241160,-0.318248570
1640836994.907920,-0.040055740,0.058908130,9.254035000,-0.241129070,-0.010532140,-0.352281330
1640836994.910260,-0.275222390,-0.081973380,10.337496760,-0.049681970,-0.068670510,-0.340501960
1640836994.913120,0.393105480,0.413567160,8.365777970,-0.045189270,-0.061824930,-0.355917220
1640836994.915300,0.172642470,0.568761050,9.490607260,-0.226250310,-0.035931170,-0.343927680
1640836994.917899,0.074735100,0.616819620,9.720156670,-0.325130020,0.091403740,-0.333753320
1640836994.920250,0.098050640,0.342349440,9.572463990,-0.175458190,-0.104121870,-0.372964170
1640836994.922979,-0.206755730,0.742553590,9.745113370,-0.027666990,-0.127176940,-0.367981280
1640836994.925269,0.201454100,1.537220240,8.028205870,-0.154365600,-0.002905730,-0.360089570
1640836994.928110,-0.090810800,1.328043940,9.632475850,-0.366251170,0.009845200,-0.332359970
1640836994.931720,-0.016997420,0.927985070,10.013184550,-0.349982140,0.060254350,-0.318732890
1640836994.933090,0.222460230,0.405336650,9.415839200,-0.134493460,-0.107133400,-0.348499510
1640836994.936460,-0.071193010,0.379165170,9.672336580,-0.058650970,-0.088045010,-0.353892150
1640836994.937870,0.245373530,0.800235930,8.218470570,-0.258705050,0.014103950,-0.340138410
1640836994.940310,0.148085740,0.247916760,9.445138930,-0.428341390,-0.015287100,-0.328934280
1640836994.942999,0.365791380,-0.097493010,9.556198120,-0.324967530,0.095468770,-0.337320660
1640836994.945600,0.505397500,0.043210820,9.336851120,-0.088587400,-0.029249490,-0.375258950
1640836994.947950,0.054111970,0.533056440,9.909505840,-0.092458720,-0.066979240,-0.370030160
1640836994.950760,0.224075840,0.997040870,8.442547800,-0.328175780,-0.003296140,-0.326451750
1640836994.952870,-0.118681300,0.345749320,9.392099380,-0.410865340,-0.010663270,-0.329259130
1640836994.955240,-0.178420840,0.102217370,9.433362960,-0.225438190,0.083099310,-0.346633790
1640836994.957899,0.006913700,0.465929150,9.002419470,-0.042410210,-0.027595460,-0.374549720
1640836994.960460,-0.163690180,0.584773420,9.628750800,-0.160515310,0.001066920,-0.350841970
1640836994.963080,-0.013251830,0.502503570,9.067080500,-0.347690310,0.051833690,-0.316205650
1640836994.965430,-0.203817010,-0.321571740,9.774026870,-0.295045970,-0.046177210,-0.329013200
1640836994.967970,-0.037850420,-0.244348540,9.246143340,-0.107112530,-0.018516180,-0.342732670
1640836994.970379,0.094979480,0.292894600,8.804812430,-0.059343890,0.000724200,-0.368903640
1640836994.972880,-0.079320760,0.432273920,9.665630340,-0.232929040,0.055344410,-0.369575650
1640836994.975440,-0.094374130,0.583573580,9.791836740,-0.304324950,-0.014957790,-0.348213320
1640836994.977970,0.067666550,0.344274730,9.258619310,-0.188013910,-0.093382600,-0.351479650
1640836994.980559,0.047487590,0.706916690,9.160696030,-0.100488980,-0.009272990,-0.351993800
1640836994.982980,-0.111551140,1.193674210,9.407089230,-0.149232160,0.042685870,-0.342542020
1640836994.985400,-0.233341960,0.843864500,9.900666240,-0.284619660,-0.021299720,-0.328402220
1640836994.987970,-0.154150680,0.646274750,9.589925770,-0.260415700,-0.073188540,-0.317812000
1640836994.990249,0.180119380,0.391796170,8.758728030,-0.160123410,-0.022937360,-0.340810450
1640836994.992920,0.071327780,0.474551410,9.453001020,-0.161410880,0.038550790,-0.346989960
1640836994.995410,0.006821190,0.735600050,9.655071260,-0.233073500,0.026199220,-0.340639020
1640836994.998360,0.106646280,0.173327680,9.613848690,-0.294602010,-0.084447860,-0.326845140
1640836995.003520,0.072242330,0.070749130,9.398761750,-0.209428410,-0.059558460,-0.310690760
1640836995.004660,0.201252430,0.323170870,8.807265280,-0.136892500,0.014109910,-0.340205430
1640836995.006379,0.157653670,0.636320770,9.464394570,-0.233075070,0.006704030,-0.333882870
1640836995.007860,0.249742050,0.774835590,9.433804510,-0.289838020,0.068961090,-0.319802760
1640836995.010370,0.318832640,0.196638790,9.599069600,-0.243456660,-0.013619660,-0.341872900
1640836995.012970,-0.026462120,0.424682170,9.760231020,-0.114654030,-0.061109670,-0.334450630
1640836995.015380,0.155086140,0.631653960,8.315812110,-0.148415580,-0.027364490,-0.347597900
1640836995.018230,0.103573000,0.448683320,9.042656900,-0.301112320,0.047996650,-0.333844160
1640836995.020280,-0.129756570,0.249149900,9.809020040,-0.280492010,0.154772420,-0.328208540
1640836995.022899,0.041960840,-0.292663070,9.763378140,-0.132343190,-0.045867260,-0.360661770
1640836995.025339,-0.101219690,0.182018460,9.586763380,-0.048744680,-0.080540780,-0.335450470
1640836995.027900,0.258621070,0.512375410,8.197900770,-0.199341820,0.067988040,-0.328290490
1640836995.030409,0.032510190,0.081098940,9.740868570,-0.323174920,0.070545080,-0.321820380
1640836995.032970,-0.158891050,0.189114590,9.945655820,-0.171157690,0.082893680,-0.345316530
1640836995.039000,0.335229930,0.388560380,8.949210170,-0.044345870,-0.100390640,-0.371353390
1640836995.039680,0.089892170,1.077149750,9.404513360,-0.116926450,0.022183360,-0.340652500
1640836995.040730,0.238490820,1.220698360,8.832508090,-0.301255290,0.141991690,-0.348465170
1640836995.042899,-0.204364240,0.574849670,10.505337720,-0.294934240,-0.010147690,-0.335074930
1640836995.045250,-0.267857580,0.653869870,9.694881440,-0.097282250,-0.014533100,-0.331667100
1640836995.047930,0.231077020,0.756775260,8.414917950,-0.093390050,-0.059595720,-0.355745850
1640836995.050360,-0.273871930,0.956346390,9.662564280,-0.251191880,0.111983720,-0.303791460
1640836995.053370,0.110446650,0.680554690,9.167588230,-0.356544580,0.120729220,-0.320112740
1640836995.055339,0.082622170,0.098869670,10.167717930,-0.253628190,-0.052914020,-0.326070220
1640836995.058450,0.087921490,0.348386380,9.227859500,-0.089386110,0.049075490,-0.336280470
1640836995.060289,0.347790930,0.680339040,8.763154030,-0.170874610,0.007779900,-0.369754430
1640836995.062850,-0.179897140,0.922919030,9.945491790,-0.342398880,0.060704360,-0.315029920
1640836995.065330,0.438989460,0.635220470,8.769838330,-0.373569220,0.090567780,-0.327000020
1640836995.067900,0.263374180,0.210576210,9.839343070,-0.201229770,0.035926690,-0.345794830
1640836995.071349,0.030811150,0.687163710,9.503988270,-0.078403950,0.081165140,-0.333344970
1640836995.072890,0.211770220,0.792948070,8.786431310,-0.221528140,-0.027869640,-0.337430830
1640836995.075529,-0.283551780,0.458473890,9.578804970,-0.376828070,0.047521300,-0.294329320
1640836995.077950,0.087801230,0.038366520,8.763689990,-0.322271940,0.116591180,-0.332446460
1640836995.080370,-0.113557210,-0.216610760,9.893989560,-0.135456040,0.036929560,-0.360767600
1640836995.082919,-0.050860290,0.432598950,9.358445170,-0.093929480,0.081962370,-0.347544310
1640836995.085389,0.262517750,0.665351870,8.971467020,-0.279001890,0.029477480,-0.338541000
1640836995.088559,-0.219319460,0.212645250,9.967021940,-0.358873610,0.077512870,-0.303633510
1640836995.090540,0.127145590,-0.038785260,8.933500290,-0.204937170,0.050869580,-0.332508980
1640836995.092919,-0.078188310,0.145303880,9.375828740,-0.047144300,-0.007864840,-0.355440440
1640836995.095600,0.011779540,0.804518040,9.069142340,-0.150430200,0.118824840,-0.342255860
1640836995.097839,0.147087630,0.907474580,9.528190610,-0.340886440,0.090458990,-0.340817960
1640836995.100630,-0.210913840,0.402437840,10.351308820,-0.324183790,0.046546760,-0.336389300
1640836995.104840,0.136666690,0.396257490,9.163588520,-0.109182310,-0.002826750,-0.341917630
1640836995.105840,-0.116137580,0.707490500,9.303677560,-0.072661060,0.010524690,-0.355348050
1640836995.108480,-0.135202330,0.922757860,9.239075660,-0.259877770,0.129304860,-0.319659740
1640836995.110590,-0.017728520,0.707851890,9.712427140,-0.375349880,0.060738630,-0.307658400
1640836995.112939,0.039524250,0.167112280,9.875043870,-0.263275240,0.038062040,-0.311870900
1640836995.115330,0.445650670,0.353491010,9.167819020,-0.089773540,0.056406860,-0.331918930
1640836995.118170,0.167547090,0.735450980,9.662697790,-0.143702360,0.090549910,-0.347015320
1640836995.120339,0.057377250,0.786351320,9.595173840,-0.332719090,0.065207490,-0.320604530
1640836995.124070,0.076018450,0.472552810,9.483795170,-0.343878570,0.003619490,-0.314280450
1640836995.125389,0.065043420,0.194944950,9.075377460,-0.199088450,0.069390240,-0.331251350
1640836995.127940,0.118099290,0.681304220,9.255254750,-0.125284520,0.099399710,-0.343532920
1640836995.130380,0.019897890,0.959609090,9.678045270,-0.239035490,0.128447990,-0.325238670
1640836995.133280,0.079160380,0.553941850,9.699007030,-0.354236420,0.073337580,-0.297954740
1640836995.136580,0.034792160,0.120966380,9.901434900,-0.262121860,0.037437670,-0.295037060
1640836995.138370,0.096328470,-0.100506260,8.948787690,-0.116944310,0.057241320,-0.314408540
1640836995.140360,0.219369340,0.316918730,8.949567790,-0.146953810,0.061509020,-0.322294290
