# timestamp,accel_x,accel_y,accel_z,gyro_x,gyro_y,gyro_z
1640835578.215560,-0.259192730,0.318489820,9.298677440,-0.005812940,-0.069449850,-0.023846320
1640835578.216270,-0.364393590,0.369131240,9.073233600,-0.025823710,-0.099253650,-0.031124060
1640835578.216780,-0.403421190,0.974422690,9.330397610,-0.001785160,0.046148900,-0.017687680
1640835578.217100,-0.225738110,1.128606320,9.776635170,-0.016900900,0.060892110,0.010819730
1640835578.217480,-0.197127670,0.897699420,11.259217260,-0.015863780,0.009156760,0.047025090
1640835578.217800,0.076807040,0.888716640,10.238012310,-0.012095270,-0.004124640,0.035864120
1640835578.223480,0.121614730,0.501430330,9.673034670,-0.041915470,-0.112579760,0.037121770
1640835578.223930,0.009730450,0.294169930,9.501261710,-0.066578390,0.006087120,0.038443510
1640835578.227190,0.253210400,0.137630420,8.524439810,-0.062017140,0.038929280,-0.002704560
1640835578.228639,0.167972970,-0.029073450,9.891757010,-0.037704410,0.000865760,0.018213690
1640835578.232260,0.430386570,0.015850680,9.713697430,-0.047576430,0.120596600,0.032356390
1640835578.233160,0.473927800,-0.353028330,10.156133650,-0.008836390,0.013881920,0.033602110
1640835578.237110,0.300805630,-0.376085220,10.677247050,0.024431940,0.024035570,0.047831230
1640835578.238230,0.711140630,-0.268596530,8.919211390,0.019200150,0.091664500,0.039684770
1640835578.241850,0.455083610,-0.468982930,9.800095560,0.041563810,0.095447910,0.026862330
1640835578.242760,0.276669320,-0.115820620,9.380441670,0.053438540,0.168223690,0.014775990
1640835578.247409,0.101747690,0.234087650,9.077875140,0.043168670,0.047411030,-0.000536440
1640835578.250620,-0.453817490,0.257434760,9.889502530,0.036875910,0.051426890,0.012749430
1640835578.255050,-0.357774260,0.525995080,9.310728070,0.046698750,0.103691230,0.019833450
1640835578.256549,-0.398513320,0.512306270,10.270834920,0.062342000,0.128233460,0.037115820
1640835578.257589,-0.189919490,0.187426480,10.509120940,0.083073970,0.210522120,0.047977260
1640835578.257870,0.136688140,0.052944970,10.200495720,0.133906290,0.121623260,0.038099290
1640835578.262560,0.074941040,0.069731130,9.709616660,0.123065710,0.066322100,0.039130450
1640835578.264649,0.170259520,-0.070735930,8.780927660,0.051021580,0.066299740,0.033885250
1640835578.266830,0.041493950,0.167763370,9.009545330,0.055360800,0.107218330,0.009927150
1640835578.267249,-0.102131830,0.475325580,9.580269810,0.057449940,0.159728540,-0.010289250
1640835578.271960,-0.127544730,0.682522830,10.645626070,0.059932470,0.136622800,-0.004962090
1640835578.272930,-0.334472360,1.036871190,10.725548740,0.072430070,0.135126720,-0.012122090
1640835578.277480,-0.498006970,1.055957440,10.332873340,0.029973690,0.020183620,0.001721080
1640835578.279800,-0.473291810,1.122688530,9.587869640,-0.004957620,0.038574640,0.044459100
1640835578.281930,-0.247630520,0.666332720,8.650672910,0.003388520,0.142702430,0.036741790
1640835578.284230,-0.050705280,0.310901430,9.572633740,0.042973460,0.133676830,0.052122780
1640835578.286949,0.275537010,0.271611600,9.744301800,0.039087240,0.190174580,0.067651280
1640835578.287830,0.509100200,-0.375028520,9.994128230,0.001803040,0.113935770,0.041583180
1640835578.291880,0.307687970,-0.328979550,10.657818790,0.012947620,0.080698730,0.034648180
1640835578.293840,0.235343010,-0.174773250,9.447390560,0.022690000,0.097092990,-0.010110440
1640835578.297410,-0.000658160,-0.212781340,9.663088800,0.024972860,0.062342000,-0.036375230
1640835578.301100,-0.239285320,0.426959430,9.376963620,0.042822970,0.187368690,-0.025148700
1640835578.302600,-0.334906130,0.607299800,9.155979160,0.017791990,0.127871330,-0.030885640
1640835578.303140,-0.711178240,0.655915380,10.144235610,0.003522630,0.076328230,0.021313130
1640835578.306980,-0.549557270,0.682192920,9.244950290,0.039251150,0.096929070,0.029516220
1640835578.309790,-0.351227070,0.305971890,9.838949200,0.051257020,0.059735790,0.034293530
1640835578.311849,-0.095463660,0.106020070,10.308987620,0.056365140,0.212304320,0.064297020
1640835578.312340,0.398064490,-0.411366080,9.994528770,0.089402500,0.168932970,0.027136510
1640835578.317070,0.303413420,-0.524216410,10.467565540,0.107048470,0.064875190,-0.000680980
1640835578.318140,0.253342270,-0.170488570,9.058015820,0.067521630,0.065988310,0.007149580
1640835578.322080,0.095475220,-0.211981220,8.817111020,0.036767130,0.037312510,-0.012029710
1640835578.324339,-0.474449840,0.223004450,9.674549100,0.066448760,0.108499850,-0.023660060
1640835578.326920,-0.304471970,0.823994460,9.721565250,0.074689110,0.134374230,-0.017398600
1640835578.327459,-0.430095550,0.938214900,10.886103630,0.068283090,0.144144890,-0.002308190
1640835578.331950,-0.583538710,1.107035640,10.783961300,0.066836190,0.111910700,0.014278290
1640835578.332820,-0.450823370,1.270824550,9.937021260,0.029352310,-0.006273390,0.019246340
1640835578.336990,-0.492527400,0.923973320,9.170143130,-0.005927680,0.027118620,0.028200440
1640835578.337770,-0.137939380,0.633233960,8.771581650,0.006365780,0.089916590,0.027954580
1640835578.342130,0.238358770,0.549914960,9.400580410,-0.000599030,0.174585030,0.031796110
1640835578.344060,0.340554540,0.013100290,10.502405170,-0.011408330,0.148388740,0.040940940
1640835578.350829,0.464381100,-0.186110750,10.832021710,0.008636710,0.072109710,0.027881560
1640835578.351519,0.351002660,-0.148474290,10.017676350,0.016799570,0.015211110,0.009751320
1640835578.351889,0.077326180,-0.089741750,9.565441130,-0.034379960,0.032539670,0.007183850
1640835578.352219,-0.004865280,0.243240670,9.026720050,-0.035913290,0.152234730,-0.008678440
1640835578.357169,-0.328825240,0.381350490,9.336729050,0.005684790,0.114379810,-0.023743510
1640835578.359069,-0.544868470,0.732436300,9.919120790,0.005242230,0.079377000,-0.001703200
1640835578.361820,-0.484531100,0.843633830,9.425202370,-0.011023880,0.085449230,0.014057760
1640835578.362270,-0.677307130,0.461347880,10.223110200,-0.024633110,0.022703410,0.020980830
1640835578.367250,-0.307086770,0.470823880,10.070911410,-0.021375720,0.121432550,0.026921930
1640835578.368039,0.134870410,-0.028322360,9.778875350,0.008060040,0.143198680,0.013303760
1640835578.371960,0.267794370,-0.392661810,10.324333190,0.043465200,0.122076300,-0.000414250
1640835578.373900,0.475472360,-0.101995980,9.379667280,0.042249270,0.101001560,-0.008513030
1640835578.377310,0.241369380,-0.361872080,9.170502660,-0.003086030,-0.004382430,0.011816620
1640835578.378350,-0.135498790,-0.319159950,9.473566060,0.005324180,0.055441260,0.012163820
1640835578.382380,-0.303981840,0.093266530,9.351174350,0.055693090,0.094361600,-0.015050170
1640835578.384559,-0.609495940,0.252334030,10.706361770,0.050359960,0.083559740,-0.002044440
1640835578.388729,-0.604776320,0.724704210,10.700692180,0.051771100,0.118097660,-0.008524960
1640835578.389530,-0.510503830,1.068634390,10.067829130,0.016240780,0.024650990,-0.011688470
1640835578.392700,-0.577889560,1.088210230,9.857570650,-0.027920310,0.002586840,0.023923810
1640835578.393570,-0.275366690,1.035445330,8.787224770,0.006899240,0.044879310,0.012759860
1640835578.397179,-0.094988430,0.902685880,9.077771190,0.005364420,0.043998670,0.002935530
1640835578.398640,0.059243880,0.640385150,10.011367800,-0.029781470,0.113269700,0.045029820
1640835578.402030,0.308754530,0.052024070,10.416126250,-0.033606590,0.103518370,0.030648710
1640835578.403010,0.098756490,-0.260439900,10.949098590,-0.001423060,-0.022931400,0.024883450
1640835578.406900,0.137048240,-0.227333310,9.908068660,0.008943680,-0.011743610,0.041133170
1640835578.407790,0.242051990,-0.328555760,8.714312550,-0.037682060,0.061573090,-0.011907520
1640835578.411880,-0.113372300,-0.114302850,9.494966510,-0.031565130,0.097642820,-0.023975970
1640835578.412819,-0.262829010,0.351800050,9.510855670,0.001358990,0.090952230,-0.010623040
1640835578.417199,-0.516067090,0.571265820,9.660471920,-0.008556250,-0.046998270,-0.013051930
1640835578.417860,-0.790340420,0.852106330,10.062900540,-0.021225210,-0.033350290,0.031094250
1640835578.422030,-0.506516100,0.731203200,9.422209740,-0.036342440,0.055217740,0.029042360
1640835578.422979,-0.403893320,0.332003150,10.306704520,0.009526310,0.056971610,0.015997890
1640835578.426890,0.008231680,0.283920880,10.285373690,0.049166370,0.093920510,0.018694990
1640835578.427399,0.519629660,0.142570760,9.321544650,0.009544190,0.042676930,0.004184250
1640835578.432320,0.301500470,-0.264915080,9.845891950,-0.016923250,-0.004467370,0.027571620
1640835578.434239,0.168763880,-0.366355540,9.133132930,0.005351010,0.010259450,0.024861100
1640835578.437800,-0.102120450,-0.395846010,9.252788540,0.058843190,-0.057944660,-0.006945430
1640835578.438560,-0.516832650,-0.130269410,10.227756500,0.042000410,0.043958430,-0.008103250
1640835578.442070,-0.500884470,0.469031130,10.084232330,0.001329180,0.058300790,-0.029826160
1640835578.443990,-0.718735640,0.783180060,10.845234870,-0.009109080,-0.048403450,-0.009119510
1640835578.448940,-0.465845320,1.108322860,9.907378200,-0.019569700,-0.001098220,0.020568070
1640835578.451460,-0.201805170,1.149974230,9.133313180,0.018933410,-0.020964450,0.013272460
1640835578.452200,-0.282141630,1.001858120,9.684417720,0.018627940,-0.012071430,0.010627510
1640835578.452770,0.125064030,0.924579020,9.019816400,-0.038373470,0.022618470,0.022767490
1640835578.457150,0.183188840,0.346173020,9.885822300,-0.056301060,-0.006152690,0.030753020
1640835578.458480,0.126507310,-0.186071370,10.393821720,-0.043568020,0.008066000,0.031252210
1640835578.462180,0.305405910,-0.292866140,9.794168470,0.004839900,-0.029487910,0.028689210
1640835578.462950,0.101756000,-0.497635280,9.952110290,0.008209050,-0.017926100,0.014385580
1640835578.467110,0.126829030,-0.342350360,9.357992170,-0.025579330,0.023965530,-0.010094050
1640835578.467700,-0.044754520,0.086275880,9.453417780,-0.033082060,-0.002194940,-0.007292630
1640835578.472119,-0.389083090,0.154011350,9.679672240,-0.027070940,-0.004333260,-0.013956430
1640835578.473120,-0.531735060,0.502767680,9.601732250,0.019688910,-0.060911480,-0.017355380
1640835578.477360,-0.639674430,0.815157590,9.499779700,0.011681020,-0.039531300,-0.017796460
1640835578.479370,-0.508020700,0.633161310,9.641056060,-0.040498370,0.013662870,-0.001840290
1640835578.482169,-0.303257260,0.729647580,10.247488020,-0.010916590,0.017273430,0.003647800
1640835578.483830,0.148671570,0.604442420,9.835042950,-0.013960900,-0.002117460,0.012679400
1640835578.486899,0.425186100,0.134216700,9.937229160,-0.013159220,-0.024576490,0.052343320
1640835578.488590,0.322721480,-0.170533840,9.747025490,0.034639240,0.036194920,0.032781060
1640835578.492480,0.040465930,-0.495530340,9.547715190,0.031387810,-0.103811930,-0.006397070
1640835578.493800,-0.386297350,-0.128195910,9.667747500,-0.007595120,-0.100314620,-0.005579000
1640835578.496850,-0.373101560,0.081509930,8.952381130,-0.062766660,-0.000676510,-0.046147400
1640835578.497210,-0.588818730,0.336129670,10.321516040,-0.042286520,-0.020237270,-0.035358970
1640835578.501979,-0.559236290,1.023584010,10.535391810,0.007908050,0.021399560,-0.008666520
1640835578.502849,-0.189004560,0.938808380,9.826197620,0.010557470,-0.082072620,0.005188580
1640835578.508010,-0.334777620,1.028845910,10.230417250,-0.013484060,-0.087781240,0.039315220
1640835578.511020,0.003558240,1.040775300,8.938344960,-0.076514500,-0.020638110,0.031131510
1640835578.511880,0.027053900,0.297929170,9.590519910,-0.087107730,-0.071452570,0.035640600
1640835578.513430,0.040663710,0.118705140,9.856416700,-0.012177230,-0.010287760,0.014194850
1640835578.517200,0.453111620,-0.066881910,9.169093130,-0.001166760,-0.018794840,-0.008234380
1640835578.518230,0.109427030,-0.308295490,10.463307380,-0.049063570,-0.019791730,0.023634740
1640835578.521989,0.047466560,-0.174841630,9.862524030,-0.062927590,-0.019699330,0.012616810
1640835578.522670,-0.010179120,-0.260958700,9.637887950,-0.047883400,-0.142781440,-0.009556120
1640835578.527150,-0.344853160,-0.034189620,9.599433900,-0.008609890,-0.026154520,0.004146990
1640835578.528400,-0.246589350,0.195399580,9.058241840,0.016230340,0.018213690,-0.019848350
1640835578.532160,-0.651066960,0.437435090,10.225814820,0.001488630,-0.056059670,-0.029131770
1640835578.533870,-0.611758230,0.750818550,9.651671410,-0.045430660,-0.079604970,-0.010304150
1640835578.537030,-0.240021040,0.623262520,9.295333860,-0.050786130,-0.101427730,-0.008760390
1640835578.537700,-0.208204420,0.631862640,9.868669510,-0.011570750,-0.010745230,0.021192440
1640835578.542070,0.236712020,0.470091490,9.972442630,0.007113810,0.017741320,0.045149030
1640835578.542950,0.383766080,0.116821150,10.374097820,0.019378960,-0.027060510,0.030985470
1640835578.546909,0.292605490,-0.068102070,9.966463090,0.001575050,-0.081232200,0.018113850
1640835578.547420,0.259419980,-0.054898850,9.321962360,-0.039429970,-0.094453990,-0.006170570
1640835578.551990,-0.243016450,0.065804350,9.282549860,-0.045391920,-0.071591140,-0.040414930
1640835578.552790,-0.451441170,0.416637450,9.574676510,-0.038401780,-0.086310500,-0.050711630
1640835578.557880,-0.332765730,0.898132680,9.578349110,-0.052997470,-0.001183150,-0.017444790
1640835578.558580,-0.410991160,0.833464210,10.280330660,-0.043414540,-0.006146730,0.013230740
1640835578.562189,-0.380864500,0.836134310,10.871919630,-0.030344720,-0.054740910,0.033983590
1640835578.562780,-0.242346610,0.921761870,9.663208960,-0.045864290,-0.115734340,0.028187040
1640835578.568140,-0.112789640,0.413318780,9.322151180,-0.092594330,-0.134740780,0.029940910
1640835578.568770,0.249865950,0.188737200,8.944624900,-0.080494590,0.024078790,0.011117760
1640835578.575280,0.430278060,0.010686280,9.205693240,-0.044171510,0.021290780,-0.024439400
1640835578.575899,0.293003140,-0.172784600,10.460142140,-0.053633750,-0.028818850,0.009265540
1640835578.577520,0.349518810,-0.159194100,9.737135890,-0.045578180,-0.066128370,0.008165840
1640835578.578879,0.007457540,-0.312812890,9.837172510,-0.059451170,-0.130262970,0.002287330
1640835578.582120,-0.258884400,-0.158886080,9.898715020,-0.047528740,-0.009883940,0.024598840
1640835578.584030,-0.270150180,-0.019012530,9.366119380,0.008274620,-0.009712580,-0.020109120
1640835578.586900,-0.376610730,0.328881440,9.946663860,-0.002400580,-0.043456260,-0.036904220
1640835578.587540,-0.288888310,0.827534140,9.424482350,-0.040547550,0.002272430,-0.012750920
1640835578.591879,-0.380591570,0.563286420,9.520397190,-0.051341950,-0.096194450,-0.007531050
1640835578.592800,-0.430211510,0.559260790,9.943383220,-0.007140640,-0.094699870,0.006498400
1640835578.596860,-0.017104160,0.638320510,9.251143460,0.007019940,-0.021936000,0.023467840
1640835578.597290,0.105153050,0.209402290,10.295979500,-0.040115420,0.028717520,0.020107630
1640835578.608539,0.160199050,0.074928030,10.836781500,-0.026614960,0.020596380,0.017662340
1640835578.609380,0.296664830,0.179148690,9.856910710,-0.016306340,-0.105327380,-0.004640220
1640835578.609740,0.104286230,0.079642240,9.399758340,-0.042505570,-0.126971320,-0.007691980
1640835578.610080,0.014405160,0.335517380,8.851088520,-0.045970080,-0.025580830,-0.022576750
1640835578.611810,-0.123761570,0.612101320,9.255734440,-0.073601310,0.008833410,-0.032874950
1640835578.612550,-0.397586460,0.484328540,10.531880380,-0.059179970,-0.013978780,0.001567600
1640835578.616819,-0.414342340,0.622802500,10.406729700,-0.018201770,-0.050358470,0.007922950
1640835578.617720,-0.436668660,0.737580900,10.098860740,-0.045268240,-0.124248860,0.012478230
1640835578.622059,-0.350682230,0.545818390,9.795154570,-0.095847250,-0.058187550,0.040203330
1640835578.622949,0.091233730,0.316498460,9.005634310,-0.095127520,0.025601680,0.001379850
1640835578.626819,0.298906950,0.095077790,9.528782840,-0.020992760,-0.002752240,-0.018398460
1640835578.627220,0.440109040,0.156566160,9.713984490,-0.021128350,0.009198490,0.007969140
1640835578.631850,0.400689070,-0.027499820,9.574043270,-0.055386130,-0.056187810,0.013667350
1640835578.632480,-0.081529710,-0.391632560,10.194551470,-0.059786440,-0.111882390,0.017182530
1640835578.637019,-0.199244540,-0.293334690,9.499012950,-0.039359920,-0.044023990,0.017012660
1640835578.637670,-0.298238960,-0.233383100,9.641911510,0.010465090,-0.001142920,-0.012043120
1640835578.643440,-0.372366790,0.057112520,10.209554670,0.008724630,0.037151580,-0.028656420
1640835578.643900,-0.160354240,0.660978500,9.638341900,-0.020577010,-0.011961160,-0.030048190
1640835578.647030,-0.173972380,0.494809120,9.674231530,-0.037537520,-0.081248590,-0.006738310
1640835578.648579,-0.209041970,0.397281020,9.355897900,0.000716750,-0.059606130,0.010037420
1640835578.652030,-0.197355570,0.534552450,9.289231300,0.064428160,-0.046086310,0.011931360
1640835578.654389,-0.225096760,0.318106920,9.997610090,-0.006647410,-0.006940960,0.014410920
1640835578.658720,0.059063000,0.290021900,10.186170580,-0.048033900,0.004394350,0.007379060
1640835578.659330,0.192430080,0.206545370,10.386291500,-0.010108950,-0.005751850,-0.007481870
1640835578.662710,0.159725010,0.239408390,10.075345040,-0.001381340,-0.057563190,0.001513960
1640835578.663200,0.189690310,0.367336480,9.393227580,0.016911330,-0.066809360,0.009974840
1640835578.667860,0.071155140,0.352087290,9.053215980,-0.015509130,-0.021465120,-0.011207160
1640835578.672330,-0.191082840,0.475273940,9.672849660,-0.052279230,-0.017638510,0.010314580
1640835578.673620,-0.317880270,0.592185910,10.040653230,-0.037349760,0.008930270,0.004611910
1640835578.675079,-0.366190760,0.543047900,10.054680820,-0.033518680,-0.056867300,-0.015062090
1640835578.679280,-0.401154160,0.791518390,10.287220950,-0.034783780,-0.063937900,0.010913610
1640835578.679679,-0.038093340,0.562834140,9.396166800,-0.062200430,0.032848120,0.001914800
1640835578.682170,0.127650830,0.300630450,9.611016270,-0.045132640,-0.015404820,-0.006666780
1640835578.684320,0.265635190,0.478848810,9.677952770,-0.029431290,0.035592910,0.018236040
1640835578.686980,0.424989880,0.113100350,9.122287750,-0.067943330,-0.001625720,0.005327160
1640835578.689149,-0.064077750,-0.254939350,10.192078590,-0.037069620,-0.069114570,0.027337670
1640835578.692080,-0.172304650,-0.168287800,9.423918720,-0.012151900,-0.013181570,0.000321870
1640835578.694219,-0.274187680,-0.284729810,9.553781510,-0.018779930,-0.066223750,-0.021550060
1640835578.696839,-0.504283250,0.071022220,10.351093290,-0.034020840,0.036823750,-0.027187170
1640835578.699030,-0.039935150,0.422661070,9.358078000,-0.043927140,0.045402350,-0.049580640
1640835578.702139,-0.222023700,0.508879240,10.271676060,-0.019897520,-0.054565070,-0.016257170
1640835578.705910,-0.115057540,0.592216130,9.523499490,0.010500850,0.005927680,0.008963050
1640835578.707909,-0.052949340,0.376883420,9.078923230,0.032384700,-0.073011230,0.009809430
1640835578.708500,-0.450008270,0.323779430,10.036269190,-0.008189680,-0.034804630,0.019349160
1640835578.713400,-0.114681480,0.281358750,9.380308150,-0.049562760,0.024087730,0.003474950
1640835578.715180,-0.144207090,0.098944370,10.355297090,-0.027893490,-0.036740300,-0.012215970
1640835578.717219,-0.108137590,0.315431450,10.426909450,-0.004200640,0.008329750,-0.000354650
1640835578.718180,0.289640720,0.342124340,9.535106660,-0.004073980,-0.026439130,0.006295740
1640835578.721979,0.068488630,0.106799150,9.927451130,0.008420650,-0.025521220,0.004833940
1640835578.722750,0.073382350,0.284981310,9.396295550,-0.007668140,-0.006367270,-0.004835430
1640835578.728600,-0.078479250,0.409567920,9.527065280,-0.037020440,-0.056613980,0.000831480
1640835578.729930,-0.402934370,0.239847560,9.783242230,-0.034312900,-0.025126340,-0.002726910
1640835578.732060,-0.225449400,0.351558510,9.669788360,-0.000885130,-0.021293760,0.003421310
1640835578.733450,-0.180840020,0.464791980,9.904339790,0.009295340,0.022605060,0.020456310
1640835578.737350,0.042135710,0.262480850,10.064738270,-0.013165180,0.021679700,0.024682290
1640835578.738180,0.256088550,0.336283000,9.974776270,-0.012499100,0.019152460,0.025902690
1640835578.742329,0.230991590,0.259500560,9.398359300,-0.018209220,-0.020433960,0.012943150
1640835578.743710,0.144163970,-0.131633000,9.520389560,-0.002194940,-0.028106570,0.009715560
1640835578.746879,-0.112512570,-0.011015030,9.163170810,0.058650980,0.026674570,-0.009121000
1640835578.747269,-0.328772250,-0.020441040,9.592416760,0.010217720,-0.039260090,-0.025683640
1640835578.752240,-0.394726630,0.123780740,10.208456040,-0.030955670,0.029349330,-0.009036070
1640835578.753559,-0.282078420,0.209241110,9.761682510,0.006312130,0.040888790,-0.017040970
1640835578.757059,-0.294201230,0.254857780,10.430293080,0.045055150,-0.045812130,0.007517640
1640835578.757550,-0.077807840,0.554909110,9.592974660,0.055126850,0.033231080,0.046117600
1640835578.762260,0.077246010,0.203596850,9.273240090,0.031824410,0.009161230,0.027731060
1640835578.762849,-0.190107150,0.248140140,10.180070880,0.030192730,-0.009037550,0.026187300
1640835578.766940,-0.123322430,0.502232020,9.315365790,0.017060340,-0.030036270,-0.002028050
1640835578.767540,-0.205927480,0.345621380,9.869276050,-0.011666120,-0.080820930,-0.023818020
1640835578.772019,-0.140095740,0.712209220,9.828149800,-0.007851420,0.055636470,0.003966690
1640835578.772760,0.128510560,0.683058920,9.669292450,-0.007788840,0.052651770,0.021050870
1640835578.776970,0.018750390,0.382167910,10.732162480,0.012770300,0.012949110,0.044205800
1640835578.777850,0.124869210,0.400358440,9.533138280,0.038307910,-0.007155540,0.041523580
1640835578.782189,0.087663070,0.133983910,9.380454060,-0.004145500,-0.061254200,0.025261940
1640835578.782899,-0.175950270,-0.048906440,9.576364520,-0.027538840,0.042361020,0.020018220
1640835578.787279,-0.100419630,-0.116678790,9.224224090,0.019845370,0.022459030,-0.005583470
1640835578.788179,-0.232826430,0.000074800,9.977212910,0.038979940,-0.004349650,-0.016091760
1640835578.791880,-0.195068570,0.246587440,9.644242290,0.000953670,0.031864640,0.007921460
1640835578.792379,-0.019635170,0.275089350,9.700831410,-0.012214480,0.003844500,0.003525620
1640835578.797279,-0.127251520,0.390909970,10.029503820,0.016702710,0.013063850,0.010336940
1640835578.798730,0.100883770,0.452791990,9.547333720,0.035603340,0.009259580,0.039872520
1640835578.802680,0.111652820,0.336649540,9.627893450,0.041696430,0.048205250,0.020556150
1640835578.805150,-0.126691940,0.240296330,9.879762650,0.036023560,0.024811930,0.014270840
1640835578.806820,-0.203063910,0.377094810,9.782808300,0.005887450,-0.021189450,0.010037420
1640835578.807269,-0.300959560,0.293222430,9.459240910,-0.010134280,-0.040461130,-0.017611680
1640835578.812450,-0.308495490,0.412805200,9.650763510,-0.007952750,-0.000128150,-0.020040570
1640835578.814000,-0.095709230,0.687429310,9.723236080,0.000832980,0.088793050,0.002680720
1640835578.816890,-0.058092420,0.402781640,10.333436010,0.007718800,0.036220260,0.004103780
1640835578.817420,-0.046279810,0.492866070,10.475991250,0.012052060,-0.010210280,0.012938680
1640835578.822199,0.110997510,0.606692490,9.341247560,-0.008778270,-0.022605060,0.010716920
1640835578.823040,-0.162980080,0.296073350,9.716859820,-0.054194040,-0.024817880,0.010730330
1640835578.826860,-0.167999120,0.469783130,9.446659090,-0.037093460,0.041382020,0.007040800
1640835578.827980,-0.039614450,0.404475270,9.264512060,-0.007535520,0.008992850,-0.001513960
1640835578.832370,-0.099968250,0.328499440,9.979008670,-0.035853690,0.050796570,0.026960670
1640835578.833040,0.172180210,0.341343610,9.778409960,-0.026202200,0.071452570,0.035552680
1640835578.839010,-0.067331310,0.039164750,10.328288080,-0.024427480,-0.022701920,0.020234290
1640835578.839589,-0.033465830,0.163252790,9.922440530,-0.029791890,-0.020447370,0.018471480
1640835578.842399,0.091864530,0.002580360,9.098193170,-0.015522540,0.036866960,-0.003820660
1640835578.842800,-0.123829170,-0.114233250,9.550842290,-0.011096890,0.060078510,-0.033043320
1640835578.847220,-0.203659620,0.219049230,9.757237430,-0.006502870,0.044791400,-0.012086330
1640835578.848909,-0.321942300,0.111809060,9.594154360,-0.015223030,-0.024229290,-0.009582940
1640835578.852180,-0.430538090,0.170800690,9.795734410,-0.009861590,-0.054095690,0.006161630
1640835578.854310,-0.201549830,0.445030030,9.619707110,-0.005736950,0.058892370,0.033037360
1640835578.856860,-0.129212360,0.201580790,10.076396940,-0.004439060,0.084339080,0.026091940
1640835578.858039,-0.171254130,0.125314910,10.845240590,0.052867830,0.022870300,0.025993590
1640835578.862720,-0.071692930,0.492265910,9.746294980,0.038497140,-0.033758580,0.004459920
1640835578.863430,-0.151303320,0.444791730,9.199566840,-0.039733950,-0.089560450,-0.000323360
1640835578.866999,-0.274010780,0.437664900,9.414916040,-0.053131580,0.007864830,-0.001761320
1640835578.867450,-0.082646950,0.597489360,9.111748700,-0.015309450,0.060154500,-0.011819600
1640835578.872100,-0.174483280,0.449411090,10.582442280,0.008879600,0.015480820,0.017394130
1640835578.873040,-0.027090440,0.516056120,10.429944990,0.004917380,0.055021060,0.030845400
1640835578.878620,0.031036650,0.393591020,9.841919900,-0.029814250,-0.065939140,0.023539360
1640835578.879060,-0.245930420,0.174824740,10.265259740,-0.052903600,-0.057025250,0.043508410
1640835578.882279,-0.059984330,0.122051890,8.764255520,-0.033819680,0.033235550,0.009217860
1640835578.883580,-0.126200140,-0.005325710,9.336291310,0.019727650,-0.031179190,-0.014282760
1640835578.887780,-0.137282570,0.218627140,9.685804370,-0.005127490,0.072810060,0.006547570
1640835578.891100,0.030674800,0.213389660,9.599993710,-0.037755080,0.016275050,0.010144710
1640835578.893000,-0.347039340,-0.061106730,10.936182980,-0.016349560,-0.057987880,0.020469730
1640835578.894189,-0.162199440,0.178230850,9.655077930,0.006665290,-0.038559730,0.017355380
1640835578.899740,-0.011571100,0.037556330,9.426639560,0.033366670,-0.028011200,-0.003816190
1640835578.900230,-0.131288590,-0.059196860,9.856608390,0.040526690,0.095084320,-0.020730500
1640835578.904100,0.033389500,0.274165180,9.388033870,0.030976540,0.019972030,-0.022020940
1640835578.905750,-0.171302300,0.213813360,9.912011150,0.009712580,-0.072835390,-0.006285310
1640835578.906829,-0.298027370,0.139733480,9.449013710,0.008551780,-0.048328940,-0.004018840
1640835578.907270,-0.283096460,0.330259800,9.547172550,0.045998390,-0.042968990,0.001685320
1640835578.911960,-0.456516920,0.257754560,10.264847760,0.044426330,0.049766900,0.003993510
1640835578.912940,-0.134809990,0.311789160,10.344658850,0.034941740,0.012493140,-0.001211460
1640835578.916960,-0.133670630,0.561556040,10.341178890,0.041392440,-0.029064710,-0.001181660
1640835578.917580,-0.102318640,0.532301490,9.637718200,-0.006274880,-0.076243290,-0.006367270
1640835578.922780,-0.035465820,0.516566990,9.246686940,-0.002665820,-0.070676210,-0.005921720
1640835578.924170,-0.067067640,0.618514300,9.061485290,0.026860840,0.000391900,-0.021564960
1640835578.928010,-0.007010500,0.511516450,9.681911470,-0.001670420,-0.001393260,0.000813600
1640835578.928680,-0.025987040,0.537531610,10.390930180,-0.009505450,0.041376050,0.024060910
1640835578.933179,-0.109487090,0.290103820,10.298466680,-0.013601780,-0.049510600,0.002072750
1640835578.933859,-0.241076410,0.179293900,10.287578580,-0.011086460,-0.125516950,0.033050780
1640835578.936900,-0.117188920,0.160137500,9.056241990,0.007663670,-0.015078490,0.010263920
1640835578.938190,-0.067002160,-0.021999020,9.164360050,-0.001077350,-0.017607210,-0.024192030
1640835578.942469,-0.011908930,0.346467910,9.774971010,-0.001774730,0.048127770,-0.011464950
1640835578.943280,0.168987770,0.288239810,9.494992260,-0.022557380,0.023122130,-0.020463770
1640835578.947490,-0.177122470,0.044580520,10.518559460,0.000339750,-0.112383080,-0.001713630
1640835578.949689,-0.264716030,0.206008630,9.648606300,0.048363210,-0.051936510,-0.001859660
1640835578.951820,-0.275629820,0.004308510,9.288085940,0.033321980,-0.062377760,-0.008323790
1640835578.952250,-0.393700120,0.130024240,10.124741550,0.014978650,0.021477050,0.005075340
1640835578.956980,0.005582510,0.357043060,9.555835720,0.013932590,0.048398970,-0.016213960
1640835578.957729,0.036434780,0.322957130,10.189135550,0.000242890,-0.053656100,-0.011552870
1640835578.962730,-0.084655910,0.418773650,9.951253890,0.040380660,-0.039291380,0.000554320
1640835578.963209,0.019217350,0.429214030,9.096880910,0.056092450,-0.083982960,-0.018376120
1640835578.966850,-0.304383130,0.555512610,9.769804950,0.003762540,-0.055578350,0.001032650
1640835578.967379,-0.222582190,0.557706120,9.701076510,-0.030148030,0.036786500,0.002515320
1640835578.972309,-0.095262180,0.422875940,10.180174830,-0.012382860,-0.016409160,-0.007918480
1640835578.974160,-0.245206460,0.509573820,10.621980670,0.027261670,-0.042740990,0.008252260
1640835578.976850,-0.003150710,0.449809910,9.663570400,0.015929340,-0.049120190,0.006917120
1640835578.978459,-0.038619350,0.288040220,9.300494190,-0.015024840,-0.067338350,-0.015982990
1640835578.981819,-0.058960860,0.249905320,9.354872700,-0.025157630,-0.015440580,-0.005470220
1640835578.982200,0.049230210,0.170010570,9.343030930,-0.028060380,0.024636090,0.000023840
1640835578.986840,-0.228219430,-0.027665810,10.211555480,0.024288890,-0.047644980,-0.006073710
1640835578.988459,-0.317937880,0.091604430,10.185753820,0.022770460,-0.079227980,0.010402500
1640835578.992030,-0.099923000,0.184956180,9.253003120,-0.016182660,-0.049251330,0.007173420
1640835578.992820,-0.224747230,-0.020537510,9.950599670,-0.015141070,0.001764300,-0.004556780
1640835578.996860,-0.001959630,0.348048600,9.830732350,0.011371070,0.021767610,-0.020675360
1640835578.997259,0.114551700,0.494842980,9.469259260,0.029432780,-0.059126320,-0.020465260
1640835579.001870,-0.091288890,0.222885560,9.871212960,0.009727480,-0.044187910,-0.007341800
1640835579.002359,-0.171760420,0.318310020,9.298302650,0.027017300,-0.054840750,-0.011223550
1640835579.006960,-0.530932720,0.100692110,9.655065540,0.034740560,-0.124673530,-0.014995040
1640835579.007599,-0.468426670,0.185616150,9.684274670,-0.008220970,-0.031116600,-0.017227230
1640835579.011819,-0.223391210,0.386766670,9.672667500,0.009511410,-0.008988380,-0.020307310
1640835579.012240,-0.209006990,0.272488950,10.587674140,0.017289820,-0.033862890,-0.008167330
1640835579.016820,0.089660550,0.507833540,9.999638560,0.029744210,-0.047473610,0.011420250
1640835579.017340,0.012400680,0.457276490,9.599340440,0.043539710,-0.113891090,0.004869700
1640835579.022280,-0.181959030,0.371391590,9.438055040,-0.008705260,-0.098039220,-0.004857780
1640835579.023190,-0.133581300,0.537183050,9.166238780,-0.021359320,-0.053276130,-0.009083750
1640835579.026960,-0.313439250,0.364974080,9.869734760,-0.013653930,-0.027561190,-0.022673610
1640835579.027360,-0.194711790,0.471613320,10.214228630,-0.004431610,-0.063312050,-0.017447770
1640835579.031849,-0.005259800,0.704979180,9.992249490,-0.006955860,-0.058233740,0.011807680
1640835579.032199,0.108147080,0.300089030,9.798065190,-0.040377670,-0.034490220,0.010530650
1640835579.036939,0.080219640,0.248337450,9.985004430,0.002817810,-0.061713160,0.020816920
1640835579.037390,0.046429370,0.302542810,9.378302570,0.005133450,-0.063289710,-0.003139670
1640835579.042739,0.054239830,-0.074259070,9.318603520,-0.020673870,-0.096623600,-0.008995830
1640835579.043180,-0.078537780,0.112829850,9.538754460,-0.021520260,-0.012953580,-0.005877020
1640835579.046830,0.041258680,0.018841790,9.341239930,-0.024317210,-0.007463990,-0.023294990
1640835579.047160,-0.191581700,-0.115854710,10.452561380,0.015003980,-0.063169000,0.000330810
1640835579.051859,-0.144395930,0.245930490,9.752878190,0.037589670,-0.037448110,-0.007818640
1640835579.052310,-0.016951940,0.160869730,9.519111630,-0.002658370,-0.102254760,0.009980800
1640835579.056900,-0.170982260,0.106956390,9.960524560,-0.002507870,0.003781920,0.038774320
1640835579.057400,0.078578770,0.023180790,9.195983890,0.048443680,0.018304590,-0.007244950
1640835579.061839,-0.251636740,0.047002760,10.189559940,0.075878210,-0.084425510,-0.023911890
1640835579.062180,-0.374467910,0.377593040,9.588162420,0.031828880,-0.068911910,-0.021620100
1640835579.066890,-0.184712410,0.338546100,9.112858770,-0.008445980,-0.114868590,-0.039798020
1640835579.067510,-0.400111910,0.512114470,10.035178180,-0.003232060,-0.028441840,-0.010964270
1640835579.072189,-0.048366330,0.538222370,9.802131650,0.023494660,0.042352080,0.007088480
1640835579.073380,0.011618780,0.274115890,10.595132830,0.081691150,-0.059622530,0.003042820
1640835579.076799,-0.113418590,0.451705990,10.208214760,0.065842280,-0.083707280,0.016441940
1640835579.077100,0.074313940,0.458341510,9.151187900,-0.009502470,-0.109985460,0.019001960
1640835579.081800,-0.233347920,0.288225980,9.436663630,-0.042362500,-0.073519360,-0.010532140
1640835579.082199,-0.146684170,0.462960960,9.200943950,-0.014205280,-0.025741760,-0.019870700
1640835579.086820,0.059680620,0.555642130,9.698497770,0.017654900,0.002430380,-0.018742680
1640835579.087230,-0.144645530,0.474299010,10.518201830,0.016239290,-0.012019280,-0.007617470
1640835579.092470,-0.033622120,0.510551990,10.347638130,-0.008754430,-0.112037350,0.027500090
1640835579.092980,-0.021119780,0.445033130,9.531134610,-0.054818400,-0.085151200,0.033625960
1640835579.096750,-0.037225420,-0.002662510,9.388944630,-0.054577000,-0.034439570,0.014550980
1640835579.097020,0.052388190,-0.026789300,9.509902000,0.031651560,0.019267200,-0.011430680
1640835579.101920,0.052271120,0.114590140,9.213095660,0.054100170,-0.020903350,-0.044699010
1640835579.102389,-0.149482250,0.132130820,10.024706840,-0.021454690,-0.071579230,0.001335140
1640835579.106880,-0.289790150,0.150439340,9.729507450,-0.047764190,-0.052814190,0.011910500
1640835579.107440,-0.457425980,-0.074851920,9.796592710,-0.005276500,-0.140322760,-0.002007190
1640835579.111800,-0.311754490,0.019751150,10.050148960,0.065356490,-0.020211940,0.009122490
1640835579.112219,-0.001109530,0.127301080,9.440781590,0.087273110,0.047233690,-0.021031500
1640835579.116890,0.005600550,0.238373380,10.416461940,0.017714500,-0.044400990,-0.013719500
1640835579.117380,0.121889430,0.474373340,9.802701000,-0.024479630,-0.033538050,0.013859570
1640835579.122049,0.104731050,0.142331120,9.080383300,0.020115080,-0.139100850,-0.013774630
1640835579.122690,-0.154067650,0.315311580,9.676362990,0.074100500,-0.092945990,-0.003710390
1640835579.126809,-0.111143520,0.564969060,9.270811080,0.060105330,0.018160050,0.007715820
1640835579.127110,-0.222827630,0.277186990,10.632392880,-0.001913310,-0.024886430,-0.002239640
1640835579.131820,-0.233848900,0.543578090,10.831363680,-0.017477570,-0.013232230,0.006793440
1640835579.132920,-0.029908630,0.557519020,9.673760410,0.010387600,-0.088651480,0.001983340
1640835579.136819,-0.151352170,0.371143340,9.802126880,0.025533140,-0.092291830,-0.007213650
1640835579.137230,0.007474650,0.646428470,8.931502340,0.027936700,-0.008133050,-0.012657050
1640835579.142730,0.103692490,0.586750090,9.172383310,-0.024040050,-0.030589100,0.004194680
1640835579.143360,-0.004137760,0.254323150,10.275626180,-0.038212540,0.005505980,0.023669010
1640835579.146800,0.028225150,0.228824910,10.088415150,0.005611780,-0.032612690,0.024987750
1640835579.147270,-0.009037540,0.082652310,10.116079330,0.020422040,-0.098726160,0.024828310
1640835579.151840,0.024907700,-0.068520340,9.705252650,0.010140240,-0.001485650,0.007964670
1640835579.152150,0.271764870,0.164299860,9.289100650,-0.018422310,0.038084390,-0.015056140
1640835579.156890,0.158961790,0.241320180,9.813035010,-0.016020240,0.024050470,-0.026169420
1640835579.157379,0.058772050,0.181342450,9.799305920,0.000502170,-0.011627370,-0.006239120
1640835579.161769,-0.134947540,0.255145490,9.390074730,0.035300850,-0.068278620,-0.012663010
1640835579.162070,-0.557222600,0.072121280,9.652259830,0.043979280,-0.076192610,0.003820660
1640835579.166890,-0.594854180,0.164421860,9.610766410,-0.000725690,0.000086430,0.005359950
1640835579.167420,-0.361306880,0.244563150,9.788625720,-0.000172850,0.020685790,-0.022456050
1640835579.172080,-0.135059980,0.246727750,10.404489520,0.015610460,0.014474990,-0.001318750
1640835579.172720,0.249930350,0.372226330,9.937201500,0.044523190,0.016471740,0.012920800
1640835579.176880,0.215109150,0.091846300,9.905849460,0.085388120,-0.052496790,0.005765260
1640835579.177410,0.010640210,0.087193160,9.654108050,0.053754450,-0.081852090,0.019095840
1640835579.181860,0.006336260,0.269338250,9.012790680,0.013877450,-0.045287610,-0.001329180
1640835579.182180,-0.286163570,0.099119580,9.926079750,-0.014409420,-0.011274220,-0.029167530
1640835579.186780,-0.279500160,0.519604620,10.245381360,0.016154350,0.014735760,-0.027656560
1640835579.187110,-0.142197520,0.772457600,10.232954980,0.039859120,-0.015322870,-0.020234290
1640835579.192540,-0.129810010,0.649413350,10.233971600,0.014929470,-0.028072300,0.007332860
1640835579.193159,0.027301040,0.678381320,9.643151280,0.033336880,-0.032371280,0.029623510
1640835579.196910,-0.055138020,0.476857100,9.475495340,0.011825560,-0.027287010,0.014644860
1640835579.197549,-0.070205110,0.254595490,9.599115370,-0.006370250,-0.021378700,0.023064020
1640835579.201830,-0.053160230,0.118454280,9.729822160,0.018915540,-0.011736150,0.006021560
1640835579.202180,0.031353200,0.034481830,9.588307380,0.001721080,-0.003327430,-0.012953580
1640835579.206920,0.042332400,0.023684520,10.083597180,0.011302530,-0.004985930,0.011226530
1640835579.207470,0.131684420,0.117268450,9.892330170,0.027085850,0.033774970,-0.018003580
1640835579.211820,0.162078400,0.283156070,9.868950840,0.000442560,-0.041981040,-0.012905900
1640835579.212810,0.039260380,0.299327160,10.003450390,0.006733840,0.013558570,0.029382110
1640835579.216770,0.125710410,0.053392130,9.165186880,0.040814280,0.042909390,-0.015425680
1640835579.217039,-0.330667290,0.166746300,10.022749900,0.072479270,-0.053140530,-0.016584990
1640835579.222100,-0.379336860,0.455997230,9.501868250,0.020283460,0.013178590,-0.013817850
1640835579.222869,-0.244248910,0.231963930,9.278823850,-0.028158720,-0.025434790,-0.032381710
1640835579.226780,-0.422793450,0.367736640,10.488345150,0.011590120,0.011414290,-0.011385980
1640835579.227150,0.037921030,0.443819910,9.710817340,0.050501530,0.073562570,0.003851950
1640835579.231819,0.040198240,0.126371940,10.395057680,0.080922250,-0.027005380,0.007662180
1640835579.232220,-0.142775800,0.317354320,10.280532840,0.046913330,0.010174510,0.015547870
1640835579.236790,0.070538410,0.271125850,9.012537000,-0.012020770,-0.055192410,0.006550550
1640835579.237170,-0.310496570,0.095198260,9.824329380,-0.000661610,-0.046309840,-0.012695790
1640835579.242260,-0.216918890,0.527077670,9.374395370,0.032414500,0.035724050,-0.038415200
1640835579.243170,0.008059030,0.756215390,9.682534220,0.019897520,0.006949900,-0.021114940
1640835579.246840,-0.162128480,0.725770120,10.652962680,-0.012941660,0.051797930,0.012467800
1640835579.247190,0.109237520,0.676398460,10.041917800,-0.002868470,0.008732080,0.023947650
1640835579.251770,-0.089288520,0.467821780,10.145418170,0.017245110,-0.082317000,0.028499960
1640835579.252050,-0.072093930,0.326836620,9.387225150,-0.005701180,-0.009454780,0.017629560
1640835579.256929,0.120881040,0.124230730,9.091451640,-0.019790230,0.029793380,0.001560150
1640835579.257540,-0.108309160,-0.056484930,9.725360870,-0.006970760,0.047037000,-0.025798380
1640835579.261890,0.059058070,-0.025371870,9.801508900,-0.003395970,0.011387470,-0.010769070
1640835579.262250,-0.038845990,-0.022258250,9.896810530,0.019909440,-0.005239250,0.002530220
1640835579.266830,-0.216043170,-0.047126910,9.950495720,0.019156930,-0.029727820,0.005112590
1640835579.267340,-0.126434790,0.114338470,9.880810740,0.004501640,-0.005964940,0.021781030
1640835579.271860,-0.110607780,0.051206740,9.558214190,0.036911670,0.064341730,0.001890960
1640835579.272430,-0.060262870,0.091238780,9.962800030,0.060379500,0.006450710,-0.038906930
1640835579.277150,-0.032030330,0.646800280,9.615400310,0.033545500,0.036056340,-0.016163290
1640835579.277880,-0.101768930,0.398468700,9.324756620,0.004313890,-0.031603870,-0.021529200
1640835579.281839,-0.263385650,0.388311740,10.010530470,0.024846200,-0.028908250,0.005200510
1640835579.282209,-0.147494640,0.583039880,9.456588750,0.052425270,0.032559030,0.014935430
1640835579.287030,-0.160775360,0.131147380,10.254949570,0.045569240,0.007519130,0.012998280
1640835579.288190,-0.145208000,0.309972820,10.521897320,0.048910080,0.070676210,0.015811620
1640835579.292580,-0.068162980,0.394912810,9.786480900,0.028194490,-0.023923810,-0.012388830
1640835579.293860,-0.159202010,0.280614500,10.018207550,-0.026917460,-0.073866550,-0.008888540
1640835579.296759,-0.086382490,0.584400530,8.993117330,0.003211200,0.015640260,-0.026854870
1640835579.297070,-0.096307450,0.693888660,9.410689350,0.005207960,-0.005859140,-0.033798810
1640835579.301910,-0.119524620,0.801326990,10.302762990,-0.017356870,0.062030550,0.027209520
1640835579.302430,-0.030621770,0.700315420,10.102561000,-0.016476210,0.029765070,0.019207600
1640835579.307119,-0.177550360,0.490536120,10.648198130,-0.029453640,-0.069385770,0.024788080
1640835579.308240,-0.075035510,0.487449680,9.675189970,-0.039795040,-0.008331240,0.030887130
1640835579.311830,0.036743520,0.225774240,9.147885320,-0.033795830,0.017878420,-0.019635260
1640835579.312180,-0.043215340,0.306625840,9.734526630,-0.049236420,0.039529800,-0.038278100
1640835579.316800,0.032964950,0.343382870,9.459436420,-0.044597680,0.032281870,-0.002203880
1640835579.317119,-0.047574800,0.027095090,9.845357890,-0.039789090,-0.024025150,0.005406140
1640835579.321960,-0.247896330,-0.071066950,10.085911750,-0.002245600,-0.022664670,0.033101440
1640835579.322640,-0.186026230,-0.035734430,9.760623930,-0.003062190,0.000630320,0.029408930
1640835579.326939,-0.101814440,-0.082872120,9.903852460,-0.021748240,0.035114590,-0.006864970
1640835579.327530,0.003739030,0.029063950,9.909339900,-0.011770430,0.058084730,-0.022773440
1640835579.331780,0.148577660,0.293531510,9.511826520,-0.007873770,0.041911000,-0.029218200
1640835579.332059,-0.107421700,0.223204750,9.723369600,0.015720730,-0.027908380,-0.012695790
1640835579.336830,-0.338145580,0.263410690,9.529082300,0.023517010,-0.058613720,0.021030010
1640835579.337730,-0.261918340,0.289425430,9.126958850,0.014097990,-0.012452900,0.014202300
1640835579.343999,-0.339854870,0.026442270,10.205121040,0.009720030,0.061300390,0.018775460
1640835579.344580,-0.172354360,0.192898150,10.696105960,0.024257610,0.087463870,0.001540780
1640835579.346779,0.029051530,0.347348390,10.302231790,0.042176250,-0.007116790,-0.011779370
1640835579.347040,-0.068298180,0.332038020,10.004003520,0.011129680,-0.061087310,0.001049040
1640835579.351790,0.174431170,0.540489490,8.751932140,0.014843050,-0.003157560,-0.008362530
1640835579.352180,-0.057290660,0.519420090,9.200720790,0.009951000,0.002403560,-0.006896260
1640835579.356969,-0.274013130,0.581885340,10.114380840,-0.005497040,0.042410200,0.012859700
1640835579.357580,-0.183563110,0.625852880,10.200645450,0.007040800,-0.001706180,0.007304550
1640835579.361860,-0.323541640,0.468004110,10.521747590,-0.024448340,-0.040185460,0.007003550
1640835579.362210,-0.108608380,0.481262980,9.906913760,-0.023183230,0.033523150,0.018987060
1640835579.366880,0.014305320,0.359597650,9.592082980,-0.002393130,0.025230650,-0.016288460
1640835579.367280,0.063630380,0.371953430,9.577979090,-0.018587710,0.012448430,-0.003735720
1640835579.371930,0.303927540,0.389889780,9.278470040,-0.028918680,0.041304530,0.014185900
1640835579.372730,0.029299760,0.129756200,9.687654500,-0.027389830,0.028380760,0.018394000
1640835579.377070,-0.197975900,0.035896260,10.088817600,-0.009657440,-0.043186550,0.027136500
1640835579.377570,-0.149812830,0.145601330,9.687030790,-0.010566410,0.009644030,0.012476750
1640835579.381780,-0.152658940,0.081827270,9.699405670,-0.035265080,0.046032670,-0.018753110
1640835579.382059,-0.121143830,0.258928060,10.243998530,-0.013990700,0.052474440,-0.019286570
1640835579.387140,0.043039670,0.543671310,9.496222500,-0.006404520,0.064744060,-0.023090840
1640835579.388320,-0.134247240,0.290384170,9.644134520,-0.003229080,-0.050210950,0.007769460
1640835579.393280,-0.317538650,0.257836130,9.614107130,0.013813380,-0.006842610,0.030197210
1640835579.393839,-0.296648410,0.085640010,8.940914150,-0.004403290,-0.002458690,0.012238320
1640835579.396800,-0.443312700,-0.146366190,10.294411660,0.007544460,-0.001440940,0.012123590
1640835579.397090,-0.188654150,0.120283890,10.028984070,0.013031070,0.099356470,-0.019383430
1640835579.401860,0.066222910,0.219664560,10.079881670,0.008685890,-0.023722650,-0.031870600
1640835579.402360,-0.045110800,0.341849210,10.444872860,0.012892490,0.018623470,0.015717750
1640835579.407899,0.126341060,0.415012720,9.092246060,0.020435450,0.005677340,0.006684660
1640835579.408389,-0.291179180,0.414250730,9.811222080,0.027771290,-0.098453470,0.012017790
1640835579.411909,-0.399834660,0.569032910,9.465999600,-0.003334880,0.020541250,0.018608570
1640835579.413800,-0.270999040,0.550907730,9.529623030,-0.028125950,-0.008785730,-0.005240740
1640835579.416810,-0.382063390,0.556994440,10.847334860,-0.019063050,0.017564000,0.005607310
1640835579.417140,0.056702340,0.630078320,9.973647120,-0.011712310,0.051702550,0.016492600
1640835579.422479,0.103922020,0.411431910,10.196080210,0.008246300,-0.049909960,0.010333960
1640835579.423560,0.030630190,0.408959210,9.788908000,-0.008443000,-0.016327200,0.028315190
1640835579.427150,0.204618280,0.299507590,8.861387250,-0.043036050,-0.015558300,0.035144400
1640835579.427569,-0.179775980,-0.045543970,9.810814860,-0.030109290,-0.001718100,0.025042900
1640835579.431790,-0.107515210,-0.056041110,9.581628800,-0.006388130,0.027067960,0.011876220
1640835579.432080,-0.016206810,0.112975720,9.779893880,0.001472230,-0.007791820,0.020815430
1640835579.436869,-0.201080870,0.061022600,10.302364350,-0.010965760,0.038222960,0.015191730
1640835579.437520,-0.029007730,0.263199210,9.985494610,-0.018046800,-0.008720160,0.007136170
1640835579.441949,-0.021349260,0.478993420,9.687469480,-0.007720290,-0.015319890,0.014632940
1640835579.443500,-0.001073400,0.134848420,9.365466120,0.007842480,0.027769810,0.017639990
1640835579.446790,-0.152668340,0.182597030,9.695521350,0.043298310,0.016780200,0.009679790
1640835579.447100,-0.284199240,0.246472420,9.502285960,0.027239330,-0.007171930,-0.002922120
1640835579.451799,-0.329994830,-0.052325230,9.793280600,-0.016275040,-0.044532120,-0.006239120
1640835579.452839,-0.295361400,0.273379770,9.855436330,0.001260640,0.023931260,-0.021773570
1640835579.456900,-0.096804850,0.201512550,9.822327610,0.014685090,0.015661120,-0.007563830
1640835579.457620,-0.028538860,0.155951530,10.483323100,0.043196980,0.038704280,0.033105910
1640835579.461840,0.056985320,0.279286770,9.784236910,0.070439280,0.033630430,0.021956860
1640835579.462340,-0.183968280,0.076530860,9.825155260,0.032743820,-0.099611300,0.023345650
1640835579.466920,-0.373939840,0.382917280,9.454236980,-0.001935660,-0.047327590,0.028842690
1640835579.467960,-0.333564160,0.426607190,9.022978780,-0.008164350,-0.015176830,-0.023560230
1640835579.472090,-0.362158330,0.691425800,10.129024510,-0.021088120,-0.002217290,-0.022427730
1640835579.473379,0.065040450,1.037659650,10.061272620,0.000295040,0.094953190,-0.005330150
1640835579.477200,0.173942040,0.644488160,10.644351010,0.006294250,0.007407370,-0.001092260
1640835579.477820,0.017410980,0.692649070,10.610265730,0.004598500,-0.060078500,0.033432250
1640835579.482100,0.102993250,0.554452420,9.131817820,-0.026306510,-0.076484690,0.036318600
1640835579.482740,0.007056600,0.027096520,8.981416700,-0.067126760,-0.027751920,0.030562280
1640835579.487219,-0.102112700,0.102228240,9.382522580,-0.025613610,0.070776050,0.019982460
1640835579.487810,0.074875700,0.084150420,9.771068570,-0.015480820,0.053302940,0.014409420
1640835579.491930,-0.081528390,-0.048392860,10.660192490,-0.019171840,0.003075600,0.021845100
1640835579.492600,-0.061072200,0.213626150,10.257581710,-0.011366610,-0.023777780,0.016565620
1640835579.496770,-0.012417350,0.187374580,9.540100100,-0.049947210,-0.035318740,0.017637010
1640835579.497069,-0.221739800,0.052032130,9.585205080,-0.015456980,0.008000430,0.018128750
1640835579.501860,-0.040263760,0.214799200,9.139795300,0.016075370,0.080733010,-0.018297140
1640835579.502310,-0.089777420,0.342526790,9.525476460,0.008790190,0.023686890,-0.017514820
1640835579.506899,-0.295679060,0.250841410,10.158196450,-0.006361310,-0.014594200,0.010502340
1640835579.507550,-0.118334410,0.213913870,9.508496280,-0.013808910,-0.017057360,-0.002750750
1640835579.511760,-0.224339310,0.126709710,10.024980550,0.016528370,-0.026518110,0.030396880
1640835579.512060,-0.164154010,-0.162929910,10.199723240,0.045786790,0.082384060,0.044137240
1640835579.516860,0.079624530,-0.124010750,9.721629140,0.069506470,0.029742720,-0.001066920
1640835579.517180,-0.195037200,-0.046004850,10.211364750,0.049096340,-0.044894210,0.004747510
1640835579.522040,-0.176392360,0.187024550,9.264464380,-0.009158250,-0.018845500,-0.012180210
1640835579.522740,-0.293282330,0.519751850,9.140337940,0.001543760,-0.085429850,-0.032673780
1640835579.526800,-0.420163840,0.768861350,9.896421430,-0.003841520,0.007677080,-0.002904240
1640835579.527150,-0.067921210,0.945453820,9.818723680,0.015608970,0.081317130,0.019168850
1640835579.532090,-0.194042860,0.724025730,11.038158420,0.055763120,0.004997850,0.026868290
1640835579.532800,-0.164401560,0.749202130,10.563723560,0.012746450,-0.039121510,0.040294230
1640835579.536820,0.052664730,0.591220440,9.227052690,-0.034600500,-0.096583360,0.035820900
1640835579.537269,-0.216202620,0.226784260,9.260575290,-0.055083640,-0.038921830,0.000408290
1640835579.541890,0.063326950,0.310319660,8.894085880,-0.038076940,0.040818750,-0.001752380
1640835579.542369,0.114383970,0.245468850,9.740668300,0.004278120,0.051379210,0.013168160
1640835579.546790,0.021244880,0.068933140,10.690797810,-0.003291670,0.017678740,0.019758940
1640835579.547299,0.112142130,0.244367910,10.416046140,-0.012320280,-0.060166430,0.043623160
1640835579.551849,-0.063407090,0.137372610,9.880632400,-0.048735740,-0.046405210,0.047384210
1640835579.552240,-0.040932190,-0.170005830,9.494533540,-0.022725760,0.003069640,0.014853480
1640835579.556870,-0.090443830,0.182937120,9.353388790,0.048159060,0.051641460,-0.004726650
1640835579.558280,-0.113406080,0.371550200,9.234019280,0.009958450,0.023698810,-0.016668440
1640835579.561810,-0.144088240,0.405094390,9.863610270,-0.047665830,-0.020752850,0.012624260
1640835579.562199,-0.271461100,0.489427390,9.837820050,-0.030174860,0.007481870,0.015850370
1640835579.566890,-0.284794450,0.078812200,10.085103990,0.017566980,-0.061123080,0.026577710
1640835579.567849,-0.205204310,0.094208070,10.306640620,0.060577690,0.027579070,0.042109200
1640835579.571770,0.119391140,-0.004431540,9.561349870,0.057423110,0.081154710,0.015333300
1640835579.572090,0.008958210,-0.020838560,10.372453690,0.004118680,-0.014723840,0.013387200
1640835579.576759,-0.092588810,0.313781140,9.582636830,-0.017434360,-0.014039880,0.020845230
1640835579.577100,-0.091514810,0.212171380,8.915360450,0.007140640,-0.098663570,-0.006487970
1640835579.581780,-0.292617890,0.658913310,9.650005340,0.023096800,-0.021435320,0.014869870
1640835579.582059,-0.080933910,0.895578210,9.647031780,-0.006623570,0.116160510,0.028105090
1640835579.587050,-0.173976090,0.657827200,11.170504570,-0.030942260,0.024794040,0.028318170
1640835579.587849,-0.237663180,0.873939510,10.955113410,-0.011675060,-0.028155740,0.033707920
1640835579.591879,0.018194410,0.671743390,9.365530010,-0.028009720,-0.092721010,0.015223030
1640835579.592520,-0.140159580,0.432386160,9.311107640,-0.054827340,-0.028075280,0.008156900
1640835579.597290,-0.081295240,0.552900310,8.926073070,-0.058504950,0.058287390,0.009228290
1640835579.597950,0.112866450,0.300572130,9.512022020,-0.067867340,0.039705640,0.033697490
1640835579.601910,0.029505570,0.077191670,10.466146470,-0.045679510,0.034403800,0.068633270
1640835579.602640,0.124037680,0.046269210,10.366582870,-0.024282930,-0.009725990,0.091034200
1640835579.606940,0.006799120,-0.115596860,10.330320360,-0.033389040,-0.035221880,0.101591650
1640835579.607370,-0.059559280,-0.215833720,9.816807750,-0.030019880,0.010569390,0.109210620
1640835579.612340,0.214643910,-0.072054480,9.182604790,-0.012603400,0.056338310,0.090768940
1640835579.613700,0.061290740,0.167609170,9.384839060,0.003975630,0.074145210,0.095841270
1640835579.617050,-0.180770780,0.319214020,9.778359410,-0.005090240,0.001500550,0.133265570
1640835579.617820,-0.292485030,0.394037040,9.681365970,-0.007463990,-0.037494310,0.144602360
1640835579.621909,-0.521890700,0.245792750,9.826988220,0.007195770,-0.036287310,0.162157430
1640835579.622439,-0.391337340,0.175705050,10.269948960,0.015200670,0.050054490,0.164397060
1640835579.626920,-0.170460000,0.054059600,10.307765010,0.050176680,0.095112630,0.123476980
1640835579.627590,-0.101902210,0.129607920,10.484954830,0.046828390,0.001649560,0.109069040
1640835579.631880,0.112433850,0.423234520,9.770481110,-0.005027650,-0.004650650,0.136356060
1640835579.632380,-0.004169520,0.133903590,9.129641530,-0.012530390,-0.042158360,0.142921480
1640835579.636860,-0.194759770,0.189214660,9.620364190,0.038610400,-0.041638310,0.160628530
1640835579.638340,-0.100898760,0.467077260,9.552362440,0.050094730,0.060150030,0.163508970
1640835579.642860,-0.251885180,0.192248360,10.591773990,0.014057760,0.034815080,0.165638340
1640835579.643270,-0.303099100,0.374810840,11.217660900,0.010904670,0.015935300,0.161547940
1640835579.646790,-0.294223790,0.496874600,10.143524170,0.010982160,-0.052520630,0.129529850
1640835579.647140,-0.287891780,0.461351780,9.755513190,-0.003360210,-0.098650170,0.129804030
1640835579.651780,-0.106040410,0.742223320,8.954580310,0.000697370,0.050684810,0.108355280
1640835579.652079,0.021685870,0.657311620,9.246863370,-0.025114420,0.042563680,0.106465820
1640835579.657060,-0.053280990,0.535068810,10.575255390,-0.036963820,0.029908120,0.162899490
1640835579.657680,-0.008900380,0.239089530,10.152789120,0.004222990,-0.004014370,0.156292320
1640835579.661939,-0.123227200,-0.153786870,10.290304180,0.020840760,-0.123003120,0.169940280
1640835579.663390,-0.174613920,-0.127821830,9.917993550,0.008118150,0.014026460,0.167897360
1640835579.666790,0.096986740,-0.333887730,9.282811160,-0.003679100,0.044460600,0.115828220
1640835579.667169,-0.051777300,-0.140023170,10.370965000,0.009398160,0.011266770,0.098316370
1640835579.671840,0.070440750,0.361483720,9.629553790,0.015047190,0.047184530,0.096163160
1640835579.672200,-0.151962950,0.219932940,9.761233330,0.005598370,-0.075036290,0.104510810
1640835579.676859,-0.652745840,0.367935810,10.221422200,0.039054450,-0.070521240,0.123845050
1640835579.677739,-0.393078480,0.407518090,9.101284030,0.048308070,-0.032722950,0.113895540
1640835579.681769,-0.340034630,0.217049540,10.145679470,0.019828980,0.018300120,0.115737330
1640835579.682060,-0.130849030,0.333004300,10.510744090,0.036433340,0.099995740,0.114791100
1640835579.687379,0.325197430,0.376211970,10.185289380,0.035950540,-0.014968220,0.115056340
1640835579.688510,0.124716800,0.223865930,10.346145630,0.035077330,-0.063611570,0.149038430
1640835579.691850,0.150363370,0.058927820,9.218094830,0.060370570,-0.040528180,0.126691160
1640835579.692289,-0.064309300,0.091593260,9.304207800,0.055304180,-0.047025090,0.109453520
1640835579.696910,-0.414614380,0.157007800,10.152800560,0.031934680,0.025454170,0.100985180
1640835579.697620,-0.268689040,0.328929310,10.428985600,0.013799970,0.022707880,0.078256440
1640835579.701870,-0.270903260,0.735887590,10.650632860,0.016514960,-0.033681090,0.076222420
1640835579.702400,-0.179582480,0.808960320,10.428580280,0.010301170,-0.029659270,0.092345480
1640835579.706820,0.084360380,0.928615390,9.573882100,0.005002320,-0.005488100,0.093165030
1640835579.707190,0.075257170,0.943903800,9.412093160,0.011317430,-0.013028090,0.092525780
1640835579.711809,0.054815200,0.708438580,9.816219330,-0.036464630,0.018233060,0.112782440
1640835579.712210,0.125570920,0.510886190,9.698160170,-0.047594310,0.018645820,0.112555910
1640835579.716780,-0.064102020,0.084825510,10.455391880,-0.018988550,-0.048801300,0.096903750
1640835579.717080,0.064981070,-0.028152620,10.207541470,-0.025981660,0.023522970,0.109194230
1640835579.722410,0.285040890,-0.047462800,9.709854130,-0.017757710,0.045995420,0.088615720
1640835579.723400,0.074233000,-0.148927960,10.473680500,-0.031699240,0.034229460,0.054605310
1640835579.726960,0.257319900,0.248155530,9.553139690,-0.034795710,0.038091840,0.064629320
1640835579.727490,0.008814260,0.220708790,9.470321660,-0.014345350,-0.021116440,0.063799320
1640835579.731830,-0.337708980,0.232824650,9.711781500,-0.012999770,0.005322690,0.066721440
1640835579.732169,-0.264152740,0.469238730,9.385614400,-0.007835030,0.024326150,0.072602940
1640835579.736990,-0.358911370,0.312126580,10.178116800,-0.027307860,0.045900040,0.058043000
1640835579.737419,-0.038807260,0.262486070,10.180885310,-0.030630830,0.080631670,0.041106340
1640835579.741829,0.196886930,0.385737360,10.123056410,0.022870310,0.056038810,0.037610540
1640835579.742260,0.200910030,0.125899970,9.858589170,0.006845590,0.048430270,0.044900180
1640835579.746750,0.080006370,-0.100218330,9.647732730,0.012262160,-0.016790630,0.073672830
1640835579.747059,-0.196408390,-0.163505900,9.281690600,0.039826340,0.007021430,0.051236160
1640835579.751870,-0.253866760,-0.351919740,9.259052280,0.018844010,0.004878640,0.032714010
1640835579.752679,-0.419217620,-0.032618170,10.291807170,0.022003060,0.065326690,0.003404920
1640835579.757290,-0.258049430,0.378611210,10.109506610,0.018766520,0.084871060,-0.029240540
1640835579.758550,-0.176891970,0.582931280,10.582843780,0.003577770,-0.017394130,-0.003080070
1640835579.761920,-0.196236540,0.775935290,10.187139510,0.025975710,0.050640110,0.028726460
1640835579.763280,-0.059713270,0.645453930,9.205245970,0.054134430,-0.027383870,0.007565320
1640835579.766830,-0.228747440,0.747006830,9.707225800,0.017622110,-0.027602910,0.022873280
1640835579.767200,-0.099720390,0.743557930,9.265768050,-0.040258460,0.083144000,0.018651780
1640835579.771839,-0.004175040,0.377535250,10.101553920,-0.053356590,0.025558470,-0.019967560
1640835579.772230,0.006043330,0.507041930,10.747936250,-0.020080800,0.045442580,-0.015236440
1640835579.776800,0.347023610,0.425398590,9.882584570,-0.006489460,0.043302770,-0.020216410
1640835579.777150,0.242974770,0.280496330,10.029098510,-0.027336190,0.022761520,-0.024157770
1640835579.781809,0.070912620,0.359196750,9.660262110,-0.052993000,0.029645860,-0.031253700
1640835579.782110,-0.020482370,0.335370750,9.144279480,-0.076076370,0.029619040,-0.040924540
1640835579.786790,-0.309099200,0.289696690,9.584846500,-0.046332180,0.017882880,-0.043964390
1640835579.787220,-0.372457920,0.348946630,9.925749780,-0.033268330,0.028724970,-0.051049900
1640835579.791819,-0.082903510,0.569520290,9.641948700,-0.064864760,0.083519520,-0.059117380
1640835579.792179,0.064425110,0.429561170,10.404239650,-0.079591580,0.093211230,-0.063674160
1640835579.796880,0.181847620,0.459538040,10.334095950,-0.068034230,0.083516540,-0.072696800
1640835579.797340,0.492165740,0.406601130,9.247073170,-0.045204170,0.032952430,-0.061367460
1640835579.801930,0.148952130,-0.121076960,9.548319820,-0.021730370,0.035697220,-0.058805950
1640835579.803460,-0.091975590,-0.241036710,9.091262820,-0.024509430,0.070886320,-0.072862210
1640835579.806860,-0.224651310,-0.291068350,9.497695920,-0.040797890,0.030484800,-0.091895460
1640835579.807240,-0.468053730,-0.311795800,10.179527280,-0.058813400,0.085817260,-0.115118930
1640835579.811820,-0.200320410,0.054614480,10.028833390,-0.044822700,0.081770120,-0.139573220
1640835579.812090,-0.154207990,0.390715960,10.333778380,-0.010150670,0.082613540,-0.120390940
1640835579.816840,-0.173886210,0.304114820,10.026635170,0.017949940,0.072494150,-0.089377170
1640835579.817190,-0.146928710,0.397209260,9.624939920,0.025647880,0.011473900,-0.079444070
1640835579.821830,-0.307246690,0.425239650,9.094034190,0.005899370,0.002631550,-0.086346280
1640835579.822180,-0.303588300,0.217337620,9.450654980,-0.038474810,0.020538270,-0.112265370
1640835579.826740,-0.140332300,0.466509400,9.736747740,-0.029201810,0.108099000,-0.144983840
1640835579.826990,-0.125047330,0.568679450,10.482095720,-0.015939770,0.051930550,-0.159883500
1640835579.831830,0.197500040,0.554809270,10.671978000,-0.040818750,0.076295420,-0.135150520
1640835579.832100,0.358353200,0.568836090,9.757379530,-0.010925530,0.072790690,-0.123256460
1640835579.836910,0.021653970,0.284139130,10.014648440,-0.009879470,0.002434850,-0.124467910
1640835579.837829,-0.058608620,0.215025070,9.181749340,-0.041037800,0.024612250,-0.111870480
1640835579.841990,-0.227515610,0.236524130,9.079224590,-0.043249130,0.009217860,-0.137707610
1640835579.842550,-0.338132920,0.132243110,9.691916470,-0.073617700,0.093773010,-0.162878630
1640835579.846890,-0.144118890,0.320726040,10.068456650,-0.058969860,0.100044910,-0.167959900
1640835579.847360,-0.093821560,0.447557780,10.484412190,-0.014905630,0.080320250,-0.172726810
1640835579.852059,0.151466350,0.475276770,9.985397340,-0.047838680,0.034601980,-0.181600440
1640835579.852840,0.120635000,0.618196610,9.787817960,-0.074340410,0.044851010,-0.145103050
1640835579.856799,0.045804930,0.186783020,9.093328480,-0.049896540,0.080491610,-0.168132780
1640835579.857149,-0.002324420,-0.112550130,9.374531750,-0.011344250,0.014786420,-0.194421430
1640835579.861800,-0.085324500,0.148268370,9.377008440,-0.018306080,0.114728510,-0.190219280
1640835579.862130,-0.046008220,-0.126445110,9.645350460,-0.054173180,0.091600420,-0.202359270
1640835579.867650,-0.315636190,-0.119108830,10.806056980,-0.052733720,0.036880370,-0.205284330
1640835579.868270,-0.060339420,0.182681020,9.748167040,-0.018897660,0.054813930,-0.197590930
1640835579.871790,-0.012030100,-0.047113080,9.681735040,0.006300210,0.067937360,-0.180099870
1640835579.872210,-0.166322260,-0.007126860,9.893168450,0.038361540,0.126492990,-0.200714170
1640835579.876890,-0.236219120,0.203432840,9.550788880,0.022727250,0.044475490,-0.209203380
1640835579.877790,-0.306924730,0.284836110,9.429930690,-0.027287000,0.002293290,-0.237046150
1640835579.881870,-0.302373440,0.428681730,9.622877120,-0.038033730,0.030592080,-0.257562100
1640835579.882340,-0.239043980,0.802793440,9.823213580,-0.029945370,0.092397640,-0.253000860
1640835579.886799,0.074198020,0.772909460,10.120480540,-0.013896820,0.105622430,-0.241449490
1640835579.887270,0.017697380,0.526317600,10.809313770,0.007651750,0.092053400,-0.219854700
1640835579.891790,0.136362030,0.520940600,9.756716730,0.002071260,0.032810860,-0.224170090
1640835579.892120,0.039777060,0.302641540,9.515095710,-0.045061100,-0.032228230,-0.221268800
1640835579.896790,-0.305355820,0.155084430,9.320719720,-0.081655380,0.063271820,-0.242105140
1640835579.897130,-0.053384290,0.249196250,9.063196180,-0.052028900,0.064128640,-0.273159180
1640835579.902360,-0.126380260,0.335904150,10.104675290,-0.034056610,0.107258560,-0.272905830
1640835579.903210,-0.016214260,0.358038490,10.369462010,-0.032302740,0.125809030,-0.266882780
1640835579.906760,0.046070270,0.413650330,10.383318900,-0.041827560,0.034627320,-0.264137980
1640835579.907080,-0.100770090,0.391657500,9.921985630,-0.065639620,0.015367570,-0.251869860
1640835579.911810,0.008407430,0.104444790,9.326287270,-0.070576390,0.054147850,-0.263991950
1640835579.912130,-0.000096040,0.181254180,9.000000000,-0.029870870,0.119476040,-0.303365320
1640835579.917189,-0.198964540,0.207017450,9.704132080,-0.016368930,0.073181090,-0.320372020
1640835579.918269,-0.065630820,0.303207780,9.791838650,-0.075240430,0.092397640,-0.302165750
1640835579.922010,-0.108216170,0.336603550,9.793467520,-0.069035590,0.050540270,-0.304199780
1640835579.923699,-0.324290930,0.137249250,10.406349180,-0.054414570,0.026214120,-0.286291570
1640835579.926780,0.105841540,0.062535320,9.449960710,-0.002869960,0.094531480,-0.268796090
1640835579.927140,0.049666430,-0.119835650,9.928266530,0.031575560,0.113706290,-0.300221170
1640835579.931779,-0.114196930,-0.017622280,10.183186530,-0.015199190,0.119480510,-0.309130550
1640835579.932119,-0.059910180,0.310407700,9.643913270,-0.064061580,0.001256170,-0.323134660
1640835579.937600,-0.283829270,0.427729870,9.433046340,-0.071311000,0.007486340,-0.350549880
1640835579.937929,-0.128361760,0.657150450,9.176322940,-0.051401560,0.072561200,-0.348889860
1640835579.941789,-0.106259200,0.961478890,10.033823970,-0.017480550,0.151225920,-0.322033460
1640835579.942129,-0.059152750,0.669198100,10.433285710,-0.033548470,0.138674690,-0.307397540
1640835579.946790,-0.015058690,0.432108490,10.770146370,-0.044386080,0.033850960,-0.283831390
1640835579.947120,-0.013852530,0.428451960,9.646858220,-0.065498050,0.043706590,-0.301182210
1640835579.952060,-0.127912610,0.028923470,9.198221210,-0.084011250,0.009620190,-0.323341730
1640835579.952829,-0.159204330,0.116376930,9.241874690,-0.070147230,0.094556830,-0.336016770
1640835579.956780,0.077864540,0.254751950,8.971991540,-0.052133200,0.142624940,-0.343513460
1640835579.957239,-0.046118370,0.019392210,10.505331040,-0.067976120,0.119294250,-0.321447910
1640835579.961799,0.002887430,0.117262650,10.562643050,-0.032761700,0.086347760,-0.324609880
1640835579.962200,-0.050853890,0.145180230,10.061985020,-0.031198560,-0.011022390,-0.333818790
1640835579.966859,-0.044629560,0.043656920,9.578877450,-0.068020830,0.058794030,-0.342014430
1640835579.967440,0.053064950,0.123037930,9.217314720,-0.038309400,0.154471410,-0.366748870
1640835579.971760,-0.064922200,0.402215300,9.443214420,-0.020521880,0.150753560,-0.385268030
1640835579.972110,-0.086032610,0.466534730,9.804933550,-0.051239140,0.056889660,-0.356823210
1640835579.976780,-0.271537900,0.440385370,9.815382000,-0.054463750,0.043961410,-0.337852540
1640835579.977120,-0.222786230,0.264094020,9.432293890,-0.035132470,0.048469010,-0.347623260
1640835579.981850,-0.279237000,-0.023609490,10.267514230,-0.018358230,0.099934640,-0.325557620
1640835579.982260,-0.168006170,-0.117377540,10.081228260,0.004258750,0.184051680,-0.355181040
1640835579.986750,-0.010558770,-0.102508020,10.107158660,0.006276370,0.062550610,-0.388143960
1640835579.987219,-0.235358250,0.253851090,10.018422130,-0.041075050,0.020754340,-0.378032060
1640835579.991799,-0.048323880,0.448391200,8.742841720,-0.072689360,0.024883450,-0.393575430
1640835579.992130,-0.132539720,0.633582290,9.285109520,-0.057692830,0.041933360,-0.395298000
1640835579.996930,-0.142063270,0.906162440,9.894301410,-0.029946870,0.156909240,-0.373670460
1640835579.998910,0.122328740,0.855903690,10.430344580,-0.035506490,0.131402910,-0.366920260
1640835580.001890,-0.064817480,0.776468690,10.923458100,-0.056850920,0.048333420,-0.362330760
1640835580.002600,-0.089582910,0.616239370,10.164023400,-0.091627240,0.012557210,-0.362916290
1640835580.006840,-0.066079420,0.442726220,9.048521040,-0.111563530,0.037224590,-0.381299850
1640835580.007220,-0.159178020,0.253418920,8.970136640,-0.075313450,0.072623780,-0.406900050
1640835580.011770,-0.016146420,0.283415590,9.328312870,-0.093643370,0.138789420,-0.392988320
1640835580.012169,0.201502030,0.199542370,9.589540480,-0.103555630,0.155596410,-0.377044110
1640835580.016800,-0.145254600,-0.127608760,10.976958270,-0.078725810,0.044861440,-0.374616710
1640835580.017190,-0.055020760,0.008186440,10.114661220,-0.073747340,0.027696790,-0.378453820
1640835580.021790,-0.004088140,0.002701170,9.358109470,-0.071386990,0.028608740,-0.393529330
1640835580.022120,-0.198576600,-0.007173500,9.752354620,-0.090126700,0.135368110,-0.434079860
1640835580.026770,0.045256400,0.449453650,9.120645520,-0.077074770,0.140756370,-0.438274530
1640835580.027040,-0.144773420,0.548393960,9.718878750,-0.066611180,0.067590180,-0.418540870
1640835580.031839,-0.205837760,0.434760810,9.586264610,-0.081376730,0.052851450,-0.395792810
1640835580.032220,-0.186835780,0.429864590,9.494067190,-0.059415400,0.031785670,-0.372409850
1640835580.036980,-0.263548580,0.088158820,9.835187910,-0.052784380,0.110533840,-0.378881340
1640835580.037740,-0.084950890,-0.214901240,10.264811520,-0.040923060,0.134371240,-0.379560890
1640835580.041900,-0.021104230,-0.038907190,10.401802060,-0.012870140,0.109876710,-0.410714810
1640835580.042340,-0.054903530,0.042150810,9.650072100,-0.050811470,0.025139750,-0.419563030
1640835580.046900,-0.115597830,0.133919340,9.342230800,-0.078372650,0.007383520,-0.391720240
1640835580.047230,-0.273244860,0.377285450,8.873266220,-0.032736360,0.088612740,-0.404509990
1640835580.051780,-0.424717040,0.637562330,9.721650120,-0.040423870,0.036390120,-0.393395160
1640835580.052120,-0.299471260,0.899895850,10.310809140,-0.075204670,0.116021950,-0.355075360
1640835580.056759,-0.113028810,0.767291310,10.192419050,-0.077529260,0.101225100,-0.373461840
1640835580.057040,-0.238041490,0.769269050,10.893466000,-0.076268620,0.023247310,-0.357490870
1640835580.061800,-0.039844830,0.827612520,9.625824930,-0.081494440,0.038306420,-0.342975500
1640835580.062160,0.042759850,0.475422860,8.918375020,-0.099660480,0.003752110,-0.360506860
1640835580.067240,0.082852620,0.369436000,9.210985180,-0.118757790,0.094543400,-0.336842240
1640835580.068500,0.197417420,0.093908460,9.352042200,-0.093354290,0.162976980,-0.315819710
1640835580.071790,-0.127124040,-0.301866350,10.673579220,-0.066925590,0.037439160,-0.322736800
1640835580.072120,-0.123448390,-0.056905670,10.421720500,-0.059492890,-0.006055830,-0.311347870
1640835580.076929,-0.053443220,0.024485270,9.403028490,-0.123696050,0.034168370,-0.324030280
1640835580.077410,-0.189548910,-0.046804540,9.803822520,-0.118382290,0.101032880,-0.338091020
1640835580.081849,-0.110100050,0.302335530,9.692902570,-0.038586560,0.120545940,-0.343605880
1640835580.082250,-0.037234200,0.620262860,9.188395500,-0.033521650,0.050923240,-0.325013700
1640835580.086799,-0.181174810,0.504793580,9.633829120,-0.081332050,0.025534640,-0.277672710
1640835580.087230,-0.247358290,0.334492150,9.587524410,-0.082121810,0.074857470,-0.254471630
1640835580.091850,-0.251822980,-0.005063140,9.899106980,-0.052300100,0.031638150,-0.258918140
1640835580.092540,-0.217872600,-0.282333580,10.459124570,0.003463030,0.082765530,-0.262881820
1640835580.096769,0.140255330,-0.173755110,9.630538940,0.004518030,0.123660290,-0.294089320
1640835580.097190,0.061960510,-0.159937190,9.964365960,-0.029091540,0.058154760,-0.288282360
1640835580.102120,-0.141731200,-0.068293060,9.799427030,-0.046810510,0.044491890,-0.257892910
1640835580.102910,-0.185008960,0.058442830,8.929243090,-0.005371870,-0.030229990,-0.267593560
1640835580.106760,-0.493115780,0.269488960,9.616238590,0.022915010,-0.013303760,-0.254635540
1640835580.107240,-0.332707940,0.634654640,9.760299680,-0.027260180,0.148671850,-0.230872630
1640835580.111840,-0.332420800,0.573724390,10.753636360,-0.021180510,0.094538930,-0.255596640
1640835580.112429,-0.434262870,0.728289660,11.156424520,-0.017313660,0.003685060,-0.248618470
1640835580.117630,-0.086256170,1.030979990,9.348872180,-0.033785400,-0.029493870,-0.215060990
1640835580.119969,-0.117897470,0.673547630,9.110756870,-0.045359130,-0.015702850,-0.204843280
1640835580.121870,-0.074892950,0.636140580,9.099335670,-0.064581640,0.096805390,-0.189018250
1640835580.122350,0.167826560,0.391067980,9.341818810,-0.038412220,0.085736810,-0.167089720
1640835580.126840,-0.096681710,-0.239129980,10.846689220,-0.010414420,0.032490480,-0.172719340
1640835580.127300,-0.007332730,-0.049046230,10.199400900,-0.016608830,0.004173820,-0.177130100
1640835580.131810,-0.149229510,-0.163364440,9.934541700,-0.039249660,-0.037913030,-0.182499010
1640835580.132220,-0.243306930,-0.228633360,9.739356040,-0.064297020,0.050066420,-0.202925500
1640835580.136809,0.048952300,0.342644600,8.923516270,-0.022447110,0.071586680,-0.203253330
1640835580.137240,-0.088527110,0.484046010,9.577498440,-0.010453160,0.063022960,-0.178325160
1640835580.141800,-0.118604030,0.580121700,9.728636740,-0.032240150,0.043687230,-0.144530850
1640835580.142180,-0.167002190,0.504711390,9.614184380,-0.009827320,-0.033824150,-0.111979250
1640835580.146780,-0.279685530,0.129991740,9.962417600,-0.017620620,0.006990140,-0.114072860
1640835580.147090,-0.039921450,0.041080460,9.827216150,0.004389880,0.099386270,-0.119341920
1640835580.151800,0.053284490,-0.121464070,10.056623460,0.026872750,0.092425930,-0.147071450
1640835580.152200,0.146087680,-0.074857680,9.971266750,0.012078880,0.061179700,-0.137133880
1640835580.156819,0.172233180,0.088373590,9.158123970,0.002065300,0.033615530,-0.106300410
1640835580.158140,-0.162428390,-0.095884890,9.255242350,0.010548530,-0.036077200,-0.099010770
1640835580.161820,-0.305087600,0.137665480,9.278784750,0.043840710,0.028936570,-0.079691420
1640835580.162279,-0.255089820,0.376217510,9.598752020,0.035044550,0.092960890,-0.086960200
1640835580.167460,-0.372841810,0.296191810,11.107422830,0.017355380,0.105313980,-0.103437900
1640835580.168140,-0.276610610,0.744368610,10.582253460,0.038820510,0.054357960,-0.103515400
1640835580.171870,-0.220483050,0.947639880,9.829178810,-0.005631150,-0.067059700,-0.099056980
1640835580.172500,-0.281214570,0.913389150,9.212584500,-0.032269950,0.008946660,-0.042805080
1640835580.176790,0.000949040,0.867233510,8.513567920,-0.023625790,0.060969590,-0.030410290
1640835580.177209,-0.086807580,0.573571090,9.861014370,-0.014120340,0.077766180,-0.009363890
1640835580.181840,0.060446340,0.335192320,10.222566600,-0.001834330,0.104218740,0.007583200
1640835580.182690,0.111268870,0.026741810,10.515896800,-0.025686630,-0.012020770,-0.017748770
1640835580.186760,-0.187234130,-0.021276380,10.575584410,-0.044672190,-0.013138350,-0.005480650
1640835580.187189,0.058297150,-0.072228360,9.081372260,-0.043708090,0.029420850,-0.023387370
1640835580.191779,-0.132946710,-0.030434830,9.463193890,-0.013600290,0.041380530,-0.038443510
1640835580.192160,-0.141313930,0.532820700,9.283458710,-0.012807550,0.100184980,-0.010935960
1640835580.196820,-0.018624920,0.645253240,9.348893170,-0.067719820,0.039191540,0.010825690
1640835580.197660,-0.430291150,0.504834060,10.366008760,-0.052551930,0.014398990,0.036495920
1640835580.202340,-0.144679610,0.540164170,9.604416850,-0.010022520,0.008435550,0.047530240
1640835580.203460,-0.064210770,0.299375890,10.001075740,-0.010515750,0.043794510,0.039225820
1640835580.207100,0.076281650,0.203519360,9.948642730,-0.028729440,0.150084510,0.037470460
1640835580.207759,0.369956400,0.087007810,9.691751480,-0.031046570,0.069832790,0.034135580
1640835580.211750,0.104969510,-0.192076180,9.643177030,-0.024481120,0.036232170,0.068299460
1640835580.212170,0.064200760,-0.268269720,8.951025960,0.014945860,0.007271770,0.085265920
1640835580.216760,-0.306901010,-0.434924070,9.402784350,0.036424400,0.017885860,0.087095800
1640835580.217160,-0.461771850,-0.227204470,9.720680240,0.014528630,0.087676950,0.083731110
1640835580.221840,-0.268771410,0.037505200,10.309520720,-0.000984970,0.102017830,0.049805650
1640835580.222290,-0.285493310,0.339323340,10.546253200,0.016489620,0.092163690,0.034132600
1640835580.226790,-0.059190190,0.876689490,9.858952520,0.029124320,0.024469200,0.067248940
1640835580.227110,-0.146901440,0.998417740,9.450809480,0.010706490,0.028395650,0.101710860
1640835580.231890,-0.303228170,0.865318420,9.117587090,-0.001995270,0.019523500,0.133413050
1640835580.234799,-0.208120470,0.862906100,9.293028830,-0.011621420,0.040188440,0.148682330
1640835580.236770,-0.173061910,0.435953680,9.979571340,-0.035601850,0.111135840,0.137767210
1640835580.240860,-0.026205280,0.161673840,10.599164960,-0.009901820,0.077031550,0.131669660
1640835580.241809,0.079067800,0.219575780,10.590523720,-0.003491340,0.051343440,0.113351640
1640835580.242190,0.128921210,0.098435020,9.895088200,-0.060874230,0.036802890,0.123421860
1640835580.246840,0.137112160,0.130094930,9.325821880,-0.046840310,0.033360720,0.129538790
1640835580.247280,-0.115713130,0.280857260,9.158422470,-0.044426330,0.056846440,0.117978460
1640835580.251819,-0.307138170,0.512906490,9.383146290,-0.049479310,0.053025790,0.164608670
1640835580.252669,-0.498927950,0.690444530,9.917475700,-0.056052210,0.037467480,0.174684820
1640835580.256760,-0.438391690,0.741197290,10.132308010,-0.094941270,0.033678110,0.183688150
1640835580.257110,-0.083819050,0.742509310,10.002493860,-0.075757500,0.075599540,0.207363070
1640835580.261819,0.174780260,0.545632120,9.995266910,-0.060623880,0.116387020,0.175373270
1640835580.262230,0.312932250,0.426989730,9.886952400,-0.051522250,0.077700620,0.192520020
1640835580.267069,0.388220340,0.223322420,9.153480530,-0.060345240,0.052668150,0.220958930
1640835580.268060,0.059257300,-0.241235020,9.407380100,-0.087180740,0.015188760,0.221766580
1640835580.271839,-0.196476770,-0.359021400,9.282502170,-0.057327740,0.048755100,0.236253410
1640835580.272310,-0.221449670,-0.439188720,9.467930790,-0.044777990,0.070998080,0.207334790
1640835580.276880,-0.474719700,-0.307240400,10.602370260,-0.025911630,0.121621800,0.185656560
1640835580.277289,-0.183609350,0.208066690,9.871522900,-0.027231870,0.097611550,0.190119460
1640835580.281950,-0.206548180,0.356848980,10.017200470,-0.050333150,0.034426150,0.217443700
1640835580.282650,-0.245809140,0.540901900,9.442958830,-0.016646090,0.097672660,0.255242020
1640835580.286840,-0.286156420,0.560487150,9.148745540,-0.006088610,-0.003182890,0.253987340
1640835580.287429,-0.626258020,0.516132350,9.731907840,-0.006055830,0.022408370,0.271739100
1640835580.291800,-0.160122130,0.548910200,9.146832470,-0.051403060,0.088067370,0.255286750
1640835580.292120,-0.148192330,0.304336250,10.562384610,-0.068722670,0.089581320,0.236788390
1640835580.296759,0.097524400,0.435653390,10.510174750,-0.029656290,0.133252140,0.258566470
1640835580.297109,0.464942130,0.208829520,9.954034810,-0.014594200,0.013823810,0.262941360
1640835580.302009,0.141481800,0.090046260,9.805700300,-0.001011790,0.026461480,0.278826060
1640835580.303520,0.132330810,0.269492120,8.680212020,-0.052195790,0.054517390,0.281651320
1640835580.306759,-0.412326720,0.097683900,9.676790240,-0.089207300,0.048995020,0.287824870
1640835580.307150,-0.709405900,0.363033410,9.922955510,-0.068192180,0.059463090,0.274866820
1640835580.311780,-0.393553670,0.647296130,9.803898810,-0.058193520,0.002691150,0.263860820
1640835580.312110,-0.410258110,0.600153980,10.186120030,-0.054039070,0.116992020,0.297427240
1640835580.316850,-0.001451080,0.758828160,9.884971620,-0.050841280,0.112850980,0.296460120
1640835580.317420,0.076097030,0.655894700,10.166237830,-0.068739060,0.034751000,0.312696430
1640835580.326759,0.205105750,0.399060640,9.211967470,-0.098145030,0.037400420,0.342755080
1640835580.327340,0.316446240,0.084065340,8.969150540,-0.070552530,0.031596430,0.329379800
1640835580.327900,0.014289800,-0.198222580,9.446765900,-0.062365830,0.100854050,0.325469670
1640835580.328310,0.106574470,-0.161029800,9.450699810,-0.062556570,0.103545190,0.317280020
1640835580.331800,-0.126175370,-0.125814840,10.510804180,-0.065685820,0.078795850,0.292572380
1640835580.332559,-0.073850890,0.109410430,9.968499180,-0.091405220,0.077028570,0.300705460
1640835580.337639,-0.113019700,0.234653890,9.650864600,-0.061878560,0.054292380,0.336405580
1640835580.338060,-0.421181410,0.093334420,9.657245640,-0.018855930,0.099417570,0.336581470
1640835580.341830,-0.488060150,0.350221900,9.218730930,-0.006982680,0.037816160,0.349423230
1640835580.342419,-0.590094090,0.560196400,9.405372620,-0.054289400,0.028060380,0.341606170
1640835580.346789,-0.419345230,0.506905790,9.457540510,-0.124217590,0.086513180,0.327073100
1640835580.347200,-0.117512870,0.727146690,10.050016400,-0.086089970,0.082878780,0.324021280
1640835580.351850,0.137143180,0.668401660,10.361367230,-0.058990730,0.114415600,0.335019890
1640835580.352259,0.335992810,0.441344560,10.195264820,-0.029753150,0.080193580,0.356985660
1640835580.356809,0.230887650,0.457485680,9.814781190,-0.046160830,0.033053760,0.367338960
1640835580.357400,0.033453250,0.209248740,9.235812190,-0.132863220,0.019404300,0.369754490
1640835580.361940,-0.180872460,0.125114200,9.204331400,-0.132602470,0.046554210,0.364787880
1640835580.362589,-0.429265800,0.256168010,9.440073970,-0.104603160,0.080390270,0.328516960
1640835580.367930,-0.367426510,0.509919760,10.018299100,-0.102849320,0.092375280,0.341558490
1640835580.369060,-0.324334890,0.682475860,10.253054620,-0.110039120,0.105668600,0.366334650
1640835580.371780,-0.285218780,0.554117380,10.302783970,-0.129181150,0.039094700,0.365464480
1640835580.372100,-0.149191510,0.667231620,9.948167800,-0.121150930,0.019887090,0.405757220
1640835580.376780,0.006410720,0.440714240,9.007753370,-0.135855380,0.055614110,0.397080210
1640835580.377120,0.136729430,0.071446050,9.248932840,-0.116021930,0.087486210,0.385427470
1640835580.381899,0.210318270,0.220592980,9.343983650,-0.099414590,0.157964240,0.393733410
1640835580.382400,0.174620930,-0.050042790,9.757722850,-0.128678980,0.054168700,0.382779540
1640835580.386770,0.036718790,-0.048659560,10.259236340,-0.114689760,0.037123270,0.397545100
1640835580.387130,0.069207280,0.021796020,9.391367910,-0.124633310,0.071008510,0.384759900
1640835580.391749,-0.221557680,-0.262042400,10.065665250,-0.086979550,0.075949720,0.397893760
1640835580.392099,-0.366197170,-0.029985090,9.856221200,-0.046274070,0.143428150,0.383612540
1640835580.396880,-0.428144070,0.174070080,9.378458980,-0.077882420,0.017893320,0.364713430
1640835580.397889,-0.660520080,0.391813760,9.713619230,-0.119546060,0.020577020,0.406098370
1640835580.402680,-0.399051190,0.568135860,8.925990100,-0.140391290,0.077082220,0.388844340
1640835580.403290,-0.426273880,0.612043440,10.048160550,-0.097841030,0.031366940,0.409473510
1640835580.407369,-0.111414600,0.733449340,10.271891590,-0.080233830,0.137439400,0.434570100
1640835580.407719,0.213463280,0.437161920,10.077148440,-0.088733430,0.075063110,0.426751410
1640835580.411860,0.028453130,0.312213960,10.592438700,-0.093196340,0.020441410,0.429430600
1640835580.412480,0.215437220,0.370795580,9.051377300,-0.143158450,0.042364000,0.423678850
1640835580.416800,-0.117179210,0.122536140,9.241735460,-0.155085310,-0.017584860,0.391876700
1640835580.417140,-0.361005630,0.511289180,9.481110570,-0.143790250,0.069279980,0.389572980
1640835580.421850,-0.101247490,0.634969590,9.026915550,-0.163768260,0.082066680,0.408881990
1640835580.422340,-0.456750240,0.373113840,10.711797710,-0.132374480,0.074757640,0.438460800
1640835580.426780,-0.302731630,0.551192940,10.379602430,-0.124684000,0.069953510,0.446945490
1640835580.427150,-0.291469540,0.419787170,9.928514480,-0.153443260,-0.056181860,0.461369840
1640835580.431840,-0.297187330,0.254337010,9.662912370,-0.185273630,0.034199660,0.454220240
1640835580.432340,0.198991360,0.308507530,8.504282000,-0.184859340,0.102625810,0.401282310
1640835580.438690,-0.008997510,0.250607430,9.685401920,-0.152496990,0.069786610,0.415205990
1640835580.441510,0.114497310,0.362424550,9.699244500,-0.150500270,0.086979590,0.433923360
1640835580.441870,0.162856850,0.210186050,9.663657190,-0.162930830,-0.013983250,0.428739250
1640835580.442230,-0.216103090,0.083380140,10.220210080,-0.175891860,0.006449220,0.461863070
1640835580.448279,-0.026826150,-0.105147520,9.417899130,-0.156614230,0.098530970,0.449228350
1640835580.448700,-0.299213770,-0.311103190,9.982104300,-0.096359860,0.051057340,0.407356050
1640835580.452060,-0.362356570,0.146488860,9.658614160,-0.111158190,0.066965830,0.402641330
1640835580.452620,-0.295835910,0.378832070,9.123209950,-0.172160610,0.022734710,0.413133290
1640835580.456780,-0.698228720,0.305171820,9.886600490,-0.198061790,-0.019600990,0.421927960
1640835580.457170,-0.389839920,0.576514840,9.269310950,-0.141265990,0.018149620,0.430169760
1640835580.461880,-0.232632860,0.491918770,9.820927620,-0.092810410,0.060892110,0.447452130
1640835580.462400,-0.123186870,0.480173170,10.696821210,-0.127011570,0.114414120,0.460185170
1640835580.468020,0.233493920,0.646244230,10.236832620,-0.169356180,0.044564910,0.459978040
1640835580.469780,0.095492220,0.337642400,9.992274280,-0.210142170,-0.038486730,0.459848400
1640835580.471769,0.139999570,0.323685530,9.069693570,-0.181958050,0.003187360,0.432866840
1640835580.472210,0.059661300,0.522659540,8.788703920,-0.150878740,0.031521920,0.403325290
1640835580.477120,-0.286468710,0.450154660,9.603444100,-0.196062070,0.082434740,0.435166120
1640835580.479060,-0.263651970,0.372881680,10.197565080,-0.200769350,0.072500120,0.461399640
1640835580.482060,-0.480300190,0.229834840,10.495207790,-0.191709400,-0.011165440,0.450414510
1640835580.483250,-0.418318330,0.111532970,10.009041790,-0.188314910,-0.026834020,0.465139810
1640835580.486840,-0.235471530,0.023886300,9.384220120,-0.166247810,0.061802570,0.434804050
1640835580.487300,-0.215890600,0.064616540,9.281003000,-0.181715190,0.057277090,0.412307680
1640835580.491890,-0.026796610,0.230145340,9.520797730,-0.187306150,0.040124360,0.446364340
1640835580.492430,0.006488880,0.201390760,9.387978550,-0.189694780,0.053359580,0.442147340
1640835580.496760,-0.168601770,0.064245330,9.993907930,-0.173781830,-0.053529450,0.465066730
1640835580.497140,-0.167562280,0.144511310,9.920176510,-0.149032500,0.010854010,0.470678570
1640835580.501850,-0.098208110,-0.027589610,9.471405030,-0.147938770,0.055839130,0.438374340
1640835580.502329,-0.173203470,0.082106390,10.404201510,-0.145801920,0.038723650,0.433702800
1640835580.506739,0.044708350,0.382315810,9.525144580,-0.174921750,0.092487040,0.429867300
1640835580.507360,-0.112430550,0.136030300,9.629687310,-0.177142050,-0.045347220,0.433790740
1640835580.511790,-0.496763680,0.317252780,9.913691520,-0.125947640,-0.021822750,0.450171590
1640835580.512200,-0.423095970,0.402032760,8.788912770,-0.146219150,-0.034755470,0.444093440
1640835580.516919,-0.592432860,0.196224240,10.109079360,-0.174604400,-0.013695660,0.459751550
1640835580.518590,-0.371058140,0.377719430,10.207723620,-0.175756260,0.128796730,0.446978300
1640835580.521890,-0.054321990,0.338403050,10.298438070,-0.173270730,-0.016143920,0.437830480
1640835580.522359,-0.086047490,0.384430650,10.679693220,-0.158046230,-0.019875170,0.460189670
1640835580.526860,0.353482460,0.468248190,8.878081320,-0.157557440,0.005023180,0.427088200
1640835580.527249,0.148111810,0.415722850,9.390879630,-0.188756030,-0.049759460,0.433725210
1640835580.531819,-0.020126040,0.474723040,9.457365990,-0.201806470,0.069138420,0.463040230
1640835580.532230,0.063183300,0.180197510,9.443504330,-0.180555920,0.010199840,0.441880610
1640835580.542690,-0.372349560,0.153380300,10.790387150,-0.148655520,-0.013272470,0.446161690
1640835580.543290,-0.184068780,0.153916360,9.761201860,-0.175200430,0.031451880,0.430388810
1640835580.543650,-0.173038390,-0.050187040,9.813551900,-0.186863540,-0.021147730,0.401246580
1640835580.543910,-0.300449610,0.153067320,9.675146100,-0.180165480,0.035162270,0.393693180
1640835580.546790,0.036425130,0.268001140,8.882957460,-0.181023780,0.034664570,0.417399500
1640835580.547180,-0.311988530,0.067762540,9.856334690,-0.151951660,-0.000517070,0.441950650
1640835580.551829,-0.209253070,0.046876390,9.583757400,-0.126455720,-0.010441240,0.453940120
1640835580.552230,-0.043716810,0.010468020,9.549480440,-0.141091660,-0.007295610,0.455124770
1640835580.558260,-0.106227910,-0.161776190,10.075248720,-0.144964470,0.070904200,0.409144160
1640835580.558990,0.177268210,0.028234000,10.131916050,-0.153043870,0.048054760,0.385262070
1640835580.561800,0.192201150,0.293182400,9.705643650,-0.129310800,0.025956330,0.393547120
1640835580.562389,0.029578580,0.076531830,9.508904460,-0.115612160,-0.016349560,0.405554530
1640835580.567380,-0.267807010,0.252287000,9.389270780,-0.098849850,-0.015777350,0.435850110
1640835580.568580,-0.526790320,0.281532650,9.164320950,-0.112010540,-0.025601690,0.429047700
1640835580.571920,-0.725009320,-0.008266180,10.064324380,-0.149735850,0.001226370,0.428314570
1640835580.572399,-0.512252510,0.249263440,10.043228150,-0.114947560,0.061045590,0.403942200
1640835580.576759,-0.344244900,0.201531130,10.398233410,-0.097598140,0.014597180,0.387753580
1640835580.577139,-0.166323530,0.398506880,10.382816310,-0.116303560,0.015348200,0.413599610
1640835580.581859,0.096080910,0.606891040,9.266010280,-0.113271180,-0.034572190,0.408993750
1640835580.582280,0.048101250,0.384627340,9.296272280,-0.152544720,-0.052060190,0.426101770
1640835580.586779,0.052798570,0.479483780,9.222614290,-0.134114920,0.032959880,0.459064630
1640835580.587240,-0.057870280,0.231216270,9.907391550,-0.108049830,0.002823770,0.437934790
1640835580.591800,-0.107897760,0.182605180,10.443324090,-0.139059130,-0.011201200,0.422835380
1640835580.592260,0.021076310,0.313251170,10.017593380,-0.144363950,0.017330050,0.407367970
1640835580.597260,-0.104516280,0.130091430,9.958919530,-0.156192480,0.002945960,0.368189780
1640835580.597869,-0.151856910,0.289255650,9.422398570,-0.139355670,-0.020317730,0.388082890
1640835580.602779,-0.212762620,0.279582560,9.012349130,-0.113531950,0.001025200,0.418038670
1640835580.603479,-0.334463830,-0.020880510,9.307766910,-0.117924820,-0.015306470,0.421826570
1640835580.606950,-0.435140070,0.047362380,10.042405130,-0.121302920,-0.024582450,0.443612130
1640835580.608029,-0.162692770,-0.084209830,9.782691000,-0.132352130,0.031694760,0.411367450
1640835580.611760,0.008171690,-0.265981940,10.197284700,-0.111770650,0.013804440,0.369277660
1640835580.612089,0.039065480,0.135527210,10.248601910,-0.078873340,0.041534010,0.377781690
1640835580.617139,0.210621180,0.073121670,9.063028340,-0.082384050,-0.019301470,0.385913280
1640835580.618250,-0.272019150,-0.057299670,9.680039410,-0.067372620,-0.094223030,0.412444770
1640835580.621840,-0.337904540,0.140034910,8.903599740,-0.078113380,-0.004333260,0.420859520
1640835580.622350,-0.343478050,-0.208109290,9.370059010,-0.064854330,-0.026239450,0.415761800
1640835580.626789,-0.615698220,-0.060820850,10.849304200,-0.034131120,0.046266630,0.373189210
1640835580.627130,-0.145338300,0.337253690,9.976419450,-0.057655580,0.025497380,0.345538650
1640835580.631840,-0.319726680,0.304265770,10.496195790,-0.069123520,-0.080303870,0.361351760
1640835580.632249,-0.384617030,0.454899310,9.626134870,-0.056776400,-0.042213500,0.369232890
1640835580.637110,-0.140997870,0.642578600,8.556827550,-0.056745110,-0.100029990,0.376211080
1640835580.638029,-0.363038660,0.567143260,9.535702710,-0.078202780,-0.024464730,0.417187810
1640835580.642449,-0.054247800,0.441015420,9.767081260,-0.089631970,0.052903600,0.412312240
1640835580.643309,0.005033580,0.419770450,10.757500650,-0.080998240,-0.025157630,0.390794870
1640835580.647179,-0.044345850,0.239615960,10.826932910,-0.079980500,-0.057314350,0.373737510
1640835580.649040,0.220071430,0.266082730,9.537974360,-0.084380810,-0.074955830,0.339107220
1640835580.652000,0.044408910,0.477640330,9.038407330,-0.098957140,-0.047113000,0.333525240
1640835580.652609,-0.149295700,0.271488610,9.141851430,-0.128223050,0.010295210,0.365328880
1640835580.656880,-0.336027800,0.286417390,9.533356670,-0.100783990,-0.013220310,0.381761820
1640835580.657930,-0.564457000,0.192671570,10.047559740,-0.068521510,-0.098599490,0.386378140
1640835580.661820,-0.430501340,0.090390220,10.194607730,-0.103077300,-0.058431920,0.390915570
1640835580.662299,-0.216949330,0.230603640,9.928972240,-0.123806310,0.030934820,0.357249440
1640835580.667480,-0.063808680,0.045206920,10.226419450,-0.114983330,-0.019438570,0.322161610
1640835580.670640,0.218512540,0.231071560,9.537902830,-0.080749390,-0.001437960,0.344823300
1640835580.672560,0.273624120,0.201407210,8.957083700,-0.037820640,-0.044354810,0.352688220
1640835580.673529,-0.109778370,-0.067786960,9.590000150,-0.074414920,-0.088967380,0.377769800
1640835580.676890,-0.111708830,-0.006353260,9.244128230,-0.096723430,-0.029201800,0.385627150
1640835580.677529,-0.258308650,-0.345597570,10.068384170,-0.066635010,-0.002229210,0.348518730
1640835580.681919,-0.312313380,-0.288112220,10.612996100,-0.034545370,0.018006560,0.317640600
1640835580.682440,-0.307283880,0.173672210,10.187319760,-0.010587280,-0.023962560,0.314667910
1640835580.688089,-0.503217760,0.121265750,9.819648740,-0.046631690,-0.096920130,0.331199200
1640835580.688640,-0.512680350,0.226809900,9.137666700,-0.061747440,-0.115853560,0.361882240
1640835580.691810,-0.467973470,0.354083300,8.924272540,-0.026096410,-0.048802800,0.366278050
1640835580.692279,-0.398865070,0.185049410,9.752332690,-0.012752420,-0.000160930,0.372348820
1640835580.696770,-0.290150110,0.384892880,10.966490750,-0.003027920,-0.029057270,0.354626770
1640835580.697160,0.044962410,0.549487350,10.486989020,-0.059817740,-0.045686960,0.335708290
1640835580.705999,0.162299350,0.287841590,10.245749470,-0.077560570,-0.116154570,0.339636270
1640835580.706410,0.081849530,0.410794850,9.748241420,-0.022301070,-0.061349570,0.320331690
1640835580.706879,0.166539640,0.511895480,8.615157130,-0.031307340,-0.076475750,0.332188610
1640835580.707209,-0.222971860,0.262906370,9.764478680,-0.055225190,-0.071918970,0.388973890
1640835580.711779,-0.385377290,0.162565600,9.888989450,-0.053715720,-0.003750620,0.363542140
1640835580.712139,-0.464528560,0.028538840,10.219717030,-0.055325040,-0.145034490,0.358705250
1640835580.716850,-0.585129680,-0.050631420,10.639988900,-0.042629250,-0.077503930,0.348591800
1640835580.717769,-0.202571180,0.080926040,9.416353230,-0.031752890,-0.011484320,0.288645950
1640835580.721850,-0.170135990,0.265642940,9.979154590,-0.043798980,-0.079324830,0.303681220
1640835580.722270,-0.015864030,0.302197190,9.529285430,-0.046297910,-0.018006570,0.342483820
1640835580.726840,0.177671430,0.068045140,9.104992870,-0.022454560,-0.101909060,0.353528620
1640835580.727290,-0.185166180,-0.047309990,10.077393530,0.004905460,-0.117498640,0.370042060
1640835580.731870,-0.044683680,-0.139156700,9.553236960,-0.008559230,-0.043149290,0.352680680
1640835580.733000,0.017619690,-0.159539480,10.211556430,-0.024065380,-0.048267850,0.309044120
1640835580.737170,-0.031478030,0.095533970,10.519463540,-0.027409200,-0.007277730,0.292211770
1640835580.738659,0.115427060,0.193536560,9.877249720,-0.013990700,-0.050239260,0.311511730
1640835580.741809,-0.329688190,0.160541740,9.781356810,0.037807230,-0.108857460,0.326457650
1640835580.742230,-0.591097890,0.104151090,9.298095700,0.051541630,-0.151880130,0.344401660
1640835580.746830,-0.674521800,0.207241180,9.096386910,0.003133710,-0.097861910,0.364635880
1640835580.747259,-0.734127100,0.035598420,9.934709550,-0.007112320,-0.035512450,0.331252810
1640835580.752310,-0.540390610,0.053478900,10.934477810,-0.004649160,-0.036098070,0.311157140
1640835580.753209,-0.060981110,0.502332630,10.502578740,0.032223760,-0.055715450,0.288045440
1640835580.756840,0.068293440,0.483778450,10.342933650,0.022010510,-0.142210720,0.285038380
1640835580.759450,0.272848250,0.780503990,9.438727380,-0.019469860,-0.109495240,0.317119150
1640835580.761910,0.389367280,0.911647560,8.750766750,-0.046700240,-0.079867240,0.347191100
1640835580.762620,0.045281950,0.446127620,9.961998940,-0.043594850,-0.048872840,0.378117050
1640835580.767799,0.018119560,0.341733630,10.112500190,-0.003045800,-0.050446400,0.369648690
1640835580.769310,-0.208393930,0.257704500,10.510912900,0.007857390,-0.108084100,0.340700240
1640835580.772030,-0.370902810,-0.005139200,10.427104950,-0.062723470,-0.071665640,0.314839180
1640835580.773870,-0.300047280,0.140525950,9.781172750,-0.064130130,-0.078566380,0.288553540
1640835580.776810,-0.434145930,0.191542180,9.597671510,-0.046575060,-0.074282290,0.290064480
1640835580.777320,-0.379542650,0.094233280,9.383666990,-0.024196500,-0.070169550,0.331893530
1640835580.782040,-0.373830290,0.255764870,9.672971730,0.002273920,-0.087794680,0.349685610
1640835580.782470,-0.181492580,0.134156700,9.703897480,-0.041437160,-0.087383410,0.370937650
1640835580.787200,0.077413220,-0.054292960,10.293938640,-0.049865250,-0.045590110,0.358289510
1640835580.788679,0.260529010,0.018428140,10.280836110,-0.006096070,0.008989870,0.292576850
1640835580.791760,0.364046010,0.092907640,10.088048930,0.007639830,-0.090105840,0.295715060
1640835580.792060,0.113864630,0.149093790,9.888285640,0.011475380,-0.065456340,0.333452220
1640835580.798030,-0.088527060,0.013676440,8.882667540,-0.000938770,-0.089055310,0.320239370
1640835580.798780,-0.663755120,-0.181864600,9.751155850,0.001171230,-0.163334610,0.348830250
1640835580.801839,-0.747740210,-0.160010050,9.526747700,0.036355850,-0.027589500,0.329874400
1640835580.802399,-0.575678530,-0.200033370,9.983649250,0.045935810,-0.055423380,0.283850730
1640835580.809059,-0.658429680,0.162484650,11.249266620,0.031468270,-0.043967370,0.299975310
1640835580.809589,-0.264782520,0.238641560,10.004524230,0.026291610,-0.057265170,0.305968520
1640835580.811790,-0.264483180,0.132637770,9.973625180,0.063428290,-0.199373100,0.308835570
1640835580.812359,-0.292251410,0.467458840,9.310386660,0.068055100,-0.128804150,0.339119230
1640835580.816800,0.098714340,0.352330450,8.718204500,0.027813020,-0.071498770,0.352613690
1640835580.817250,-0.149246750,0.221798450,10.578920360,0.019913910,-0.053004920,0.337602140
1640835580.822100,-0.001128860,0.390189440,10.736436840,0.028567010,-0.061157340,0.325420500
1640835580.822540,0.194291130,0.336250070,10.445237160,0.032040480,-0.127612050,0.309228930
1640835580.826779,-0.059271920,0.328827890,10.309535980,0.033509740,-0.112521670,0.285072620
1640835580.827170,-0.054083200,0.381462480,9.317522050,0.020216410,-0.094576190,0.292296710
1640835580.831830,-0.314151260,0.272266210,9.330891610,0.012972950,-0.093299160,0.324443010
1640835580.832199,-0.538882320,-0.026278750,9.756584170,0.036963820,-0.109803680,0.334958730
1640835580.837870,-0.399258170,0.015150670,9.860762600,0.040361290,-0.111575420,0.350700350
1640835580.838440,-0.293617190,-0.040904360,9.998287200,0.042743970,-0.069837280,0.324958560
1640835580.842840,-0.214961950,-0.102000030,10.828044890,0.028878450,-0.049050160,0.288400080
1640835580.843400,0.098358270,0.321016370,10.180479050,0.020383300,-0.080111620,0.280210410
1640835580.847020,0.256547030,0.219697590,9.511148450,0.046215960,-0.126989190,0.291974930
1640835580.847519,0.192961440,0.096418980,9.484523770,0.066521770,-0.063724830,0.325177700
1640835580.852039,0.038760870,0.160914840,9.182554240,0.104503330,-0.071397430,0.343474840
1640835580.852779,-0.386319790,-0.174029560,10.109984400,0.066442800,-0.135405360,0.325344590
1640835580.856760,-0.330683320,-0.074236930,10.121131900,0.035329170,-0.067201260,0.310201940
1640835580.857080,-0.274124890,0.025212110,10.223054890,0.066778070,-0.058931120,0.273689720
1640835580.861879,-0.376787220,0.174102220,10.717845920,0.070306670,-0.052103400,0.280687210
1640835580.862360,-0.306801940,0.426592680,10.030308720,0.105217100,-0.088417520,0.315117840
1640835580.866840,-0.455034760,0.403385550,9.682109830,0.097456570,-0.167229800,0.318621130
1640835580.867329,-0.435438190,0.374222280,9.242368700,0.041657690,-0.139367580,0.346812640
1640835580.871750,-0.386863230,0.349938360,9.508587840,0.060552370,-0.075812650,0.346778360
1640835580.872110,-0.278329760,0.321275120,10.491801260,0.056378540,-0.050656500,0.298319760
1640835580.876940,0.017507100,0.582837880,10.955974580,0.044198330,-0.080350040,0.315192370
1640835580.878559,0.228885350,0.600856420,10.597917560,0.038169320,-0.070413940,0.300167440
1640835580.881899,0.202011810,0.353690620,10.072673800,0.036381190,-0.130876870,0.276884380
1640835580.882419,-0.048290760,0.475425180,9.628933910,0.049886110,-0.152385220,0.314942000
1640835580.887529,-0.192408870,0.340853100,8.977509500,0.035198030,-0.075264280,0.334402950
1640835580.888080,-0.445785110,0.046632380,9.898741720,0.010557470,-0.120203200,0.339981910
1640835580.891739,-0.545122440,0.219500350,10.425687790,-0.003115830,-0.074242070,0.347784220
1640835580.892120,-0.217430590,0.012113330,10.059508320,0.018672650,-0.062726440,0.311322540
1640835580.896770,-0.297008100,0.070971820,11.013101580,0.044023980,-0.098426630,0.293566320
1640835580.897169,-0.116881980,0.530220390,9.953115460,0.026109820,-0.075361130,0.287304790
1640835580.902140,0.049346560,0.251125450,9.380949020,-0.002263490,-0.153498350,0.313398240
1640835580.903689,-0.159838070,0.079969200,9.686904910,0.027999280,-0.091147420,0.338386030
1640835580.906740,-0.026539090,0.056244130,9.084857940,0.062315170,-0.070297730,0.326843560
1640835580.907130,-0.169208820,-0.223952490,10.293111800,0.056219110,-0.104971240,0.325833350
1640835580.911780,-0.163641660,-0.068359510,10.497209550,0.026582190,-0.044724350,0.292426380
1640835580.912250,0.162116390,0.070469200,10.179517750,0.007113810,-0.091220450,0.275580590
1640835580.917330,-0.084679560,-0.059978570,10.378302570,0.050863630,-0.059232120,0.303009150
1640835580.918079,-0.196879610,-0.065324310,9.732683180,0.112608080,-0.088126960,0.309746000
1640835580.921769,-0.413103910,0.040157390,9.445106510,0.126859560,-0.161927940,0.320164860
1640835580.922370,-0.657442750,-0.007241430,9.345495220,0.061945620,-0.118255630,0.326703520
1640835580.926820,-0.525097010,0.082834050,9.816803930,0.035633150,-0.080859660,0.301501180
1640835580.927320,-0.409088460,0.300913810,10.564846040,0.056748090,-0.047127910,0.282154980
1640835580.931790,-0.202149720,0.317442060,10.871004100,0.096847130,-0.082033890,0.285567370
1640835580.932129,-0.003279600,0.506359760,10.634848590,0.120267290,-0.104203820,0.297395910
1640835580.937180,-0.099219840,0.526502670,9.725576400,0.089769070,-0.163699700,0.312696400
1640835580.937820,-0.192331020,0.309627500,9.474205970,0.031465290,-0.173880140,0.341255960
1640835580.941820,-0.162447710,0.349744440,9.256479260,0.032803420,-0.063245010,0.336149360
1640835580.942200,-0.228548970,0.138075630,10.132481580,0.071188820,-0.100363810,0.318464700
1640835580.946740,-0.162015870,0.273379830,11.082821850,0.068224960,-0.072613350,0.312536900
1640835580.947070,0.054276660,0.455225260,10.465689660,0.055511300,-0.083608930,0.294275580
1640835580.951969,-0.219474690,0.340774980,10.687034610,0.010156630,-0.177203120,0.279690330
1640835580.952989,-0.227940410,0.641750990,9.652514460,-0.002990660,-0.131893170,0.311969220
1640835580.956889,-0.292546810,0.416990220,8.969791410,0.031077870,-0.134640950,0.327634870
1640835580.957430,-0.471038130,0.297829450,9.913508420,0.041344770,-0.121736540,0.350947770
1640835580.961870,-0.080356960,0.433890940,9.788025860,0.033292190,-0.041985520,0.357371630
1640835580.962280,-0.050960110,0.011480640,10.739781380,-0.000654160,-0.072537360,0.324930280
1640835580.966869,0.024260090,0.148714140,11.066370010,-0.003479420,-0.113552830,0.290146470
1640835580.967320,0.206328110,0.315029200,9.817202570,0.018556410,-0.117252750,0.282527480
1640835580.972149,-0.006802580,-0.003157270,9.490675930,0.018398460,-0.122378760,0.305908890
1640835580.972910,-0.223260330,-0.076852180,9.601601600,0.053660570,-0.085157160,0.332142410
1640835580.976800,-0.410929230,-0.120026450,9.504595760,0.058113040,-0.102317350,0.342707370
1640835580.977249,-0.530221280,-0.301510420,10.153470990,0.035454340,-0.123435270,0.331652190
1640835580.981819,-0.480167810,-0.098397700,10.545904160,0.033830110,-0.068672000,0.302168730
1640835580.982169,-0.243122100,0.187334310,10.132672310,0.031837820,-0.069303820,0.285026430
1640835580.986770,-0.242058190,0.107008930,10.546892170,0.074116890,-0.111073260,0.315693050
1640835580.987180,-0.266836020,0.251907140,9.975255010,0.115072740,-0.100915160,0.324931800
1640835580.991799,-0.166073340,0.411052580,9.219038010,0.081019110,-0.182661410,0.338466470
1640835580.992240,-0.346374300,0.145052870,9.920926090,0.042410200,-0.129367410,0.358659060
1640835580.996950,-0.173805560,0.221178680,9.849195480,0.037805740,-0.048321490,0.320345190
1640835580.997390,-0.155889230,0.332687050,10.734160420,0.071412320,-0.127029400,0.289018450
1640835581.001870,-0.174975600,0.392066600,11.126465800,0.069636110,-0.092406580,0.309242400
1640835581.002580,-0.027167220,0.473356310,9.979072570,0.053852810,-0.115139800,0.298477740
1640835581.007000,-0.405810030,0.404044240,10.350345610,0.058077290,-0.208434510,0.316500660
1640835581.007740,-0.481654850,0.490313260,9.514993670,0.024452810,-0.138686600,0.351674880
1640835581.011809,-0.323620080,0.373840690,9.227972980,0.023822490,-0.144593450,0.350578130
1640835581.012149,-0.483019830,0.227882300,10.775700570,0.039106610,-0.090527530,0.352217290
1640835581.016790,-0.098691570,0.343754590,10.574853900,0.026887660,-0.073604300,0.339108790
1640835581.017099,0.079669290,0.413645710,10.801790240,0.027853250,-0.166654560,0.307144190
1640835581.022040,0.056031250,0.512515130,10.408646580,-0.020495050,-0.135238450,0.297899510
1640835581.022529,0.245523990,0.521454220,9.290206910,-0.032626090,-0.109250870,0.326076150
1640835581.026719,-0.065737720,0.227663960,9.836242680,0.028745840,-0.130423950,0.356249570
1640835581.027089,-0.183649530,-0.002542840,9.695134160,0.042526420,-0.125463320,0.353465970
1640835581.031819,-0.100240230,0.066163150,9.855474470,0.020501020,-0.115244110,0.365541960
1640835581.032220,-0.284162520,-0.144537140,10.606338500,-0.022028390,-0.056096910,0.332212480
1640835581.036830,-0.177112550,-0.052247030,10.731743810,-0.026057660,-0.101317470,0.303198430
1640835581.037770,-0.162883890,0.292658600,10.319638250,0.023056560,-0.114876040,0.321283940
1640835581.041870,-0.225061390,0.022833940,9.748406410,0.050485130,-0.105896610,0.321009780
1640835581.042699,-0.349264470,0.127885310,9.837151530,0.064155460,-0.134119440,0.352494480
1640835581.047050,-0.358972070,0.279786650,9.424584390,0.024837260,-0.106164830,0.365416800
1640835581.047439,-0.246577080,-0.088857310,10.147276880,-0.019207600,-0.110839310,0.336217910
1640835581.052160,-0.052249970,0.274772550,10.715399740,0.007799270,-0.042036180,0.321057440
1640835581.053200,0.102225590,0.298994720,10.547378540,0.048208240,-0.052568320,0.312021370
1640835581.056759,-0.012973700,0.216510800,11.104381560,0.050129000,-0.120440130,0.325044990
1640835581.057139,-0.076777270,0.693845510,9.936668400,0.019584600,-0.124491770,0.343962040
1640835581.061810,-0.263870570,0.407089710,9.368771550,-0.034452970,-0.178419070,0.355657960
1640835581.062170,-0.568047940,0.271660450,9.985003470,-0.022581220,-0.084307800,0.371208790
1640835581.067540,-0.523293730,0.353980090,9.938938140,0.038117170,-0.072829430,0.346060100
1640835581.068310,-0.355416890,0.270029990,10.946935650,0.017511850,-0.107665370,0.341296290
1640835581.072199,-0.106543210,0.456490640,10.926877980,-0.033861400,-0.034141540,0.347217920
1640835581.072790,0.067914110,0.412072390,10.515788080,-0.051692130,-0.116692510,0.314268470
1640835581.076860,0.009184790,0.400046170,10.316469190,-0.046552730,-0.156363890,0.323492290
1640835581.077340,0.000678260,0.511351230,9.257685660,-0.013294820,-0.109928870,0.349325000
1640835581.081889,-0.071497590,0.276560340,9.472211840,-0.015328830,-0.095841300,0.361234010
1640835581.082559,-0.216737630,0.107775350,10.277481080,-0.042888530,-0.058983270,0.378996220
1640835581.086860,-0.057519720,-0.058519450,10.421451570,-0.043284900,-0.057427600,0.379391010
1640835581.087380,-0.052759450,-0.086831730,10.972538950,-0.029224160,-0.075957190,0.334718820
1640835581.091760,-0.148420240,0.007785840,10.597839360,-0.024759770,-0.087314840,0.323663650
1640835581.092140,-0.153733120,0.031915800,9.767680170,-0.019444530,-0.102579620,0.342139660
1640835581.096789,-0.312675120,-0.079137820,9.515475270,0.009492040,-0.097265850,0.341838690
1640835581.097230,-0.476241620,-0.099923190,9.619346620,0.014187400,-0.091438000,0.356793490
1640835581.101980,-0.354440660,0.105405970,9.851035120,-0.009129940,-0.054775190,0.348472630
1640835581.102640,-0.283410310,0.088891720,10.676776890,-0.012987850,-0.055274370,0.324842330
1640835581.106779,-0.038728200,0.319679590,11.012707710,-0.014306610,-0.063602630,0.325736340
1640835581.107240,0.246880070,0.532524650,10.336750980,0.012086330,-0.039806950,0.344830780
1640835581.111760,-0.001772540,0.222674350,10.428999900,0.044825680,-0.103013230,0.354394380
1640835581.112150,-0.121483150,0.294396430,9.797571180,0.027102240,-0.117719170,0.371049370
1640835581.117750,-0.233935270,0.263619930,9.238430980,-0.000660120,-0.104813300,0.371271430
1640835581.119419,-0.499508710,-0.086313250,10.293445590,-0.031510000,-0.061593950,0.348281890
1640835581.122059,-0.434405620,0.249302010,10.663885120,-0.011363630,-0.021907690,0.333194460
1640835581.123469,-0.312916900,0.352445720,11.022309300,0.004248320,-0.064256790,0.326128330
1640835581.126770,-0.280266790,0.291542350,11.065259930,-0.018893180,-0.071805710,0.325150790
1640835581.127240,-0.013751990,0.674804930,10.021516800,-0.021564970,-0.095459830,0.333930640
1640835581.131800,-0.113286120,0.530240950,9.782898900,-0.033992540,-0.098314900,0.356476100
1640835581.132370,-0.161352500,0.319291500,9.673666000,-0.044213250,-0.074210760,0.376078520
1640835581.136770,-0.116568410,0.361193780,9.942887310,-0.006346400,-0.079275670,0.379268850
1640835581.137179,-0.118181770,0.124550160,10.479427340,-0.033561890,-0.029084090,0.373144450
1640835581.141770,0.014786190,0.036468670,10.886098860,-0.047403570,-0.032894320,0.354313880
1640835581.142180,0.009294760,0.217760490,10.846166610,-0.034889580,-0.057177250,0.319999490
1640835581.146750,0.031481690,0.154275270,9.931921960,-0.049847370,-0.088347490,0.334245000
1640835581.147130,-0.161592480,0.043689090,9.869614600,-0.015161930,-0.080536310,0.375030990
1640835581.151800,-0.341982750,-0.082287680,9.581131940,0.010961300,-0.027173760,0.357808260
1640835581.152249,-0.501061440,-0.174365100,9.994602200,-0.003385540,-0.106105230,0.368240540
1640835581.156880,-0.567995610,0.002239610,10.707025530,-0.014701490,-0.045609490,0.351236760
1640835581.157470,-0.234376560,0.159925940,10.378130910,-0.048574820,-0.016291440,0.300425320
1640835581.161860,-0.169906560,0.342421290,11.045432090,-0.031048060,-0.078384590,0.328782230
1640835581.162390,-0.058041940,0.464256610,10.563858030,0.012837350,0.003898140,0.346532490
1640835581.167549,0.045146410,0.424277420,9.846094130,0.030580160,-0.105516620,0.346176330
1640835581.168079,-0.302243950,0.477162990,10.288709640,-0.005744400,-0.139811650,0.387494270
1640835581.172040,-0.259919290,0.299997000,9.453526500,-0.054155300,-0.043967370,0.392279120
1640835581.172770,-0.356679350,0.016024340,10.332213400,-0.036849080,-0.077696150,0.354130570
1640835581.176760,-0.519268100,0.219799010,11.354887010,-0.005099180,-0.034847860,0.350598930
1640835581.177120,-0.175915270,0.339736280,10.580735210,-0.018164520,-0.034105780,0.336393710
1640835581.181810,-0.209686790,0.300606520,10.851544380,-0.036118930,-0.108394030,0.325034560
1640835581.182220,-0.225200470,0.592933710,9.983112340,-0.059570380,-0.081576430,0.349663260
1640835581.186740,-0.006010790,0.443247110,9.264532090,-0.065523390,-0.072404750,0.382354920
1640835581.187150,-0.318540840,0.131675330,10.230519290,-0.019572680,-0.047555560,0.391657650
1640835581.191759,-0.302503940,0.128642540,10.411836620,-0.005576010,-0.071558360,0.384826960
1640835581.192160,-0.082040300,0.025993150,10.545986180,-0.033211720,-0.075021410,0.368443190
1640835581.197080,-0.216611310,0.026147710,10.835383420,-0.066161160,-0.034955140,0.335393880
1640835581.199880,-0.096961310,0.161566760,10.579940800,-0.079523040,-0.055995590,0.324206110
1640835581.201810,-0.113174320,0.069318640,10.102506640,-0.012584030,-0.069175660,0.356537100
1640835581.202190,-0.321368070,-0.135132000,9.860010150,0.042928760,-0.110271590,0.362631710
1640835581.207190,-0.344242990,0.024436620,9.919168470,0.013083220,-0.107605780,0.388772850
1640835581.207660,-0.434251040,0.032170780,9.980912210,-0.055217740,-0.046712160,0.381153760
1640835581.211769,-0.432966290,-0.127329390,11.000498770,-0.060784820,-0.053544350,0.352585350
1640835581.212060,-0.134783220,0.191982910,11.072728160,0.000800190,-0.028772660,0.329189000
1640835581.216800,-0.150931810,0.388187770,10.608684540,0.050503020,-0.086063140,0.319300530
1640835581.217190,-0.146499250,0.595473950,10.539513590,0.007103380,-0.126922150,0.346150990
1640835581.222110,-0.062908350,0.945106630,9.502093320,-0.078375620,-0.067040320,0.369334190
1640835581.222700,-0.255450010,0.518534240,9.847677230,-0.098380450,-0.090956690,0.389574560
1640835581.226760,-0.347764430,0.186771560,10.751282690,-0.011430680,-0.048108400,0.394146170
1640835581.227219,-0.234699090,0.230902570,10.552761080,0.055646910,-0.070980190,0.361226530
1640835581.231809,-0.247266960,0.139102650,11.022846220,-0.028029090,-0.106661040,0.365461440
1640835581.232169,-0.034027620,0.185423490,10.666282650,-0.126133870,-0.029945380,0.358654590
1640835581.236950,0.103184860,0.116468260,10.064075470,-0.087533900,-0.056865820,0.334614520
1640835581.237850,0.021095960,0.114876940,10.169059750,-0.020837790,-0.088191050,0.355330200
1640835581.241989,-0.130538600,0.215745180,9.927160260,0.032906240,-0.056873260,0.381585960
1640835581.242659,-0.239019750,0.156055300,9.973524090,-0.007887180,-0.100402540,0.384184720
1640835581.246889,-0.245769250,0.111198740,10.553910260,-0.106713180,-0.054739430,0.391006470
1640835581.247380,-0.121465410,-0.003843200,10.813971520,-0.073467210,0.027574600,0.363144340
1640835581.251740,0.001521930,0.070078310,10.778789520,0.001180170,-0.030937790,0.322212280
1640835581.252359,-0.067876730,0.307754700,10.534162520,0.032542650,-0.087411710,0.341072680
1640835581.256929,-0.125380580,0.240323250,9.667685510,-0.009468200,-0.050461300,0.377059070
1640835581.257400,-0.431653110,-0.016649670,9.650102620,-0.049087410,-0.103828300,0.387346680
1640835581.261839,-0.587966560,-0.261062320,10.254263880,-0.019846860,-0.082044310,0.386138290
1640835581.262290,-0.402527210,-0.191270810,10.275959010,0.026834020,0.006976720,0.358045190
1640835581.266820,-0.264062640,0.009099990,10.956935880,0.029163070,-0.026433180,0.321893390
1640835581.267210,-0.212678130,0.241279560,11.427629470,-0.003540520,-0.032052400,0.335006450
1640835581.271800,0.005305530,0.434105520,10.207721710,-0.036564470,-0.064289580,0.350406830
1640835581.272689,-0.179065290,0.483113020,10.099803920,-0.005252660,-0.145266980,0.357587720
1640835581.276919,-0.313959300,0.623202440,9.799318310,0.004607440,-0.070641960,0.378960370
1640835581.277830,-0.184151900,0.653198660,9.511421200,-0.015345220,-0.020091240,0.384239850
1640835581.281900,-0.414043190,0.469038550,11.247742650,-0.034990910,-0.041921440,0.377503070
1640835581.282980,-0.243092460,0.433709860,11.287394520,-0.064162920,-0.009857120,0.374168190
1640835581.286739,0.026637410,0.306088000,10.660777090,-0.036287320,-0.087960090,0.347669480
1640835581.287150,-0.178535790,0.282355010,10.789935110,-0.031234330,-0.083498640,0.327064070
1640835581.291849,-0.027029910,0.436610490,9.511596680,-0.075447560,-0.038759410,0.351533380
1640835581.292450,-0.188864800,0.263006300,9.817358020,-0.068041690,-0.075201690,0.380460950
1640835581.296769,-0.450880260,0.107491490,10.515669820,-0.061905380,-0.057601920,0.370119540
1640835581.297240,-0.120451060,0.251600180,10.213312150,-0.064098830,-0.052508720,0.375375150
1640835581.301829,-0.132963150,0.190108780,10.934586520,-0.061881550,-0.025336450,0.353290170
1640835581.302230,-0.093643290,0.241137740,11.037830350,-0.086922940,0.001589950,0.320999320
1640835581.306790,0.134679060,0.450407210,10.360774990,-0.080609320,-0.062164660,0.355122950
1640835581.307950,-0.069747550,0.266661020,9.921500210,-0.064271700,-0.048658250,0.363904270
1640835581.311760,-0.244020020,-0.076319210,9.910071370,-0.048407920,-0.075615940,0.379376110
1640835581.312180,-0.274616210,-0.066953420,9.882322310,-0.028470150,-0.055059790,0.399184230
1640835581.316910,-0.347543120,-0.365966050,10.294740680,-0.050620750,0.001785160,0.354600010
1640835581.317510,-0.218193370,-0.385072710,11.190006260,-0.054924190,0.004924830,0.320419700
1640835581.322399,-0.151480200,0.040954390,10.837943080,-0.019755960,-0.000759960,0.311788950
1640835581.323550,-0.243818730,-0.128506450,10.422037120,-0.005024670,-0.088624670,0.322803940
1640835581.326850,-0.383275300,-0.061483040,10.195363040,0.022688510,-0.079600520,0.358843860
1640835581.327350,-0.489979830,0.156043160,9.353591920,0.032642480,-0.074447700,0.367338960
1640835581.331760,-0.498634670,-0.085829290,10.208318710,-0.006577370,-0.062239180,0.374284390
1640835581.332170,-0.335638080,0.108136380,10.855610850,-0.008237360,0.034724190,0.361178870
1640835581.336769,-0.143026190,0.250310930,11.029660220,0.020709630,-0.021913640,0.322516290
1640835581.337210,-0.121665910,0.239953190,11.439815520,0.025530160,-0.082069640,0.329065320
1640835581.342010,-0.178800420,0.478801400,10.328578950,0.040102010,-0.083646190,0.328540830
1640835581.342680,-0.186472010,0.523800190,9.564102170,0.009076300,-0.140663980,0.350235430
1640835581.346760,-0.246386140,0.419228610,9.894758220,-0.036166610,-0.036472090,0.385852160
1640835581.347129,-0.307265670,0.316498520,10.325846670,-0.009264050,0.012442470,0.386184540
1640835581.351750,-0.352207870,0.236718570,11.334715840,0.020906330,-0.079922390,0.366918770
1640835581.352140,-0.338837440,0.317739010,11.157684330,-0.004410740,-0.080649550,0.353364680
1640835581.358250,-0.241006630,0.340525450,10.480588910,-0.032441320,-0.102819520,0.327476890
1640835581.360190,-0.200088250,0.496599640,10.233889580,-0.062957410,-0.068593030,0.317990810
1640835581.361810,-0.243084300,0.532020450,10.019266130,-0.057479750,-0.031664970,0.349830120
1640835581.362160,-0.223672630,0.392963800,10.233669280,-0.025099520,-0.061972440,0.393910740
1640835581.366750,-0.223986130,0.286930020,10.505465510,-0.016500060,-0.083169350,0.397798420
1640835581.367260,-0.178347020,0.016428250,10.671959880,-0.048215690,-0.089696060,0.398658220
1640835581.372110,0.135822030,-0.101845630,10.560078620,-0.059512270,-0.005185610,0.373381470
1640835581.373370,0.216138040,-0.104242440,10.805317880,-0.041647250,0.005412100,0.311244990
1640835581.376740,0.081404940,-0.017755460,10.891235350,-0.022302570,-0.045719740,0.324370000
1640835581.377060,-0.000771850,0.114045120,9.905414580,-0.002571940,-0.089541090,0.344735440
1640835581.381810,-0.441119130,-0.063729250,9.771444320,-0.002397600,-0.137403610,0.359876450
1640835581.382350,-0.694826360,-0.056023020,9.885458950,-0.029005110,-0.043758760,0.381140470
1640835581.386750,-0.615803300,-0.042573980,10.292590140,-0.001485650,-0.008538370,0.362660050
1640835581.387090,-0.652616560,-0.096076980,11.548484800,0.021709500,-0.023348640,0.320608910
1640835581.391800,-0.226629780,0.330086320,11.034428600,0.002767150,-0.037500270,0.319901140
1640835581.392200,0.011712740,0.302106920,10.390099530,0.017136340,-0.073470180,0.346657630
1640835581.397280,-0.176308920,0.011766570,10.429135320,0.037899620,-0.093182940,0.353458580
1640835581.397990,-0.100828710,0.281476050,9.620242120,0.022248920,-0.101248940,0.374872980
1640835581.401899,-0.164216970,0.155872210,9.952267650,0.014038380,-0.064936280,0.381505490
