# timestamp,accel_x,accel_y,accel_z,gyro_x,gyro_y,gyro_z
1640840882.358660,-0.210417150,0.124364040,10.098239900,0.034764410,-0.004136560,0.006534160
1640840882.359830,-0.042568060,0.604288340,9.639817240,0.090225030,0.115543610,-0.002226230
1640840882.364470,-0.159384650,0.609040560,9.996180530,0.005289910,-0.060330340,-0.016649070
1640840882.364910,-0.259363590,0.489184830,10.191666600,-0.067345810,-0.046168280,0.022652750
1640840882.368229,-0.020037680,0.402183180,8.670921330,-0.043660410,0.027029220,-0.008668010
1640840882.369870,-0.300271240,0.249893930,10.220355990,0.029310590,0.005130470,-0.011138620
1640840882.373380,-0.362952440,0.638266500,10.100283620,0.035831340,0.086587670,0.016829370
1640840882.375039,-0.118716420,0.480824620,9.387358670,-0.063443180,-0.074818740,-0.004442040
1640840882.379410,-0.229742470,0.291459680,10.072344780,-0.073792040,-0.009141860,0.016227370
1640840882.380349,0.007289380,0.468079750,8.884485240,-0.030390920,0.082673140,0.000147520
1640840882.383149,-0.242862810,0.258203720,10.129480360,-0.009182100,-0.037662680,-0.005847220
1640840882.384830,-0.386479740,0.336539360,10.100977900,-0.006611650,0.025485460,0.024321680
1640840882.388310,-0.029449580,0.126026570,8.850167270,-0.041286650,-0.035600360,0.000569220
1640840882.390210,-0.257116200,-0.041748870,10.019842150,-0.042615830,0.006102020,0.016705690
1640840882.393420,-0.092272620,0.191918860,9.274768830,-0.031730530,0.118233280,0.002042950
1640840882.394860,-0.183241810,-0.148361460,10.042970660,0.002524260,-0.047640500,-0.007194280
1640840882.398340,-0.379351500,-0.107217390,10.255964280,0.043524810,-0.020258130,0.016820430
1640840882.399840,-0.003676270,0.121060040,8.565412520,0.023244320,-0.005945560,-0.002692640
1640840882.403120,-0.380408440,0.021751630,10.129348750,-0.015690930,0.002576410,-0.000113250
1640840882.404830,-0.351487670,0.444082440,9.861137390,-0.032293790,0.094020370,-0.005181130
1640840882.408569,-0.235634060,0.320533390,9.752903940,0.015167890,-0.069060930,-0.024874510
1640840882.409979,-0.449358820,0.288247670,10.142934800,0.068749490,-0.038823490,0.007717310
1640840882.413200,-0.169213670,0.693423690,8.937412260,0.037553910,0.027716160,-0.008410220
1640840882.414749,-0.382178430,0.501964030,10.162840840,-0.034703310,-0.021915140,0.003249940
1640840882.418660,-0.433723690,0.463534530,10.245255470,-0.047978760,0.025714930,0.029498340
1640840882.419770,-0.089173430,0.262335270,9.438189510,0.023894010,-0.052361190,-0.000910460
1640840882.423060,-0.271118610,0.190315810,10.065196040,0.073434410,-0.031048060,-0.002817810
1640840882.425040,0.056793210,0.734992680,9.108309750,-0.011162460,0.055041920,0.001932680
1640840882.429100,0.016776380,0.373880650,9.872026440,-0.089660300,-0.002416970,-0.002528730
1640840882.429970,-0.245652680,0.110138350,10.410913470,-0.038665540,-0.005926190,0.009603800
1640840882.433280,-0.016200610,0.365478750,9.168876650,0.065603850,-0.051219770,-0.019533940
1640840882.434880,-0.370733590,0.292237730,9.729658130,0.034058090,-0.051389640,-0.004042690
1640840882.438160,-0.226880980,0.573131380,9.251349450,-0.080499070,0.069463260,0.030022870
1640840882.439900,-0.175157380,0.174470050,9.743840220,-0.069327660,0.026690960,0.007469950
1640840882.443220,-0.376096370,-0.121073680,10.387064930,0.027580560,-0.010980670,0.006642940
1640840882.445649,-0.166799740,0.347989830,9.119213100,0.088067350,-0.039324160,-0.012093780
1640840882.448079,-0.449944110,0.098279260,9.630394940,-0.004349650,-0.063020000,-0.015372040
1640840882.450320,-0.329682980,0.152041540,9.394237520,-0.074470030,0.038826460,0.005555150
1640840882.453159,-0.124084970,0.097186130,9.376458170,-0.010000170,0.015456980,-0.029739740
1640840882.454820,-0.184125360,-0.091592120,10.322167400,0.063520680,0.004023310,-0.007966160
1640840882.458200,-0.024480890,0.411297380,9.644796370,0.091543800,0.010579820,-0.008212030
1640840882.459890,-0.278845010,0.208794460,9.867176060,0.002701580,-0.074005130,-0.019414720
1640840882.463100,-0.384249540,0.215975610,9.619295120,-0.042176250,-0.044262410,0.011521580
1640840882.464840,-0.201732010,0.354760470,8.799855230,0.016084310,-0.002780560,-0.028795010
1640840882.468160,-0.394113540,0.265677540,10.103564260,0.044989590,0.014159080,-0.038488210
1640840882.469869,-0.339009550,0.869462430,10.025497440,0.041472900,0.017805400,0.001385810
1640840882.473430,-0.275023910,0.549975340,9.900246620,-0.023771820,-0.098510090,-0.032149260
1640840882.477160,-0.294369790,0.376935330,9.877503400,-0.029866400,-0.043505430,-0.008183720
1640840882.478610,-0.176504660,0.586042520,9.157595630,0.017699600,0.015111270,-0.018408900
1640840882.479780,-0.333414380,0.176307890,10.167284010,-0.006507340,-0.041218100,-0.019235910
1640840882.483160,-0.135012510,0.417173390,9.635562900,-0.009809440,-0.007535520,0.012613830
1640840882.484830,0.067335970,0.234231320,9.217020990,-0.018671160,-0.044354800,-0.024089220
1640840882.488080,-0.091809900,0.151374650,10.096451760,-0.042063000,0.006717440,-0.010958310
1640840882.490059,-0.144596350,0.452680800,9.494768140,-0.014877320,0.001919270,-0.008402760
1640840882.493160,-0.373607520,-0.024846580,10.013444900,-0.014600160,-0.119219710,-0.033345820
1640840882.495550,-0.344588550,0.232338440,9.436366080,0.004962090,-0.021000210,-0.004956130
1640840882.498160,-0.168381330,0.434208480,8.790204050,-0.016021730,-0.008693340,-0.026074050
1640840882.499780,-0.249293310,0.189814980,10.172569270,-0.064137580,0.021140280,-0.016024710
1640840882.503239,-0.090462090,0.274686220,9.655893330,-0.014087560,0.043028590,-0.006546080
1640840882.504789,-0.089921750,-0.055559690,9.794507030,0.049352650,-0.121940670,-0.029163070
1640840882.508210,-0.185334180,0.017868520,9.645779610,0.058649480,-0.022995470,0.007200240
1640840882.509830,-0.080479810,0.193589300,8.690099720,-0.023181740,0.004336240,-0.018048290
1640840882.513069,-0.284947690,-0.146726620,10.233128550,-0.061768290,-0.015820560,-0.029507280
1640840882.514819,-0.220504640,0.056523950,9.719960210,0.033426290,0.037282710,-0.023061040
1640840882.518100,-0.092180900,0.094365500,9.472630500,0.098857270,-0.093245500,-0.047701590
1640840882.519830,-0.394081150,0.341015430,10.105196950,0.055740770,-0.022692980,-0.014235080
1640840882.523419,-0.188522910,0.607245860,8.980562210,-0.041876740,0.005018710,-0.003896650
1640840882.524799,-0.335560260,0.189345580,10.220381740,-0.035448380,-0.068475310,-0.015060600
1640840882.528250,-0.256261860,0.405837030,9.786641120,0.061236320,0.024777650,-0.011153520
1640840882.529879,-0.017570700,0.558141830,9.306150440,0.078897170,-0.050868090,-0.040341910
1640840882.533090,-0.325793450,0.545143900,10.471094130,-0.001311300,-0.027033690,-0.016601380
1640840882.534819,-0.072584080,0.629281340,9.172723770,-0.061100720,-0.012917820,-0.001083310
1640840882.538139,-0.121504870,0.210209800,9.803773880,-0.034695870,-0.099110600,-0.018984080
1640840882.540109,-0.227705300,0.317831340,9.885358810,0.041528050,0.046378370,-0.009851160
1640840882.543180,-0.076008040,0.521610800,9.345383640,0.022284690,-0.032110520,-0.017824770
1640840882.544750,-0.306276170,0.214577650,10.359869000,-0.037437680,-0.063703950,0.006422400
1640840882.548060,-0.004735800,0.195848760,9.081882480,-0.048050280,0.021955370,0.001184640
1640840882.549759,-0.011645640,0.082936850,9.512718200,-0.001847740,-0.047391650,-0.025981670
1640840882.553059,-0.251307760,0.181818540,10.046950340,0.023299460,0.035685300,-0.000876190
1640840882.554860,-0.017303240,0.206306000,9.247982030,-0.008109210,-0.030855840,-0.019499660
1640840882.558120,-0.299241570,-0.155568690,10.233208660,-0.004684920,-0.070026520,-0.015781820
1640840882.560890,-0.214261440,0.165622140,9.231917380,0.015950200,0.024624170,-0.010876360
1640840882.563059,-0.099188570,0.205590810,9.270635600,0.006408990,-0.023926790,-0.036142770
1640840882.564920,-0.440731080,0.107469470,10.280532840,-0.005006790,0.015747550,-0.010965770
1640840882.568130,-0.138856050,0.212337960,9.287546160,0.032037500,-0.026552380,-0.006912650
1640840882.570819,-0.297116640,-0.121164840,9.909604070,0.075562310,-0.077143310,-0.009217860
1640840882.573370,-0.264699190,0.161877660,9.533473010,0.054250660,0.026494270,-0.003288690
1640840882.574790,-0.093341530,0.256246420,9.505162240,0.007826090,-0.011573730,-0.030264260
1640840882.578320,-0.402166430,0.075003520,10.499339100,0.004944210,-0.011417270,-0.019386410
1640840882.580180,-0.083399910,0.457184490,9.366128920,0.052759050,-0.024749340,-0.012578070
1640840882.583079,-0.126729400,0.328119780,9.635259630,0.080184640,-0.062525270,-0.031682850
1640840882.584760,-0.269309580,0.582039650,9.721651080,0.029276310,0.030358140,-0.011742110
1640840882.588410,-0.152477410,0.733141780,9.556987760,-0.013677780,-0.005833800,-0.006011130
1640840882.589880,-0.427854420,0.208494190,10.431495670,-0.009942050,-0.060327350,0.011222060
1640840882.594270,-0.174936380,0.460360770,9.377659800,0.066299740,-0.026971110,0.012756880
1640840882.595330,-0.079226640,0.508071840,9.443028450,0.042299930,-0.038470330,-0.006544590
1640840882.598140,-0.148915250,0.414160700,9.987239840,-0.051267450,0.050774220,0.022187830
1640840882.599880,-0.000092300,0.314524950,9.666797640,-0.025765600,-0.001811980,0.001277030
1640840882.603180,-0.206336290,-0.133634220,10.220327380,0.037282700,-0.084277980,-0.022105870
1640840882.604780,-0.113292550,0.376129420,9.232084270,0.064294040,-0.016887490,0.001731520
1640840882.608179,-0.094567840,0.382437940,9.174862860,-0.017401570,-0.019107760,-0.014847520
1640840882.611070,-0.215193720,0.078547690,10.003275870,-0.078016520,0.037819150,0.004962090
1640840882.613230,-0.081305060,0.280991880,9.551199910,0.024212900,0.025559960,-0.011299550
1640840882.614750,-0.264668110,-0.006398510,10.088359830,0.082403430,-0.068530430,-0.028468670
1640840882.618070,-0.373318640,0.330351050,9.643231390,0.054612760,-0.021214790,0.005234780
1640840882.619830,-0.306165130,0.322455140,9.087657930,-0.028918690,-0.047469140,-0.021575390
1640840882.623129,-0.317794650,-0.103888060,9.853868480,-0.055643920,0.012241300,-0.011606520
1640840882.624859,-0.138022350,0.285061720,9.490033150,0.063912570,0.054335600,-0.017000730
1640840882.628290,-0.120945630,0.096283500,10.138276100,0.100061300,-0.036238140,-0.035296380
1640840882.629789,-0.218256800,0.377651540,10.089225770,0.040094560,-0.027655070,-0.002802910
1640840882.633080,-0.174263060,0.469425500,9.174046520,-0.022207200,-0.070229180,-0.013808910
1640840882.634810,-0.302523140,0.060063770,9.806866650,-0.026269260,-0.042890020,-0.015093390
1640840882.638180,-0.237494250,0.494534370,9.450550080,0.052760550,0.057940190,-0.020530820
1640840882.640260,-0.295190600,0.536625800,10.113695140,0.049218540,-0.028987230,-0.047700110
1640840882.643240,-0.291147470,0.540500520,10.318841930,-0.003995000,-0.027987370,0.001882020
1640840882.646350,-0.006669970,0.563286130,9.045257570,-0.022724270,-0.038346650,-0.019109250
1640840882.648059,-0.176597490,0.241897330,9.912883760,-0.020252170,-0.039070850,-0.015628340
1640840882.649819,-0.201751570,0.462696520,9.645691870,0.010962790,0.049395870,0.002811850
1640840882.653110,-0.166148980,0.180836310,9.667115210,-0.003740190,-0.076824430,-0.021961340
1640840882.655259,-0.199432490,-0.008330280,10.036455150,-0.004641710,-0.031542780,-0.000579660
1640840882.658219,0.042921640,0.240550350,8.906004910,0.008112190,0.031058490,-0.019106270
1640840882.660250,-0.138344480,0.067268830,10.150815960,-0.027635700,-0.024752320,-0.025843080
1640840882.663070,-0.220849930,0.234513640,9.992556570,-0.014172490,0.039306280,0.002801420
1640840882.664759,-0.124687370,-0.039988770,9.330068590,0.026419760,-0.079341230,-0.026401880
1640840882.668079,-0.343803580,-0.129789870,9.863705640,0.074088580,-0.042137500,-0.018291180
1640840882.670780,-0.087410440,0.387358610,8.587426190,0.024658440,0.055907660,-0.022578240
1640840882.673220,-0.220683170,0.105787370,9.969876290,-0.050964950,-0.005695220,-0.029246510
1640840882.674929,-0.342856760,0.035735550,10.325954440,0.008927290,0.034794210,-0.008589030
1640840882.678850,-0.102442960,-0.026165220,9.169557570,0.108119860,-0.082030900,-0.037443640
1640840882.679800,-0.479128210,0.003429810,10.135321620,0.113329290,-0.055190920,-0.016601380
1640840882.683110,-0.294531820,0.350329820,8.974630360,0.016495590,0.060372050,-0.020323690
1640840882.684840,-0.359063890,0.041203450,9.953543660,-0.041985520,-0.058600310,-0.032655900
1640840882.688239,-0.349606630,0.120373420,10.176928520,0.053580110,0.013771660,-0.009535250
1640840882.690300,0.079309840,0.248999180,8.985387800,0.136254730,-0.026020410,-0.048947330
1640840882.693210,-0.281677660,0.511657420,10.445651050,0.089296680,-0.045746560,-0.028494000
1640840882.694840,-0.184236710,0.827371540,9.475098610,-0.024169680,0.034378470,-0.000470880
1640840882.698050,-0.159833740,0.265366880,9.660378460,-0.050763790,-0.103375340,-0.031524900
1640840882.699800,-0.404551540,0.282268290,10.130151750,0.081597280,-0.006413460,-0.023187700
1640840882.703169,-0.046164390,0.562023640,8.897447590,0.110620280,0.000551340,-0.046938660
1640840882.704790,-0.284530130,0.434063050,10.293409350,0.010345880,-0.045931340,-0.024935610
1640840882.708200,-0.230457220,0.487233520,9.669659610,-0.064300000,0.037311020,0.000061090
1640840882.709880,-0.030225530,-0.098016160,9.503917690,-0.007268790,-0.074937950,-0.031112130
1640840882.713060,-0.425302150,-0.007085050,10.267593380,0.103753820,-0.027430060,-0.002762680
1640840882.714759,-0.048708990,0.361918930,8.767173770,0.056958210,-0.013838710,-0.025732820
1640840882.718160,-0.019006330,0.001733540,9.818078990,-0.033766030,-0.024108590,-0.013728440
1640840882.719869,0.029843710,0.263459590,9.702834130,-0.028984250,0.093598670,-0.010314580
1640840882.723150,0.091377100,0.127364590,9.709141730,0.050194570,-0.043728950,-0.047872960
1640840882.724900,-0.362077860,0.176858720,10.306925770,0.097878280,-0.076551740,-0.020743910
1640840882.728350,-0.154392910,0.495968340,8.634034160,0.032250590,-0.033678110,-0.032679740
1640840882.729800,-0.340879560,0.032109790,9.537630080,-0.010974700,-0.018067650,-0.027735530
1640840882.733060,-0.380839470,0.224327090,9.832696910,0.007727740,0.091670460,-0.012736020
1640840882.734789,-0.144213940,0.298926410,9.774761200,0.056208670,-0.028277930,-0.048096480
1640840882.739390,-0.356428060,0.084139530,10.495018010,0.060108320,-0.059762600,-0.022180380
1640840882.740200,-0.146962400,0.356002090,9.034045220,0.038290020,-0.030310450,-0.013747810
1640840882.743150,-0.244621010,0.032159720,9.576319690,0.027883050,-0.050754840,-0.033925470
1640840882.744840,-0.301411660,0.272234500,9.846482280,0.011990960,0.048580770,-0.024975840
1640840882.748050,-0.109714560,0.578551410,9.591245650,0.012247270,-0.020518900,-0.031287970
1640840882.749869,-0.279306830,0.162928580,10.520024300,0.032617150,-0.046747930,-0.017383690
1640840882.753450,-0.078624700,0.524607120,9.390013690,0.057466320,-0.012098250,-0.025860960
1640840882.754930,-0.180396260,0.626212000,9.627976420,0.013335050,-0.064036250,-0.038315360
1640840882.758170,-0.291638170,0.485934880,9.955932620,-0.046090790,0.025255980,-0.001506510
1640840882.759899,-0.168570090,0.384970900,9.450035100,-0.029160090,-0.027489660,-0.014390050
1640840882.763110,-0.305679380,-0.076206490,10.183218000,0.062815850,-0.073891860,-0.028178090
1640840882.764829,0.000643710,0.248072430,9.121034620,0.061333180,0.010624530,-0.022725760
1640840882.768129,-0.004405400,0.236486410,9.475453380,-0.022925430,-0.005446370,-0.027678910
1640840882.770700,-0.147947830,-0.133622570,10.402827260,-0.062511860,0.027474760,-0.006307660
1640840882.773120,-0.017027280,-0.195964920,9.587293620,0.044439730,-0.031445920,-0.022403900
1640840882.774850,-0.239660170,-0.282972250,9.823828700,0.133976360,-0.090830010,-0.028787560
1640840882.778210,-0.132489440,0.254856110,9.065793040,0.060954680,0.031578540,-0.018413360
1640840882.780490,-0.160520840,0.303827290,9.374408720,-0.050537280,0.024978820,-0.052572780
1640840882.783100,-0.330019500,0.174403060,10.382129670,-0.018827620,0.008836390,-0.021924080
1640840882.784819,-0.081280120,0.407858250,9.452453610,0.112159550,-0.015513600,-0.041328370
1640840882.788179,-0.371835830,0.365799430,9.918190000,0.127181410,-0.068567700,-0.045484300
1640840882.789810,-0.305789890,0.670765040,9.680207250,0.024598840,0.013901290,-0.009188060
1640840882.793170,-0.237970050,0.343318370,9.518558500,-0.045874710,0.005014240,-0.025911630
1640840882.795920,-0.212993980,0.023803910,10.230519290,0.008502600,-0.004808600,-0.009517370
1640840882.798040,0.048191160,0.322422860,9.561930660,0.117379430,0.037248440,-0.040677190
1640840882.799810,-0.090922440,0.289508970,9.909866330,0.071118770,-0.058282920,-0.053748500
1640840882.803170,-0.035077650,0.575623630,9.681677820,-0.033077600,-0.002400580,-0.003312530
1640840882.804880,-0.023354830,0.287875740,9.383568760,-0.054650020,0.006499890,-0.038899490
1640840882.808290,-0.227628980,0.154538960,10.324419020,0.030487770,-0.000004470,-0.028131900
1640840882.811499,-0.217497930,0.761310280,9.776311870,0.079201160,0.019939250,-0.023010370
1640840882.813030,-0.285882890,0.428725630,9.775747300,-0.010730330,-0.060965130,-0.023110210
1640840882.814780,-0.103728910,0.463467090,9.452824590,-0.054125490,0.019399820,0.010751190
1640840882.818590,-0.028657680,0.253959180,9.164429660,-0.008149450,0.057598960,-0.033399460
1640840882.819870,-0.238324170,-0.010138460,10.318419460,0.046285990,0.006982690,-0.012721120
1640840882.823320,-0.107862470,0.303262140,9.640681270,0.036704550,-0.013111530,-0.010539590
1640840882.826920,-0.073201070,-0.221659110,9.520449640,-0.017534200,-0.032870470,-0.039193040
1640840882.828159,-0.102249020,-0.001170420,9.762588500,-0.009009240,0.060454020,-0.011113290
1640840882.829810,-0.143612470,0.158851730,9.506464000,0.015470390,0.050681840,-0.046440970
1640840882.833170,-0.275107710,0.093355480,10.201678280,0.020714110,-0.029446190,-0.036188960
1640840882.834900,-0.204042210,0.540343880,9.493835450,0.030840940,-0.002372260,-0.013445320
1640840882.838090,-0.287975550,0.249258060,9.404071810,0.002491470,-0.014843050,-0.027029220
1640840882.839870,-0.438544150,0.314696310,10.094125750,0.016020240,0.036531690,-0.013861060
1640840882.843220,-0.456082170,0.499309030,9.726343150,0.017464160,0.014004110,-0.037112830
1640840882.845150,-0.454488750,0.264010100,10.190367700,-0.003898140,-0.055402520,-0.030331320
1640840882.848100,-0.161009610,0.451361570,9.526904110,0.007499760,0.033769020,-0.015802680
1640840882.849929,-0.096142780,0.241474300,9.485589030,0.001564620,0.001797080,-0.038814540
1640840882.853060,-0.077206350,0.447617740,10.083270070,0.002440810,0.018918510,-0.016325710
1640840882.854790,-0.081565510,0.503892840,9.652329440,-0.040532650,0.011609490,-0.020903350
1640840882.858170,-0.161859150,0.059327640,9.982086180,-0.037550930,-0.075387950,-0.003774460
1640840882.859880,0.003394170,0.268680190,9.454558370,0.038340690,0.020065910,-0.008720160
1640840882.863070,-0.109208990,0.308407070,9.503975870,-0.017966330,0.017224250,-0.027571620
1640840882.864790,-0.122479890,0.413977620,10.051321030,-0.068248820,0.039823350,0.012472270
1640840882.868189,-0.118746750,0.157786070,9.767282490,-0.047817830,0.025646390,-0.020045040
1640840882.869900,-0.342002660,-0.138510900,9.964124680,0.034825500,-0.067272770,-0.005660950
1640840882.873440,-0.273743390,0.279112100,9.208749770,0.080731510,-0.020213430,-0.005060430
1640840882.874830,-0.287835960,0.150164040,9.307512280,-0.055354840,0.024467710,-0.021217760
1640840882.878140,-0.227996290,0.240125750,9.999617580,-0.090718280,0.051100560,-0.001104180
1640840882.879850,-0.059523410,0.058621660,9.927216530,-0.010386110,0.027067960,-0.027033690
1640840882.883090,-0.175450280,0.045594130,10.058803560,0.082300610,-0.038523980,-0.010812280
1640840882.884790,-0.119598190,0.582097650,9.432211880,0.066134340,-0.030356650,0.002686680
1640840882.888039,-0.232900050,0.296684320,9.568652150,-0.088395190,-0.005222860,-0.008839370
1640840882.890220,-0.298727390,0.311486120,9.898269650,-0.083062050,0.030542910,0.020343060
1640840882.893990,-0.231911900,0.193893240,9.838993070,0.027151410,-0.003498790,-0.022180380
1640840882.894840,-0.331739570,0.376787510,10.148269650,0.060510640,-0.018997490,-0.022326410
1640840882.898670,-0.229388560,0.915656630,9.529970170,-0.025181470,-0.019666550,0.003579260
1640840882.899799,-0.244974260,0.407351080,9.827183720,-0.140669960,-0.008687380,-0.009746850
1640840882.903080,-0.293572160,0.267128710,10.006917950,-0.055207320,0.024442370,0.012047590
1640840882.904770,-0.106515970,0.338738380,9.711915020,0.050736960,-0.028020150,-0.018014010
1640840882.908190,-0.230398490,0.456792380,10.028141020,-0.005523860,-0.019016860,0.002934040
1640840882.909880,0.059589410,0.580892680,9.294871330,-0.107088700,0.016757850,0.035937130
1640840882.913060,0.130285500,0.034856010,9.754784580,-0.139872740,0.005610290,0.015525520
1640840882.915190,0.009978670,0.081837740,9.957697870,-0.009056930,0.064279150,0.017724930
1640840882.918089,-0.020323260,0.167925370,9.663663860,0.034099820,-0.023046140,-0.001253190
1640840882.919860,-0.299947230,0.074781270,10.071997640,-0.049564250,-0.041852880,0.012686850
1640840882.923319,-0.111425900,0.169879450,9.058509830,-0.098337240,0.027684870,0.014270840
1640840882.924860,-0.138194440,-0.139716770,9.671611790,-0.087746980,0.030522050,-0.010932980
1640840882.928079,-0.188273060,0.195923280,9.999276160,0.006641450,0.093616540,0.007946790
1640840882.930250,-0.083960130,0.237089350,9.705979350,0.011143090,-0.006110970,-0.010557470
1640840882.933060,-0.388924720,0.011776440,10.215893750,-0.031797590,-0.038780270,0.018405920
1640840882.934800,-0.253816460,0.165597220,8.987900730,-0.018154080,0.016890460,0.019180770
1640840882.938089,-0.252336830,-0.095512410,9.553631780,-0.040222700,-0.000213090,-0.001399220
1640840882.940130,-0.265789060,0.244883700,9.984374050,-0.008749960,0.117297480,0.011791290
1640840882.943169,-0.094837160,0.167506620,9.940217020,0.005446370,0.019833440,-0.019168860
1640840882.944810,-0.290028510,0.008579550,10.528007510,0.021103020,-0.044891240,0.018249450
1640840882.948170,-0.172763780,0.420559200,8.967363360,0.025117390,-0.007298590,0.009049470
1640840882.949839,-0.319976150,0.204103370,9.694312100,-0.056129690,-0.021025540,-0.006775560
1640840882.953040,-0.459463090,0.521957400,9.988786700,-0.047710540,0.079657140,0.030195710
1640840882.954860,-0.194709140,0.358856290,9.694210050,-0.000986460,-0.017717480,0.001244250
1640840882.958140,-0.270233150,0.312661950,10.537128450,0.038374960,-0.007164480,0.020903350
1640840882.960919,-0.038782700,0.804026720,9.262331960,0.000530480,0.026129180,0.014385580
1640840882.963260,-0.180947410,0.499108610,10.103459360,-0.107295830,-0.049012900,0.016014280
1640840882.964769,-0.216916900,0.489123730,9.906829830,-0.088113550,0.043255090,0.049205130
1640840882.968089,-0.055522760,0.203521180,9.289981840,0.001567600,-0.026060640,0.003302100
1640840882.970110,-0.286065070,0.303311080,10.329294200,0.021691620,-0.006909670,0.018174950
1640840882.973529,-0.044231150,0.715739430,9.125444410,-0.077237190,0.046089290,0.042083860
1640840882.974890,-0.157915310,0.080354530,10.131424900,-0.153544570,-0.027717660,0.041115280
1640840882.978099,-0.273799210,0.018509680,10.218207360,-0.053304430,0.058384240,0.042457870
1640840882.979820,-0.132397860,0.024833690,9.337240220,0.042875110,-0.061598420,0.008769330
1640840882.983080,-0.323107840,0.144423650,9.916022300,-0.001887980,-0.040553520,0.030356650
1640840882.984789,-0.073046570,0.400142610,8.823262210,-0.122955450,0.088036060,0.027412180
1640840882.988070,-0.088150750,-0.060969140,9.911648750,-0.134141740,0.000178810,0.019936270
1640840882.990180,-0.130464670,0.187978820,10.191583630,0.000278650,0.055173040,0.044490400
1640840882.996820,-0.053224910,0.188537020,9.415502550,0.035156310,-0.039970880,0.018875300
1640840882.997360,-0.410195920,0.131625640,10.259588240,-0.017209350,-0.047470640,0.059038410
1640840882.998119,-0.299068600,0.234180440,9.140371320,-0.084678840,0.035995240,0.036652390
1640840882.999840,-0.268749390,-0.186742800,9.624597550,-0.076431040,-0.021532180,0.020378830
1640840883.003120,-0.374705110,0.198058860,10.124206540,0.020730500,0.072199110,0.030168890
1640840883.004840,-0.250424500,0.331278650,9.677630420,0.011037290,-0.023247300,-0.004434590
1640840883.008210,-0.413004700,0.320456590,10.292254450,-0.025801370,-0.070846100,0.040774050
1640840883.009960,-0.299699600,0.513658170,9.230488780,-0.055499370,0.008103250,0.019140540
1640840883.013409,-0.327605780,0.211765290,9.815755840,-0.058490050,-0.038896500,0.008186700
1640840883.014819,-0.341431380,0.624308590,10.160199170,-0.011938810,0.038611890,0.045312940
1640840883.018060,-0.122766200,0.550557970,9.672160150,-0.045819580,-0.014296170,0.022728740
1640840883.019899,-0.165304450,0.290294620,10.296710970,-0.045552850,-0.057044630,0.058668860
1640840883.023520,-0.077571590,0.511656820,9.285396580,-0.050413610,-0.006236140,0.034251810
1640840883.024910,-0.095812250,0.207633240,9.612492560,-0.075367080,-0.051677230,0.023128090
1640840883.029179,-0.251546230,0.346684930,10.046072010,-0.075842450,0.026497240,0.063078110
1640840883.030470,-0.107105380,0.175603820,9.566382410,-0.069184590,-0.031654530,0.022825590
1640840883.033110,-0.220420120,0.109369900,10.152688980,-0.042080890,-0.049769890,0.036866970
1640840883.034839,-0.086832620,0.530457380,9.211561200,-0.065942120,0.035157800,0.048196320
1640840883.038100,-0.194697900,0.175863740,9.791406630,-0.119929020,-0.033570830,0.043568020
1640840883.040130,-0.354211690,0.056657660,10.211689950,-0.062401600,0.001078840,0.073032090
1640840883.043249,-0.129991490,-0.031909420,9.161279680,-0.010788440,-0.054787110,0.035445400
1640840883.044819,-0.217833160,0.055347780,9.798110960,-0.007903580,-0.032500920,0.046935680
1640840883.048080,-0.026545830,0.277744350,9.387787820,-0.097168990,0.082482400,0.035253170
1640840883.049840,-0.099116030,-0.054949410,10.133561130,-0.120861840,-0.033991040,0.017261510
1640840883.053040,-0.204666840,0.007812500,10.156497000,0.001734500,-0.018413370,0.050392750
1640840883.054860,-0.061422770,0.042329070,9.085848810,0.036440800,-0.045776380,0.029562420
1640840883.058300,-0.412707780,0.201303270,9.969569210,-0.013272460,-0.028920180,0.049541890
1640840883.060240,-0.326384160,0.425513420,9.551270480,-0.100798900,0.048308070,0.052197280
1640840883.063700,-0.323581810,0.022148710,9.974261280,-0.089190900,-0.039826330,0.037275260
1640840883.064849,-0.316040070,0.269359350,10.073952670,0.048272320,-0.001454350,0.045476860
1640840883.068110,-0.061493800,0.566348080,9.366374970,0.026819110,-0.010256470,0.003202260
1640840883.070910,-0.269882890,0.656072910,10.174075130,-0.082351270,-0.023935740,0.054501000
1640840883.073210,-0.092425990,0.616558070,9.566261290,-0.125360500,0.008133050,0.058342520
1640840883.075830,0.003157120,0.068313180,9.762363430,-0.058591370,-0.033865870,0.034810600
1640840883.078100,-0.131084130,0.427789840,9.942488670,0.040984150,0.014650820,0.060437620
1640840883.079820,-0.000036320,0.514369190,9.490195270,-0.048780440,-0.011159480,0.039289890
1640840883.083040,-0.092324810,0.102099690,9.896839140,-0.129693750,-0.012110170,0.073513400
1640840883.084820,0.001636880,0.113664720,9.398343090,-0.089339920,0.042426590,0.059574850
1640840883.088070,-0.122223960,-0.074560310,9.868492130,-0.016081330,-0.016932190,0.027614830
1640840883.090360,-0.328375130,0.205288500,9.946884160,0.003381070,-0.004178290,0.062337520
1640840883.093089,-0.100058270,0.231760770,9.178646090,-0.088176140,-0.012366480,0.034807620
1640840883.095970,-0.205141020,-0.040173580,9.887066840,-0.101962690,0.041773920,0.044554470
1640840883.098039,-0.059306470,0.236022960,9.570539470,-0.028941040,0.069515410,0.051175060
1640840883.099850,-0.104913960,0.169645970,9.973766330,-0.005869570,-0.016269090,0.032281880
1640840883.103099,-0.270093380,0.252998140,9.904929160,-0.017425420,-0.013692680,0.065600880
1640840883.104910,-0.122872200,0.162070050,9.117136960,-0.054383280,-0.018504260,0.054293870
1640840883.108530,-0.342995260,-0.087698670,9.814932820,-0.034113230,0.029698020,0.048981620
1640840883.109939,-0.238273710,0.216677580,9.615843770,-0.007267300,0.078859930,0.047962370
1640840883.113080,-0.329250070,0.315987590,10.252782820,-0.036111480,-0.027424100,0.023174290
1640840883.114810,-0.324470400,0.388293060,9.994849210,-0.043176110,-0.004006920,0.049701330
1640840883.118140,-0.077049930,0.389375240,9.176203730,-0.036869950,-0.012461840,0.037942830
1640840883.119860,-0.400099010,0.330683350,10.121939660,-0.022590160,0.015293060,0.032000240
1640840883.123129,-0.203411980,0.616168440,9.626635550,-0.034965580,0.040945410,0.048193340
1640840883.125880,-0.174075600,0.448418320,10.022346500,-0.092703110,-0.049281120,0.051943960
1640840883.128130,-0.110745020,0.286491840,9.944849010,-0.060139600,0.029794870,0.069296370
1640840883.130190,0.207419410,0.274282690,9.314252850,-0.040788950,0.030280650,0.030392410
1640840883.133070,-0.153515490,0.251264070,10.292333600,-0.041919950,0.006493930,0.032307210
1640840883.134860,-0.125693490,0.380338130,9.586611750,-0.077019630,0.015290080,0.053858760
1640840883.138270,-0.170372020,-0.083644540,9.685895920,-0.098085410,-0.057943170,0.031396740
1640840883.139930,-0.308472190,0.064363230,9.636636730,-0.031906360,0.033988060,0.048924990
1640840883.143190,0.014541750,0.333299370,9.196598050,-0.048606100,0.052018470,0.023941690
1640840883.144909,-0.128287370,0.170986770,10.378509520,-0.094953190,0.049382450,0.040316590
1640840883.148090,-0.029008990,0.247024460,9.873250010,-0.068056590,0.046515460,0.055073210
1640840883.149920,-0.061950730,-0.081860410,9.778949740,-0.024774670,-0.047622620,0.027340650
1640840883.153139,-0.318572910,0.066481890,9.459495540,0.008206070,0.005841250,0.054287900
1640840883.154930,-0.073033690,0.163340970,8.812769890,-0.055597730,0.046619770,0.018945340
1640840883.158959,-0.332866610,-0.044670480,10.110787390,-0.091421630,0.069904330,0.016060470
1640840883.159880,-0.247216090,0.165822860,9.855721470,-0.026986000,0.051207830,0.038826470
1640840883.163110,-0.210245460,0.056944330,9.985052110,0.017926100,-0.035633150,0.018101930
1640840883.164810,-0.433065920,0.258162440,9.969779010,0.001916290,0.013116000,0.041045240
1640840883.168130,-0.228878690,0.439626660,9.338827130,-0.057968500,0.016726550,0.043566520
1640840883.170080,-0.380674330,0.120220450,10.004065510,-0.068624300,0.004455450,0.022512670
1640840883.173250,-0.146252330,0.360140470,9.374506950,0.000393390,0.060531510,0.032690170
1640840883.175160,-0.057665640,0.556534170,9.836543080,-0.004903970,0.004948680,0.007398430
1640840883.178150,-0.273433740,0.565792200,10.257480620,-0.065551700,0.032837690,0.036630040
1640840883.180420,-0.093103950,0.543927610,9.554879190,-0.092671810,-0.014512240,0.033205750
1640840883.183110,-0.283635500,0.190119090,10.072245600,-0.048980120,-0.020539760,0.013543670
1640840883.184890,-0.189671780,0.348478260,9.461154940,-0.006593760,0.070947420,0.026650730
1640840883.188079,-0.181674910,0.491303680,9.783872600,-0.059394530,-0.002947450,0.023807580
1640840883.189890,-0.200186010,0.242855190,10.007900240,-0.107724970,0.025001170,0.042055550
1640840883.193050,0.096904440,0.174551110,9.174904820,-0.086852910,0.029325480,0.023348630
1640840883.195140,-0.222871410,0.144684550,10.141619680,-0.039565560,0.000585620,0.014351310
1640840883.198140,-0.193119500,0.275858880,9.659108160,-0.038853290,0.048664220,0.035230820
1640840883.199900,-0.056816920,0.194536730,9.534165380,-0.097204750,-0.018951300,0.023366510
1640840883.204380,-0.171496880,-0.003051840,9.877267840,-0.086078050,0.060679020,0.022237000
1640840883.204910,0.064408120,0.123387320,9.199987410,-0.037750600,0.066813830,0.013609230
1640840883.208400,-0.233289760,0.062308020,10.077245710,-0.040467080,-0.002202390,0.006075200
1640840883.209940,-0.298573580,0.033251230,9.640711780,-0.047822300,0.030367080,0.032019620
1640840883.213070,-0.215424720,-0.162131520,9.376103400,-0.045996910,-0.024165210,0.019145010
1640840883.214860,-0.522038220,-0.173369710,9.949371340,-0.018990040,0.032338490,0.021190940
1640840883.218150,-0.199057070,0.097756710,9.288862230,-0.014552470,0.072255740,0.006607180
1640840883.219869,-0.378140870,-0.031262280,10.244984630,-0.032986700,0.008770820,-0.013840200
1640840883.223039,-0.299507650,0.179392610,9.712278370,-0.001853700,0.018762050,0.005076830
1640840883.224929,-0.001848750,0.227504970,9.076363560,0.009191040,-0.017946960,0.005337600
1640840883.228269,-0.283980430,0.212309300,9.957859990,-0.012505050,0.053003430,0.015293060
1640840883.230199,-0.163823110,0.520409230,9.743399620,-0.028117000,0.057609380,0.015906990
1640840883.233080,-0.304681540,0.215132670,10.248221400,-0.039009750,-0.044260920,0.007438660
1640840883.234990,-0.306920230,0.185288820,9.609064100,0.019848340,0.007857380,0.025708980
1640840883.238080,-0.102019150,0.472862450,9.303493500,0.016745930,0.012843310,-0.004316870
1640840883.239920,-0.394031490,0.371952090,10.124836920,-0.067417320,0.040489440,0.009112060
1640840883.243120,-0.208010780,0.415902670,9.610774040,-0.080405180,0.010029970,0.011514130
1640840883.244959,-0.212546530,0.110907230,9.869417190,-0.016924740,-0.041797760,-0.008907910
1640840883.248060,-0.289119450,0.229549200,9.740275380,0.023330750,0.023671980,0.005388260
1640840883.250160,-0.159745690,0.623337450,9.505126000,-0.047272440,-0.001670420,0.017046930
1640840883.253039,-0.144375410,0.201941420,9.870803830,-0.120395440,0.016531350,0.026531520
1640840883.254799,0.107832280,0.099012840,9.308587070,-0.058461730,0.049126160,0.025297710
1640840883.258220,0.052600810,0.149516790,9.714935300,0.022777910,0.003242490,0.002610680
1640840883.259889,-0.202447590,0.101504210,9.845605850,0.004056100,0.027120120,0.021594770
1640840883.263090,-0.122219760,0.245799660,9.381101610,-0.080212940,-0.028717520,0.018638370
1640840883.264860,-0.250963060,-0.107739580,9.831233980,-0.099565090,0.020430980,0.008127090
1640840883.268180,-0.126205270,-0.051336320,9.338365550,-0.011132660,0.078332420,-0.003822150
1640840883.269970,-0.148965360,0.245453010,9.890429500,0.024718050,0.027723610,-0.021709500
1640840883.273100,-0.321959850,0.234450820,10.005537990,-0.032810860,0.026428700,0.000128150
1640840883.274890,-0.093885860,0.201116000,9.217612270,-0.055380180,-0.025065250,0.019615890
1640840883.278509,-0.365400050,-0.078996550,9.658802990,-0.019600980,0.007288160,0.012962520
1640840883.279860,-0.156964660,0.029530360,9.362444880,0.023587050,0.078035890,0.011424720
1640840883.283110,-0.186714990,0.260320630,10.066432000,-0.004212560,0.031656020,-0.008429590
1640840883.284860,-0.358086880,0.204554240,10.361396790,-0.052806740,0.017161670,0.006674230
1640840883.288050,-0.033987570,0.289441910,9.329218860,-0.029830640,-0.032103060,0.001765790
1640840883.289899,-0.295380740,0.358759610,9.730915070,-0.010915100,-0.007219610,-0.020796060
1640840883.293130,-0.195031910,0.608768700,9.413108830,-0.026871270,0.063183910,-0.005730990
1640840883.295590,-0.224478680,0.567552800,9.915423390,-0.055602200,0.013650950,-0.002108510
1640840883.298450,-0.403335600,0.346022750,10.313165660,-0.056128200,0.001622740,0.010502340
1640840883.299850,-0.052789430,0.368880810,9.349054340,-0.025117400,-0.003935400,0.019180780
1640840883.303210,-0.137659560,0.296457590,9.728711130,-0.041112300,0.006034970,0.001470740
1640840883.304890,-0.014736740,0.277451130,9.569125180,-0.078377140,0.083063540,0.025402010
1640840883.308420,0.088253040,0.004098730,9.803682330,-0.061605870,0.022275740,0.000715260
1640840883.309939,-0.190080030,-0.152888940,10.105758670,-0.017169120,-0.000254810,0.003351270
1640840883.313050,-0.010399150,0.145916480,9.150118830,-0.003474950,-0.005860630,0.013409550
1640840883.314849,-0.205489160,0.013551610,9.590029720,-0.082804260,0.016243760,-0.004065040
1640840883.318120,-0.241556230,0.122521430,9.598867420,-0.092975780,0.087167330,0.010091070
1640840883.319850,-0.110994650,0.157079440,9.658419610,-0.017717480,0.028951470,0.007136170
1640840883.323060,-0.391182390,0.091142920,10.086316110,0.011713800,0.021015110,0.010305640
1640840883.325130,-0.251309480,0.418047700,9.404420850,-0.010129810,-0.001963970,0.025731330
1640840883.328169,-0.376419100,0.079463540,9.657892230,-0.065633660,-0.007706880,0.004042690
1640840883.330020,-0.211749320,0.045644190,9.351565360,-0.058867050,0.067055230,0.019441550
1640840883.333230,-0.032269720,0.137993780,9.598045350,0.005343560,0.068801640,0.000272690
1640840883.334880,-0.266824310,-0.042269660,10.403551100,0.004632770,0.042162830,-0.016900900
1640840883.338090,-0.157855500,0.360316280,9.608971600,-0.009363890,-0.020709630,0.011754040
1640840883.339900,-0.317080260,0.177519430,9.609118460,-0.054325170,-0.041517620,0.005747380
1640840883.343170,-0.363437920,0.115402360,9.462600710,-0.054419040,0.044138730,0.008462370
1640840883.344879,-0.234251840,0.405771460,9.656815530,0.006999080,0.051438810,0.008270140
1640840883.348580,-0.432236490,0.315896330,10.568488120,-0.008481740,0.032965840,0.006636980
1640840883.349850,-0.123040470,0.435931710,9.662074090,-0.026026370,-0.004768370,0.032305720
1640840883.353060,-0.125550550,0.295792250,9.586353300,-0.036385650,-0.033354760,0.000000000
1640840883.354879,-0.117495860,0.295755540,9.515157700,-0.060249860,0.061772760,-0.000041720
1640840883.358260,0.022929040,0.496963650,9.534697530,-0.049068040,0.044345860,0.010535120
1640840883.359939,-0.184108730,0.045882650,10.343482970,-0.052624940,0.007458030,0.001801550
1640840883.363109,-0.005587850,0.066741540,9.490312580,-0.006699560,0.020849710,0.018122790
1640840883.365160,-0.073292900,0.168514400,9.472738270,-0.019982460,-0.008186700,0.013645000
1640840883.368070,-0.150913130,0.013982860,9.687493320,-0.073480600,0.077098590,0.039798020
1640840883.369959,-0.030833160,-0.041919800,9.530565260,-0.043110550,0.062404580,0.028194490
1640840883.373060,-0.382531760,-0.261126400,10.209499360,0.017321110,-0.011268260,0.013020630
1640840883.375110,-0.258820800,0.004546380,9.280486110,0.043407090,0.007694960,0.016529860
1640840883.378330,-0.257879350,0.175236330,9.280954360,-0.024124980,0.010295210,-0.012151900
1640840883.380689,-0.365942780,0.151378390,9.955234530,-0.082223100,0.091905900,-0.003893670
1640840883.383090,-0.083361210,0.270534960,9.738156320,-0.011943280,0.052085520,0.000457470
1640840883.384899,-0.171982990,0.124931420,10.141344070,0.056394940,-0.015738610,0.001850720
1640840883.388080,-0.060773420,0.377044140,9.485828400,0.043708080,0.038933760,0.024166700
1640840883.389920,-0.184250180,0.265030290,9.699501990,-0.039488080,0.013381240,0.030437120
1640840883.395040,-0.452593620,-0.066827040,10.080544470,-0.061963510,0.023545330,0.038324300
1640840883.397840,-0.161359970,0.074497080,9.266321180,0.027985870,0.021371250,0.011354690
1640840883.398360,-0.366050330,0.136657490,10.009601590,0.049422690,0.017835200,-0.020670890
1640840883.399890,-0.306739600,0.621286750,9.784738540,-0.020979340,0.052590680,0.013318660
1640840883.403120,-0.189174680,0.526416180,9.746337890,-0.070689630,-0.004860760,-0.000523030
1640840883.404850,-0.371632460,0.229558860,10.146654130,-0.049600010,0.011894110,0.010725860
1640840883.408470,-0.086496440,0.560942410,9.346899030,0.036452710,0.026179850,0.016753380
1640840883.409910,-0.257964020,0.327159230,10.061344150,-0.002712010,-0.001829860,0.015285610
1640840883.413600,-0.043741030,0.348727460,9.552708630,-0.070419890,0.042645630,0.050066410
1640840883.415109,0.207984120,0.002515900,9.416707990,-0.053730610,0.027111170,0.019280610
1640840883.418049,-0.013349300,-0.364256080,10.163032530,0.001384320,0.063009570,0.013425950
1640840883.419880,0.071931540,0.113716870,9.527791980,0.037112840,0.034312900,0.025942920
1640840883.423050,-0.302801010,-0.190474390,10.093567850,-0.016503040,-0.039218370,0.020183620
1640840883.425310,-0.303162040,-0.169989290,9.414098740,-0.047227740,0.023275610,0.031578540
1640840883.428239,-0.257826510,0.071065290,9.116011620,0.009381770,0.024606290,-0.000859800
1640840883.430790,-0.453703190,-0.060196920,9.988458630,0.017958880,0.075387950,-0.003191830
1640840883.433030,-0.231342600,0.369569450,9.645531650,0.039385250,0.065910820,0.011655690
1640840883.434909,-0.353822800,0.203209490,10.283241270,0.019013880,-0.028222800,0.019444520
1640840883.438069,-0.239865110,0.072307290,9.643358230,0.015021860,0.005441900,0.043651460
1640840883.439859,-0.090602830,0.202500000,9.158953670,0.047124920,0.013923650,0.021900240
1640840883.443270,-0.256140530,-0.034205060,10.121685980,0.029365720,0.059396030,0.006310640
1640840883.444900,-0.051355540,0.207798150,9.716914180,0.036662810,0.052592160,0.015105310
1640840883.448180,-0.162847790,0.091505730,9.948673250,0.034317380,-0.038756420,-0.001250210
1640840883.449900,-0.170356820,0.171139600,9.799623490,0.024145840,0.018575790,0.016993290
1640840883.453080,-0.074289350,0.549969910,9.341263770,0.017420950,0.033333900,0.012654070
1640840883.454860,-0.418337610,0.381265340,10.423527720,-0.011302530,0.017443300,0.017830730
1640840883.458249,-0.236524310,0.423280570,9.728034020,0.029474500,0.035129490,0.034601990
1640840883.460520,-0.310409370,0.381051720,9.749178890,0.056345770,-0.036476550,0.011244420
1640840883.464170,-0.346509490,0.565682050,9.814047810,-0.011222070,0.025419890,0.033658740
1640840883.464850,0.034209300,0.546631280,9.151117320,-0.061473250,0.040704000,0.037457050
1640840883.468119,-0.140263720,0.108796270,10.279293060,-0.043110550,0.028067830,0.014509260
1640840883.469990,0.047478050,0.211596280,9.766761780,0.048689540,0.051176560,0.024162230
1640840883.473140,-0.027405320,0.123087860,9.741713520,0.042980910,-0.043736390,0.008648630
1640840883.474949,-0.227987770,0.083012370,9.831726070,-0.056110320,0.011074540,0.047591320
1640840883.480589,0.017987140,0.040777490,8.999016760,-0.068451460,0.043435400,0.039380790
1640840883.481200,-0.189000870,-0.269474120,9.921222690,-0.008487700,0.039064890,0.013510880
1640840883.483049,-0.112907220,0.151021840,9.661185260,0.064601000,0.087526440,0.031562150
1640840883.484870,-0.137223350,0.063534350,9.906620980,0.043687220,-0.008036190,0.013323130
1640840883.488139,-0.381964620,0.004127810,10.083262440,-0.035780670,0.008535390,0.036565960
1640840883.490290,-0.149292630,0.138177960,9.047398570,-0.010724360,0.014784930,0.033772000
1640840883.493340,-0.299792260,-0.178232280,9.835433960,0.022840510,0.037859390,-0.005066400
1640840883.494890,-0.271613000,0.336506490,9.776750560,0.051829220,0.097653280,0.016620750
1640840883.498070,-0.205319940,0.335232080,9.939763070,0.025470550,-0.011596080,0.004903970
1640840883.499889,-0.322289500,0.079364160,10.081847190,-0.012615330,-0.012935700,0.032837690
1640840883.503080,-0.089289320,0.360093380,9.188689230,0.026848910,0.017119950,0.031273070
1640840883.504940,-0.288064480,0.047746550,10.158318520,0.025044380,0.028985740,0.015206630
1640840883.508080,-0.301756440,0.284955410,10.140906330,0.029797850,0.061564150,0.046309830
1640840883.510239,-0.167641130,0.214648830,9.780219080,0.028057400,-0.043375800,0.028400130
1640840883.513890,-0.158333720,0.092533310,9.842615130,-0.005231800,0.007906550,0.016738480
1640840883.514870,0.064987200,0.608131890,9.169277190,-0.010600690,0.065734990,0.022932890
1640840883.518540,-0.245200170,0.261623650,10.361079220,-0.021813810,0.017899280,0.009344520
1640840883.519950,-0.269056350,0.202994050,10.095909120,0.011479850,0.014294680,0.027862190
1640840883.523110,-0.160741870,0.411950410,9.332865720,0.052218150,-0.058095160,0.020729010
1640840883.524860,-0.282071110,0.198048820,9.692731860,-0.027523930,0.031775240,0.042103230
1640840883.528169,-0.035671630,0.291771560,9.297164920,-0.058421500,0.105887650,0.066871940
1640840883.530079,-0.166130160,-0.305223850,10.276833530,-0.003531580,0.013236700,0.030946730
1640840883.533069,-0.145039530,-0.318447050,10.039541240,0.080436470,0.005640090,0.028698150
1640840883.534880,-0.031183860,0.023884320,9.103820800,0.076420610,-0.029589240,0.024010240
1640840883.538300,-0.349751710,-0.160091850,9.934739110,-0.058868540,0.023058060,0.022828580
1640840883.539940,-0.156505690,0.055381190,9.450432780,-0.057648110,0.058688220,0.014185910
1640840883.543280,-0.197162810,-0.033398610,9.744762420,0.045764450,-0.013865530,0.007164480
1640840883.544880,-0.192522150,0.051882550,9.832840920,0.118123000,0.041574240,0.028410560
1640840883.548060,-0.192990300,0.396135090,9.596618650,0.079686940,0.016126040,0.033248960
1640840883.549980,-0.550848540,0.121993180,10.325709340,-0.033928450,-0.046812000,0.043234230
1640840883.553059,-0.258058070,0.081048180,9.304409980,-0.007721780,0.001399220,0.044001640
1640840883.554900,-0.197715130,0.017273020,9.553731920,0.071805720,0.015249850,0.002381210
1640840883.558440,-0.348021360,0.222625080,10.334836010,0.088745360,0.068672010,0.004109740
1640840883.560180,-0.047406130,0.566815790,9.726292610,0.038428600,-0.006817280,0.007408860
1640840883.563330,-0.254817810,0.238893340,10.098798750,-0.045239930,-0.062689190,0.021244590
1640840883.564849,-0.128909920,0.325265140,9.353409770,0.004976990,0.009766220,0.035329160
1640840883.568050,-0.212708560,0.248755510,9.695347790,0.065155330,-0.004158910,0.014528630
1640840883.570269,-0.444632080,0.242525220,10.336728100,0.033643850,0.012291970,0.043518840
1640840883.573069,-0.038423430,0.324682800,9.389327050,0.010137260,-0.009085240,0.050231820
1640840883.575009,-0.160642920,-0.138535340,9.967540740,-0.007702410,-0.020131470,0.027123100
1640840883.578179,-0.038520070,0.241868780,9.564885140,0.017753240,0.044266880,0.039403140
1640840883.579980,-0.105872260,0.177402760,9.797985080,0.024150310,-0.020420550,0.022408370
1640840883.583089,-0.342426420,-0.187926890,10.132802960,0.011986490,-0.030167400,0.035880510
1640840883.585000,-0.005590180,0.153951210,8.996637340,0.059805810,-0.021931530,0.021238630
1640840883.588120,-0.105709830,0.039969900,9.635750770,0.015394390,0.020140410,0.013975800
1640840883.589880,-0.100201930,0.219608010,9.869252200,-0.022135680,0.078500810,0.041842460
1640840883.593180,-0.180038570,0.084358000,10.058943750,0.028258570,-0.034782290,0.022481380
1640840883.594930,-0.435592710,-0.343789960,9.950006480,0.089918090,-0.078229610,0.040134790
1640840883.598070,-0.222726960,0.024586530,8.818552970,0.119650390,-0.021699070,0.036101040
1640840883.599890,-0.441119250,-0.051280660,9.720544820,0.021435320,0.036858030,0.011575220
1640840883.603160,-0.291986350,-0.054149270,10.050609590,-0.029280790,0.055582830,0.038427110
1640840883.604970,-0.126502480,0.026143840,10.025074010,0.069250170,-0.021024050,0.000445540
1640840883.608450,-0.225801720,-0.072994090,10.090806010,0.132851270,-0.056043260,0.014162060
1640840883.610080,-0.066518240,0.466435670,9.173511510,0.121331220,-0.027415160,0.038984420
1640840883.613040,-0.263716520,0.460271180,9.733865740,-0.009080770,-0.000219050,0.024950510
1640840883.614869,-0.280945900,0.245855670,10.001227380,-0.032584370,0.015385450,0.054575510
1640840883.618270,-0.070112360,0.239944250,9.689159390,0.102603440,-0.024783610,0.033730270
1640840883.619880,-0.318521860,0.323785310,10.215031620,0.130191460,-0.017867980,-0.004836920
1640840883.623030,-0.143168490,0.773788450,9.545913700,0.018922990,-0.012838840,0.039783120
1640840883.625079,-0.264501420,0.284229900,9.718045230,-0.069731480,-0.029121340,0.027804080
1640840883.628110,-0.279650180,-0.059526210,9.856624600,0.002908710,-0.009228290,0.026710330
1640840883.629910,-0.074351330,0.252765890,9.445034980,0.124999890,-0.005024670,0.028556590
1640840883.633220,-0.330504360,0.216351200,10.059944150,0.052373110,-0.022631890,0.034040210
1640840883.634940,0.005939550,0.221376420,9.527004240,-0.043055420,-0.013674800,0.062832240
1640840883.638059,0.114469440,-0.069401740,9.377808570,-0.025451180,0.002101060,0.032742330
1640840883.639880,-0.002084870,-0.089912260,9.816336630,0.054211920,0.012089310,0.026535990
1640840883.643180,0.037634040,0.231060670,9.656620030,0.085675700,0.009107590,0.029359760
1640840883.646200,-0.314957890,0.025871310,10.020278930,0.010152160,-0.044401000,0.021292270
1640840883.648069,-0.221720470,0.038673870,9.520425800,-0.016681850,-0.043976310,0.053773820
1640840883.650280,-0.184375230,-0.037205640,9.105641370,0.028637050,0.030505660,0.033153590
1640840883.653060,-0.463445900,-0.144703660,9.991064070,0.072303420,0.036469110,0.024515390
1640840883.654879,-0.374240430,0.181574300,10.019536970,0.097152590,-0.010724370,0.037100910
1640840883.658370,-0.394460980,-0.090989490,9.704962730,0.037787850,-0.073146810,0.034257770
1640840883.659940,-0.275782020,-0.097150090,9.394680020,0.036910180,-0.036896770,0.047276930
1640840883.663030,-0.116542120,0.127825660,9.329073910,0.063377600,0.037357210,0.012244290
1640840883.664889,-0.218571010,0.123997840,10.211279870,0.054416060,0.007544460,0.003567340
1640840883.668170,-0.030561670,0.478818600,10.025924680,0.062280900,-0.041289630,0.039759280
1640840883.670009,0.070371110,0.180562240,9.433110240,0.056888170,-0.051140790,0.026133660
1640840883.673040,-0.098741840,0.304508270,9.796894070,0.060404840,-0.020280480,0.043419010
1640840883.674950,-0.233969700,0.632585290,9.725824360,0.033535070,0.004775820,0.044822700
1640840883.678630,-0.471028120,0.104958830,10.082563400,-0.011152030,-0.080233800,0.052177900
1640840883.679910,-0.285246160,0.257685660,9.549180980,0.055903200,-0.039404620,0.063170500
1640840883.683140,-0.172103120,0.211107810,9.314189910,0.077730420,0.020672380,0.018683080
1640840883.684870,-0.219558150,0.350126860,10.143574710,0.006893280,0.006359820,0.056594610
1640840883.688040,-0.029632230,0.485248450,9.752531050,-0.034125150,-0.017116970,0.061461330
1640840883.689900,-0.077951570,-0.273089170,9.735219960,0.005184110,-0.069211420,0.032377240
1640840883.693100,-0.093636410,0.048457890,9.444545750,0.110206010,-0.028841200,0.058954960
1640840883.695220,-0.103752710,0.157999350,9.104481700,0.060014430,-0.009319190,0.039391220
1640840883.698459,-0.131606130,-0.090258110,9.911746980,-0.044700510,0.002996620,0.036877400
1640840883.699970,-0.004389560,0.217152430,9.755831720,-0.021737810,0.034399330,0.047296290
1640840883.703100,-0.140553210,-0.255715790,9.889035220,0.073491040,-0.049242380,0.020067390
1640840883.704919,-0.273829100,0.100794290,9.890510560,0.121583040,-0.030827520,0.053089860
1640840883.708459,-0.353937920,0.325430240,9.132485390,0.047734380,-0.035323200,0.042322280
1640840883.710000,-0.383985820,-0.235957210,9.647287370,-0.021454690,-0.038710240,0.048145660
1640840883.713050,-0.200650710,0.195433360,9.328197480,0.029565400,0.055493420,0.042951110
1640840883.715050,-0.101831320,-0.026682960,9.742993350,0.090429180,0.002262000,0.018823140
1640840883.718050,-0.177496460,0.175352330,10.493078230,0.098039190,-0.005982820,0.037012990
1640840883.719930,-0.165514020,0.561013040,9.472823140,0.036086140,-0.065349030,0.028546150
1640840883.723050,-0.271100790,0.027300180,9.605740550,-0.012934210,-0.102111720,0.037834050
1640840883.725250,-0.177072660,0.419817180,9.274319650,0.032383210,0.049662590,0.035926700
1640840883.729169,-0.321192620,0.472612770,9.801060680,0.056236990,-0.001272560,0.008013850
1640840883.730059,-0.337199780,0.368497310,10.561302190,0.030985470,-0.043632090,0.051727890
1640840883.733130,-0.024461270,0.648041840,9.211583140,0.014744700,-0.031636660,0.039920210
1640840883.734920,-0.129471150,0.164409590,9.828766820,-0.007107850,-0.074775520,0.030201680
1640840883.738109,-0.065373380,0.394884110,9.684045790,-0.010071690,0.056570770,0.053977970
1640840883.739910,-0.112626280,0.207285140,9.590214730,-0.000669060,-0.041504210,0.028726460
1640840883.743120,-0.238157020,-0.172626000,10.350087170,0.012744960,-0.064818570,0.048239530
1640840883.744920,0.125067900,0.344306230,8.759469990,0.014108420,0.006571410,0.035026670
1640840883.748100,-0.061088850,0.030008890,9.678794860,-0.046674910,-0.032867490,0.044047830
1640840883.750010,-0.077734160,0.124894270,9.997272490,-0.047250090,0.075538460,0.059238080
1640840883.753019,-0.033674250,0.073730960,9.521149640,0.024938590,-0.043450300,0.028607250
1640840883.754850,-0.370751680,-0.121447290,10.156854630,0.066927060,-0.084260100,0.053913890
1640840883.758400,-0.121780750,0.388986950,8.748026850,0.008301440,0.025650860,0.053311890
1640840883.759950,-0.260001270,0.041307960,9.646159170,-0.079067050,-0.014418370,0.038693850
1640840883.764060,-0.193363280,0.084723470,10.018545150,-0.037950280,0.065590450,0.045941770
1640840883.764920,0.169599970,0.186411160,9.196933750,0.063572830,0.007915500,0.008824470
1640840883.768060,-0.174965050,-0.001352070,10.326574330,0.062198940,-0.023958090,0.037525590
1640840883.769930,-0.022032130,0.290992170,9.352893830,0.005064900,0.023274130,0.056731710
1640840883.773090,-0.134853200,-0.169798050,9.530636790,-0.037842990,-0.054971880,0.033214690
1640840883.775370,-0.328772600,-0.153187140,9.775630000,-0.007203220,0.036491450,0.050821900
1640840883.778280,-0.071670110,0.201504750,9.175626750,0.061200570,0.036442280,0.011876230
1640840883.781010,-0.476650330,0.136381950,10.510987280,0.022636350,-0.011855360,0.001490120
1640840883.783140,-0.298319280,0.721728920,9.616191860,-0.031434000,0.001700220,0.030355160
1640840883.784880,-0.303013680,0.400931060,9.531574250,-0.037504730,-0.074313580,0.015713270
1640840883.788080,-0.438455490,0.352936180,9.890523910,-0.002375240,0.019867710,0.025679170
1640840883.789899,-0.112853050,0.857258560,9.328339580,0.010372700,0.033800300,0.032399600
1640840883.793180,-0.224326550,0.288151500,10.393193240,-0.052428260,-0.012013320,0.056809190
1640840883.795080,0.106579720,0.277574420,9.581181530,-0.050722070,0.013056400,0.064934790
1640840883.798410,0.238574500,0.275789260,9.388059620,-0.028006730,-0.022320450,0.019574170
1640840883.799950,-0.125393300,0.098993880,10.223418240,-0.071623910,0.037717820,0.029391050
1640840883.803089,-0.076310070,0.414324820,9.620001790,-0.080028180,-0.014738740,0.033453110
1640840883.804940,-0.272384790,0.093492130,9.859852790,-0.068432120,-0.061163310,0.012022260
1640840883.808550,-0.135485860,0.348802000,9.260071750,-0.067190830,0.044165550,0.039419530
1640840883.810910,-0.075202290,0.663211230,9.410025600,-0.091198080,0.059962270,0.042384860
1640840883.813959,-0.348467890,0.166173800,10.327767370,-0.122554620,0.031334160,0.035753850
1640840883.814890,-0.116228090,0.176789430,9.591561320,-0.060002510,-0.030823050,0.055904690
1640840883.818060,-0.144767420,0.005006260,9.312108990,-0.028993190,-0.025597210,0.035363440
1640840883.819900,-0.115729880,-0.176824790,9.460753440,-0.074668240,0.052964680,0.041736660
1640840883.823060,0.114735340,0.159610820,9.519420620,-0.117048630,0.082036860,0.028890370
1640840883.825290,0.022869730,-0.211157350,10.032114980,-0.120538490,0.039671370,0.013266510
1640840883.828230,0.097845440,-0.226260560,9.837867740,-0.022920970,0.010778010,0.039958960
1640840883.830190,-0.131651180,0.062052140,9.381975170,0.015170870,0.005041060,0.016722080
1640840883.833020,-0.415742580,-0.083232650,9.689672470,-0.064101820,-0.014081600,0.036680700
1640840883.834890,-0.363660130,0.268682360,9.407271390,-0.115060790,0.042787200,0.042156870
1640840883.838140,-0.390316010,0.078384170,9.519769670,-0.083814570,0.039678810,0.008210540
1640840883.839980,-0.386974960,0.121665410,10.234277730,-0.003191830,0.045543910,0.017082690
1640840883.843220,-0.351568820,0.757524430,9.772741320,-0.008666520,0.019200150,0.007054210
1640840883.844930,-0.354859230,0.388896970,9.833178520,-0.108873850,-0.059881810,0.027641660
1640840883.848120,-0.134754750,0.346794750,9.332660680,-0.120233000,0.031997270,0.055816770
1640840883.849969,-0.128618760,0.208600150,9.334932330,-0.059542070,0.046569110,0.007872280
1640840883.853020,-0.269891830,0.105183410,10.536561970,-0.037910040,0.017662350,0.038787730
1640840883.854900,0.007192820,0.463937220,9.509590150,-0.084777180,0.006604200,0.036387150
1640840883.858300,-0.049295540,-0.063956770,9.638001440,-0.137183070,-0.049491230,0.018672640
1640840883.860260,-0.063707220,0.091435530,9.741791730,-0.098113720,0.081281360,0.046753890
1640840883.864390,-0.146782640,0.339999200,9.491658210,-0.069549680,0.031659010,0.020951030
1640840883.864910,-0.436960670,0.063901910,10.498107910,-0.082974120,-0.054296850,0.039839740
1640840883.868120,-0.137531310,0.302241950,8.976716040,-0.090728710,0.025549530,0.041431190
1640840883.870110,-0.173808460,0.109339380,9.226022720,-0.096294270,-0.017490980,0.023669000
1640840883.873450,-0.157614400,0.265181870,9.915710450,-0.110620260,0.092035530,0.048846010
1640840883.874970,0.062029220,0.306750480,9.404252050,-0.114935640,0.063498320,0.017316640
1640840883.878150,-0.283763290,-0.280362580,10.645757680,-0.079946230,-0.059413920,0.032980740
1640840883.879969,-0.109189890,-0.090108650,9.177754400,-0.020650030,0.011837480,0.038652130
1640840883.883100,-0.115334260,-0.168068200,8.863600730,-0.056107350,-0.027365980,0.008742510
1640840883.884920,-0.334526240,-0.104136780,9.947407720,-0.134012120,0.099393730,0.034902990
1640840883.888049,-0.068222420,0.069385750,9.401268960,-0.110694770,0.066782540,0.017273430
1640840883.890020,-0.283557560,-0.344562710,10.309329030,-0.020012260,-0.061227380,0.012582540
1640840883.893400,-0.146505740,0.204715580,9.478710170,0.032201410,0.038926310,0.025326010
1640840883.894960,-0.214020420,0.487905380,9.379370690,-0.070106990,0.001610820,0.008130070
1640840883.898900,-0.489157940,0.329972770,10.340075490,-0.174260140,0.015728180,0.043904790
1640840883.899989,-0.156935260,0.408134010,9.196129800,-0.099058450,0.036960840,0.024440880
1640840883.903050,-0.327147690,0.107411440,9.949403760,0.020775200,-0.036123390,-0.000333790
1640840883.905069,-0.253253760,0.577817620,9.665796280,-0.001332160,0.045156490,0.029467050
1640840883.908079,-0.081492120,0.628919780,9.355581280,-0.134181980,0.008685890,0.022587190
1640840883.910140,-0.285601140,-0.070242550,10.300351140,-0.195361690,-0.006556510,0.044003130
1640840883.914189,-0.030762800,-0.030830370,9.452468870,-0.047139830,0.023388860,0.032500920
1640840883.914870,-0.091880490,-0.046199810,9.666159630,0.021246080,-0.026619430,-0.004656610
1640840883.918030,-0.116132480,0.119320610,9.634670260,-0.083746020,0.035628680,0.043186550
1640840883.919940,0.120963390,0.096923980,9.185734750,-0.148987760,0.048328930,0.036025050
1640840883.923100,-0.134236380,-0.346000160,10.014228820,-0.110112150,0.018994510,0.023163860
1640840883.924890,-0.163207550,0.052701970,9.620666500,-0.000207130,0.013524290,0.040343410
1640840883.928220,-0.295029310,0.224298780,9.504511830,-0.019729140,-0.029845540,0.014039870
1640840883.930660,-0.347085890,-0.055623820,9.590421680,-0.102138520,0.012335180,0.032466640
1640840883.933120,-0.140468020,0.171771620,9.341864590,-0.073049980,0.075225550,0.029441720
1640840883.935000,-0.225383000,-0.116101430,9.838071820,-0.038135050,0.050066420,0.008197130
1640840883.938109,-0.170372140,-0.006476690,9.959572790,0.003191830,-0.001047550,0.028806920
1640840883.940250,-0.173974770,0.236427650,9.423115730,-0.029477480,-0.007808210,0.020323690
1640840883.943390,-0.264109550,-0.370755200,9.358942990,-0.069916260,-0.017078220,0.027516480
1640840883.944919,-0.245383780,-0.161105220,9.515743260,-0.008830430,0.046205520,0.031888490
1640840883.948120,-0.277683200,-0.034581210,9.664121630,0.014276800,0.049237910,-0.005458300
1640840883.949990,-0.375519870,0.025402190,10.261899950,-0.018456580,-0.024843220,0.026771430
1640840883.953110,-0.312865590,0.376474620,9.567793850,-0.027245290,-0.000672040,0.032736360
1640840883.954949,-0.309566590,-0.001004160,9.470431330,-0.017999110,-0.028534230,0.000192220
1640840883.958109,-0.403863850,0.438500790,9.858534810,0.012995300,0.022505220,0.032421950
1640840883.960199,-0.373544390,0.641947030,9.549236300,-0.014875830,0.026345250,0.015467410
1640840883.963100,-0.327407510,0.190977590,10.016634940,-0.054587430,-0.051356860,0.029492380
1640840883.964920,-0.054334670,0.572433890,9.438943860,-0.022566320,0.021322070,0.035671890
1640840883.968070,-0.029898410,0.333371670,9.526047710,-0.033654280,0.007402900,-0.003880260
1640840883.970120,-0.133608070,0.214796050,10.338216780,-0.058183080,0.002786520,0.037230560
1640840883.973070,-0.087983940,0.265394360,9.470293050,-0.044260920,-0.013327600,0.016179680
1640840883.974939,-0.225715160,-0.241511940,9.763828280,-0.031781200,-0.069476690,0.012309850
1640840883.978140,-0.157511100,0.170487940,9.387975690,-0.025945900,0.041769440,0.034846370
1640840883.980039,-0.068295780,0.160771310,9.200601580,-0.067408380,0.023403770,0.002697110
1640840883.983080,-0.162440330,-0.094423850,10.276026730,-0.072823470,0.014218690,0.017344950
1640840883.984860,0.011337800,0.198479490,9.334344860,0.000102820,0.036542120,0.014819210
1640840883.988129,-0.220384630,-0.049509900,9.887132640,0.021287800,-0.055810810,-0.007136170
1640840883.989950,-0.343860000,0.185972380,9.840871810,-0.038665530,0.018805260,0.031788640
1640840883.993340,-0.151356940,0.115019410,8.865966800,-0.074213740,0.004169340,0.000500680
1640840883.994920,-0.263746110,-0.267948120,9.935503010,-0.033600630,0.021712480,-0.010980670
1640840883.998109,-0.052460940,0.103630330,9.365022660,0.041279200,0.099737950,0.006565450
1640840883.999960,-0.231425290,-0.038973040,9.958359720,0.029289720,-0.031830370,-0.019827490
1640840884.003080,-0.340169940,-0.118302700,10.117654800,-0.030469900,-0.036004190,0.016845760
1640840884.004910,-0.145296280,-0.126824590,8.755026820,-0.008079410,-0.003330410,0.016948580
1640840884.008040,-0.306473820,-0.330799850,9.819684980,0.021025540,0.032413010,-0.012432040
1640840884.010259,-0.252674790,0.083433320,10.068962100,0.047792500,0.102712210,-0.000490250
1640840884.013540,-0.224340960,0.212282720,9.953442570,0.033110380,-0.037814680,-0.011655690
1640840884.014950,-0.321783190,0.173001710,9.942603110,-0.002908710,-0.064682960,-0.000005960
1640840884.018050,-0.187951330,0.436577560,8.961890220,0.019678480,-0.004684930,0.007596610
1640840884.020259,-0.343614580,0.421137630,9.612667080,0.015425680,0.022690000,-0.014032430
1640840884.023039,-0.373391210,0.537489770,10.203328130,-0.000129640,0.042545800,0.015227500
1640840884.024969,-0.163312910,0.433089760,9.796148300,0.009164210,-0.009252130,0.025475030
1640840884.028120,-0.087262690,0.104584520,9.771196370,0.013995170,-0.035803020,0.000412760
1640840884.030820,0.023293390,0.287403230,9.391758920,0.013041500,0.033362210,0.011645260
1640840884.033160,-0.046390650,0.085633620,9.304954530,-0.026422740,0.031304360,0.003145640
1640840884.039019,-0.061145190,-0.486578230,9.720579150,-0.014956300,-0.021384660,-0.011529030
1640840884.039790,0.182181060,-0.576690140,9.078989980,0.103449820,0.034286090,0.006322560
1640840884.040290,0.368792180,-0.690077900,8.787774090,0.120997440,0.057779250,-0.013890860
1640840884.043419,0.452131780,-0.660231350,9.708300590,0.071188810,0.104232140,0.001607840
1640840884.044920,0.446012790,-0.682251690,9.425104140,0.057251750,0.152961890,0.006210800
1640840884.048560,0.129779460,-0.975221400,9.792587280,0.155930240,-0.004088880,-0.028279420
1640840884.051250,-0.255097180,-0.337466360,9.318656920,0.234340180,0.038392840,-0.012923780
1640840884.053050,-0.270144400,0.309990410,7.986539840,0.129629670,0.061078370,-0.039529800
1640840884.055009,-0.459213140,0.324813250,9.439776420,0.049211080,0.120925900,-0.032387670
1640840884.058050,-0.230981810,0.559431200,9.285965920,0.112757090,0.230431590,-0.033393500
1640840884.060230,0.019622960,0.299421910,9.627523420,0.240764070,0.058582430,-0.050255670
1640840884.063109,-0.098053190,0.236219050,10.037973400,0.275248320,0.111503910,-0.021842120
1640840884.064999,0.232455640,0.270738720,8.403029440,0.142888700,0.098542860,-0.018569820
1640840884.068100,-0.033699940,-0.429158510,9.475083350,0.078846520,0.070814790,-0.013941530
1640840884.070030,0.030427350,-0.484827220,8.753432270,0.164221240,0.200052560,-0.040848560
1640840884.073109,0.066223540,-0.141462580,9.068158150,0.249461860,0.085538630,-0.095988820
1640840884.074980,-0.369538400,0.274312320,10.048984530,0.202520210,0.129398700,-0.068892550
1640840884.078390,-0.130869700,0.677055540,8.852041240,0.085079670,0.121572640,-0.070218750
1640840884.079959,-0.427892540,0.563646080,9.817039490,0.083649160,0.073236230,-0.063155590
1640840884.083190,-0.314721850,0.737609330,9.194643020,0.180207190,0.177329780,-0.050814460
1640840884.085070,-0.065982730,0.955310940,8.959851260,0.184702890,0.126181540,-0.057175760
1640840884.088100,-0.058823030,0.659766020,9.561867710,0.107491020,0.164431330,-0.030428170
1640840884.090260,0.304266720,0.237283350,8.881244660,0.078992550,0.175620630,-0.033436720
1640840884.093089,0.209668100,-0.062643520,9.253286360,0.105811670,0.127153100,-0.073359910
1640840884.095000,0.090501440,-0.286629650,9.380148890,0.137947510,0.163713100,-0.072090320
1640840884.098300,0.022807830,-0.244926590,9.090290070,0.117002430,0.160473600,-0.100313130
1640840884.100350,-0.266112860,-0.421585950,9.448131560,0.113151970,0.140100730,-0.106348100
1640840884.103150,-0.372407320,-0.200482430,9.170081140,0.114436460,0.169667600,-0.106336200
1640840884.105019,-0.431148140,0.316587600,8.882884980,0.107640040,0.165770950,-0.113615400
1640840884.108130,-0.580152210,0.335792420,9.691391940,0.101158020,0.139570250,-0.093042860
1640840884.110440,-0.337280240,0.499285910,9.120186810,0.117702780,0.162196170,-0.085118410
1640840884.113070,-0.160535230,0.255765830,9.213729860,0.167648510,0.128599990,-0.097319470
1640840884.115589,-0.082364620,0.122730390,9.633028980,0.157599140,0.205157700,-0.090183310
1640840884.118160,0.288160590,0.173836920,8.918806080,0.110100220,0.193080280,-0.116072600
1640840884.119969,-0.014589710,-0.310301720,10.124136920,0.100001720,0.121499600,-0.116182870
1640840884.123119,0.094947960,-0.263571380,8.944877620,0.152726490,0.165933390,-0.100308660
1640840884.125020,-0.078863640,-0.209425730,8.919231410,0.191065680,0.093716380,-0.140516470
1640840884.128379,-0.594590540,-0.015261340,9.740723610,0.134880860,0.191798810,-0.122775140
1640840884.130050,-0.493490190,0.326154410,9.064529420,0.095495580,0.166165810,-0.118537250
1640840884.133020,-0.891530390,0.200445990,10.239269260,0.113064070,0.080406690,-0.140073900
1640840884.134950,-0.607811390,0.657266140,9.237452510,0.160720940,0.158870240,-0.121048090
1640840884.138190,-0.387827990,1.052213790,9.098176960,0.129425540,0.118245180,-0.146351750
1640840884.140010,-0.339281500,0.890347660,9.832923890,0.043721500,0.175182520,-0.132618860
1640840884.143430,0.186119050,0.615469810,9.295716290,0.059524190,0.162594020,-0.122034570
1640840884.144940,0.169712980,0.197970460,9.725737570,0.137457250,0.115959350,-0.156183540
1640840884.148200,0.215971140,0.161884550,9.588741300,0.125114620,0.124521580,-0.137414050
1640840884.149979,0.281214770,0.195300500,9.051431660,0.026294590,0.131414830,-0.111024090
1640840884.153120,0.118108940,-0.447323830,9.463254930,0.001803040,0.170315820,-0.146067140
1640840884.154980,-0.182111070,-0.494378950,9.768527980,0.105747590,0.183609130,-0.149671750
1640840884.158110,-0.539343420,-0.050935540,9.369325640,0.167925670,0.104482470,-0.170499090
1640840884.160550,-0.925608340,0.119820650,9.681153300,0.079999870,0.027810040,-0.168202830
1640840884.163339,-0.780589640,0.534482120,8.823559760,-0.021772090,0.128908460,-0.156660390
1640840884.165099,-0.607972440,0.349625260,9.185033800,0.022752580,0.152224330,-0.193789650
1640840884.168079,-0.454186650,0.403314890,10.281218530,0.126269470,0.197355450,-0.176890190
1640840884.169989,0.091072170,0.717733620,9.356310840,0.149281340,0.139000980,-0.176934910
1640840884.173090,0.043922170,0.217230440,10.090474130,0.051307680,0.027893480,-0.165450540
1640840884.175010,0.170941590,-0.129345250,8.964456560,0.020980830,0.114619750,-0.132593510
1640840884.180060,0.152612950,-0.446575280,8.725079540,0.084678840,0.073343520,-0.189711150
1640840884.181380,-0.307057050,-0.544962580,10.021430020,0.125035640,0.145980730,-0.196200610
1640840884.183149,-0.243513580,-0.001792790,9.394773480,0.097499800,0.143396870,-0.206802790
1640840884.184919,-0.680191700,-0.035076450,10.343862530,0.042952600,0.029590730,-0.211140530
1640840884.188040,-0.844143870,0.178455960,9.792551990,0.062803930,0.063772500,-0.186619160
1640840884.190009,-0.751073900,0.642055570,9.051154140,0.092010190,0.036495920,-0.207296010
1640840884.193549,-0.890223150,0.796131610,9.797217370,0.070743270,0.085932020,-0.214500730
1640840884.195310,-0.454726960,0.851003830,9.509595870,0.042684380,0.101214650,-0.176101920
1640840884.198140,-0.069400170,0.722321390,9.663975720,0.048653780,0.072844350,-0.202003170
1640840884.200760,0.070123580,0.532208920,10.057754520,0.051128870,0.057373950,-0.207138080
1640840884.203230,0.292227030,0.571417390,9.664944650,0.003081560,0.053443020,-0.182732940
1640840884.204970,0.201452690,0.025443590,9.570276260,-0.008012360,0.045984990,-0.211130130
1640840884.208160,-0.047576460,-0.530893980,10.005054470,0.051632520,0.033380090,-0.197680310
1640840884.210539,-0.135684010,-0.137675690,9.133081440,0.084833810,0.070601700,-0.214201260
1640840884.213120,-0.417608530,-0.114552180,9.541689870,0.001668930,-0.000096860,-0.218929380
1640840884.215440,-0.529836360,0.061223910,9.790999410,-0.067715350,0.083211060,-0.194986180
1640840884.218310,-0.475636270,0.275977020,9.322525980,-0.005385280,0.061219940,-0.234383390
1640840884.220019,-0.810601830,0.177094250,10.540364270,0.093227620,-0.010681150,-0.225485850
1640840884.223080,-0.553426860,0.845357480,9.307684900,0.075489280,0.033894190,-0.221036420
1640840884.225200,-0.298763010,0.721050680,9.257626530,-0.050587960,-0.022594630,-0.234043610
1640840884.228560,-0.274240910,0.274011610,9.909198760,-0.078563400,0.088989730,-0.217880340
1640840884.230070,0.180420890,0.290009980,9.206950190,0.021125380,0.059191890,-0.237146060
1640840884.233179,0.036557680,-0.106697180,10.294721600,0.087422140,-0.022082030,-0.243499880
1640840884.234949,-0.028952790,-0.047438190,9.750988010,0.024934110,0.007353720,-0.229945810
1640840884.238659,-0.116318360,-0.165827960,9.476139070,-0.057573630,-0.029630960,-0.234600930
1640840884.239960,-0.571751060,-0.589958370,10.020943640,-0.033579770,-0.003071130,-0.235314700
1640840884.243490,-0.513096090,-0.155040340,9.544764520,0.054621700,0.003483890,-0.256149470
1640840884.244959,-0.595697820,0.402048890,9.736421590,0.045417250,0.002788010,-0.279660550
1640840884.248100,-0.697985410,0.598471160,10.135136600,-0.041021410,-0.029130280,-0.252081450
1640840884.250020,-0.441370070,0.849414350,9.712039950,-0.059266390,-0.025556980,-0.240387020
1640840884.253080,-0.313010780,0.711019460,9.684535980,-0.009410080,-0.029329960,-0.270316030
1640840884.254989,-0.352362960,0.795003060,10.389564510,0.009208920,-0.038745990,-0.241541850
1640840884.258360,-0.053199820,0.898370500,9.519442560,-0.053697830,-0.009678300,-0.225661700
1640840884.260490,0.122020220,-0.014694750,9.757453920,-0.082148610,-0.066035990,-0.232696530
1640840884.263430,0.021486420,-0.170794560,10.000193600,-0.028307740,0.025771560,-0.236663240
1640840884.264940,0.000701930,-0.151421460,9.354320530,-0.005435940,-0.038577620,-0.274167980
1640840884.268180,-0.571626010,-0.434124800,10.533560750,-0.047937030,-0.137169630,-0.258867380
1640840884.270020,-0.569497470,-0.133804740,9.395785330,-0.075432660,-0.056360670,-0.252717730
1640840884.273429,-0.458148270,-0.283622120,9.432579990,-0.041417770,-0.075052690,-0.290962990
1640840884.275540,-0.686356190,0.096436430,10.404276850,0.004015860,0.009435420,-0.278574260
1640840884.279500,-0.259865080,0.712553680,9.687133790,-0.023829940,-0.019516050,-0.289005040
1640840884.280429,-0.404942930,0.478569570,10.468545910,-0.076344610,-0.131063180,-0.276452300
1640840884.283229,-0.289674430,0.401807580,9.647356990,-0.051260000,-0.116106880,-0.249467760
1640840884.284960,-0.046959540,0.242314620,8.941249850,0.010715430,-0.102506580,-0.274896650
1640840884.288080,-0.254840850,0.010067920,9.992067340,0.000405310,-0.036034000,-0.285619560
1640840884.291220,-0.275934100,-0.016154920,10.363223080,-0.053560740,-0.049494210,-0.280468200
1640840884.293120,-0.324308960,-0.176909250,10.237432480,-0.064353640,-0.140044090,-0.293281700
1640840884.295179,-0.486149370,-0.444667190,10.075536730,-0.009118020,-0.177897530,-0.289107860
1640840884.298149,-0.577718080,-0.023099170,9.744986530,0.023463360,-0.109140570,-0.297687920
1640840884.300060,-0.637400690,0.277963970,9.707016940,-0.025555490,-0.095331650,-0.318685140
1640840884.303040,-0.731865110,0.310294540,10.627122880,-0.058572010,-0.162093360,-0.299315150
1640840884.305159,-0.339437480,0.677413940,9.871576310,-0.044180450,-0.108729310,-0.293062630
1640840884.308460,-0.105223690,0.675987660,9.839919090,-0.013050440,-0.156123950,-0.317171250
1640840884.310010,-0.210984050,0.869103250,10.669732090,-0.046205520,-0.129097700,-0.290511580
1640840884.313580,0.177510050,0.885497810,9.493376730,-0.100168590,-0.103546690,-0.293247400
1640840884.315120,0.029809270,0.076030660,10.286927220,-0.073836740,-0.195792330,-0.297649200
1640840884.318080,-0.142566000,0.136477630,10.082669260,-0.018504260,-0.104783480,-0.291673840
1640840884.320010,-0.062318230,0.134652170,9.377748490,-0.051754720,-0.159603360,-0.317807530
1640840884.323200,-0.418493000,-0.191733540,10.428975110,-0.130659370,-0.165091450,-0.306119110
1640840884.324920,-0.327627390,-0.162395550,9.765850070,-0.106695320,-0.089223680,-0.307637540
1640840884.328009,-0.327895910,-0.291928050,10.064133640,-0.021213290,-0.159654020,-0.345648830
1640840884.330250,-0.682677450,0.028260350,10.578630450,0.003856420,-0.159935620,-0.326617030
1640840884.333109,-0.404132310,0.413437370,9.624208450,-0.085163120,-0.191484390,-0.328341160
1640840884.335090,-0.235349360,0.221327530,9.698284150,-0.143489240,-0.149391610,-0.339214500
1640840884.339079,-0.191490960,0.107069100,10.123274800,-0.060379510,-0.101153570,-0.339132580
1640840884.340350,0.118227860,0.415255490,9.991657260,0.021643940,-0.121767840,-0.338803230
1640840884.343099,0.057411690,0.503250060,10.200126650,-0.040742760,-0.176665200,-0.330039860
1640840884.345080,-0.050952880,0.260220170,10.423154830,-0.136688350,-0.185658080,-0.301438630
1640840884.348330,-0.168699960,0.013272360,9.785248760,-0.110198560,-0.136645150,-0.321714610
1640840884.349990,-0.479326960,-0.238348620,10.130548480,-0.013218820,-0.209385190,-0.356595250
1640840884.353170,-0.678494690,0.151529010,10.379404070,-0.013487040,-0.134205820,-0.357301560
1640840884.355310,-0.510736290,0.481992270,9.648581500,-0.121003400,-0.152638570,-0.364938440
1640840884.358120,-0.634483340,0.161422880,10.729613300,-0.141629550,-0.228002650,-0.345446140
1640840884.360070,-0.313900890,0.411105250,10.017228130,-0.073915730,-0.131106380,-0.350990920
1640840884.363510,-0.104889520,0.563485980,9.910772320,-0.031551720,-0.183044370,-0.369660590
1640840884.364930,-0.351515020,0.667515340,11.000506400,-0.089102990,-0.180535050,-0.332920280
1640840884.368019,0.079458040,0.726550760,9.635709760,-0.176277760,-0.185260190,-0.320240890
1640840884.370290,0.214503380,0.263006840,9.914161680,-0.153636930,-0.187394040,-0.337964300
1640840884.373200,-0.002021200,0.223910180,10.426979060,-0.080622740,-0.120690490,-0.348968800
1640840884.375150,0.083968940,0.405588980,9.905317310,-0.083640230,-0.165167480,-0.349192350
1640840884.378110,-0.298954460,0.089650590,10.443263050,-0.165097390,-0.218521040,-0.347395210
1640840884.380000,-0.409623830,-0.247603250,10.153878210,-0.165136160,-0.197382290,-0.339223440
1640840884.383270,-0.319204180,-0.144546020,9.659857750,-0.103108600,-0.159692760,-0.356575940
1640840884.385059,-0.442193930,0.010897410,10.016623500,-0.092233720,-0.151167810,-0.377003880
1640840884.388090,-0.353242960,0.085773600,10.442046170,-0.127463040,-0.149166600,-0.371439730
1640840884.390010,-0.243590640,0.174339550,10.100002290,-0.136624290,-0.165350740,-0.367963340
1640840884.393070,-0.290364680,-0.061931030,10.162324910,-0.078707940,-0.244608570,-0.364100930
1640840884.395059,-0.199014290,0.170505400,9.963047980,-0.077539670,-0.161884710,-0.354960500
1640840884.398360,-0.044045080,0.406014080,9.568250660,-0.125077380,-0.137229260,-0.375975670
1640840884.399979,-0.179519310,0.089967880,10.891997340,-0.147867200,-0.175558050,-0.371989610
1640840884.403149,-0.049865410,0.160208110,10.312571530,-0.096122930,-0.138552500,-0.359117980
1640840884.405130,-0.127981750,0.159253280,9.996233940,-0.044681140,-0.250990720,-0.389318170
1640840884.408170,-0.445876960,0.238293830,10.632690430,-0.103162240,-0.208915810,-0.381997320
1640840884.410040,-0.274979410,0.497762050,9.538829800,-0.180993970,-0.137813370,-0.373119060
1640840884.413650,-0.449617210,0.219492610,10.415021900,-0.152769700,-0.218616470,-0.378973780
1640840884.415220,-0.540274920,0.229600040,10.747426030,-0.077584390,-0.165714340,-0.372630360
1640840884.418190,-0.142232360,0.728417580,9.859832760,-0.094866770,-0.205551130,-0.387789340
1640840884.419979,-0.220133070,0.690400060,10.529897690,-0.195339350,-0.203758520,-0.368401470
1640840884.423080,-0.091286630,0.397963490,10.427973750,-0.225132750,-0.151468830,-0.361804720
1640840884.424980,0.170589090,0.319102230,10.063785550,-0.143457950,-0.176146640,-0.382143260
1640840884.428099,-0.128261060,0.286470800,10.582598690,-0.091533370,-0.194285810,-0.381144880
1640840884.430199,-0.072225730,0.385534110,10.236672400,-0.173966600,-0.203001530,-0.356951450
1640840884.432999,0.065112520,0.285126810,9.714000700,-0.250619650,-0.167909290,-0.356187020
1640840884.435299,-0.035230440,-0.222987280,10.247183800,-0.207592590,-0.147467880,-0.373311430
1640840884.438520,-0.062078660,-0.090885550,10.671865460,-0.107114030,-0.111126920,-0.360283340
1640840884.439940,-0.209475760,0.159208130,10.323046680,-0.110962990,-0.173856320,-0.370192560
1640840884.443859,-0.396080320,-0.075373860,10.531102180,-0.196866740,-0.261367950,-0.370381830
1640840884.445010,-0.190100830,0.121616760,9.556885720,-0.225009050,-0.132545840,-0.362834330
1640840884.448520,-0.146634270,0.126704140,9.570622440,-0.157730300,-0.119593740,-0.393222270
1640840884.450940,-0.328567680,0.228887590,11.043707850,-0.116972630,-0.120240460,-0.377063450
1640840884.453519,-0.090301690,0.596316040,10.272242550,-0.143995880,-0.136478250,-0.347208950
1640840884.454919,-0.163858850,0.153009250,10.467984200,-0.172866930,-0.243859020,-0.347344670
1640840884.457990,-0.336762850,0.088184570,10.460128780,-0.175622110,-0.146506740,-0.320938260
1640840884.460049,-0.137558240,0.202173580,9.637800220,-0.155708190,-0.124719760,-0.334082540
1640840884.463110,-0.342678870,0.076108220,10.854963300,-0.155027230,-0.157803310,-0.348107520
1640840884.465279,-0.197814520,0.247371600,10.497697830,-0.175678770,-0.121584550,-0.316056700
1640840884.468269,0.021438920,0.202422920,10.091981890,-0.151832400,-0.171400620,-0.322787490
1640840884.470520,-0.267961260,0.257852640,10.832877160,-0.158520040,-0.166045140,-0.328861180
1640840884.473420,-0.209593210,0.644230480,10.317585950,-0.198490930,-0.134527700,-0.306154790
1640840884.474920,-0.201200320,0.592454140,10.377408980,-0.220304730,-0.178679840,-0.314430890
1640840884.478119,-0.342906860,0.370617900,10.688446040,-0.195312540,-0.132834910,-0.304791330
1640840884.481180,-0.051173040,0.671428800,10.043493270,-0.158442600,-0.129804040,-0.294588600
1640840884.483420,-0.116309000,0.734600370,10.473753930,-0.224380200,-0.142326950,-0.299471650
1640840884.486040,-0.032224610,0.335442630,10.468040470,-0.283645090,-0.108888750,-0.263434650
1640840884.488050,0.072591040,0.066685050,10.303462980,-0.214223610,-0.125478210,-0.257892910
1640840884.490000,-0.156262070,-0.240571130,10.606242180,-0.133503990,-0.144556160,-0.274643330
1640840884.493059,-0.122786780,-0.138521780,10.155747410,-0.175002230,-0.148811950,-0.260974470
1640840884.495240,-0.036260930,0.179206480,9.885683060,-0.272513930,-0.102965540,-0.267736550
1640840884.498289,-0.243280590,-0.130171780,10.613854410,-0.298135010,-0.071281180,-0.282745060
1640840884.501430,-0.151343930,0.007646320,10.546975140,-0.169116270,-0.115695610,-0.265730950
1640840884.504449,-0.204286690,0.513515290,10.223590850,-0.100517280,-0.142702480,-0.271059570
1640840884.505110,-0.378237750,0.393247510,10.500300410,-0.206734280,-0.138147180,-0.241886120
1640840884.508319,-0.194671260,0.518309650,10.113520620,-0.290837940,-0.090678060,-0.224055390
1640840884.510020,-0.203064290,0.325491760,10.262125970,-0.246782650,-0.083692370,-0.237660120
1640840884.513360,-0.173422810,0.033419850,10.911294940,-0.156989680,-0.083267680,-0.240580740
1640840884.515200,-0.031710650,0.532865230,10.422498700,-0.147034240,-0.105090440,-0.238798570
1640840884.518210,-0.244511530,0.306357180,10.454847340,-0.253433020,-0.168649880,-0.236724350
1640840884.520680,-0.252122520,-0.050218940,10.501222610,-0.288677300,-0.118938100,-0.205376790
1640840884.523120,-0.228297340,0.134740990,10.074665070,-0.204502050,-0.070449710,-0.219200570
1640840884.524989,-0.459132190,0.200213860,10.880925180,-0.170958030,-0.139470370,-0.224865960
1640840884.528550,-0.288052710,0.506470620,10.783557890,-0.231367350,-0.094702850,-0.180368140
1640840884.530110,-0.112637710,0.519385990,10.104740140,-0.274378030,-0.109532480,-0.180958200
1640840884.533190,-0.178630620,0.268525810,10.793463710,-0.249934230,-0.125123560,-0.190167140
1640840884.538360,-0.151200530,0.651818510,10.627114300,-0.218978520,-0.059223190,-0.171925130
1640840884.539080,-0.144286690,0.675272820,10.278368950,-0.247702000,-0.145211830,-0.166195650
1640840884.540170,-0.053515760,0.267120090,10.596278190,-0.286062090,-0.135865810,-0.143359590
1640840884.543110,0.114003700,0.343770770,10.113019940,-0.266972180,-0.015719230,-0.137561570
1640840884.545300,0.046216270,0.109776560,10.487843510,-0.248107340,-0.072501610,-0.150275260
1640840884.548100,-0.005444410,-0.004411510,10.980284690,-0.253997770,-0.098259760,-0.122974830
1640840884.550000,-0.151248560,-0.017263820,10.323642730,-0.255927440,-0.099526370,-0.128357110
1640840884.553079,-0.238837720,-0.525355340,10.321037290,-0.233077970,-0.127418310,-0.119070700
1640840884.555029,-0.289463970,-0.161201510,10.340530400,-0.207415220,-0.057782240,-0.111205880
1640840884.558090,-0.249598550,0.070226710,10.158230780,-0.235304240,-0.038944180,-0.117842860
1640840884.559980,-0.208026710,-0.168609960,11.033608440,-0.253847270,-0.067539510,-0.106042650
1640840884.563480,-0.204190610,0.114319270,10.710768700,-0.188234450,-0.065746900,-0.078837580
1640840884.565100,-0.264820520,0.031886660,10.271245000,-0.137683760,-0.153611600,-0.090768940
1640840884.568070,-0.268151070,0.282677650,10.464621540,-0.195612010,-0.096398600,-0.061805550
1640840884.571319,-0.222493410,0.583319780,10.069107060,-0.269678240,-0.016734010,-0.056374070
1640840884.573099,-0.241456060,0.120616640,10.890921590,-0.247566390,-0.095003840,-0.068882110
1640840884.574999,-0.198297130,0.130199360,11.063785550,-0.138957810,-0.067694490,-0.051924590
1640840884.578070,-0.115900300,0.449572350,10.137923240,-0.122338520,-0.106523920,-0.062364340
1640840884.580360,-0.343436720,0.281291510,10.897471430,-0.230619280,-0.137105600,-0.048497310
1640840884.583380,-0.366139710,0.376074310,10.627213480,-0.298337670,-0.046546760,-0.022149090
1640840884.584960,-0.347179860,0.128434930,10.271889690,-0.240366160,-0.123164050,-0.031606850
1640840884.588169,-0.451523150,0.101876240,11.088512420,-0.134433820,-0.120636820,-0.025115910
1640840884.590040,-0.286759080,0.766625460,10.322406770,-0.171040010,-0.054201480,-0.008873640
1640840884.593180,-0.122364480,0.576858100,10.427318570,-0.311870900,-0.116033860,0.013048950
1640840884.596099,-0.093404860,0.371471760,11.136758800,-0.312951240,-0.076125560,0.036036970
1640840884.598580,0.023180020,0.345467980,10.459346770,-0.205351380,-0.066660340,0.024157760
1640840884.600000,-0.045737240,0.221263950,10.647646900,-0.167678300,-0.158971560,0.038495660
1640840884.603119,-0.034549560,0.414387380,10.372003560,-0.234343110,-0.092937040,0.075639780
1640840884.605199,0.134967830,0.038890750,9.862192150,-0.323945310,-0.039844210,0.057014830
1640840884.608189,0.028521690,-0.240362670,10.905427930,-0.283868610,-0.048814720,0.061872610
1640840884.610100,-0.131126900,-0.045916300,10.873207090,-0.182229280,-0.036780540,0.065007810
1640840884.613080,-0.352016300,-0.177646190,10.741181370,-0.181996840,-0.159338100,0.046041600
1640840884.615480,-0.358208660,-0.081906390,10.557369230,-0.225795820,-0.121100230,0.081020600
1640840884.618039,-0.209598080,0.055682530,9.708770750,-0.267776880,-0.010116400,0.084187090
1640840884.619969,-0.261154590,-0.009705930,10.685464860,-0.233490770,-0.028511880,0.091856720
1640840884.623090,-0.182128970,0.168706550,11.218707080,-0.161536050,-0.017437340,0.122393680
1640840884.625010,-0.040391010,0.177745540,10.431200980,-0.161683570,-0.118470190,0.121808060
1640840884.628209,-0.126382740,-0.052259840,10.652747150,-0.170642140,-0.149615120,0.142940890
1640840884.630040,-0.046636220,-0.006592470,10.129306790,-0.196962060,-0.006350880,0.141236190
1640840884.633170,-0.014452690,0.007156790,10.397081380,-0.225181920,-0.010493400,0.113502160
1640840884.634960,-0.246688310,-0.015549060,11.557461740,-0.173951730,-0.041522090,0.130535680
1640840884.638130,-0.206605110,0.128446440,10.765207290,-0.135155020,-0.088924190,0.126153280
1640840884.640050,-0.352404530,0.185833890,10.316752430,-0.144900380,-0.151693840,0.126163660
1640840884.643319,-0.481879530,0.442482890,10.539915080,-0.194521230,-0.059999530,0.154256820
1640840884.645069,-0.399760100,0.506122110,10.615088460,-0.248840500,0.003236530,0.167499530
1640840884.648510,-0.325844440,0.201777160,11.240333560,-0.196067970,-0.060825050,0.182135400
1640840884.650009,-0.076172100,0.330482990,10.971762660,-0.104853510,-0.081293290,0.196394320
1640840884.653050,0.153168480,0.471128760,10.364328380,-0.166989880,-0.083181250,0.200542780
1640840884.654960,0.193097840,0.314609620,10.490732190,-0.260560240,-0.035098200,0.232434290
1640840884.658450,0.210666310,0.157168030,10.513885500,-0.268092780,0.003077090,0.230140980
1640840884.660070,0.033709210,-0.147011240,10.993595120,-0.160169620,-0.078737740,0.207404810
1640840884.663159,-0.143751000,0.008952920,10.784115790,-0.100091100,-0.083261740,0.226798700
1640840884.665010,-0.018307990,0.364950570,9.904321670,-0.216248680,-0.042855740,0.236068680
1640840884.668180,-0.270118270,-0.074365910,10.780183790,-0.294117660,0.004626810,0.250206890
1640840884.670709,-0.306529970,-0.170673460,10.955858230,-0.192050650,0.010335450,0.251105460
1640840884.673159,-0.143117890,0.015632700,10.449274060,-0.104382630,-0.075526540,0.251694050
1640840884.675079,-0.342013510,-0.032414600,10.737397190,-0.124156480,-0.077082210,0.270232560
1640840884.678220,-0.124073160,0.101437780,10.191353800,-0.214692970,-0.003066660,0.271788180
1640840884.680230,-0.070666130,-0.066477510,10.469636920,-0.231793520,-0.000727180,0.263124700
1640840884.683179,-0.043916930,-0.104598950,11.010787960,-0.153294180,-0.020989770,0.278547380
1640840884.685130,0.179641070,0.186865390,10.620065690,-0.103524330,-0.010253490,0.279769300
1640840884.688030,0.005540830,0.047561450,10.803149220,-0.142098980,-0.034725670,0.301106270
1640840884.690100,-0.182861270,0.001155500,10.715915680,-0.169980530,-0.041720270,0.323034820
1640840884.693070,-0.125779390,0.060245880,10.228874210,-0.164498430,-0.042110690,0.308127700
1640840884.695089,-0.361523630,-0.000059040,10.694261550,-0.147819530,-0.002489980,0.297659670
1640840884.698809,-0.320966570,0.487318280,10.733278270,-0.153155610,0.015361610,0.311379130
1640840884.700219,-0.352400930,0.476448710,11.055696490,-0.173538920,-0.063599650,0.313863160
1640840884.703100,-0.321272080,0.249212890,10.890242580,-0.166274620,-0.044441230,0.336681310
1640840884.705160,-0.016232040,0.659374590,10.136783600,-0.159154830,-0.003214180,0.342638790
1640840884.708060,-0.179731830,0.497962710,11.020161630,-0.203245880,-0.010532140,0.353892180
1640840884.710070,-0.066820550,0.273586000,10.991156580,-0.215926780,-0.009746850,0.374533270
1640840884.713060,0.388950260,0.220527740,10.098912240,-0.176560890,-0.037716330,0.366541740
1640840884.715309,0.178862660,-0.026777830,10.890112880,-0.161838530,-0.007396940,0.351449910
1640840884.718050,0.233461540,0.194002880,10.597631450,-0.202569410,0.051072250,0.379981100
1640840884.720059,0.135268290,0.076476540,10.629699710,-0.240430270,-0.003501770,0.377924800
1640840884.723140,-0.303439940,-0.266628860,11.284841540,-0.210204720,-0.036537650,0.377017290
1640840884.725000,-0.210232660,0.070638190,10.128802300,-0.148296370,-0.006052850,0.398223190
1640840884.728289,-0.238666280,0.137537720,10.109554290,-0.171603250,0.003340840,0.385974290
1640840884.730059,-0.349102290,0.139969840,10.899764060,-0.234894500,0.082559900,0.396664530
1640840884.733399,-0.033259740,0.262677610,10.752353670,-0.211656110,0.049865250,0.402517620
1640840884.735159,-0.081991120,-0.143799010,11.002451900,-0.143003460,-0.025434790,0.389984190
1640840884.739970,-0.052730560,0.095575790,10.495199200,-0.110836350,-0.000907480,0.400246740
1640840884.740690,0.095622280,0.222890990,10.116849900,-0.177910910,0.021974740,0.402353670
1640840884.743090,-0.165952880,-0.252174350,10.885234830,-0.229033870,0.050652040,0.402064680
1640840884.745100,-0.045152920,-0.042378820,10.468252180,-0.165320960,0.035141410,0.421132210
1640840884.748390,-0.103242530,-0.128935580,10.670500760,-0.095967930,-0.008192660,0.408743290
1640840884.750079,-0.419973490,-0.117962270,11.175511360,-0.129115600,0.033234060,0.411668450
1640840884.753070,-0.277715120,0.393750250,10.438430790,-0.181330760,0.008097290,0.431031050
1640840884.755329,-0.399442610,0.095712110,10.936076160,-0.188371550,-0.009478630,0.416886840
1640840884.758040,-0.359164450,0.219491120,10.902824400,-0.149829720,0.062431410,0.416864540
1640840884.760000,-0.111903580,0.752689600,10.399709700,-0.116309550,0.022687020,0.419372350
1640840884.763140,-0.242843300,0.620138940,11.156132700,-0.175648970,-0.018139190,0.420489970
1640840884.765020,0.070650610,0.554468990,10.438987730,-0.226528990,0.053523490,0.459981050
1640840884.768070,0.155042410,0.406492770,10.376686100,-0.173789290,0.031504050,0.436852960
1640840884.773480,-0.282571410,0.231339170,11.587626460,-0.160874440,0.013558570,0.431738880
1640840884.774140,-0.034490090,0.305304770,10.467906000,-0.196591060,0.008407240,0.468035100
1640840884.774999,0.086829700,0.051876100,10.225180630,-0.224477100,0.006628040,0.436562390
1640840884.778030,-0.168205620,-0.118714570,11.019618990,-0.214675100,0.084932160,0.445883070
1640840884.780910,0.061245500,0.083675060,10.505869870,-0.183275340,0.075888660,0.462135730
1640840884.783100,-0.134321700,-0.034114510,10.972269060,-0.173129170,0.006181000,0.449314800
1640840884.785460,-0.281380680,-0.112408940,10.891766550,-0.183281300,0.003688040,0.476421480
1640840884.788230,-0.046218030,0.088406410,10.008177760,-0.175087150,0.046727070,0.475095300
1640840884.790200,-0.267654930,0.098945160,10.655080800,-0.194656860,0.055515770,0.448124200
1640840884.793020,-0.178479000,0.231645580,10.723567010,-0.207252850,0.085490960,0.454875890
1640840884.795030,-0.096670610,0.291042830,10.702434540,-0.175616160,0.045688450,0.426338640
1640840884.798600,-0.290320960,-0.009416410,10.974395750,-0.143967610,0.004208090,0.442496000
1640840884.800069,-0.243548480,0.049658110,10.321430210,-0.125582530,0.019851330,0.479258690
1640840884.803439,-0.322498020,0.066760840,10.487780570,-0.174300400,0.024619700,0.453867110
1640840884.805199,-0.407860520,-0.262443130,10.930837630,-0.213693100,0.056169930,0.469148190
1640840884.808080,-0.092062820,-0.201772620,10.467944150,-0.143314940,0.061994800,0.481556420
1640840884.810140,-0.217587990,-0.160566340,11.067126270,-0.077711050,0.020888450,0.451841980
1640840884.813120,-0.300307180,0.036079530,11.024805070,-0.126723970,0.019133090,0.461867540
1640840884.815300,-0.150339250,0.478966300,10.293069840,-0.188598070,-0.007708370,0.465546610
1640840884.818199,-0.443750020,0.263905470,10.908868790,-0.208121540,0.009725990,0.452661600
1640840884.820070,-0.366525170,0.360247790,10.759563450,-0.148223390,0.047290330,0.452393380
1640840884.823109,-0.188572350,0.858377750,10.546821590,-0.103558610,0.014472010,0.454376730
1640840884.824999,-0.386165440,0.627497490,11.332533840,-0.192143020,0.010849540,0.468333130
1640840884.828009,-0.155149070,0.455555500,10.690737720,-0.238058020,0.010062750,0.490863680
1640840884.830089,-0.084530610,0.278037490,10.515417100,-0.193695750,-0.011135640,0.484466610
1640840884.833200,-0.398746610,0.020894410,11.244222640,-0.158835960,0.010834640,0.470118280
1640840884.835090,-0.200578110,0.181965310,10.618865010,-0.185410690,-0.007292630,0.492866370
1640840884.838570,-0.080303130,0.067250320,10.407313350,-0.224676770,-0.021085150,0.487251640
1640840884.840160,-0.193537700,-0.164819610,10.969334600,-0.221476000,0.034447010,0.467570220
1640840884.843089,-0.003912790,0.179686170,10.686423300,-0.187042400,0.040639950,0.480274920
1640840884.845019,-0.265080720,0.364068510,10.886159900,-0.193777710,-0.034521530,0.469660820
1640840884.848670,-0.340863700,0.195651780,10.876233100,-0.224606740,-0.065144900,0.484904710
1640840884.850299,-0.048532240,0.240504130,10.038009640,-0.205753770,0.030525030,0.501816030
1640840884.853060,-0.206788390,0.265973960,10.522811890,-0.194650920,0.034394860,0.474941820
1640840884.855100,-0.142709300,0.070116070,11.119171140,-0.205704610,0.028181080,0.483529360
1640840884.858120,0.018724730,-0.007874480,10.694132800,-0.203155030,0.016599900,0.487998190
1640840884.860659,-0.233741180,-0.271656190,10.725025180,-0.157761600,-0.056254870,0.471375940
1640840884.863060,-0.323248830,-0.388293800,10.620425220,-0.153443260,-0.039829320,0.490954580
1640840884.866079,-0.218568120,-0.155105160,10.082078930,-0.180631910,0.034315890,0.475867150
1640840884.868070,-0.341074050,-0.239812670,10.867820740,-0.191907630,0.014156100,0.453983310
1640840884.870110,-0.252075850,-0.135570840,11.220853810,-0.160340990,0.008293990,0.469584820
1640840884.873230,-0.124486450,0.301518800,10.504446030,-0.118429970,-0.016300380,0.462830160
1640840884.875010,-0.260007350,0.401330680,10.819262500,-0.146879270,-0.056043270,0.453515440
1640840884.878219,-0.217983450,0.560312630,10.811289790,-0.211979490,-0.003130730,0.492267370
1640840884.880020,-0.161972300,0.434379700,10.405967710,-0.182533290,-0.004151460,0.477413890
1640840884.883160,-0.319724020,0.118095950,11.206542970,-0.119903690,-0.043991210,0.467306380
1640840884.885049,-0.243896420,0.508292440,10.759548190,-0.149686630,-0.005529820,0.476728440
1640840884.888130,-0.307253540,0.441369650,10.487550740,-0.221425320,-0.059612110,0.468109640
1640840884.890090,-0.282952040,-0.017433520,10.915794370,-0.253748950,-0.040912640,0.470176400
1640840884.893070,-0.220242310,0.012536760,10.575160030,-0.161080110,0.027135020,0.464037120
1640840884.895110,-0.351035740,0.107773190,10.973610880,-0.104549540,-0.059457130,0.444077010
1640840884.898380,-0.392779200,0.233473790,11.205855370,-0.198589300,-0.067950790,0.476856620
1640840884.900009,-0.102635730,0.336773010,10.226933480,-0.284665820,-0.028137870,0.489541950
1640840884.903090,-0.035037970,0.056403860,10.670767780,-0.221188410,-0.022104380,0.469018580
1640840884.905020,-0.069668590,0.135709700,10.973950390,-0.145198430,-0.002752250,0.465586840
1640840884.908120,0.077735830,0.544941070,10.295112610,-0.149674710,-0.038422650,0.457720490
1640840884.910019,-0.158847270,0.115871890,11.000783920,-0.227901380,-0.075061620,0.471392300
1640840884.913080,-0.213309050,-0.115978290,10.733830450,-0.247766120,-0.029128800,0.474782350
1640840884.916240,-0.125988920,0.005074680,10.090587620,-0.172933970,-0.055098540,0.457264540
1640840884.918000,-0.349886860,-0.225940210,10.902829170,-0.155827450,-0.013506410,0.436854420
1640840884.920320,-0.435876910,-0.148876730,10.849033360,-0.186206450,0.004491210,0.448405830
1640840884.923030,-0.429674920,-0.192356260,10.657748220,-0.158996920,-0.106048610,0.457573000
1640840884.925020,-0.603398620,-0.373695640,10.840723990,-0.148139910,-0.101695970,0.460812540
1640840884.928099,-0.376503800,-0.109279480,10.137322430,-0.153389620,-0.039212410,0.456322790
1640840884.930800,-0.255481150,0.122354760,10.715142250,-0.153398560,-0.033707920,0.438957010
1640840884.933149,-0.307086650,0.044277700,11.419741630,-0.155663530,-0.037601600,0.427463710
1640840884.935079,0.030405020,0.294267950,10.632183070,-0.123903180,-0.082147140,0.449434010
1640840884.938390,-0.052906630,0.513413430,10.691778180,-0.122505440,-0.109249380,0.429686990
1640840884.940009,-0.349950460,0.430947040,10.860233310,-0.189559210,-0.078296660,0.436914060
1640840884.943159,-0.271357060,0.408702670,10.400836940,-0.197592410,-0.077834740,0.454007180
1640840884.945109,-0.432728650,0.251388880,10.893504140,-0.144092780,-0.090579700,0.436195820
1640840884.948120,-0.501326020,0.128868540,10.988266940,-0.136856780,-0.071111320,0.433273670
1640840884.950060,-0.300632360,0.348167030,10.707704540,-0.177697870,-0.084471710,0.448384940
1640840884.953369,-0.349364610,0.307282810,10.984053610,-0.227247220,-0.095804040,0.437854290
1640840884.954980,-0.238343730,-0.040836720,10.925306320,-0.213399570,-0.097653280,0.433918920
1640840884.958070,-0.034436270,0.173649060,10.562334060,-0.143314900,-0.079463430,0.428111940
1640840884.960080,-0.201976700,0.299021240,10.891292570,-0.153979660,-0.098270200,0.419950490
1640840884.963270,-0.109734980,0.244900670,10.830791470,-0.236523180,-0.118884460,0.427405630
1640840884.965099,0.116056230,0.302728530,10.260798450,-0.257059930,-0.074201830,0.441367980
1640840884.968150,-0.082058870,0.108478520,10.807854650,-0.190264020,-0.069679340,0.406761560
1640840884.970950,-0.280003580,0.061291640,11.236927990,-0.145171630,-0.092065350,0.425757560
1640840884.973110,-0.307273270,0.158382120,10.535568240,-0.173786280,-0.134530660,0.440019400
1640840884.975020,-0.390903590,-0.254380640,10.536016460,-0.206510750,-0.146609560,0.422559740
1640840884.978160,-0.421396880,-0.428655560,10.601177220,-0.196099330,-0.047588350,0.426609870
1640840884.982050,-0.295528680,-0.168267910,10.287494660,-0.154002030,-0.063849990,0.400985810
1640840884.983049,-0.388967870,-0.170128660,11.083204270,-0.142271820,-0.130440290,0.387570290
1640840884.985050,-0.304686930,-0.088024460,10.875237460,-0.170475290,-0.119583320,0.401298790
1640840884.988160,-0.172452600,0.147626730,10.173554420,-0.153136270,-0.130599740,0.398318470
1640840884.990120,-0.348842650,0.022403750,10.977597240,-0.140236330,-0.129202010,0.397230710
1640840884.993080,-0.201032060,0.247955490,10.807418820,-0.161604600,-0.062842670,0.396239820
1640840884.995170,-0.126550210,0.493200210,10.687875750,-0.160251590,-0.128488290,0.401538670
1640840884.998240,-0.301402480,0.143453510,11.254055980,-0.149013130,-0.166876660,0.399303530
1640840885.000059,-0.261266170,0.132852580,10.427808760,-0.129003870,-0.126716490,0.400632710
1640840885.003559,-0.306265060,0.325209050,10.478828430,-0.128081430,-0.148631650,0.394034390
1640840885.006899,-0.616802220,0.197533920,11.302990910,-0.196483780,-0.137822330,0.385952030
1640840885.008109,-0.441810340,0.121526210,10.614168170,-0.205853610,-0.158315940,0.398172530
1640840885.010110,-0.255539540,0.117646360,10.589623450,-0.137539210,-0.169824080,0.385357440
1640840885.013100,-0.340725840,0.228556320,11.124670030,-0.134843590,-0.118729490,0.379864960
1640840885.015040,-0.103513030,0.418345870,10.776888850,-0.194932520,-0.127631440,0.404901860
1640840885.018080,-0.113314490,0.356874560,10.938608170,-0.222803680,-0.192821070,0.386470650
1640840885.020439,-0.200378120,0.080159890,10.861349110,-0.196139560,-0.180444150,0.377513560
1640840885.023450,-0.067837970,0.206237700,10.323979380,-0.148312750,-0.152514870,0.381045070
1640840885.025060,-0.147799160,0.426976200,10.562222480,-0.183296220,-0.159482660,0.377064970
1640840885.028040,-0.161771270,0.090794280,10.791442870,-0.235793040,-0.140279560,0.364220200
1640840885.030059,-0.025983070,-0.039204940,10.593759540,-0.215350140,-0.131097440,0.376789300
1640840885.033140,-0.169740410,-0.096811170,10.732303620,-0.150878740,-0.140760850,0.360609590
1640840885.035460,-0.486840990,-0.285981240,11.101440430,-0.146578250,-0.191281750,0.369371470
1640840885.039470,-0.380513760,-0.158108930,10.445631980,-0.194652380,-0.193554180,0.376853380
1640840885.040320,-0.400365890,-0.156329860,10.200098040,-0.213779510,-0.149647910,0.348541140
1640840885.044250,-0.447143110,-0.191974510,10.865738870,-0.181661560,-0.143158450,0.334154010
1640840885.045150,-0.260815830,0.126399160,10.765455250,-0.137589890,-0.121152400,0.340828330
1640840885.048090,-0.304256710,0.276648850,10.904253960,-0.131607070,-0.210396950,0.325007740
1640840885.050079,-0.330975590,0.167886020,10.971044540,-0.165212180,-0.229522630,0.355497060
1640840885.053470,-0.175433950,0.194637060,10.116551400,-0.188787300,-0.162003950,0.359006230
1640840885.055339,-0.270648990,0.142692910,10.651147840,-0.149868440,-0.167275970,0.335571200
1640840885.058270,-0.449111970,0.086092800,11.407987590,-0.150053200,-0.171300780,0.348204400
1640840885.060580,-0.201353220,0.156869410,10.504421230,-0.168347360,-0.202943400,0.350837410
1640840885.063069,-0.208626570,0.028487360,10.629645350,-0.155934740,-0.223816980,0.344759230
1640840885.064960,-0.346277710,-0.084530270,10.961915020,-0.165730730,-0.151130560,0.336495070
1640840885.068050,-0.227754000,0.174234240,10.517118450,-0.156630610,-0.178699240,0.337475630
1640840885.070890,-0.355790910,0.034246010,10.926128390,-0.160022080,-0.245280580,0.337629020
1640840885.074100,-0.316748200,-0.155823750,10.596044540,-0.151230390,-0.203582640,0.330115880
1640840885.075899,0.032317900,0.192078200,10.013772960,-0.133934630,-0.185367470,0.325906310
1640840885.078080,-0.065778620,0.149045810,10.890284540,-0.166515980,-0.146761520,0.328059460
1640840885.080040,-0.142613320,-0.079302980,11.155008320,-0.174292940,-0.172883270,0.322943960
1640840885.083050,-0.007199750,-0.153505300,10.543109890,-0.101397930,-0.251598660,0.337073240
1640840885.085100,-0.300339580,-0.198864120,10.434030530,-0.078679630,-0.231117010,0.325985280
1640840885.088029,-0.296841000,-0.156128150,10.265256880,-0.140736980,-0.188477310,0.326625940
1640840885.090400,-0.193593430,-0.169151170,10.415492060,-0.159141440,-0.155840810,0.333626600
1640840885.093279,-0.330983160,-0.296324430,10.837082860,-0.105223070,-0.179179030,0.316812100
1640840885.095090,-0.230445740,-0.302887770,10.861736300,-0.041532520,-0.207854850,0.317732990
1640840885.098029,-0.246804420,-0.013559520,10.573873520,-0.043015180,-0.218686460,0.323326890
1640840885.100090,-0.378872780,0.014369140,10.490790370,-0.105556830,-0.231720490,0.319647730
1640840885.103479,-0.250516680,-0.124899880,10.498181340,-0.122134390,-0.188246370,0.321096210
1640840885.105630,-0.150272240,0.124374950,10.361749650,-0.061403210,-0.157494830,0.305357580
1640840885.109010,-0.286303700,0.169017200,10.970791820,-0.014743210,-0.217241090,0.290234420
1640840885.110180,-0.302879540,0.273041310,11.011653900,-0.070759650,-0.240935360,0.299955870
1640840885.113170,-0.261571850,0.372408540,10.240240100,-0.116328910,-0.251348320,0.318776100
1640840885.115010,-0.377363200,-0.038291960,10.656677250,-0.091740500,-0.233556330,0.317886500
1640840885.118199,-0.343029800,0.008830260,10.945445060,-0.051626570,-0.158350170,0.300301610
1640840885.120260,-0.330252410,0.264269080,10.822010040,-0.045794250,-0.236178950,0.313456360
1640840885.123170,-0.202420470,-0.055174870,10.946115490,-0.089709460,-0.286109750,0.312677060
1640840885.125120,0.052279410,-0.057591680,10.223611830,-0.105632850,-0.187996030,0.301769410
1640840885.128100,0.016137420,0.216124450,10.362700460,-0.065265600,-0.193898390,0.292776550
1640840885.130030,-0.276092050,0.167345060,11.247035980,-0.088059900,-0.233775390,0.292222200
1640840885.133050,-0.208789720,0.168463590,10.512844090,-0.102233890,-0.255379110,0.306619700
1640840885.135020,-0.190362200,0.061289400,10.116221430,-0.053629280,-0.280411540,0.297589570
1640840885.138680,-0.340606540,0.023310610,10.545058250,-0.067345800,-0.191678120,0.289978060
1640840885.141539,-0.174470380,0.131194800,10.433034900,-0.098246350,-0.169949250,0.306902830
1640840885.143040,-0.204544310,-0.065892080,10.919578550,-0.091479710,-0.238712150,0.299702580
1640840885.145929,-0.256004270,-0.444536150,10.795911790,-0.047834220,-0.260829960,0.292399530
1640840885.148069,-0.066172820,-0.416023430,10.084974290,0.011658670,-0.238183140,0.294759870
1640840885.150090,-0.197500230,-0.172691790,10.285780910,-0.033684080,-0.218150050,0.279071960
1640840885.153070,-0.156418260,-0.356155130,10.537549020,-0.107468680,-0.204010310,0.270898670
1640840885.155740,-0.003089170,-0.242942010,10.456332210,-0.048477950,-0.220407580,0.284564520
1640840885.158100,-0.137275530,-0.140891390,10.635820390,0.034300980,-0.217546570,0.277903710
1640840885.160220,-0.222129120,-0.180023040,10.751862530,0.042423610,-0.244948300,0.273239640
1640840885.163190,-0.282954450,0.097199360,10.571550370,-0.005720560,-0.248011980,0.280761810
1640840885.165020,-0.371437760,-0.028369200,10.233922000,-0.041222580,-0.240950320,0.269800510
1640840885.168069,-0.289126600,-0.212715310,10.493934630,-0.002236660,-0.216360390,0.254319610
1640840885.170660,-0.277132630,0.188212600,10.707090380,0.051033510,-0.186894830,0.261300830
1640840885.173120,-0.335955680,0.288465140,10.750919340,0.029052800,-0.257940650,0.255653350
1640840885.175380,-0.227560030,0.060566130,10.805617330,-0.019925830,-0.282433630,0.263945850
1640840885.178130,-0.218652700,0.194560600,10.320385930,-0.009544190,-0.224131350,0.281514230
1640840885.180080,-0.162490840,0.118199400,10.446896550,0.018481910,-0.236739260,0.267547430
1640840885.183050,-0.119059300,0.167971480,10.984020230,-0.000922380,-0.214594620,0.277172030
1640840885.185160,0.016015960,0.292190790,10.386634830,-0.020198530,-0.225535040,0.281222190
1640840885.188459,0.111636950,-0.049359360,10.431279180,-0.001494590,-0.254581900,0.255005090
1640840885.190140,-0.053672280,0.003694290,10.653977390,0.011557340,-0.206530110,0.260064010
1640840885.193339,-0.145736630,0.143838810,10.321315770,-0.005000830,-0.228041430,0.269219280
1640840885.195050,-0.321398440,-0.199053480,10.709028240,-0.021222230,-0.276540250,0.261791050
1640840885.198109,-0.298606510,-0.262411890,10.382225040,0.003409390,-0.229303550,0.266861950
1640840885.200080,-0.086449720,-0.021132250,9.918758390,0.041535500,-0.197473210,0.262816250
1640840885.203359,-0.151801510,-0.120590650,10.863340380,0.007198750,-0.169611010,0.254477650
1640840885.205080,-0.186851160,-0.164876070,11.047543530,0.003755090,-0.215126570,0.263626840
1640840885.208710,-0.036660560,-0.183050170,10.226462360,0.061710190,-0.300797850,0.270086560
1640840885.210180,-0.067931100,-0.250330570,10.011549000,0.061422590,-0.234793140,0.255161520
1640840885.213090,-0.098372270,-0.068388170,10.250731470,0.029766570,-0.156296800,0.246782630
1640840885.215340,-0.129541920,0.040941370,10.668372150,0.016686320,-0.187148170,0.237563250
1640840885.219080,-0.157509430,-0.191309170,10.751576420,0.044091050,-0.249512540,0.234501110
1640840885.220080,-0.204541580,-0.051241360,10.427054410,0.104796900,-0.242179680,0.250354470
1640840885.223100,-0.315214160,0.239307520,10.259510990,0.072465840,-0.214932890,0.249698800
1640840885.225279,-0.458369460,0.122481500,10.668647770,0.005118550,-0.219088840,0.253659550
1640840885.228020,-0.407976420,0.068006070,10.719895360,0.030192740,-0.231359940,0.271256300
1640840885.230049,-0.186869160,0.073892970,10.166435240,0.088140380,-0.224231150,0.243061770
1640840885.233280,-0.148921280,0.159462910,10.504160880,0.094930810,-0.222283570,0.238560160
1640840885.236460,-0.051894070,0.404377010,10.729057310,0.023368000,-0.190627590,0.264221430
1640840885.238050,0.042450340,0.221047510,10.350034710,-0.028140840,-0.224897280,0.254964860
1640840885.240130,0.057753470,-0.091977080,10.735569950,0.047805910,-0.257554650,0.239467670
1640840885.243409,0.014900650,0.236740410,10.447802540,0.086435680,-0.168699030,0.249449950
1640840885.245420,-0.045968130,0.521872220,10.221515660,0.015753510,-0.218430210,0.248494770
1640840885.248040,-0.137031480,0.137954440,10.798490520,-0.051063310,-0.240427300,0.275103780
1640840885.250249,-0.075952270,0.062110040,10.005436900,-0.005757810,-0.176706910,0.259193810
1640840885.253600,-0.094023170,0.035503610,10.096170430,0.070960820,-0.208269060,0.247262430
1640840885.255110,-0.374770850,-0.118811160,11.075002670,0.058536240,-0.178641100,0.277389590
1640840885.258440,-0.222990170,-0.040017190,10.135558130,-0.015078490,-0.220395670,0.267492320
1640840885.260239,-0.035479130,-0.295643210,10.100573540,-0.006544590,-0.246068850,0.249075920
1640840885.263049,-0.098905760,-0.241169200,10.364666940,0.030066070,-0.130511840,0.256609920
1640840885.265080,0.100907470,0.111379410,10.002033230,0.044012070,-0.148257630,0.247295230
1640840885.268100,-0.046901280,-0.088334380,10.928595540,0.042252240,-0.226157920,0.251665740
1640840885.270120,-0.115380260,-0.202449110,10.511327740,0.046096750,-0.209477570,0.271542400
1640840885.273200,0.017930790,-0.060579910,9.569401740,0.075745590,-0.228199380,0.257354970
1640840885.275050,-0.178486700,-0.123272720,10.475597380,0.049693880,-0.160273920,0.236669180
1640840885.278210,-0.159638140,0.027239770,10.629350660,0.028605760,-0.096541650,0.245088320
1640840885.280040,-0.076736550,0.066622060,10.562189100,0.057631740,-0.211080920,0.240205230
1640840885.283380,-0.231773900,-0.160231370,10.733887670,0.096128870,-0.234603880,0.242123020
1640840885.285110,-0.067577870,0.168749450,9.740569110,0.075677030,-0.167365340,0.249269590
1640840885.288040,-0.166955250,0.365661650,10.203439710,0.011794270,-0.156985220,0.259099900
1640840885.290109,-0.426247720,-0.003970880,11.178780560,0.005668400,-0.169120740,0.262662770
1640840885.293460,-0.105297630,0.142956350,10.252733230,0.076033180,-0.199295630,0.268018250
1640840885.295110,0.043133400,0.404158320,10.085453030,0.089988130,-0.189922760,0.243592290
1640840885.298430,-0.033793430,0.373373120,10.656340600,-0.003647800,-0.119297220,0.263008480
1640840885.300069,0.179780100,0.330419720,10.302325250,-0.029663740,-0.140196070,0.275923310
1640840885.303160,0.013461830,0.037782200,10.472449300,0.030031800,-0.212323710,0.248433680
1640840885.306030,-0.077309870,-0.012505870,10.361011510,0.071598590,-0.181104260,0.260913370
1640840885.309600,0.074542320,0.269592520,9.701240540,0.024986270,-0.127437680,0.279582980
1640840885.310819,-0.052773090,-0.085162500,10.399796490,-0.033882260,-0.117917370,0.259102910
1640840885.313400,-0.053041360,-0.173197720,10.652067180,-0.004224480,-0.118081270,0.267490710
1640840885.317590,0.163617830,0.081352820,9.922171590,0.046761340,-0.133384780,0.277751680
1640840885.318030,-0.168171080,-0.177429110,10.560497280,0.050650540,-0.153385090,0.251957800
1640840885.320080,-0.126361410,-0.081138290,10.349861150,0.017815830,-0.133505460,0.277631010
1640840885.323120,0.006921660,-0.030384950,9.584877970,0.009161240,-0.126242650,0.254738390
1640840885.325090,-0.034319220,-0.238972250,10.259759900,0.027537350,-0.098414720,0.242190080
1640840885.328250,0.114596720,-0.055742680,10.480084420,0.047437850,-0.017139320,0.262454180
1640840885.330170,-0.095738660,-0.049492700,10.563345910,0.072763860,-0.145792980,0.246986750
1640840885.333200,-0.161578640,-0.220220120,10.496166230,0.063198810,-0.213094100,0.275228920
1640840885.334990,-0.038545800,-0.076276350,9.527709960,0.042375930,-0.071586670,0.279043640
1640840885.338179,-0.266748070,-0.104395920,10.177380560,0.043448820,-0.056226550,0.247831640
1640840885.340109,-0.336509730,-0.038906530,11.164317130,0.054435440,-0.089792910,0.265885920
1640840885.343500,-0.028103610,0.310034100,10.075684550,0.068074460,-0.117486720,0.273694130
1640840885.345300,-0.084866180,0.217251350,10.219397540,0.056254860,-0.154653160,0.263427170
1640840885.348310,-0.084657570,0.384670850,10.468206410,0.022114810,-0.059695550,0.277362790
1640840885.350090,-0.103658480,0.466323380,10.195042610,0.016929210,-0.065119570,0.289195780
1640840885.353020,-0.236458120,-0.011438850,10.838909150,0.041307510,-0.161528590,0.280623170
1640840885.355039,0.000056960,0.112946420,10.157327650,0.066223740,-0.086049740,0.296857950
1640840885.358120,0.112609860,0.228023810,9.783294680,0.036449730,-0.064642730,0.288489460
1640840885.360479,-0.041528370,-0.031163340,10.891011240,-0.033377110,-0.070577850,0.287717580
1640840885.363639,0.065701880,0.003033160,10.307446480,-0.004914400,-0.055876370,0.288912680
1640840885.365160,-0.028343950,-0.159633040,10.152549740,0.068965550,-0.145238620,0.264270600
1640840885.368219,-0.116697020,-0.081434820,10.200532910,0.060054660,-0.092710560,0.294651120
1640840885.370100,-0.005790680,0.182344500,9.610629080,-0.000602010,-0.015802680,0.297899540
1640840885.373070,-0.042322510,-0.106532960,10.437348370,-0.028420990,-0.046876070,0.286275090
1640840885.375260,0.051704030,-0.118906360,10.552715300,0.022201240,-0.043718530,0.300195870
1640840885.378280,0.228723720,0.000283670,9.893790250,0.096668310,-0.046405200,0.277546050
1640840885.381009,-0.059176490,-0.224919860,10.589178090,0.059591240,-0.062891840,0.279872150
1640840885.383070,-0.115335610,-0.170831530,10.133292200,0.020419060,-0.060510640,0.296603140
1640840885.385110,-0.091199620,-0.263110940,9.611140250,0.037153070,-0.069817910,0.273221670
1640840885.388010,-0.128539550,-0.433505920,10.143778800,0.050093240,-0.008720160,0.271604980
1640840885.390050,-0.101294790,-0.143006920,10.257490160,0.100992610,0.038902470,0.282065570
1640840885.393110,-0.209679450,-0.186694520,10.673662190,0.107193000,-0.069701680,0.271426140
1640840885.395170,-0.215511890,-0.227286170,10.433552740,0.069598870,-0.089977700,0.309678910
1640840885.398249,-0.159590620,0.003738270,9.635869030,0.080908840,-0.043743850,0.300452110
1640840885.400130,-0.297558990,-0.026125320,10.241884230,0.072589540,-0.009775160,0.272895430
1640840885.403060,-0.285372730,0.164553940,10.549302100,0.074847050,-0.009879470,0.287170710
1640840885.405079,-0.089277470,0.263928230,10.187416080,0.110255190,-0.060749050,0.282923850
1640840885.408219,-0.093633400,0.095878260,10.341856960,0.093539040,-0.061771270,0.276553600
1640840885.410140,-0.033871850,0.365142410,10.074447630,0.072750460,-0.017574430,0.301018390
1640840885.413080,-0.090569320,0.285588200,10.307487490,0.037558380,-0.033862890,0.297634330
1640840885.415249,-0.180880780,-0.128708710,10.529939650,0.050583480,-0.056046250,0.300128760
1640840885.417990,-0.029408650,0.004706790,9.933909420,0.127168000,-0.048877300,0.302737980
1640840885.420430,-0.014062300,0.125717730,10.008139610,0.086279210,-0.017251070,0.293123690
1640840885.423100,0.078928250,-0.073751770,10.249978070,-0.002798440,0.010068710,0.315465120
1640840885.425050,0.126626700,-0.180537120,10.284362790,0.043711060,0.012470780,0.313030150
1640840885.428419,0.005232530,-0.346810310,10.404455180,0.123839100,-0.060363120,0.284303780
1640840885.430980,-0.092335070,-0.197484020,10.066156390,0.131985570,-0.052437200,0.318965380
1640840885.433709,-0.107647150,0.005104200,9.702623370,0.060023360,-0.005710120,0.311477420
1640840885.437539,-0.106809080,-0.221702380,10.052190780,0.006069240,0.015340750,0.289258360
1640840885.438200,-0.101011430,-0.118724960,10.279885290,0.089699020,0.019718700,0.295989250
1640840885.440580,-0.017358460,0.025484890,10.019042020,0.156462160,-0.010907650,0.293551390
1640840885.443130,-0.150104750,-0.146087290,10.372116090,0.130487980,-0.053140530,0.299684730
1640840885.445099,-0.134131240,-0.046810110,9.973258020,0.095197570,-0.021055340,0.325517390
1640840885.448779,-0.042074290,-0.231085630,9.564973830,0.065061440,0.005449350,0.298516390
1640840885.450230,-0.185100970,-0.384347830,10.499970440,0.117373470,0.025054810,0.286947220
1640840885.453110,-0.155375560,0.036329660,10.410278320,0.148968400,0.027900940,0.286859300
1640840885.455099,-0.097777080,0.064337320,10.046001430,0.109048200,-0.057756910,0.278931860
1640840885.459380,-0.216431470,0.000359380,10.227677350,0.093203790,-0.041013960,0.312852860
1640840885.461570,-0.073422880,0.194000020,9.596951480,0.096255550,0.025328990,0.304682580
1640840885.463070,-0.200880600,0.138363050,10.262859340,0.105327380,0.009356440,0.297752050
1640840885.465170,-0.316506620,0.141157390,10.833989140,0.115983190,0.002652410,0.325685740
1640840885.468109,-0.093432310,0.171790050,9.786730770,0.103995210,-0.044688580,0.296726820
1640840885.470719,-0.060107860,0.122553310,10.012509350,0.093166530,-0.052399940,0.304856900
1640840885.473110,0.009503570,0.299631540,10.039216040,0.064888600,0.075519090,0.322554950
1640840885.475819,0.093789010,0.208693440,9.987005230,0.045341250,0.015366080,0.304140120
1640840885.478420,-0.060410640,-0.126153510,10.772235870,0.110387820,-0.056195270,0.319810210
1640840885.480120,0.071296010,0.017299130,9.672628400,0.131095930,-0.004282590,0.319369110
1640840885.483049,0.047406420,0.021988180,9.547177310,0.074519220,-0.021129850,0.323589180
1640840885.485060,-0.023759740,-0.211928340,10.283489230,0.034323330,0.058858100,0.340782110
1640840885.488250,0.045226890,-0.255523740,9.874294280,0.053675470,0.058051940,0.314207350
1640840885.490260,-0.190425810,-0.436419670,10.474791530,0.149957840,-0.062018640,0.313338640
1640840885.493070,-0.338890790,-0.220900850,10.035035130,0.156810890,-0.000037250,0.316493210
1640840885.495149,-0.230036910,-0.045938480,9.231384280,0.066658860,-0.011633340,0.297337800
1640840885.500520,-0.323285490,-0.226320000,10.196769710,0.055091090,0.022196770,0.318859520
1640840885.501220,-0.103052820,-0.037678950,9.938268660,0.116825100,0.093366190,0.317008760
1640840885.508740,-0.061977320,-0.036204700,10.284169200,0.178463800,-0.022004550,0.308586720
1640840885.509250,-0.265745700,-0.005848100,10.695279120,0.168460590,-0.050257140,0.341427360
1640840885.509780,-0.048186700,0.040965470,9.332739830,0.098168850,-0.021509820,0.324298470
1640840885.510700,-0.185145210,-0.204841420,9.887947080,0.086456550,-0.026349730,0.318275390
1640840885.514740,-0.199387310,-0.044759470,10.237229350,0.130499900,0.063228610,0.315374110
1640840885.516199,-0.063878180,0.227388460,9.927692410,0.142084060,0.004221500,0.291648510
1640840885.518080,-0.193525670,0.148344050,10.636801720,0.122514380,-0.071696940,0.323741170
1640840885.520100,-0.114127910,0.285967800,9.795504570,0.090762980,0.019782780,0.324723150
1640840885.524279,-0.161520330,0.131778870,9.798081400,0.091063960,-0.036251540,0.317673360
1640840885.525830,-0.389266340,0.049418730,10.571739200,0.112731770,-0.005874040,0.344263020
1640840885.528090,-0.151088220,0.194546270,9.629355430,0.105214130,0.008890030,0.339400860
1640840885.530099,-0.138003050,-0.245159490,10.109508510,0.112095490,-0.062511870,0.339616840
1640840885.533130,-0.092733520,-0.016173150,9.893650050,0.115020570,0.016765300,0.342600080
1640840885.537380,0.123204650,0.167460770,9.459377290,0.070597240,0.006417930,0.325806470
1640840885.538420,-0.144516630,-0.287928070,10.698185920,0.069440920,-0.024570530,0.347544310
