# timestamp,accel_x,accel_y,accel_z,gyro_x,gyro_y,gyro_z
1640782260.876070,-0.169693380,0.553822220,9.617634770,0.049042710,-0.079773370,0.001618270
1640782260.877910,-0.171705310,0.612504010,9.162980080,-0.029450660,0.062465670,0.018294150
1640782260.880950,0.134715480,0.439841150,9.448697090,-0.094333290,0.048680600,0.018545990
1640782260.881929,-0.132231400,0.210935590,11.155347820,0.010761620,0.078861420,0.013987720
1640782260.889490,0.090648610,0.078841760,10.350465770,0.086332870,0.047941510,-0.017133360
1640782260.890930,-0.119802960,0.162951720,10.114398960,0.056400900,-0.085113940,-0.009982290
1640782260.893350,-0.400864600,0.049536550,9.336708070,-0.019359590,-0.019948190,-0.001968440
1640782260.893859,-0.069993320,-0.030733450,8.216183660,-0.088928640,0.034771860,0.008286540
1640782260.896200,-0.333900780,-0.108585630,9.785181050,-0.006836650,0.069232290,0.024424500
1640782260.896979,-0.124781790,-0.115764540,10.123387340,0.084766750,0.090885160,0.000150500
1640782260.901569,0.142745410,0.244906870,10.236305240,0.055630510,-0.020013750,-0.011937320
1640782260.903880,-0.098057610,0.218705880,10.673926350,-0.013220310,-0.009778140,-0.001251700
1640782260.906329,0.100933270,0.048436830,9.531385420,-0.054331140,0.044009090,-0.013025110
1640782260.907009,-0.134155240,0.091725670,9.476634980,0.026759510,-0.010919570,-0.023958090
1640782260.911100,-0.442393030,0.069010920,9.627112390,0.113779310,0.017513340,-0.017897780
1640782260.911949,-0.255490360,0.318937330,8.976877210,0.067684050,0.008997320,-0.009699160
1640782260.916210,-0.563744430,0.565191150,10.023954390,-0.039944050,-0.054490580,0.018072130
1640782260.917019,-0.280529440,0.471521500,10.118751530,-0.106669970,0.043269990,0.033290690
1640782260.925120,0.163868490,0.305908980,9.950405120,-0.035604840,0.079108780,0.005683300
1640782260.925599,-0.142958150,0.227755770,11.314482690,0.089827190,0.006088610,-0.036883360
1640782260.925969,0.052797700,0.279443030,9.772150990,0.084961940,-0.007015470,-0.023719670
1640782260.927500,-0.066624470,0.274284420,8.837946890,-0.012636180,-0.133466690,0.004523990
1640782260.931959,-0.479982230,0.070840920,9.387345310,-0.097224120,-0.015568730,0.034442540
1640782260.932750,-0.001597320,0.027427940,8.495124820,-0.068020820,0.096707050,0.050143900
1640782260.936159,-0.183377070,-0.020283990,10.722413060,0.020143390,0.010988120,0.017176570
1640782260.937490,0.005210590,0.123221360,10.858790400,0.063689050,0.094188760,-0.016067920
1640782260.941020,0.510068060,0.382189510,9.518123630,0.001762810,-0.054360940,-0.017431380
1640782260.941969,-0.219035390,0.113143250,10.656023980,-0.062128910,-0.055706510,-0.000348690
1640782260.945989,-0.009128090,-0.131312070,8.445874210,-0.024148820,0.047393140,0.010019540
1640782260.947090,-0.351781340,-0.180520980,9.257804870,0.068169830,-0.093185910,-0.000645220
1640782260.951210,-0.730255310,-0.068317370,10.145519260,0.071789320,0.072950120,0.002478060
1640782260.952649,-0.051474500,0.260381580,9.040107730,-0.016658010,0.017862020,-0.002385680
1640782260.956100,-0.506174090,0.463657440,11.473062520,-0.096197450,-0.040817260,0.003387030
1640782260.957059,-0.048612670,0.432664220,10.074456210,-0.068654130,0.102919360,0.005690750
1640782260.960970,0.303452820,0.398150180,9.647319790,0.036370750,-0.093998010,-0.026465950
1640782260.961930,-0.224229830,0.327834160,10.409645080,0.100936000,-0.004194680,-0.013406570
1640782260.966339,0.382492960,0.403262110,7.918466570,0.018796320,0.028231740,0.020338600
1640782260.967550,-0.106490510,0.118354290,10.012402530,-0.087793170,-0.041994460,0.049945720
1640782260.971320,-0.299202380,-0.058194600,10.361437800,-0.088644030,0.103941570,0.046469270
1640782260.971930,0.155855090,-0.004930800,9.650985720,-0.017559530,-0.034135570,0.017973780
1640782260.975980,-0.414212970,0.011381530,11.196473120,0.054653000,-0.027611860,-0.018137700
1640782260.977030,0.051045060,0.369815080,9.002356530,-0.000061090,0.074838120,-0.041791810
1640782260.981010,0.110315320,0.337301250,9.304793360,-0.081124910,-0.028429930,-0.007855890
1640782260.982570,-0.393966020,-0.044578500,10.156765940,-0.056634850,0.068117690,0.019629300
1640782260.986150,0.088072400,-0.162142310,8.898822780,0.027824940,-0.004450980,0.022256370
1640782260.987310,-0.291367110,-0.228896920,10.360994340,0.091955070,-0.060282650,0.023360550
1640782260.991410,-0.278489140,-0.119502990,10.019334790,0.011008980,0.085821760,0.021137300
1640782260.992060,0.158612240,0.009691660,9.801692960,-0.079710780,0.027073930,0.004634260
1640782260.995999,-0.316799430,0.032112090,10.984003070,-0.044074660,0.042973460,-0.010795890
1640782260.996980,-0.040354740,0.232006450,9.461289410,0.038465850,0.020141900,-0.025445220
1640782261.001109,-0.130826910,0.535207450,9.394177440,0.090414290,-0.107172140,-0.024087730
1640782261.001950,-0.441750970,0.725641370,9.377850530,0.007474420,-0.003093480,0.010862950
1640782261.005990,0.071814800,0.607746240,8.975121500,-0.107599800,0.072044130,0.034177300
1640782261.007069,-0.183981690,0.334264550,10.949420930,-0.056974590,0.075684500,0.025430320
1640782261.010980,-0.156395880,0.282669660,11.102636340,0.018788870,0.052607060,0.009334090
1640782261.011940,0.062900560,0.278179910,10.046990390,0.040814280,-0.073395650,0.005762280
1640782261.016130,-0.318345280,0.133040730,9.724514010,-0.010333960,-0.083561240,0.012534860
1640782261.020140,0.028549790,0.067797860,8.411423680,-0.118243720,0.049521030,0.019723180
1640782261.021989,0.092987690,-0.232803540,9.106434820,-0.072698300,0.088512900,0.032641000
1640782261.024140,-0.076229930,-0.442401890,10.662211420,0.042095780,0.083865230,0.001138450
1640782261.025950,0.256984000,-0.014470810,10.246298790,0.058941550,0.029167540,-0.017532710
1640782261.027020,-0.063384790,0.107768770,10.446060180,-0.002846120,-0.072963540,0.002555550
1640782261.031040,-0.420567810,0.031607660,10.126409530,-0.088714060,0.009092690,0.003875790
1640782261.032070,-0.295334550,0.169308980,8.959890370,-0.025601690,0.013476610,-0.003689530
1640782261.036229,-0.733137790,0.089729820,9.794393540,0.079622850,0.011256340,0.003477930
1640782261.039549,-0.491641730,0.355765310,9.487154010,0.074246530,0.051477550,0.000330810
1640782261.040949,-0.206612330,0.591808920,9.637446400,-0.008867680,-0.046907370,0.010445710
1640782261.041960,-0.347510580,0.413439570,10.767635350,-0.108015540,0.028730930,0.023883580
1640782261.046460,0.280498030,0.340776380,9.770117760,-0.078639390,0.071547930,-0.000341240
1640782261.047380,0.050967890,0.196836070,10.826704030,0.056578220,-0.037144120,-0.032620140
1640782261.051090,-0.110761360,0.339209590,10.017151830,0.080133980,0.011505190,-0.016437470
1640782261.052120,0.085212520,0.366662920,8.629682540,-0.028032060,-0.081001230,0.020152330
1640782261.056520,-0.579569820,0.097586150,9.997551920,-0.099717090,-0.036653880,0.038562720
1640782261.057580,-0.168471290,0.049636730,9.031608580,-0.091588500,0.064116720,0.051315130
1640782261.060999,-0.033027850,-0.101538230,10.276515010,0.001999740,-0.003044310,0.006455180
1640782261.062180,-0.194750320,0.030114710,11.141154290,0.067852440,0.082877290,-0.032781060
1640782261.066010,0.351847560,0.329161490,9.566039090,-0.007630880,-0.026820600,-0.039000810
1640782261.067119,-0.092709820,0.271805350,10.275075910,-0.071479370,-0.063242010,-0.014664230
1640782261.071090,-0.183980910,0.125619110,8.952367780,-0.064627830,0.031852730,0.013792520
1640782261.072520,-0.141972020,-0.012312800,8.947631840,0.007116800,-0.073568520,0.009115040
1640782261.075970,-0.618074720,-0.011963580,10.227526660,0.072245300,0.039318210,0.011315940
1640782261.077109,-0.112834160,0.160406200,9.478137970,0.011301040,0.051844120,-0.004887580
1640782261.080979,-0.210945380,0.334323050,10.983104710,-0.087548800,-0.032728910,-0.017975270
1640782261.081970,-0.119160320,0.318688300,10.382732390,-0.089716910,0.050529840,-0.005468730
1640782261.086609,0.362105520,0.258247550,9.459742550,-0.019723180,-0.043804940,-0.033022460
1640782261.087910,-0.196576160,0.439017090,10.181030270,0.069700190,-0.015975530,-0.033873320
1640782261.090999,-0.093938320,0.524294670,8.813595770,0.014892220,-0.009141860,-0.000132620
1640782261.091970,-0.179584770,0.401921060,9.631280900,-0.110575560,-0.069187580,0.024715070
1640782261.096069,-0.543274640,0.212722880,10.448302270,-0.111192480,0.059564420,0.040704020
1640782261.097000,-0.064669560,0.097841200,10.118158340,-0.054380300,-0.003537540,0.029869380
1640782261.101090,-0.161190240,0.080450270,10.864941600,0.018766520,-0.021256510,-0.003063680
1640782261.102110,0.075994930,0.134942870,9.573570250,0.004972520,0.020657480,-0.021517270
1640782261.106109,0.262139530,0.275690500,9.165859220,-0.095824900,-0.028698150,-0.005283950
1640782261.106979,-0.172836740,-0.016312970,9.769481660,-0.096915650,0.019055600,0.017432860
1640782261.111040,-0.079518510,-0.238357070,9.349915500,-0.013776120,-0.027546290,0.010205810
1640782261.111940,-0.235488270,-0.133467810,10.061018940,0.051648910,-0.039128960,0.008732080
1640782261.116010,-0.467655240,-0.133124110,10.377221110,0.022575260,0.038017330,0.001135470
1640782261.117050,-0.112738770,0.099587190,10.084880830,-0.068862740,0.014597180,-0.016111130
1640782261.121389,-0.185111730,0.249292610,10.329771040,-0.078395020,0.003522630,-0.012683870
1640782261.122530,-0.102340920,0.247576590,9.612289430,-0.032760200,-0.001528860,-0.010776520
1640782261.126010,0.026255180,0.361384390,9.192124370,0.033260890,-0.037089000,-0.000700350
1640782261.127009,-0.349989300,0.244179700,9.744440080,0.047142800,-0.044512750,0.005944070
1640782261.130990,-0.135209010,0.208080100,9.576029780,-0.018540020,0.006385150,0.026769940
1640782261.131940,0.007312320,0.166602430,10.258968350,-0.056867310,0.046554210,0.015988950
1640782261.137030,-0.145410540,0.169320170,11.205522540,-0.053700810,0.066287800,0.009907780
1640782261.138300,0.072916740,0.421563630,10.287327770,-0.008411710,-0.011605030,0.001837310
1640782261.141009,-0.139474760,0.493900840,9.766648290,-0.005948540,-0.115175550,-0.013487040
1640782261.141990,-0.173033120,0.545625390,8.827981000,-0.055639450,-0.022584200,-0.003318490
1640782261.146060,0.111850260,0.487280040,8.458342550,-0.075338770,0.061638650,0.014802810
1640782261.147110,-0.120442820,0.070418220,10.534034730,-0.048708920,0.091485690,0.008590520
1640782261.151039,0.059899960,0.010103280,10.681062700,0.001178680,0.079575180,0.009040540
1640782261.153450,0.019225430,0.081108010,10.712130550,0.003270810,-0.095561130,0.004012880
1640782261.156510,-0.322118490,-0.090886720,10.322380070,-0.076413140,-0.035256140,0.004221500
1640782261.157670,-0.001263320,-0.128595770,8.685803410,-0.074054290,0.038257240,-0.007930400
1640782261.160950,-0.400631870,-0.293147470,9.918895720,-0.010581320,0.024332110,-0.035497550
1640782261.162079,-0.432910620,-0.219389350,9.753218650,0.064571210,0.074113910,-0.030751530
1640782261.166060,-0.151423380,0.129234340,9.549390790,0.056983540,-0.076229880,-0.036166610
1640782261.167600,-0.462211400,0.387575950,10.595029830,-0.060018900,-0.027528410,-0.009416040
1640782261.171049,0.065163310,0.526463270,9.454854970,-0.129038100,0.068737550,0.014351310
1640782261.172410,0.127408210,0.462413640,10.708578110,-0.050291430,0.028139360,-0.000317390
1640782261.176010,-0.098038580,0.435921820,10.772145270,0.069034100,0.081785030,-0.008901950
1640782261.177009,0.160582290,0.551738620,9.282757760,0.076605380,-0.090564790,-0.001621250
1640782261.180930,-0.339839700,0.339879990,9.854973790,-0.034753980,-0.092732910,0.021378700
1640782261.181939,-0.305332030,0.063476060,8.700148580,-0.134283300,0.044994060,0.035439430
1640782261.188099,-0.080051690,-0.125338610,9.572053910,-0.089035940,0.007531050,0.004015860
1640782261.189380,-0.246091770,-0.202215810,10.936990740,0.031672420,0.126959400,-0.024160740
1640782261.192989,0.288250890,0.153626860,10.082017900,0.044950840,0.038489690,-0.043168660
1640782261.194290,0.054816690,0.281677990,10.804637910,-0.025506320,-0.065611310,-0.013712050
1640782261.196290,-0.164443700,0.056582100,9.415286060,-0.085507330,0.001931190,0.022833050
1640782261.197430,-0.037494170,-0.181081980,8.723475460,-0.025996570,-0.069521370,0.037559870
1640782261.200970,-0.517181040,-0.319937830,9.891406060,0.101196790,0.068888080,0.020727520
1640782261.202160,-0.347968730,-0.094892230,9.532759670,0.087611370,0.053177770,-0.003941360
1640782261.206179,-0.248912860,0.295263050,10.638528820,-0.022070110,-0.050970910,-0.024881960
1640782261.209479,-0.168305340,0.537893710,10.331946370,-0.115689660,0.057309870,-0.029173500
1640782261.210970,0.229392480,0.643491740,9.849321370,-0.099219380,0.010420380,-0.019529460
1640782261.211920,-0.171235930,0.583811460,10.682179450,0.062622120,0.006002190,-0.031606850
1640782261.216070,-0.064906540,0.654351830,9.101165770,0.096519290,-0.029842560,-0.016167760
1640782261.217870,-0.106288850,0.506283460,9.173607830,-0.015454000,-0.059895220,0.038754940
1640782261.222590,-0.444442600,0.074827530,9.957777020,-0.099731990,0.072480750,0.051161650
1640782261.223320,-0.186306860,-0.150734320,9.970030780,-0.113907460,0.017277900,0.029596690
1640782261.228030,-0.190849070,-0.126665910,10.860278130,-0.012442470,-0.011770430,-0.004220010
1640782261.228700,0.084630150,-0.008831090,10.040510180,0.033891200,0.052145130,-0.046472260
1640782261.230950,0.277406810,0.312772480,9.693257330,-0.032512840,0.005023180,-0.048989070
1640782261.231969,-0.094305480,0.399837460,9.875029560,-0.081861020,0.021815300,-0.008796160
1640782261.236750,0.020382930,0.119168380,9.017090800,-0.076586010,-0.001439450,0.024709110
1640782261.237710,-0.182260440,-0.052550220,9.655017850,0.013098120,-0.025062270,0.032569480
1640782261.241070,-0.390447740,-0.159186540,10.166190150,0.078728810,0.052323940,0.032003230
1640782261.242030,-0.169484450,-0.152373150,10.077388760,0.012798610,0.037105370,-0.000967090
1640782261.245970,-0.251456110,0.041320200,10.619619370,-0.054918240,0.004003940,-0.028495500
1640782261.247100,-0.089825910,0.063950840,9.964695930,-0.074075170,0.038854780,-0.032868990
1640782261.251080,-0.047485480,0.221472350,9.582685470,-0.006812810,-0.010855490,-0.036290290
1640782261.252040,-0.338681550,0.418474200,9.831386570,0.069577990,-0.058032580,-0.032195450
1640782261.257249,-0.144363280,0.598663090,9.021894450,0.012421610,0.002156200,0.000080470
1640782261.258119,0.003800550,0.605660800,9.550144200,-0.071880220,0.042584540,0.032247600
1640782261.260929,-0.126976360,0.296223010,11.103981970,-0.085589300,0.104755170,0.030288100
1640782261.261940,0.092367060,0.292832430,10.533839230,-0.020825860,0.037814680,0.021907690
1640782261.266060,-0.029584250,0.335724380,10.383791920,0.029434270,-0.111700590,0.000703330
1640782261.267050,-0.183358550,0.226854580,9.443757060,-0.021778050,-0.006209310,-0.011040270
1640782261.271590,0.028056450,0.303394410,8.209817890,-0.091218970,0.011716790,-0.020079320
1640782261.273579,-0.364252870,0.078248930,10.003524780,-0.099632160,0.040057310,-0.012925270
1640782261.275980,-0.021859710,-0.012134370,9.639141080,-0.027652080,0.127001120,-0.001513960
1640782261.277020,0.068321150,0.130052520,10.377221110,0.013837220,-0.049929330,0.001239780
1640782261.280959,-0.309374090,0.120639590,11.180973050,-0.021150710,0.016249720,0.016596920
1640782261.281950,0.169330050,0.079880230,9.034533500,-0.070074200,0.010815260,0.025123360
1640782261.290269,-0.214411650,-0.170358000,10.311957360,-0.058002770,-0.038225950,-0.005085770
1640782261.291170,-0.249466260,-0.186003210,9.403786660,0.018458070,0.131388020,-0.009308760
1640782261.291679,-0.072999190,-0.023863970,9.137052540,0.055859980,-0.049188730,-0.025421380
1640782261.292080,-0.661928950,0.154754340,10.863080020,0.001913310,-0.026924910,-0.029695040
1640782261.295980,0.030457740,0.524616660,8.730869290,-0.091747950,0.046758350,-0.003679100
1640782261.297040,-0.123134490,0.399768350,10.657855990,-0.102616850,-0.022174420,0.013874470
1640782261.301080,-0.139283520,0.289958240,10.914258960,0.005264580,0.162664060,0.014318530
1640782261.302100,0.245501550,0.333361480,9.640379910,0.090596060,-0.029328470,0.005294380
1640782261.307040,-0.475863640,0.242528230,10.802611350,0.057065490,-0.107336050,0.019647180
1640782261.307659,-0.269202290,0.173341780,8.371063230,-0.070139770,-0.001791120,0.028263030
1640782261.310930,-0.217382610,0.097311410,8.905011180,-0.127089040,-0.055800390,0.020027160
1640782261.311960,-0.430698870,0.028291500,10.558885570,-0.046165290,0.141236190,0.016573070
1640782261.315940,0.282255410,0.147456110,9.832326890,0.024762750,0.097090010,-0.016087290
1640782261.317040,0.138954090,0.441127000,11.325124740,0.030310450,-0.048488370,-0.014591220
1640782261.323609,0.066658460,0.376884370,10.103118900,-0.056779380,0.033146140,0.024572020
1640782261.324299,0.306297330,0.061574970,8.770209310,-0.086873780,-0.071541970,0.038000950
1640782261.325990,-0.375442560,-0.210031380,9.813030240,0.007867810,0.003376600,0.033022460
1640782261.327030,-0.167679880,-0.339398350,8.726371770,0.055745240,0.093229120,0.019574170
1640782261.330940,-0.202615420,-0.235842300,9.976858140,0.041338810,0.000505150,-0.008949640
1640782261.331990,-0.503187420,0.016969050,10.937276840,-0.021019580,0.059674680,-0.012525920
1640782261.336069,0.051939410,0.251978960,9.688438420,-0.095048550,0.001618270,-0.013531740
1640782261.337540,-0.255213740,0.301587250,10.503222470,-0.019446010,-0.035981830,0.005705650
1640782261.342970,-0.211845760,0.204543160,9.657232280,0.070802870,0.059165070,0.009694700
1640782261.343380,-0.007322570,0.360280600,9.136430740,0.087429590,-0.012409690,0.006115440
1640782261.345980,-0.537015620,0.290740040,10.235051160,0.043824320,-0.008381900,0.030863290
1640782261.347030,-0.140700490,0.268776660,9.413008690,-0.069020690,-0.002014640,0.012584030
1640782261.351130,0.002412800,0.441361700,9.859411240,-0.074428320,-0.032150750,0.015351180
1640782261.355110,-0.032656150,0.338847550,10.605617520,-0.018851460,0.100091120,0.003123280
1640782261.356300,0.420417820,0.461125790,10.065621380,0.018909570,0.071996460,-0.024022160
1640782261.357220,0.046134250,0.548350210,10.457997320,0.053040680,-0.059033930,-0.012645130
1640782261.360980,-0.100291030,0.303107530,9.484091760,-0.041046740,-0.028176610,0.030431150
1640782261.362059,-0.140519980,0.025396690,8.615668300,-0.067986560,-0.025233630,0.042988370
1640782261.366130,-0.658654990,-0.261015420,10.079099660,-0.006088610,0.014136730,0.038462880
1640782261.367600,-0.330777380,-0.158512000,9.884090420,0.018329920,0.086407360,0.015233460
1640782261.371070,-0.034422460,0.070048110,10.134681700,0.011113290,0.019264220,-0.008271630
1640782261.371970,-0.065412870,0.253382980,10.803641320,-0.058855120,0.041650240,-0.025567420
1640782261.376040,0.360014590,0.413019810,9.288670540,-0.081989170,0.052575770,-0.004294520
1640782261.379930,0.002933040,0.170123710,9.806971550,0.002436340,-0.064912440,0.001062450
1640782261.380970,-0.159851580,0.036733640,9.454252240,0.069881980,0.024919210,0.011542440
1640782261.382030,0.063577410,-0.013407880,8.736102100,0.059227650,0.016203520,0.018347800
1640782261.386190,-0.496328530,-0.202804850,10.964536670,0.004003940,0.039584930,0.012403730
1640782261.389200,-0.036788840,-0.044593680,9.927911760,-0.051780050,0.113613910,0.002525750
1640782261.392720,-0.140836630,0.166107620,10.467483520,-0.038206580,-0.043900320,-0.017228720
1640782261.393220,-0.482281950,0.278196450,10.550095560,0.021041930,0.025999550,-0.012315810
1640782261.395959,-0.065030220,0.504194620,8.539936070,0.043952470,-0.029449170,-0.022466480
1640782261.397019,-0.525668320,0.632691090,9.970979690,0.021432340,-0.078645360,-0.016644600
1640782261.401070,-0.090312790,0.572841640,9.117932320,-0.043155250,0.136774780,0.025361780
1640782261.402000,0.251883000,0.479824100,10.031515120,-0.079721220,0.046561660,0.004252790
1640782261.406250,-0.174852120,0.475047950,11.817628860,-0.034599010,0.066766170,0.018154090
1640782261.407080,0.368417710,0.434630540,9.577444080,-0.022239980,-0.003072620,0.004869700
1640782261.410940,0.042490030,0.285599650,9.886705400,-0.031666450,-0.109612950,0.000853840
1640782261.412070,-0.121702340,0.139671060,8.941006660,-0.053906440,0.097467010,0.021246080
1640782261.416050,0.164509530,-0.137079020,8.521891590,-0.063979630,0.069595880,0.019606950
1640782261.419930,-0.460405740,-0.367176740,11.025300980,0.003251430,0.061786180,0.009992720
1640782261.423030,-0.207018350,-0.142874050,9.988299370,0.009311740,0.045546890,-0.014996530
1640782261.423660,-0.165863540,0.128248330,10.191258430,-0.069193550,-0.086389480,-0.010366740
1640782261.425969,-0.442337330,0.024318130,10.314786910,-0.069719560,0.085040930,0.002902750
1640782261.427060,-0.002906420,0.070624250,9.157946590,-0.018794830,0.078038880,-0.028935070
1640782261.430990,-0.383688330,0.112461460,10.454353330,0.061322740,-0.007313490,-0.006160140
1640782261.431990,-0.279873970,0.076090690,9.397652630,0.078682600,0.033742190,-0.002068280
1640782261.436300,0.059028900,0.316500660,9.090061190,-0.025923550,-0.055736310,0.006805360
1640782261.437270,-0.281725140,0.301966250,10.365195270,-0.092503430,0.054425000,0.031268600
1640782261.440950,0.235558640,0.155436550,9.807446480,-0.078800310,0.115658330,-0.000733140
1640782261.441990,0.111457810,0.242875770,10.872621540,0.034919380,0.014716390,-0.033165520
1640782261.446310,-0.348931400,0.259857360,10.652709960,0.099861630,0.000779330,-0.022935860
1640782261.447330,-0.156395470,0.318226160,8.902558330,0.021393600,-0.078196830,-0.005953010
1640782261.451079,-0.676771100,0.253816280,9.438960080,-0.065015260,-0.069433440,0.016522410
1640782261.451990,-0.533518310,0.104897030,9.175513270,-0.097323970,0.078988080,0.032912190
1640782261.456370,0.038754060,0.089636240,9.641942020,-0.027564170,0.094033780,0.003607570
1640782261.457130,-0.046556010,0.173024280,11.253950120,0.058570500,0.064983950,-0.042378900
1640782261.460970,0.481458430,0.478790760,10.137970920,0.010249020,0.031410160,-0.040443250
1640782261.462090,0.418302770,0.373407900,9.627296450,-0.059187410,-0.062371790,-0.008256730
1640782261.466090,-0.161883650,-0.120889070,9.767749790,-0.062927610,-0.010046360,0.014534590
1640782261.467120,0.020793880,-0.302361820,8.600137710,0.035028160,0.031296910,0.027360020
1640782261.471010,-0.374061440,-0.401921240,9.848782540,0.113749520,0.011642280,0.005893410
1640782261.472270,-0.461221870,-0.111490880,10.406552310,0.032103060,0.097014020,-0.026892130
1640782261.475950,-0.119726670,0.375373010,9.805278780,-0.077845160,0.009582940,-0.034146010
1640782261.477020,-0.552431050,0.404219930,10.914971350,-0.112520180,-0.032120940,-0.038848820
1640782261.480929,-0.214414540,0.530671830,9.520049100,-0.001139940,0.057129570,-0.038966530
1640782261.481959,-0.107894380,0.730842470,9.277379040,0.123739250,-0.084586440,-0.032117970
1640782261.486110,-0.287167580,0.796309470,9.872661590,0.050969430,0.052025910,0.029098990
1640782261.489470,0.462552250,0.649846970,8.785409930,-0.100879360,0.112375600,0.056713820
1640782261.491099,0.081522180,0.249723970,11.192306520,-0.148034110,0.025765600,0.038893520
1640782261.492060,-0.011778630,0.063791650,10.834995270,-0.068335240,0.063416360,0.002616640
1640782261.496039,0.273047950,0.103360650,9.240625380,0.046078860,-0.115565960,-0.047816340
1640782261.497000,-0.416017410,0.111376600,9.948054310,0.012207030,-0.018104910,-0.057511030
1640782261.501070,-0.113399560,0.170474420,8.370470050,-0.110039120,0.146418790,-0.017260010
1640782261.501999,-0.317735110,-0.242041020,10.235384940,-0.108255450,0.018481910,0.007528070
1640782261.507380,-0.622784910,-0.294032990,10.959246640,0.005255640,0.050558160,0.012616820
1640782261.507750,0.097306590,0.113896850,9.061400410,0.025008620,-0.048138200,0.008048120
1640782261.511000,-0.349499760,0.005983170,10.541820530,-0.020994240,-0.006251040,0.011166930
1640782261.511979,-0.145593630,-0.010919920,9.551761630,-0.071132180,0.145429390,-0.017926100
1640782261.515960,0.069623410,0.003153990,9.835523610,-0.009350480,-0.033913560,-0.024968390
1640782261.520540,-0.388848660,0.009912200,10.582455640,0.088973340,0.001552700,-0.024074320
1640782261.522030,0.196226940,0.492878590,8.547256470,0.026178370,-0.010903180,-0.017756220
1640782261.523020,-0.068203000,0.740679440,10.011291500,-0.095994770,-0.003880260,0.016525390
1640782261.526199,-0.168174070,0.547400410,10.280406950,-0.149171100,0.146816670,0.039604310
1640782261.527580,0.256406130,0.287231710,10.162049290,-0.044438240,0.006379190,-0.008285050
1640782261.530969,-0.334655020,0.248653020,10.956773760,0.113943240,-0.009977820,-0.025534630
1640782261.531960,-0.138567690,0.251103250,8.981797220,0.052650270,0.001439450,-0.003622470
1640782261.536620,-0.358333050,0.017357590,9.534591670,-0.078627470,-0.048650810,0.016997760
1640782261.537200,-0.622898040,-0.211224420,9.795803070,-0.118133430,0.063033400,0.045174360
1640782261.540959,0.064316660,-0.389810170,9.302849770,-0.054028640,0.037565830,0.017626580
1640782261.542320,-0.032429030,-0.134431110,10.710310940,0.068467860,0.069293390,-0.028060380
1640782261.545930,0.231072380,0.353015810,10.000503540,0.039659440,0.081677740,-0.039817400
1640782261.547140,0.325979440,0.413211700,9.917997360,-0.076042120,-0.031785670,-0.005480650
1640782261.551030,-0.193224210,0.219705330,9.937672620,-0.059266390,-0.004242360,0.018116830
1640782261.551980,-0.024687330,0.005789060,8.789516450,0.017885870,-0.012500580,0.029328470
1640782261.556460,-0.383336310,-0.051221460,9.788358690,0.104483950,0.027202070,0.021803380
1640782261.559039,-0.455105960,0.029078020,10.024627690,0.056968640,0.093716400,-0.005517900
1640782261.560959,-0.167130280,0.221281740,10.145458220,-0.090350210,0.026007000,-0.023007390
1640782261.562070,-0.468481810,0.189852130,10.760458950,-0.084105140,0.016164780,-0.028042500
1640782261.565970,-0.268397900,0.128935680,9.770271300,0.022575260,-0.033682580,-0.050495560
1640782261.567060,-0.170770360,0.481134470,9.362070080,0.101715340,-0.062660880,-0.047539170
1640782261.570999,-0.169067950,0.569607440,9.302311900,0.045812130,0.042295460,0.021490460
1640782261.572399,0.263787420,0.394984930,9.542955400,-0.079776350,0.108946870,0.055736310
1640782261.576000,0.071822700,0.223099980,10.899269100,-0.082843010,0.038774310,0.043654450
1640782261.577030,-0.012666050,0.082239380,10.754093170,-0.004781780,-0.033187870,0.008478760
1640782261.580960,0.085330370,0.206071060,9.455119130,0.043830280,-0.068308410,-0.032901770
1640782261.582110,-0.297970650,0.285739630,9.328592300,0.006683170,-0.030811140,-0.047884880
1640782261.586150,-0.135813740,0.167442740,8.987183570,-0.076295440,0.113421690,-0.003139670
1640782261.589560,0.217251270,-0.109024200,9.375594140,-0.039337580,0.104774560,0.027693810
1640782261.592059,0.002683030,-0.420428310,10.812631610,0.059953330,0.054647040,0.034132600
1640782261.592640,0.486244950,-0.383996520,9.679315570,0.096327050,0.035651020,0.048929450
1640782261.595950,0.274099050,-0.656922460,9.869121550,0.057768830,0.007875260,0.029756130
1640782261.597000,0.022652490,-0.873075780,9.947683330,0.042021270,0.115792460,0.014783440
1640782261.601050,0.142045710,-0.693297090,9.244604110,0.120876720,0.071786340,-0.005707140
1640782261.601980,-0.494972770,-0.527498960,10.228510860,0.179933060,0.012052060,-0.031720110
1640782261.606200,-0.224083420,0.394299450,8.915552140,0.141409020,0.052258370,-0.003318490
1640782261.608100,-0.188652580,0.937393840,9.424811360,0.023224950,0.036296250,0.047908720
1640782261.610930,-0.293691870,0.854529800,10.496517180,-0.031809510,0.195556880,0.060312450
1640782261.612079,0.208419730,0.819509570,10.074331280,0.111842170,0.112511230,0.030468410
1640782261.615939,-0.224534500,0.456836310,10.970740320,0.236712400,-0.009335580,0.012600420
1640782261.617110,-0.037429110,0.272234920,9.070673940,0.207117210,0.054399670,0.030067560
1640782261.621140,-0.014343080,0.057156410,8.781257630,0.060549390,0.000359120,0.040240590
1640782261.623809,-0.434032650,-0.219851480,9.894070630,-0.053140530,0.129102190,0.052736710
1640782261.626350,0.227984920,-0.129276830,9.116033550,0.004498660,0.140874070,0.033815200
1640782261.627070,0.049615000,-0.012992300,10.951686860,0.128787760,0.070138280,-0.031609830
1640782261.630970,0.032130160,0.503977420,10.273721690,0.143380480,0.126807410,-0.038088860
1640782261.632050,0.087883440,0.633734290,9.579089160,0.066809360,-0.018687550,0.012481210
1640782261.636320,-0.531014860,0.115702820,10.118693350,0.026981540,0.047817830,0.050345070
1640782261.638300,-0.118766560,-0.027371620,8.466112140,0.089684130,0.095444930,0.067602100
1640782261.641090,-0.178611340,-0.236974150,9.745164870,0.172086060,0.089713950,0.053018340
1640782261.642040,-0.190356020,-0.146901740,9.999375340,0.130310670,0.192247330,0.018344820
1640782261.645959,0.247106190,0.233722390,9.635947230,0.025014580,0.050108130,-0.009685750
1640782261.647030,-0.236856150,0.082817740,10.690816880,-0.005757810,0.068303940,-0.016872580
1640782261.651070,-0.138458910,0.032660660,9.251841550,0.102020810,0.052633890,-0.023223460
1640782261.652590,-0.381743790,0.115546970,9.719080920,0.239710540,-0.034782290,-0.016294420
1640782261.656760,-0.601723490,0.231811870,9.527649880,0.203911980,0.118771210,0.022633370
1640782261.658700,-0.153847350,0.436096070,9.271166800,0.040783000,0.090876230,0.049701340
1640782261.660940,-0.389180810,0.396850470,11.048092840,-0.035187600,0.105841460,0.052505740
1640782261.661990,-0.048005990,0.408900590,9.892917630,0.029562410,0.093764070,0.023321810
1640782261.665930,-0.038652760,0.510966480,10.160979270,0.164791990,-0.049243870,-0.022147600
1640782261.667160,-0.276949290,0.720451240,9.591868400,0.178752850,0.038355590,-0.030109290
1640782261.671720,0.260169740,0.620849730,8.318593030,0.012937190,0.060336290,0.025962300
1640782261.672400,0.023626650,0.110416820,10.255920410,-0.030118230,0.157514230,0.053022790
1640782261.675940,0.063913020,-0.179168980,10.200600620,0.046929730,0.159983370,0.048996520
1640782261.677100,-0.021714160,-0.215108290,10.479872700,0.127051770,-0.057403750,0.036880380
1640782261.680950,-0.419455020,-0.175870000,9.916555400,0.132642700,0.010086600,0.012555720
1640782261.681980,-0.336716090,-0.160149130,8.592167850,0.036837160,0.048896670,-0.009351970
1640782261.686149,-0.731361450,-0.091094510,9.922173500,0.026631360,0.067271280,-0.022697450
1640782261.689260,-0.667583170,0.019755260,9.618041040,0.114177190,0.098344700,-0.018683080
1640782261.691269,-0.336304490,0.365623270,9.799078940,0.152143850,-0.028108070,-0.013507900
1640782261.692459,-0.251261560,0.867930050,10.107073780,0.093159060,0.033620000,0.024276970
1640782261.695960,0.320797380,0.692671180,9.263122560,-0.032794480,0.108766560,0.056611010
1640782261.697070,0.300329420,0.277752940,10.539911270,0.012102720,0.080762790,0.033910570
1640782261.701069,0.125753390,0.030152430,10.426922800,0.171680760,0.085997590,0.001563130
1640782261.702149,0.042575960,-0.040733150,9.430880550,0.201974790,-0.067214650,-0.010319050
1640782261.706110,-0.478507220,0.111709330,9.420955660,0.093877320,-0.056849420,0.003807250
1640782261.707290,-0.446319160,0.142592910,8.611616130,-0.070768600,0.067853940,0.036028030
1640782261.710950,-0.405386840,0.157247710,9.808527950,-0.064018370,0.083439050,0.024533270
1640782261.711969,-0.429639490,0.187507090,10.841111180,0.113271180,0.119072210,-0.014406440
1640782261.715940,-0.060828540,0.552685860,10.161146160,0.181891020,0.017885870,-0.035123530
1640782261.717150,-0.223049770,0.716111360,10.038193700,0.105731200,-0.056298080,0.014741720
1640782261.722180,-0.251393680,0.310788690,9.168024060,-0.017544630,-0.000257790,0.039441880
1640782261.723870,0.004119890,0.024847050,8.654119490,-0.013571980,0.033974640,0.049921870
1640782261.725989,-0.081177360,-0.191180120,9.857911110,0.107210880,0.073979790,0.029955800
1640782261.727020,0.239012300,-0.004364820,9.812518120,0.132876650,0.111867500,-0.008231400
1640782261.730939,0.325603720,0.435841650,10.028239250,0.033837560,0.011743610,-0.012923780
1640782261.731999,-0.089522170,0.226945470,10.520462990,-0.066162650,0.016437470,0.002142790
1640782261.736060,-0.102253560,-0.088208220,9.308572770,0.023829940,0.014147160,0.001801550
1640782261.738610,-0.619873700,-0.150176530,9.667781830,0.196768360,-0.062486520,-0.016610330
1640782261.741010,-0.958214580,-0.003895900,9.522955890,0.206252960,0.041244930,0.001378360
1640782261.742060,-0.641658310,0.353920820,8.998071670,0.060145570,0.004436080,0.022551420
1640782261.745940,-0.792910160,0.491746430,10.666454320,-0.091984880,0.003021960,0.020651520
1640782261.747020,-0.133046900,0.663606880,9.782443050,-0.060614940,0.096964840,0.008204580
1640782261.755869,0.141382080,0.707668130,10.231956480,0.100621580,-0.047512350,-0.036886330
1640782261.756800,0.075845960,0.795764210,10.413786890,0.157427770,0.000850860,-0.046382840
1640782261.757210,0.696066320,0.785209240,8.172180180,0.057812030,0.011225040,0.003065170
1640782261.757550,0.119272930,0.128994480,10.064495090,-0.062344970,-0.025902690,0.042891500
1640782261.760959,0.045808510,-0.326066230,9.631029130,-0.040039420,0.114616760,0.055703520
1640782261.762080,0.005158590,-0.487013160,9.594486240,0.066551570,-0.076611340,0.033393510
1640782261.766130,-0.730362000,-0.500655060,10.974565510,0.106008370,-0.013798480,-0.019384920
1640782261.767989,-0.194092170,-0.080600670,8.591836930,0.038978450,0.052152580,-0.049471850
1640782261.771200,-0.687275410,0.050844930,10.237869260,-0.022202730,-0.055499370,-0.046075880
1640782261.772100,-0.735175430,0.094407400,9.794386860,0.025564430,0.076237330,-0.019769370
1640782261.775990,-0.152025600,0.329608860,8.730947490,0.118227310,-0.084096190,-0.011837480
1640782261.777089,-0.546030820,0.489298940,10.562129020,0.128427160,-0.050972400,0.016617780
1640782261.780959,0.239746670,0.550437510,8.850049970,0.027968000,0.094744590,0.036844610
1640782261.782160,0.328971590,0.335861300,10.408828740,-0.015243890,-0.018090020,0.009208920
1640782261.786110,-0.006535150,0.203617870,11.012528420,0.036895280,0.064727670,-0.005158780
1640782261.788159,0.399744780,0.247635390,8.997711180,0.101129710,-0.070469090,-0.027917330
1640782261.791309,-0.322918740,0.353104950,10.118626590,0.092867020,-0.130888830,-0.028979780
1640782261.792290,-0.252706170,0.593485710,8.462886810,-0.025796890,0.044022490,0.008857250
1640782261.796000,-0.102615800,0.431644560,9.131531720,-0.084808450,-0.007519130,0.017246600
1640782261.797109,-0.632713790,0.259556920,11.269137380,-0.009888410,0.092667350,-0.006914140
1640782261.801100,-0.105173640,0.371923690,9.973953250,0.070883320,0.003430250,-0.024788080
1640782261.802330,-0.430168870,0.384335340,10.600536350,0.083316850,-0.161886200,-0.025732820
1640782261.806300,-0.475050240,0.250722200,9.139471050,-0.010864440,-0.018629430,-0.005763770
1640782261.807080,0.132803190,0.219574360,8.140782360,-0.090765950,-0.014835600,0.011041760
1640782261.810950,-0.179747720,-0.024362720,10.116851810,-0.018098950,0.076434020,0.032185020
1640782261.812110,0.313486700,-0.086248270,9.679454800,0.054726000,0.067704900,-0.005783140
1640782261.815970,0.480874870,0.288808940,10.122023580,0.048998000,-0.095832350,-0.020258130
1640782261.817639,-0.032312390,0.202553350,10.393192290,-0.037676100,0.000324850,0.003483890
1640782261.821120,0.138339220,-0.078845030,9.258794780,-0.068852290,-0.014339390,-0.023846330
1640782261.822460,-0.602673650,-0.087437240,10.221744540,0.052380550,-0.052039320,-0.028081230
1640782261.825960,-0.782383980,0.080727780,9.489013670,0.094969560,-0.007927420,-0.024691230
1640782261.827040,-0.533176300,0.485177900,9.119482040,0.027543310,-0.074167530,-0.009019670
1640782261.830979,-0.816712140,0.675760330,10.072731970,-0.070627040,-0.008560720,0.015054640
1640782261.832059,-0.198570240,0.674396690,9.673992160,-0.142437190,0.030753010,0.011347230
1640782261.836740,0.026121490,0.419572470,10.442377090,-0.002641980,-0.032410030,-0.014163560
1640782261.837299,0.057548890,0.270374390,10.415256500,0.110130030,-0.014361740,-0.049963600
1640782261.840960,0.396613870,0.412230040,9.208871840,0.060872730,-0.059697020,-0.027760860
1640782261.841980,-0.097414920,0.156420810,9.635761260,-0.049504640,-0.082808730,0.027528410
1640782261.846410,-0.111878480,-0.069992420,9.205431940,-0.163453820,-0.019505620,0.049375010
1640782261.847460,-0.062037430,-0.209376450,9.369441990,-0.069606310,-0.022187830,0.038279600
1640782261.851040,-0.395080600,-0.304054440,10.422560690,0.080983350,-0.006233160,-0.017452240
1640782261.852090,-0.125307020,0.173411970,9.828401570,0.070747740,-0.003644820,-0.056003040
1640782261.856540,-0.391872170,0.247107570,10.085105900,-0.013542180,-0.081767140,-0.030046710
1640782261.857859,-0.482010100,-0.016844820,9.894948010,-0.088793040,-0.050853200,-0.012747940
1640782261.861050,-0.209670190,0.054335770,8.967616080,-0.005534290,-0.069518390,-0.013075770
1640782261.862330,-0.431959690,0.125512990,9.745860100,0.110924270,-0.064617400,0.000865760
1640782261.865960,-0.060141900,0.472893300,9.531811710,0.049564240,0.024129450,0.006724890
1640782261.867130,0.146600370,0.720246970,9.994988440,-0.074753170,-0.032043460,0.003729760
1640782261.871050,-0.014734260,0.475659970,10.852958680,-0.131061640,-0.010971720,0.015272200
1640782261.875939,0.251179370,0.370193750,9.618152620,-0.013913220,-0.057098270,-0.022132700
1640782261.876390,-0.127581430,0.414580370,9.671474460,0.098949680,-0.153785940,-0.042966010
1640782261.877120,-0.148285790,0.495346250,8.769102100,0.011771920,-0.010526180,0.000287590
1640782261.880970,0.060223610,0.225895780,8.784273150,-0.127936900,0.017212330,0.023747980
1640782261.882089,-0.497903760,-0.235383560,11.117916110,-0.101214660,0.030213600,0.015217070
1640782261.886940,-0.164635640,-0.219553570,10.180452350,0.022892650,-0.035150350,0.003962220
1640782261.887560,-0.358911370,-0.161448510,10.102033620,0.081309680,-0.182551160,-0.046741960
1640782261.890990,-0.484703660,0.053083650,9.249166490,-0.004535910,-0.027443470,-0.056262330
1640782261.892000,0.076079370,0.171276210,8.290155410,-0.102865700,0.024335080,-0.032982230
1640782261.895959,-0.407895180,-0.173951120,10.551309590,-0.041747090,0.016827880,-0.014042850
1640782261.897070,0.072100100,0.055099080,9.626352310,0.098870700,-0.025586790,0.003540520
1640782261.901039,0.202014710,0.325504210,9.821934700,0.096739820,-0.150857880,-0.000227990
1640782261.902030,-0.120215880,0.331926940,10.070250510,-0.034448500,0.021910670,0.011990960
1640782261.905949,0.178258580,0.305526140,9.350466730,-0.106368960,0.017662350,0.000759960
1640782261.907080,-0.512321950,0.079372160,10.998988150,-0.000868740,-0.074492400,-0.030437120
1640782261.911000,-0.416414440,0.302845180,9.149072650,0.126601760,-0.068058070,-0.038996340
1640782261.912119,-0.392445770,0.569899320,8.976887700,0.067277250,-0.176155580,-0.036616620
1640782261.915939,-0.636739080,0.608367380,9.580714230,-0.094611940,0.015242400,0.012354550
1640782261.917110,0.060731000,0.428914370,9.116935730,-0.139994930,0.041450550,0.030323860
1640782261.923480,-0.118169720,0.029474450,11.359907150,-0.015623870,-0.037683550,-0.011360650
1640782261.924490,0.160831450,0.173291760,10.152297020,0.108276320,-0.008128580,-0.021827220
1640782261.926040,0.291499880,0.235265520,9.433427810,0.066076220,-0.170807560,-0.012865660
1640782261.927420,-0.293279530,0.027605740,9.601326940,-0.067907570,-0.061525410,0.007651750
1640782261.930950,0.093111090,-0.037887310,7.898811820,-0.112091000,-0.011129680,0.027610360
1640782261.932080,-0.242280780,-0.270100650,10.003470420,-0.005573030,-0.034596030,0.009933110
1640782261.936540,-0.290158630,-0.068784860,10.131156920,0.101879250,0.046430530,-0.025559960
1640782261.937080,0.093200420,0.452063890,9.780878070,0.048421330,-0.120145100,-0.028769680
1640782261.940970,-0.351501380,0.323544380,10.666954040,-0.069274010,-0.043825800,-0.008966030
1640782261.942370,-0.104867610,0.094515040,9.197502140,-0.067706410,0.019991400,-0.018592180
1640782261.945979,-0.355611060,0.125004990,10.037203790,0.063380600,-0.126193480,-0.036472090
1640782261.947140,-0.600522520,0.197845160,9.342113490,0.127781910,-0.033161040,-0.011037290
1640782261.951079,-0.150862170,0.568913820,8.544719700,0.024230780,-0.104448200,0.000813600
1640782261.952230,-0.376009670,0.651773150,10.299716000,-0.115500400,-0.013829770,0.033943360
1640782261.956460,0.142650500,0.454912750,9.744526860,-0.139968080,0.061245260,0.037084510
1640782261.957110,0.304069940,0.315257010,10.686470990,0.011612480,-0.073146820,-0.018104910
1640782261.960919,0.047036900,0.354121090,10.312300680,0.115765620,-0.035746390,-0.048220160
1640782261.962090,0.306280400,0.415430460,8.567481040,0.022575260,-0.104193370,-0.012032690
1640782261.965970,-0.310250700,0.078697270,9.541577340,-0.083386910,-0.079412780,0.022433700
1640782261.967150,-0.267268450,-0.233061730,8.831657410,-0.119772570,0.017113990,0.039258600
1640782261.971370,-0.158765600,-0.334541770,9.691802980,0.007057190,-0.042249270,0.022746620
1640782261.972499,-0.474439920,-0.163969670,10.737185480,0.101122270,0.016327200,-0.024874510
1640782261.976040,-0.016306210,0.384840010,9.553735730,-0.003300610,-0.047904250,-0.047618150
1640782261.977079,-0.158375470,0.546914040,9.998552320,-0.099416080,-0.076037650,-0.016851730
1640782261.980960,-0.249712140,0.226228030,9.367300030,-0.087480250,0.002612170,-0.005039570
1640782261.982060,-0.109724690,0.181011050,9.160098080,0.058548160,-0.092342500,-0.007030370
1640782261.986539,-0.496887920,0.249094190,9.817620280,0.143879670,-0.069148840,0.012494620
1640782261.987450,-0.025213960,0.282546700,8.988432880,0.001107160,-0.010742250,0.027863690
1640782261.991119,-0.096687700,0.364992170,10.410712240,-0.123991080,-0.019447510,0.023260710
1640782261.992410,-0.169076410,0.282033120,10.677209850,-0.124904500,0.029951330,0.023666020
1640782261.995950,0.180115600,0.236635210,9.817571640,-0.001795590,-0.094293040,-0.029192860
1640782261.997069,-0.166233930,0.504031300,9.836504940,0.093598690,-0.124043230,-0.053091350
1640782262.001070,-0.069686620,0.574932520,8.529046060,-0.020740920,-0.015543400,-0.004468860
1640782262.003379,-0.153513950,0.300795940,9.229044910,-0.112508220,-0.041669600,0.026272240
1640782262.006080,-0.352206230,-0.029954070,10.261288640,-0.083974000,0.010685620,0.033567850
1640782262.007190,0.031165600,-0.017485380,9.818861010,-0.023101270,-0.023299460,0.032541160
1640782262.010970,-0.177365820,0.065335680,10.477120400,0.036902730,-0.081655390,0.004574660
1640782262.012100,-0.041370100,0.307306200,9.571763990,-0.049164900,-0.014862420,-0.010997060
1640782262.016000,0.101297470,0.379720630,8.922690390,-0.131224110,-0.043442850,0.008222460
1640782262.017180,-0.187288150,-0.068110040,9.691273690,-0.050160290,-0.017456710,0.024472180
1640782262.022060,0.000724110,-0.064249270,9.345889090,0.037695460,-0.012169780,0.008109210
1640782262.022940,-0.188353210,0.092698540,9.951269150,0.064936280,-0.095352540,0.015096370
1640782262.026080,-0.243385180,-0.048441950,10.087770460,-0.039076810,-0.008310380,0.020846730
1640782262.027230,0.008222150,0.227063070,9.631337170,-0.117370490,0.011505190,-0.000780820
1640782262.030920,-0.374933630,0.279353920,10.580394740,-0.064730630,-0.043891360,0.006783010
1640782262.032070,-0.241263340,0.392669920,9.603481290,0.019443040,-0.050018730,0.007581710
1640782262.036599,-0.186070830,0.767704840,8.859353070,0.036813320,-0.150588150,0.009095670
1640782262.037089,-0.371121380,0.706413450,9.420856480,-0.063748660,-0.035479670,0.053849820
1640782262.041129,0.103997600,0.504486020,9.202127460,-0.147037220,0.083038230,0.063125790
1640782262.042060,-0.096670310,0.156418740,11.044883730,-0.079064090,-0.044214730,0.024034090
1640782262.046000,-0.047958900,0.084609450,10.786333080,0.009968870,-0.030682980,0.000505150
1640782262.047099,0.201073500,0.283064340,9.131216050,0.000715260,-0.121241810,-0.006848570
1640782262.051020,-0.325836600,0.196747110,9.666165350,-0.099426520,-0.090423230,0.013090670
1640782262.052120,0.009694230,0.171133560,8.427175520,-0.158524510,0.060103840,0.053329770
1640782262.056589,-0.004561750,-0.114851530,9.511809350,-0.087483230,-0.035507980,0.062756240
1640782262.057420,-0.200339690,-0.267161700,10.626936910,0.030004980,0.026799740,0.035363440
1640782262.060959,0.187047620,0.026916980,9.599321370,0.033873320,-0.048723810,0.018703940
1640782262.062090,-0.340439110,-0.116640080,10.763324740,-0.062903760,-0.107683250,0.007081030
1640782262.065960,-0.209987300,-0.127310340,9.274011610,-0.105051720,0.017307700,-0.005626680
1640782262.067560,-0.176614750,0.102419140,9.095987320,-0.046424570,-0.073504470,-0.010827190
1640782262.071689,-0.644582330,0.182045550,10.112420080,0.028067830,0.004208090,0.011567770
1640782262.072759,-0.101916450,0.649720190,8.815382000,0.020354990,-0.028528280,0.039568540
1640782262.075990,-0.332778010,0.750729740,10.379415510,-0.092877460,-0.127512220,0.063408910
1640782262.077080,0.036619340,0.411954050,9.730896000,-0.141453760,0.067864360,0.078894210
1640782262.080960,0.398458300,0.105615660,9.997709270,-0.039802500,-0.008699300,0.016318260
1640782262.082090,-0.295243920,-0.021270220,11.339591030,0.067526100,-0.040176520,-0.021882360
1640782262.087030,0.124951890,0.238019050,8.663983350,0.031556190,-0.087513010,-0.005719060
1640782262.089450,-0.250893150,0.202851250,9.204103470,-0.100059790,-0.151181240,0.028997660
1640782262.091470,-0.497932640,0.187878500,9.220338820,-0.176401450,0.046534840,0.071813170
1640782262.092120,0.036001810,0.226813580,9.102444650,-0.094228990,-0.013664360,0.082992020
1640782262.095919,-0.242987450,0.061619370,11.205625530,0.029835110,0.011220580,0.047028070
1640782262.097129,0.220067930,0.354382190,9.881945610,0.034485750,0.026319920,0.015953180
1640782262.101040,0.217109640,0.405114380,10.021663670,-0.068341200,-0.125509520,0.019979480
1640782262.102100,-0.259273170,-0.106376200,9.708200450,-0.128118680,-0.021779530,0.034217540
1640782262.106109,0.057504810,-0.177910190,8.333827970,-0.054599350,-0.067901630,0.022064150
1640782262.107260,-0.499340420,-0.193568530,9.919645310,0.048296150,-0.020858650,0.026956200
1640782262.110950,-0.362906460,0.013721190,9.422920230,0.020325190,0.040425360,0.030942260
1640782262.112079,-0.053250390,0.419550300,10.061900140,-0.093321510,-0.069066880,0.031654540
1640782262.115960,-0.310797300,0.258454890,10.734934810,-0.136174280,0.042808060,0.051318110
1640782262.118290,0.137330990,0.194574060,9.558148380,-0.054790080,-0.040546060,0.021603710
1640782262.122570,-0.193287330,0.234150190,10.236285210,0.086087000,-0.090749570,-0.008814030
1640782262.123319,-0.231967960,0.428671630,8.879444120,0.055959820,-0.025506320,0.018040840
1640782262.126400,-0.118706900,0.510875520,9.109546660,-0.089401010,-0.085729370,0.045321890
1640782262.127130,-0.409290110,0.397791800,10.146987920,-0.166825970,0.039160250,0.066499420
1640782262.130980,-0.005960610,0.349430380,9.774080280,-0.140374910,0.002312660,0.064200160
1640782262.132079,-0.081957630,0.267605040,10.842815400,0.012001390,-0.050847240,0.031626220
1640782262.136109,-0.087677460,0.398884450,9.798203470,0.025756660,-0.027443470,-0.003708900
1640782262.137539,0.145805610,0.377682180,8.932268140,-0.094936800,-0.097830610,0.029009580
1640782262.141460,-0.250597890,-0.138103650,9.529480930,-0.120580200,0.014778970,0.057205570
1640782262.142160,-0.091854900,-0.511141660,9.166395190,-0.065390770,-0.002811850,0.053744020
1640782262.146000,-0.298620610,-0.469662990,10.284993170,0.038276620,-0.087718680,0.043745350
1640782262.147110,-0.312168330,-0.266347890,9.900477410,0.031396750,-0.000829990,0.014282760
1640782262.151130,-0.013614800,0.090932300,9.509648320,-0.103312730,-0.040344890,-0.002714990
1640782262.152540,-0.264131750,0.364240410,10.276047710,-0.117132050,0.002011660,0.011214610
1640782262.156240,0.010234000,0.313178030,9.298099520,-0.039575990,-0.003302100,0.023585560
1640782262.157120,-0.049795140,0.381331030,9.693354610,0.076046590,-0.106157360,0.026056170
1640782262.160950,-0.216357450,0.437946200,9.518396380,0.074546050,-0.029565400,0.050257150
1640782262.162089,0.115996350,0.315108150,9.116354940,-0.076966000,-0.013822320,0.068698830
1640782262.166100,-0.243066670,0.102470800,10.739771840,-0.117732580,0.004884600,0.049866740
1640782262.167670,-0.084940630,0.032370260,10.286864280,-0.056055190,0.004389880,0.019255280
1640782262.171470,-0.096647960,0.217568780,9.912164690,0.019672510,-0.105042770,0.004923340
1640782262.172740,-0.377634790,0.439354090,9.682361600,0.022856890,-0.081731390,-0.002822280
1640782262.175979,0.041711210,0.605106060,8.458993910,-0.093662720,-0.008775290,0.042662020
1640782262.177110,0.029296240,0.404456590,9.489486690,-0.127528620,0.023290510,0.069260600
1640782262.181000,0.004211760,0.079706710,10.534985540,-0.059595700,0.076021240,0.045351680
1640782262.182449,0.274319710,0.193413320,10.172848700,0.015939770,-0.026097900,0.022979080
1640782262.186100,-0.085360740,0.185982090,10.450575830,0.000283120,-0.098793210,0.010308620
1640782262.188670,-0.073630650,0.097788040,9.302035330,-0.107470170,-0.003145640,0.013341010
1640782262.191030,0.020418290,0.096283040,8.710099220,-0.130054350,-0.001749400,0.030016900
1640782262.192070,-0.391810390,-0.188243940,9.990308760,-0.043547150,0.042080870,0.044970210
1640782262.195960,-0.030259980,-0.098146310,9.230126380,0.042442970,0.042678420,0.037661190
1640782262.197130,-0.092907460,0.149472940,10.015219690,0.007839500,-0.089125340,0.037157540
1640782262.201190,-0.263182820,-0.076914730,10.273334500,-0.103035580,0.046268110,0.043800470
1640782262.202070,0.151709970,-0.227393720,9.315520290,-0.069339580,0.023975970,0.006455180
1640782262.206280,-0.406537590,-0.217059120,10.919560430,0.037634370,-0.027552250,-0.034232440
1640782262.207110,-0.271081300,0.114284020,9.320990560,0.089213270,0.035920750,-0.009730460
1640782262.210929,-0.221578080,0.558759930,9.045895580,0.025209780,-0.135619940,0.007700920
1640782262.212080,-0.533698800,0.727117120,9.884822850,-0.124761480,0.030708320,0.063815710
1640782262.215970,0.226414500,0.711061360,8.694432260,-0.149369210,0.085835150,0.083854790
1640782262.217150,-0.019302500,0.307649610,11.269580840,-0.000269710,-0.001388790,0.038854780
1640782262.221520,0.087869730,0.275623980,10.417988780,0.097927460,0.076097260,-0.003378090
1640782262.222080,0.314837100,0.311329780,9.221503260,0.043597820,-0.126880410,-0.006449220
1640782262.225960,-0.456239100,-0.074530660,10.212805750,-0.086536990,-0.032371280,0.028800970
1640782262.227120,-0.066812260,-0.125460030,8.146134380,-0.138127820,0.038021800,0.044739250
1640782262.231079,-0.223061200,-0.267054770,9.789924620,-0.034107270,-0.037099420,0.060780350
1640782262.232120,-0.293023880,-0.212678030,10.268888470,0.055192410,0.148232280,0.031295420
1640782262.237310,0.294393300,0.264358880,9.487953190,0.026316940,-0.005353990,-0.002750750
1640782262.239110,-0.217868060,0.275423710,10.998315810,-0.052186850,-0.034971540,0.012780730
1640782262.240929,0.037758840,0.085680850,8.991835590,-0.080053490,0.046564630,0.013744830
1640782262.242100,-0.046120100,-0.094528160,9.308366780,0.027847300,-0.083373490,0.004406270
1640782262.246070,-0.496024640,-0.002155770,9.800115590,0.115582350,0.068874660,0.025139750
1640782262.247619,0.058228820,0.228994130,8.746567730,0.025320050,0.045228010,0.042706730
1640782262.251050,-0.254451990,0.319868950,10.772553440,-0.075997410,0.007663670,0.042060020
1640782262.252149,-0.056397800,0.343322370,9.986333850,-0.113658620,0.104633000,0.043420490
1640782262.256189,0.109685820,0.182704090,9.983753200,-0.011430680,-0.045476850,0.010322030
1640782262.257110,-0.386256250,0.233660970,10.421207430,0.133961440,-0.011025370,-0.023056570
1640782262.261170,0.046351210,0.474690910,8.365007400,0.053751470,0.005181130,-0.016991800
1640782262.262440,-0.165033850,0.315148950,9.487218860,-0.069470700,-0.000460450,0.038377940
1640782262.265980,-0.278922770,0.148245390,9.982438090,-0.098481790,0.136151920,0.041210660
1640782262.267170,0.057492790,0.176159560,10.035575870,-0.047621130,-0.009733440,0.036662820
1640782262.271260,-0.266564040,0.185825690,10.696859360,0.063881290,-0.045706340,0.024679300
1640782262.272440,0.147894520,0.310376230,8.998968120,0.022524590,0.035615260,-0.007615980
1640782262.275970,0.114384710,0.344603150,9.187586780,-0.065538290,0.036415460,0.013095140
1640782262.277119,-0.345815240,-0.039508580,10.007294650,-0.041706870,0.081659850,0.025023530
1640782262.280979,-0.012957780,-0.237356450,9.298032760,0.009253620,-0.009739400,0.019444530
1640782262.282070,-0.315171510,-0.243180480,9.981544490,0.072658070,-0.058576460,0.021857030
1640782262.289430,-0.284988250,-0.308339570,9.640746120,0.040803850,0.062736870,0.018563860
1640782262.289929,-0.105188230,-0.150028330,9.841349600,-0.016114120,0.054931650,-0.001442430
1640782262.290920,-0.495495380,0.020679270,10.758680340,0.002793970,0.024218860,-0.005790590
1640782262.292060,-0.117847870,0.204192610,9.435018540,0.033682590,-0.004668530,0.010906160
1640782262.296000,-0.125727240,0.555976930,9.207248690,0.075377520,-0.066518790,0.006829200
1640782262.297109,-0.295438890,0.782300000,9.511322980,0.029444690,0.017501420,0.037810210
1640782262.301129,0.187919170,0.784879800,8.997450830,-0.054413080,0.073090200,0.058974330
1640782262.302120,-0.025070590,0.473328920,10.593429570,-0.044775010,0.033301120,0.034295030
1640782262.306039,0.001890750,0.260916950,10.697360990,0.015290080,0.068418680,0.001794100
1640782262.307099,0.101942030,0.249038140,9.653299330,0.057186190,-0.050717600,-0.003045800
1640782262.310999,-0.488118920,0.036386970,9.976098060,0.008763380,-0.095906880,-0.004613400
1640782262.312100,-0.151320790,0.046679010,8.218139650,-0.077301260,0.039167710,0.029879810
1640782262.315950,-0.141182650,-0.195612710,9.046101570,-0.064307450,0.046353040,0.044578320
1640782262.320570,-0.417460020,-0.406299110,10.895292280,0.026768450,0.112104420,0.022800260
1640782262.322530,0.289651930,-0.005123460,9.646270750,0.095625210,-0.004835430,0.012084840
1640782262.323190,-0.106126960,0.073180900,10.767051700,0.025765600,-0.073428440,0.008018310
1640782262.326099,-0.009116290,0.093017250,9.562675480,-0.050935150,0.094856320,-0.000093880
1640782262.327459,0.066304740,0.252040120,9.165169720,-0.017192960,-0.021763150,-0.014850500
1640782262.330969,-0.723734800,0.268224720,10.555273060,0.058731440,0.004920360,0.002057850
1640782262.332080,-0.083137340,0.677519740,8.311678890,0.072336200,0.004704300,0.022083520
1640782262.336140,-0.284874770,0.822148030,9.913343430,-0.034137070,-0.060613460,0.037455560
1640782262.337270,-0.276265230,0.596248810,10.350749970,-0.118401650,0.165353720,0.060814620
1640782262.340999,0.385997590,0.244859810,9.815420150,-0.051513310,0.024637580,0.020188090
1640782262.342360,-0.228557740,-0.056989400,11.443861960,0.080309810,-0.046186150,-0.028224290
1640782262.346010,0.168408270,0.060861310,8.726120000,0.090363630,0.017319620,-0.015592580
1640782262.347090,0.004306840,-0.132959740,8.893678670,-0.021161140,-0.088672350,0.003674630
1640782262.351070,-0.635261830,-0.247942280,9.912986760,-0.094315410,0.070768590,0.038807100
1640782262.357990,0.042566410,-0.250806120,8.782950400,-0.048737220,0.036701560,0.041328370
1640782262.359079,-0.292315750,-0.292781170,11.033259390,0.079350160,0.007604060,-0.006020070
1640782262.359949,-0.101992220,0.251225440,10.201041220,0.091113170,0.083784760,-0.028355430
1640782262.360950,0.237346490,0.469756220,9.522265430,-0.004243850,-0.057852280,-0.009745360
1640782262.362100,-0.383987960,0.188769400,10.280180930,-0.030289590,0.007979570,0.011506680
1640782262.366000,-0.062600990,0.119390270,8.587691310,0.025576360,0.007817150,0.009067360
1640782262.367200,-0.312602850,0.118984430,9.552812580,0.110931690,-0.051477560,0.013749300
1640782262.372049,-0.555929180,0.256928210,9.902910230,0.082823620,0.075463940,0.018839540
1640782262.372540,-0.023539930,0.436341200,9.710203170,-0.053560730,0.000295040,0.004677470
1640782262.376010,-0.374980300,0.462471690,11.059470180,-0.080049050,0.002525750,0.007544460
1640782262.377120,-0.065174090,0.298966140,9.873165130,-0.014559930,0.022953750,-0.018674140
1640782262.380960,0.095944620,0.448107060,9.561779020,0.094468900,-0.070655350,-0.050823400
1640782262.382089,-0.306996850,0.617997470,9.536001210,0.082974140,-0.014930960,-0.016377870
1640782262.388049,0.105608730,0.467306140,8.726206780,-0.084996210,0.016936660,0.021351880
1640782262.389619,-0.088579830,0.185533780,10.110159870,-0.113962590,0.015503170,0.044792890
1640782262.391120,-0.199240730,-0.070353340,10.591188430,-0.026801230,0.058098150,0.032742320
1640782262.392370,0.071311180,-0.011822280,10.156353000,0.056196750,-0.037795300,-0.005359950
1640782262.395939,-0.160798830,0.030668320,9.969075200,0.054207450,-0.043258070,-0.035017730
1640782262.397120,-0.016268790,0.151291360,8.936424260,-0.071312490,0.047810380,-0.035221870
1640782262.401019,-0.102847730,0.061832010,9.163901330,-0.081120440,0.015524030,-0.011965630
1640782262.402180,-0.422498670,-0.194417220,9.989068980,0.031517450,-0.028555100,-0.010398030
1640782262.406139,-0.170534610,0.041955890,9.465469360,0.074496860,-0.035317230,-0.010189410
1640782262.407189,-0.258148040,0.130815240,9.972550390,0.043921170,-0.025156150,-0.005164740
1640782262.410910,-0.364973040,0.128070980,10.671944620,-0.050553690,0.069616740,-0.012907390
1640782262.412109,-0.080190520,0.362205150,9.980871200,-0.066955400,0.001494590,-0.022861370
1640782262.415949,-0.324868350,0.281695100,10.313730240,0.013604760,-0.097309060,-0.023829940
1640782262.417160,-0.101796480,0.458256210,8.954306600,0.059808790,-0.020194060,-0.023230910
1640782262.421640,0.126296240,0.590397060,8.603631020,0.015018880,-0.046259160,0.000242890
1640782262.424000,-0.165220770,0.308801000,10.401019100,-0.060367590,0.064730630,0.022666150
1640782262.426040,0.317163230,0.106340890,9.823717120,-0.062958900,0.085760650,0.011581180
1640782262.427120,-0.010203680,-0.045498970,11.108134270,0.013878940,-0.088131410,-0.025822220
1640782262.430930,-0.300134870,0.052544470,10.398028370,0.053295500,-0.006972250,-0.031261150
1640782262.432090,-0.126821340,0.264963120,8.660955430,-0.004245340,-0.104960810,-0.021356340
1640782262.436580,-0.695498230,0.209621040,9.677515980,-0.079728660,-0.060382480,0.007501240
1640782262.437980,-0.188624010,0.078564050,8.403944020,-0.066266960,0.128485260,0.031134490
1640782262.440970,-0.078582210,-0.118624230,10.146895410,0.034365050,0.003302100,-0.002911690
1640782262.443390,-0.310478840,-0.017040210,11.240571020,0.088471160,0.022020940,-0.015237930
1640782262.445960,0.428328390,0.209590020,9.212394710,0.009733440,-0.065718600,-0.015401840
1640782262.447140,-0.049778610,-0.010304220,10.406607630,-0.081619610,-0.056689980,-0.023801620
1640782262.451079,-0.037476010,-0.062613710,9.311210630,-0.033394990,0.089399520,-0.027179720
1640782262.452109,0.082939160,0.091048900,9.291595460,0.076054060,-0.062368820,-0.031182170
1640782262.457419,-0.573285820,0.217811390,10.403827670,0.109402850,-0.027097770,-0.007121270
1640782262.458540,-0.090961020,0.453923820,8.761776920,-0.007833540,-0.019177800,0.014683600
1640782262.460909,-0.306695280,0.451235830,10.351857190,-0.108550490,-0.044558930,0.024247170
1640782262.462100,-0.360627620,0.135729920,10.531036380,-0.048801310,0.097835060,0.015032290
1640782262.465960,0.154533450,0.106492990,9.824287410,0.077673800,-0.037887690,-0.038635720
1640782262.467140,-0.437102880,0.343881190,10.707794190,0.113506620,-0.072276580,-0.044001640
1640782262.471779,-0.202216390,0.412307110,8.773265840,-0.008919840,-0.036886330,0.005680320
1640782262.472600,-0.123055550,0.253092200,9.080910680,-0.106993340,-0.090563310,0.025926540
1640782262.475960,-0.401826290,0.004302650,10.056475640,-0.055442750,0.044654310,0.045885140
1640782262.477100,0.312221940,-0.052010090,9.486997600,0.047312680,0.038324300,0.016079840
1640782262.480909,0.165054280,0.121327760,10.821834560,0.104737280,-0.016959010,-0.029149650
1640782262.482110,0.100890360,0.284463760,10.151496890,-0.004966560,0.001144410,-0.029608610
1640782262.488400,0.294820490,0.198923450,9.194785120,-0.101809210,-0.066292290,-0.011785330
1640782262.489240,-0.447992320,-0.149024930,9.840024950,-0.023047630,-0.051444780,-0.000597540
1640782262.491250,-0.436333750,-0.141358940,9.029356960,0.087367000,-0.024914750,0.000171360
1640782262.492090,-0.462705490,0.044564230,9.562970160,0.125749420,-0.034122170,0.001327690
1640782262.495960,-0.589383130,0.120967580,10.265448570,0.011059640,0.024007260,0.005568560
1640782262.497100,-0.024578410,0.328629200,9.891288760,-0.111138840,0.037230550,-0.008061530
1640782262.501060,-0.150253680,0.237348260,10.654661180,-0.031197080,-0.023147470,-0.018318000
1640782262.502100,-0.066384930,0.245537330,10.058547970,0.082635870,-0.067357700,-0.046001380
1640782262.506569,0.197355630,0.603735690,8.763735770,0.105020400,-0.089509790,-0.036542120
1640782262.507230,-0.137070400,0.481693270,9.339637760,0.010913610,-0.026290120,0.016902390
1640782262.510919,-0.037608170,0.315719570,9.725282670,-0.104589780,0.062924630,0.038123130
1640782262.512080,-0.001675600,0.251154930,10.412724490,-0.058665880,0.000114740,0.032010670
1640782262.515980,-0.284992640,0.158694460,11.074937820,0.024020680,-0.056208680,0.016154350
1640782262.517140,-0.008118180,0.361536060,9.457342150,0.036241120,-0.048157570,-0.020016730
1640782262.524710,-0.072794640,0.429747190,9.163477900,-0.024889410,-0.064608450,-0.023469330
1640782262.525400,-0.182292030,0.148304890,9.383547780,-0.083346660,0.067053720,0.006075200
1640782262.526120,0.064726790,-0.115459660,9.281317710,-0.017385190,0.018297140,0.008654590
1640782262.527109,-0.275557010,-0.256761310,10.678947450,0.064186770,-0.077109050,-0.007694960
1640782262.530939,-0.120148900,-0.111498450,9.757822990,0.038026270,-0.004003940,0.000588600
1640782262.532080,-0.088629860,-0.064888920,9.756459240,-0.034172840,-0.057148930,-0.019088390
1640782262.536039,-0.402711090,-0.091662540,10.474768640,-0.054705140,0.031729050,-0.018250940
1640782262.539440,-0.006029710,0.049366050,9.152321820,0.014925000,0.017255550,-0.018256900
1640782262.540910,-0.315679100,0.106660480,10.113698960,0.107195990,-0.105968120,-0.015498700
1640782262.542070,-0.283602060,0.389060530,9.401332860,0.078380100,-0.023293490,0.003810230
1640782262.545930,0.058467100,0.503945230,9.110140800,-0.040137770,-0.059275330,0.026735670
1640782262.547140,-0.343251500,0.184169320,10.912017820,-0.064580130,0.043077760,0.014318520
1640782262.551120,0.072979970,0.180161880,10.028548240,0.029090050,0.050655010,-0.025510790
1640782262.554920,-0.133097680,0.334815620,10.703704830,0.099082290,-0.119851540,-0.036880370
1640782262.556959,-0.399357650,0.455464600,9.808013920,0.073188540,-0.057114650,-0.010728830
1640782262.557340,0.054918780,0.622387110,8.207839970,-0.066070260,-0.105474900,0.014291700
1640782262.560930,-0.274064660,0.391456630,9.713926320,-0.121761880,0.014948850,0.057595980
1640782262.562090,0.147229910,0.118292750,9.532816890,-0.019945200,0.119181000,0.032398100
1640782262.566439,0.225469590,0.160667300,10.877502440,0.066034500,-0.057886540,-0.023612380
1640782262.567780,-0.195344160,0.135617460,10.902886390,0.055409970,-0.046455860,-0.031083820
1640782262.571230,0.052929930,-0.061231060,8.970375060,-0.049005450,-0.104604660,-0.023551290
1640782262.572120,-0.385805900,-0.286491070,9.684503560,-0.066395100,-0.055120900,-0.021752720
1640782262.575950,-0.520700930,-0.316167770,9.228701590,0.030158460,0.063364220,-0.008641180
1640782262.577109,-0.234825780,-0.038150480,9.490662570,0.088796020,-0.065006320,-0.000558790
1640782262.580940,-0.392926960,0.317162780,10.344773290,0.034013390,-0.033091010,0.009140370
1640782262.582630,0.153462930,0.546455920,9.528468130,-0.084078310,0.021751230,0.029338900
1640782262.588990,0.119566660,0.364764090,10.716718670,-0.070275370,-0.013209880,-0.002750750
1640782262.590700,-0.211535190,0.234028120,10.686961170,0.066901750,-0.024142860,-0.050424040
1640782262.591369,0.027756760,0.463520740,9.236980440,0.125281510,-0.131049720,-0.045992440
1640782262.592069,-0.338513460,0.489265710,9.401905060,0.047357380,-0.081947450,-0.011168420
1640782262.595939,-0.390483710,0.514650820,9.208287240,-0.116823640,0.022427740,0.038436060
1640782262.597299,-0.083759520,0.381916610,9.809396740,-0.150333360,0.003883240,0.071202230
1640782262.601040,-0.162353220,-0.024536630,10.828351970,-0.008314850,0.014756620,0.032351910
1640782262.602140,0.202413600,0.007473250,10.203297620,0.097326940,-0.016692280,-0.026947260
1640782262.605980,0.103776470,0.149511690,9.989252090,0.074170520,-0.070753690,-0.026343760
1640782262.607129,-0.168365570,-0.198852400,9.623839380,-0.040318070,-0.052461030,-0.002220270
1640782262.610950,-0.026643970,-0.240438030,8.961812020,-0.076879570,-0.020334130,0.015424190
1640782262.612089,-0.234342320,-0.210815060,9.654776570,0.012306870,-0.006648900,0.023031230
1640782262.615949,-0.190413450,0.060200270,10.026473050,0.052721800,0.021672250,0.002656880
1640782262.617130,0.132450220,0.650274750,9.837101940,0.019696350,0.003616510,-0.013275440
1640782262.621209,-0.148522930,0.665071250,10.495473860,-0.066323580,-0.012308360,0.006456670
1640782262.622160,-0.096350360,0.382619230,9.996337890,-0.049926340,-0.004379450,0.004541870
1640782262.625939,-0.151114400,0.168866930,9.612268450,0.082956250,-0.093662740,-0.020056960
1640782262.627090,-0.489947890,0.035708550,9.766762730,0.112277260,-0.051857520,-0.005051490
1640782262.630960,-0.220584500,0.138755750,9.048795700,0.012671950,0.003880260,0.013612210
1640782262.632110,-0.269166710,0.138934850,10.239106180,-0.101989510,-0.007821620,0.012408200
1640782262.636370,-0.132123540,0.195012090,10.549839970,-0.111418950,0.047025090,0.029443210
1640782262.637539,0.225087820,0.289310340,10.049141880,0.015990430,-0.040625030,0.001941620
1640782262.640930,-0.063822980,0.368580400,10.481632230,0.101818150,-0.073796520,-0.039958950
1640782262.642069,0.121993180,0.670981230,8.768474580,0.027285520,-0.024057930,-0.012162330
1640782262.646270,0.123297490,0.455518070,9.094409940,-0.081737330,-0.037039820,0.018808240
1640782262.647189,-0.180115890,0.036458220,10.242630960,-0.089012110,0.090983520,0.027696790
1640782262.651199,0.014936970,-0.012224120,9.930562970,0.002697110,-0.010585780,0.016213960
1640782262.652099,-0.300911750,-0.102252470,10.788321500,0.068014870,-0.094309450,-0.014819210
1640782262.656370,-0.187507640,0.096492510,9.320603370,0.000719730,0.016500060,-0.026172400
1640782262.657130,-0.037418920,0.157603100,9.276951790,-0.103177150,-0.018675630,-0.007815660
1640782262.660920,-0.440744970,-0.234218390,10.287542340,-0.041434180,0.064063070,0.013355910
1640782262.662160,-0.073595750,-0.184379310,9.284487720,0.080195070,-0.036892300,-0.000198190
1640782262.665930,-0.175004380,0.103727740,10.106107710,0.109566750,-0.100268430,0.002649430
1640782262.667209,-0.134856450,0.251310380,9.594289780,-0.003677610,0.064934800,0.029881300
1640782262.672520,0.169047580,0.300690200,9.968547820,-0.108945370,0.014734270,0.000636280
1640782262.673040,-0.275361150,0.409893600,11.184438710,-0.036080180,0.023220480,-0.017450750
1640782262.675949,-0.040330580,0.583174110,9.494319920,0.066736350,-0.053505590,-0.022186340
1640782262.677120,-0.156967920,0.789113880,9.555460930,0.054985280,-0.117301950,-0.015062090
1640782262.680980,-0.357734920,0.900522890,9.103232380,-0.059199340,0.036622590,0.031387810
1640782262.682090,0.098665280,0.459165810,8.995505330,-0.148934130,0.015337770,0.068069990
1640782262.686550,0.035467590,-0.026032110,10.774513240,-0.054396690,0.061534350,0.041721760
1640782262.687110,0.200422730,-0.236207750,10.363124850,0.069564590,0.058232260,0.005379320
1640782262.690940,0.104150270,-0.188029530,10.440342900,0.049953160,-0.090534990,-0.026133660
1640782262.692099,-0.249644410,-0.201732050,9.783221240,-0.044845050,-0.037139650,-0.038179760
1640782262.695950,-0.136871930,-0.147287470,8.458855630,-0.121986890,-0.022462010,-0.016392770
1640782262.697110,-0.301278230,-0.065911640,9.474061010,-0.045448550,0.039006770,0.003662710
1640782262.701020,-0.358180460,0.067087080,10.006213190,0.076028700,0.080195070,-0.004957620
1640782262.702139,0.012998490,0.578866600,10.052210810,0.056405380,-0.034254790,0.022101400
1640782262.706020,-0.040817410,0.545997920,10.508628850,-0.045248870,0.004363060,0.040152670
1640782262.707110,0.089279820,0.149237080,9.940524100,-0.094228980,0.059680640,0.007899110
1640782262.711050,-0.081719960,0.081077960,10.086075780,0.023058050,-0.017391140,-0.026766950
1640782262.712110,-0.462493210,0.044043280,9.811317440,0.110815470,-0.047636030,-0.029787420
1640782262.715910,-0.310247390,0.321130570,8.797169690,0.037690990,-0.062190000,-0.009992720
1640782262.717219,-0.284862400,0.570694270,9.341958050,-0.095255680,0.011666120,0.040589280
1640782262.722339,-0.234978810,0.334269490,10.406962390,-0.157664720,0.118574510,0.054363920
1640782262.723179,0.185337190,0.189590720,10.619659420,-0.023365020,0.045008950,0.011301040
1640782262.726040,0.080324080,0.224590880,10.939653400,0.112454590,-0.061516470,-0.033329430
1640782262.727300,0.076538960,0.274532530,9.547434810,0.056724250,-0.026433170,-0.023894010
1640782262.730890,0.002667810,0.189721230,8.763448720,-0.047080230,-0.050248220,0.011147560
1640782262.732090,-0.326977220,-0.025375950,9.544054030,-0.114403660,0.015324350,0.033469490
1640782262.736529,0.010518480,-0.035182110,9.171552660,-0.065338620,0.095818920,0.047904250
1640782262.738420,0.060483990,0.038500780,10.448129650,0.043754270,0.035759800,0.015014410
1640782262.740970,-0.064615680,0.293387530,10.852580070,0.019879640,0.063854460,-0.008563700
1640782262.742200,0.153051360,0.393972810,9.579618450,-0.052239000,-0.022800270,0.006932020
1640782262.745940,-0.303432020,-0.060074880,10.192669870,-0.050421060,-0.051575900,-0.002650920
1640782262.747150,-0.376283760,-0.187418460,9.030367850,0.017639990,0.038187210,-0.008960070
1640782262.751000,-0.326306250,-0.056767560,9.036148070,0.087456410,-0.028663880,-0.010786950
1640782262.752139,-0.535772380,0.125546710,10.329422000,0.027963520,0.062020130,0.000399350
1640782262.756340,-0.001646950,0.541856940,9.544431690,-0.101789820,0.069402140,0.011058150
1640782262.757830,-0.030790540,0.477923040,10.964650150,-0.113318870,-0.012229380,0.024682290
1640782262.760939,0.002493580,0.218502880,10.482368470,0.006757680,0.072653590,0.008565190
1640782262.762120,0.237835330,0.347948130,9.346040730,0.119020040,-0.070340940,-0.024656950
1640782262.765950,-0.159806150,0.308010040,9.859631540,0.082018970,-0.018948320,0.004804130
1640782262.767700,0.045444810,0.191758380,8.615420340,-0.080423040,0.081746270,0.034283090
1640782262.773810,-0.094629060,0.111039020,10.076483730,-0.140272080,-0.002263490,0.027717660
1640782262.775159,-0.280837860,0.061759970,10.732795720,-0.037585200,0.100669260,0.015357140
1640782262.776000,0.024332970,0.202182930,9.745560650,0.047318640,-0.020173190,-0.024412570
1640782262.777089,-0.256810190,0.426516830,10.383586880,0.043211890,-0.041164460,-0.032912200
1640782262.780900,-0.206911100,0.322046970,9.054865840,-0.051277880,0.099880990,0.003053250
1640782262.782080,-0.172090800,-0.038372930,9.578287120,-0.068730120,-0.014795360,0.030565260
1640782262.786409,-0.468522220,-0.297081410,10.287528040,0.035445400,0.039425490,0.030881170
1640782262.790530,-0.059869220,-0.181457150,9.114230160,0.063632440,-0.010068710,0.011512640
1640782262.792009,-0.080202640,-0.025183620,10.197396280,0.007717310,-0.007760530,-0.003492830
1640782262.792389,-0.041175810,0.168284100,10.012236600,-0.055979200,0.137376790,-0.031761830
1640782262.795950,0.213664160,0.381052640,10.023003580,-0.082099430,0.019320840,-0.024172660
1640782262.797099,-0.198587640,0.323981610,10.709491730,0.036719440,0.004920360,-0.010120870
1640782262.801030,-0.092228090,0.501610040,9.059015270,0.090135660,-0.039544710,-0.007434190
1640782262.802120,-0.183042210,0.671943900,9.172983170,0.007276240,-0.066764660,0.045216080
1640782262.806680,-0.401730840,0.302744060,9.739227290,-0.089311610,0.118912760,0.058773170
1640782262.808810,-0.031811130,0.076366180,10.018900870,-0.088781100,0.080557160,0.015321370
1640782262.810950,-0.339868990,0.093813260,11.324710850,0.021967290,0.000359120,-0.021690130
1640782262.812130,-0.247166400,0.190763470,10.001958850,0.069175660,-0.046657030,-0.042331220
1640782262.815940,0.057933870,0.448150340,8.825357440,-0.025808820,-0.064846870,-0.028434400
1640782262.817160,-0.123500230,0.471286830,9.232184410,-0.119693580,0.078240020,0.025530160
1640782262.821430,0.195322930,0.035857610,9.387301450,-0.103366370,0.125263600,0.061841310
1640782262.822340,0.258368730,-0.068760020,10.400981900,0.040936470,0.037293140,0.042368480
1640782262.826439,0.039338730,-0.125159250,10.686338420,0.094184280,-0.003387030,0.023344160
1640782262.827149,0.166909960,-0.195106580,9.565279010,0.000299510,-0.008335710,-0.004905460
1640782262.830910,-0.234754560,-0.243813080,9.845788960,-0.072096290,0.014701490,-0.033652790
1640782262.832090,-0.481782620,-0.248048590,9.771433830,-0.050456820,0.070208320,-0.038914380
1640782262.836279,-0.361238990,0.054155420,9.245829580,0.068724160,0.024829810,-0.024704640
1640782262.840659,-0.667753040,0.510299920,10.163670540,0.087389340,-0.037875770,-0.008611380
1640782262.841509,-0.273030850,0.832001510,9.303577420,-0.050222870,0.045676530,0.049443540
1640782262.842110,0.047004640,0.490526620,9.809141160,-0.091646610,0.051671270,0.061385340
1640782262.845960,-0.071728560,0.069751950,11.235626220,-0.001376870,0.093574820,-0.002589820
1640782262.847139,0.349993800,0.153356220,9.794336320,0.118649010,0.039012730,-0.023770330
1640782262.851100,0.019818680,0.182722360,10.067832950,0.104077180,-0.112088050,-0.030198700
1640782262.852160,-0.107923540,0.324801590,9.195418360,-0.075803700,0.028166170,0.000482800
1640782262.856510,0.206727090,0.344666660,8.272040370,-0.165481870,0.037355720,0.038972500
1640782262.857689,-0.199475380,0.005742440,10.704382900,-0.062620650,0.103013220,0.030967600
1640782262.860940,0.102248350,0.060812250,10.083918570,0.088556110,0.140570100,-0.001306830
1640782262.862140,0.062760820,0.190438940,10.434585570,0.117015850,-0.055110450,-0.008536880
1640782262.865949,-0.474596380,-0.090772200,10.542048450,0.001914800,0.023654100,0.012485680
1640782262.867620,-0.284884570,-0.239136580,8.555458070,-0.083433080,-0.015906990,0.007769470
1640782262.871240,-0.667596220,-0.293884840,9.710771560,-0.011074540,-0.029982630,0.001481180
1640782262.874660,-0.443395500,-0.060939410,9.176058770,0.087396810,0.129035120,-0.007037820
1640782262.875959,-0.041570430,0.539065780,9.614227290,0.056692970,0.022692980,-0.021484500
1640782262.877130,-0.134397300,0.830906510,11.051158910,-0.050006810,0.067067150,0.013594330
1640782262.880950,0.312867280,0.572915970,9.823694230,-0.097122790,0.052899120,0.026494270
1640782262.882120,0.100330280,0.223443240,10.536376000,0.030630830,-0.062689190,-0.004453960
1640782262.889070,-0.214918790,0.202403620,9.714416500,0.151401770,0.017477570,-0.002197920
1640782262.892060,-0.002422860,0.145685430,8.573574070,0.067839030,-0.026938320,0.010541080
1640782262.892640,-0.401382710,0.234236060,10.006933210,-0.076581540,0.040648880,0.028069320
1640782262.893010,-0.253680290,0.233571200,9.744019510,-0.153860450,0.112511230,0.033736230
1640782262.895949,-0.128567400,0.180692550,10.551172260,-0.066858540,-0.018277760,0.001068410
1640782262.897159,-0.324676810,0.430066080,10.678184510,0.086507210,0.017264490,-0.024509430
1640782262.901019,0.068580050,0.514827850,9.083541870,0.057281560,-0.006541610,-0.019019840
1640782262.905740,-0.053504210,0.301418070,9.645744320,-0.036893790,0.016590950,0.036381190
1640782262.906679,-0.158990040,-0.217407600,9.618157390,-0.045648210,0.099079300,0.048416850
1640782262.908690,0.043911030,-0.410726670,9.664247510,0.005479160,-0.020147860,0.038421160
1640782262.910940,-0.162115710,-0.306991730,10.191384320,0.075197230,-0.011509660,0.013160710
1640782262.912140,0.027249790,-0.079420050,9.349944110,0.014071160,0.057686860,-0.029462580
1640782262.916000,-0.079884920,0.299937430,9.963946340,-0.070750710,0.037571780,-0.035242730
1640782262.918089,-0.440821140,0.167576000,10.521689410,-0.019405780,0.042565160,-0.009596350
1640782262.922580,-0.236727010,0.185604840,9.614027020,0.080321730,-0.053623320,-0.005683300
1640782262.923540,-0.312364190,0.455108850,9.511846540,0.114804520,-0.038543350,0.027352580
1640782262.926440,-0.300040160,0.352575690,9.560348510,0.010731820,0.072537370,0.050637130
1640782262.927690,-0.028815500,0.312787180,9.899608610,-0.079326330,0.064642730,0.030170380
1640782262.930960,-0.118967930,0.282885280,10.798355100,-0.042407230,0.012877590,0.006879870
1640782262.932099,-0.025432230,0.250229920,10.207700730,0.039684770,-0.011922420,-0.027354060
1640782262.938920,0.053154960,0.529348790,9.140851020,0.064504150,-0.062789020,-0.030708310
1640782262.940690,-0.249295400,0.563225980,9.530101780,-0.033193830,0.000704820,0.012643640
1640782262.941570,-0.081867240,0.243828330,9.281571390,-0.094899540,0.099991260,0.060510640
1640782262.942129,-0.098805440,-0.113208230,10.201402660,-0.038322810,-0.003093480,0.043094160
1640782262.945930,-0.242814750,-0.345660690,10.714793210,0.057990850,0.005100670,0.011217600
1640782262.947110,0.033371110,-0.351255890,9.391017910,0.090585630,-0.003625450,-0.016659490
1640782262.951520,-0.381410630,-0.218466220,10.217635150,0.004357100,-0.039251150,-0.051336000
1640782262.952319,-0.424149360,-0.098659510,9.526092530,-0.058126450,0.059606130,-0.017298760
1640782262.958180,-0.133677330,-0.007228020,9.084327700,0.001235310,-0.041899090,-0.006514790
1640782262.959339,-0.409371410,0.254156830,10.496714590,0.078466530,-0.010055300,0.005693730
1640782262.960970,0.049552470,0.611515880,9.171790120,0.063158580,0.058270990,0.030022860
1640782262.962139,-0.030317810,0.495476010,10.466572760,-0.009420520,-0.043623150,0.033725800
1640782262.966400,-0.222716900,0.179762880,10.713379860,-0.025461610,0.065472730,0.006678700
1640782262.968299,0.049677620,0.145458590,9.402081490,0.053900480,-0.061756370,-0.016742950
1640782262.971510,-0.524337830,0.127836290,10.482983590,0.110131520,-0.112886740,-0.031097240
1640782262.973080,-0.285723360,0.447317690,8.643928530,0.030379000,0.006562470,-0.014071170
1640782262.975940,0.006653780,0.579709710,9.056215290,-0.102612380,-0.024446850,0.026513640
1640782262.977170,-0.186286810,0.253083140,10.892040250,-0.094500190,0.128033760,0.039139390
1640782262.980960,0.203423440,0.178675190,10.078218460,0.031578530,0.021766120,-0.002768640
1640782262.982859,-0.025863830,0.106689290,10.768198010,0.132755910,-0.149926530,-0.008557740
1640782262.986559,-0.190696870,-0.069951850,9.299227710,0.081448260,-0.025929510,-0.008130070
1640782262.991459,0.014934320,-0.141283420,8.449909210,-0.056849420,-0.036960840,-0.009630620
1640782262.992200,-0.350193500,-0.214272900,10.111429210,-0.057344140,0.066256520,0.008042160
1640782262.992669,-0.079233020,-0.168819080,9.775646210,0.030985480,0.059142720,-0.005692240
1640782262.995950,0.181772900,0.399506090,10.230996130,0.079515580,-0.071857880,-0.023482740
1640782262.997170,-0.053232640,0.632239340,10.397240640,0.022690000,0.017988680,0.009401140
1640782263.001200,0.005140170,0.280677290,9.635684010,-0.047294800,-0.003011520,0.010229650
1640782263.002139,-0.283536700,-0.019422580,10.174545290,0.049398850,-0.050225850,-0.011555850
1640782263.006600,-0.475988720,-0.181473540,9.507996560,0.152993200,-0.017969310,-0.021706520
1640782263.007470,-0.306515010,0.091523630,9.124366760,0.105088970,-0.053361070,-0.023758420
1640782263.010970,-0.381743640,0.544349070,9.866842270,-0.044813760,0.010614100,0.012974440
1640782263.012140,-0.072724480,0.508449440,9.982720380,-0.161997960,0.063031900,0.031627720
1640782263.015960,0.144037980,0.402380170,10.547892570,-0.045850870,-0.001724060,-0.000394880
1640782263.017640,-0.022576260,0.464088710,10.550041200,0.145620120,-0.048628450,-0.019866230
1640782263.021240,0.085029810,0.444866210,9.313417430,0.130726400,-0.066821280,0.014024980
1640782263.023480,-0.113596890,0.135233070,9.217192650,0.013367830,-0.040256980,0.034773350
1640782263.025920,-0.185342210,-0.149354030,9.547291760,-0.098177810,0.037783390,0.047679250
1640782263.027119,-0.021159720,-0.230058950,9.704059600,-0.059635950,0.028836730,0.027461350
1640782263.031149,-0.033761470,-0.085941790,10.322623250,0.068540880,-0.021192430,-0.027742980
1640782263.032130,-0.011851940,0.428646980,10.079788210,0.045007470,0.017325580,-0.051108010
1640782263.036749,-0.055179190,0.625099780,9.703901290,-0.046563140,-0.011332330,-0.006307660
1640782263.037360,-0.414079700,0.126064730,10.358284000,-0.047440830,-0.041951240,0.013008710
1640782263.040930,-0.343341770,-0.111946880,9.370881080,0.060103840,-0.022098420,0.022169950
1640782263.042100,-0.336121620,-0.081648800,9.397497180,0.133141880,-0.069729990,0.019910940
1640782263.046300,-0.398888440,0.018177480,10.110908510,0.038068000,0.039961950,0.013370810
1640782263.047160,0.102778930,0.372636620,9.568628310,-0.112731760,0.068373980,0.011824070
1640782263.051040,0.027280110,0.344705760,11.092353820,-0.105108340,-0.011682510,-0.003507730
1640782263.054149,0.096064060,0.404029850,10.239717480,0.046718120,0.010615590,-0.032697620
1640782263.057160,0.236642760,0.840903340,9.118587490,0.098973510,-0.120304530,-0.037054720
1640782263.059209,-0.146387520,0.787965000,9.706113820,-0.001196560,-0.005228820,0.024095170
1640782263.060969,0.040251090,0.416036100,8.916085240,-0.110356510,0.104106960,0.059059270
1640782263.062600,-0.193845390,0.014268270,10.817440990,-0.085820270,-0.010333960,0.039306290
1640782263.065970,-0.315934450,-0.191402990,10.691795350,0.035893920,0.024712090,0.014680620
1640782263.067270,-0.036135350,-0.043005930,9.297276500,0.050568580,-0.086940820,-0.025278330
1640782263.070960,-0.408437670,0.199370430,10.006893160,-0.058569010,-0.024455790,-0.037109850
1640782263.072589,-0.232099610,0.068980760,8.976111410,-0.120575730,0.091865660,0.000034270
1640782263.075970,-0.124972250,-0.155909110,9.969806670,-0.041328370,-0.032919650,-0.007365640
1640782263.077230,-0.228772270,0.057678030,10.475878720,0.091670480,0.010834640,-0.000235440
1640782263.080999,0.218681710,0.126876380,9.328803060,0.063994530,-0.024920700,0.022614000
1640782263.082090,0.015385360,0.103938620,10.426189420,-0.050289930,-0.001546740,0.010748210
1640782263.089510,-0.124402960,0.059444090,10.003889080,-0.071634350,0.087985400,-0.006967780
1640782263.090629,-0.091761920,0.023549710,9.788797380,0.002093610,-0.069673370,-0.015719230
1640782263.091130,-0.501895310,0.325921300,10.074588780,0.086390980,-0.063142190,-0.035737450
1640782263.092100,-0.347026910,0.722612920,8.901685710,0.020930170,-0.036774580,-0.012403730
1640782263.095970,-0.181506690,0.766368270,9.630943300,-0.109899040,0.014381110,0.028947000
1640782263.097240,-0.216673280,0.405800070,10.652618410,-0.110645590,0.119550550,0.025783480
1640782263.101019,0.079219270,0.167585150,10.569795610,0.007228550,-0.001567600,-0.002293290
1640782263.102160,-0.054892700,0.156759290,10.455913540,0.104466090,-0.094251330,-0.012442470
1640782263.106160,-0.148895520,0.004264650,9.225323680,0.023946170,-0.072745990,-0.002673270
1640782263.107180,0.050426810,-0.062284640,8.602076530,-0.105983030,-0.013168160,0.011511150
1640782263.110999,-0.104356860,-0.258391860,9.785197260,-0.088360910,0.086115310,0.016102190
1640782263.112120,-0.023772940,-0.199993000,10.391995430,0.012367960,0.055257980,-0.016878540
1640782263.115939,0.237758590,0.339316790,10.191520690,0.071595600,-0.042426580,-0.028787550
1640782263.119069,-0.077746640,0.504789590,10.331441880,-0.016190110,-0.027830900,-0.006234650
1640782263.121039,-0.138602700,0.288175050,9.612586980,-0.091345630,0.008372970,0.000660120
1640782263.122160,-0.445908780,-0.022908600,9.749669080,0.007818640,-0.047403580,-0.007461010
1640782263.126010,-0.747271000,-0.170916890,9.923521040,0.108326990,-0.034734610,-0.015871230
1640782263.127580,-0.387967440,0.101403100,9.130279540,0.095100720,-0.004771350,-0.009672350
1640782263.130970,-0.299611690,0.418794420,10.154947280,-0.048585240,-0.014583770,0.007855890
1640782263.132120,-0.146441180,0.449552330,10.430711750,-0.162039730,0.073541720,0.021030010
1640782263.137040,0.311645030,0.363458400,10.051820760,-0.061248250,-0.020918250,-0.018568340
1640782263.137820,0.131159770,0.345957550,10.641188620,0.098240380,-0.058425970,-0.047108530
1640782263.141009,0.110236270,0.428922300,9.268654820,0.119476040,-0.002720950,-0.016711660
1640782263.144009,-0.009768920,0.370823320,9.277446750,0.001232330,-0.091479720,0.006929040
1640782263.145920,-0.417170110,0.081177610,10.065153120,-0.127209740,0.015445060,0.047896800
1640782263.147199,-0.049848690,-0.012514640,9.360194210,-0.106832410,0.025735800,0.038999330
1640782263.151049,-0.114782180,0.014183380,10.709695820,0.022375580,-0.021117930,-0.019338730
1640782263.152230,-0.123879030,0.299210370,10.215203290,0.059314080,0.053608420,-0.038041170
1640782263.156100,0.129080670,0.448504920,9.459860800,-0.019997350,-0.047780570,-0.018274780
1640782263.157199,-0.388466660,-0.006043180,10.307569500,-0.053097310,-0.020386280,0.010298190
1640782263.160960,-0.221723970,-0.187361690,8.972539900,-0.007638340,-0.009422000,0.007222590
1640782263.162200,-0.234797970,-0.215792280,9.677133560,0.069674860,-0.063711430,0.012736020
1640782263.166000,-0.398502680,-0.068906070,10.054846760,0.063414860,0.051413480,-0.005754830
1640782263.173100,0.114950930,0.303289470,9.516716000,-0.062502930,0.002440810,-0.021123880
1640782263.173699,-0.094513550,0.269780130,10.979619980,-0.080382830,0.016523900,-0.005681810
1640782263.174140,-0.131737440,0.149584740,10.164594650,0.033181910,0.000561770,-0.023667510
1640782263.176040,-0.014573350,0.300073890,9.653910640,0.125268070,-0.154671060,-0.026276710
1640782263.177179,-0.289422900,0.441550520,9.444749830,0.090992450,-0.014825170,0.011751060
1640782263.180930,-0.038108640,0.392552520,8.988828660,-0.062642990,0.064292550,0.035317250
1640782263.182160,-0.157862020,0.338063630,10.809869770,-0.109228480,0.032415980,0.028915700
1640782263.188670,-0.249106060,0.275617240,10.779319760,-0.008010860,0.011126700,0.010736290
1640782263.191740,0.008276800,0.372005880,9.827013020,0.065541270,-0.127014520,-0.031515960
1640782263.194239,-0.216651950,0.631523670,9.535736080,0.023064020,-0.045038750,-0.023791200
1640782263.194630,-0.144585160,0.336472120,8.867705350,-0.073941070,0.055730350,0.027684870
1640782263.195950,-0.064529660,-0.084378050,10.011596680,-0.064295540,0.021997090,0.025974210
1640782263.197219,-0.096335220,-0.207619940,10.549938200,0.044409930,0.024402140,0.015908480
1640782263.201050,0.073592330,-0.169348600,9.989863400,0.050584980,-0.049304970,-0.002147260
1640782263.202190,-0.069183170,0.014529640,9.965862270,-0.012515490,-0.040240590,-0.034779310
1640782263.206359,-0.301788750,0.097446450,9.718701360,-0.078691540,0.021092600,-0.042906410
1640782263.207209,-0.265589300,0.136809080,9.530324940,-0.040912630,-0.016738470,-0.024248660
1640782263.210940,-0.338299210,0.183912500,9.812571530,0.078228100,-0.037707380,-0.018045300
1640782263.212149,-0.320268270,0.393218130,9.783760070,0.086583200,-0.020468240,0.005531310
1640782263.215960,-0.072339110,0.458930520,9.803927420,-0.022514160,0.007306040,0.044420370
1640782263.217260,-0.213898580,0.086220910,10.600073810,-0.086902090,0.010341410,0.020454820
1640782263.221480,-0.156842950,-0.082930920,10.405426030,-0.010025500,0.000062580,-0.011347230
1640782263.224290,-0.176937800,0.013018360,9.893765450,0.114509460,-0.095659490,-0.041031840
1640782263.226070,-0.476064150,0.236243010,9.818923950,0.086624920,-0.093479480,-0.043673820
1640782263.227630,-0.131417740,0.661065220,8.666319850,-0.054214890,-0.023314350,0.007264320
1640782263.230919,-0.057611130,0.501063230,9.811017990,-0.142477450,0.008337200,0.032064320
1640782263.232149,0.018967240,0.311556940,10.704417230,-0.057759880,0.082902620,0.010587280
1640782263.237609,0.410257640,0.415985760,10.154729840,0.091019280,-0.036394590,-0.018365680
1640782263.238890,-0.111658570,0.300808580,10.787216190,0.093051800,-0.114192080,-0.014831130
1640782263.241000,-0.108185570,0.121024940,8.912970540,-0.024001300,-0.045765930,0.007525090
1640782263.242179,-0.073147870,-0.149995250,8.758584980,-0.088022660,-0.073905290,0.010815260
1640782263.245940,-0.432692830,-0.368324910,10.066671370,-0.031580030,0.088940560,0.014793870
1640782263.247229,0.002233850,-0.066020730,9.562151910,0.065712620,0.041247900,-0.007463990
1640782263.251070,-0.157459450,0.412446530,10.916132930,0.033774970,-0.108502810,-0.023736060
1640782263.254949,-0.163693490,0.470655320,9.910408020,-0.081270930,0.020726030,0.009813900
1640782263.258839,-0.032152850,0.172612500,9.448583600,-0.072975440,-0.068087880,-0.016304850
1640782263.260460,-0.645496730,-0.107297720,10.598580360,0.079959620,-0.049285590,-0.033295150
1640782263.261090,-0.305154860,0.027053640,8.799077030,0.150740160,-0.030563780,-0.027099260
1640782263.262169,-0.163746580,0.276112050,9.468964580,0.048711900,-0.089335450,-0.007927420
1640782263.265940,-0.287054030,0.461198570,10.199687000,-0.128282610,0.076973450,0.034095350
1640782263.267279,0.263127300,0.447130140,9.891905780,-0.162085910,0.000375510,0.031813980
1640782263.271970,0.030810260,0.264211920,11.153460500,0.018860400,-0.070677710,-0.013844670
1640782263.274740,0.077476020,0.390161130,9.715106960,0.142490880,-0.035133960,-0.048145660
1640782263.275950,0.149539430,0.499223020,9.123630520,0.075839460,-0.091898450,-0.024476650
1640782263.277160,-0.366824980,0.171808000,9.890821460,-0.068162370,0.009319190,0.008925790
1640782263.280910,-0.077456530,-0.011377940,9.233357430,-0.131125750,0.009019670,0.028249620
1640782263.282160,-0.120129020,-0.082376880,10.236475940,-0.025568900,-0.033198290,0.024375320
1640782263.287109,-0.149573360,0.126648840,10.119959830,0.061634190,0.018379090,-0.023372470
1640782263.290330,0.219761700,0.536902430,9.523932460,-0.018191330,-0.013549630,-0.032083680
1640782263.292889,-0.137173210,0.362073720,10.244810100,-0.065892930,0.000214580,0.000511110
1640782263.293500,-0.141729470,-0.145805870,9.707595830,-0.042517480,-0.015151500,-0.000801680
1640782263.296160,-0.072652680,-0.209596100,9.564855580,0.084182610,-0.063709910,-0.003558400
1640782263.297710,-0.362828910,-0.189715970,9.718174930,0.118573010,-0.005579000,0.004141030
1640782263.301180,0.010475790,0.128928010,9.346413610,-0.034052140,0.029136240,-0.004319850
1640782263.302660,-0.031115850,0.300365000,10.181405070,-0.127643360,0.056695940,-0.002066790
1640782263.307090,-0.109345180,0.219227630,10.487012860,-0.058403610,0.034652650,-0.017918650
1640782263.308179,-0.068513890,0.359994500,10.178847310,0.094656650,-0.059434780,-0.036357340
1640782263.310920,-0.275604160,0.608052850,9.605598450,0.146818180,-0.107280930,-0.027269130
1640782263.312369,-0.135641570,0.601404610,8.876794820,-0.023989380,0.016792120,0.022356210
1640782263.316010,-0.031608670,0.418166910,9.579071040,-0.141766670,0.098069030,0.028161710
1640782263.317720,-0.130540430,0.199762570,10.902799610,-0.084131960,0.054137410,0.006121400
1640782263.321050,-0.071597750,0.228682030,10.491045950,0.035011770,-0.027896460,-0.019434090
1640782263.322559,-0.071331610,0.417602630,9.573584560,0.066648430,-0.125823920,-0.049774350
1640782263.326150,-0.203707250,0.361865580,9.227979660,-0.048471980,-0.008040660,-0.016631190
1640782263.327210,0.002360040,0.102410930,8.944582940,-0.114685280,0.123164070,0.023321810
1640782263.330960,-0.153958480,-0.307653460,10.566604610,-0.029678650,0.020138920,0.013133890
1640782263.332199,-0.065056060,-0.252515970,10.390645980,0.071537500,0.020945070,0.002938510
1640782263.336099,0.171528250,0.029960430,9.420816420,0.035472210,-0.067755590,-0.005069380
1640782263.337720,-0.256655780,-0.142344560,10.203367230,-0.056138640,-0.012043120,-0.029736760
1640782263.340999,-0.116205070,-0.057992960,9.178970340,-0.060059130,0.079523030,-0.049208120
1640782263.342200,-0.307020280,-0.014813260,9.941659930,0.045979020,-0.035311270,-0.046351550
1640782263.345970,-0.567997930,0.044717390,10.167498590,0.129823400,0.013260540,-0.039076810
1640782263.347270,-0.054206250,0.704145130,8.893455510,0.046385830,-0.039620700,-0.003701450
1640782263.356119,-0.369156030,0.680032430,10.377904890,-0.104914600,-0.015541910,0.046357510
1640782263.357499,0.024177340,0.314155100,9.656681060,-0.100517280,0.120607020,0.036130850
1640782263.358039,0.198650820,0.177095790,10.302850720,0.058478110,-0.027281050,-0.024528800
1640782263.358359,-0.363992630,0.038680780,10.924242020,0.181940210,-0.015860800,-0.033280260
1640782263.361320,0.009858290,0.214871150,8.605773930,0.102312890,-0.077398130,-0.027044120
1640782263.362500,-0.315157470,0.270080450,9.522637370,-0.092616670,-0.085018580,0.006791950
1640782263.366210,-0.219023470,0.184788960,9.441005710,-0.160102560,0.137880440,0.037540500
1640782263.367600,0.337296310,0.154490410,9.777684210,-0.030423700,0.057923800,0.007353720
1640782263.371690,-0.013200090,0.296774120,11.393660550,0.127154570,0.021496420,-0.039444860
1640782263.372220,0.240198660,0.522408070,9.498604770,0.096622120,-0.005041060,-0.015731160
1640782263.375949,0.028872620,0.170496640,9.488792420,-0.030469900,-0.088728960,0.012439490
1640782263.377499,-0.585079370,-0.310887100,9.660094260,-0.048442190,0.031924250,0.020681320
1640782263.380950,-0.220896070,-0.407525390,8.733352660,0.040312120,0.005872550,0.009946530
1640782263.382650,-0.410073640,-0.179179620,10.157886510,0.118753310,0.013938550,-0.019213560
1640782263.386020,-0.267538370,0.389648710,9.978874210,0.023908910,0.103896860,-0.034530460
1640782263.387960,0.097220750,0.608753030,10.071599960,-0.094568730,-0.006118420,-0.007469950
1640782263.391070,-0.316532110,0.231690660,10.734857560,-0.024199490,-0.014284250,-0.006005170
1640782263.392220,-0.109026600,0.112703550,9.313320160,0.126172600,-0.042171780,-0.029306120
1640782263.395990,-0.075932310,0.218982200,9.207468030,0.196203620,-0.059649350,-0.018575790
1640782263.397199,-0.317740680,0.204444810,9.559988980,0.059825170,0.075119740,0.001975890
1640782263.401190,0.099642110,0.382822040,9.681681630,-0.121535360,0.050504500,0.014021990
1640782263.402200,-0.074932560,0.362527010,10.704956050,-0.096096110,0.002799930,0.012946130
1640782263.406090,-0.044936600,0.291898700,10.252533910,0.028155740,-0.011344250,-0.031849750
1640782263.407270,0.157629400,0.736786720,9.421377180,0.117757920,-0.042104720,-0.060160460
1640782263.411180,-0.192179080,0.582416710,9.552170750,0.061705720,0.009626150,-0.011208650
1640782263.412200,-0.046691310,0.240064380,9.400000570,-0.066290800,0.071530040,0.024895370
1640782263.416339,-0.061564230,-0.031320020,9.925227170,-0.043320660,0.023397800,0.027790670
1640782263.417280,-0.233508470,-0.215348880,10.383055690,0.030334300,0.000892580,0.003597140
1640782263.421100,0.070894870,0.155948280,9.385305400,0.034199660,0.010488930,-0.038698320
1640782263.423339,-0.050533560,0.350515840,9.576099400,-0.021651390,0.016549230,-0.058813400
1640782263.425969,-0.253082690,0.247162130,9.992408750,-0.075463940,0.074800840,-0.035858150
1640782263.427179,-0.031408740,0.181562110,9.507161140,0.010620060,0.011505190,-0.021485980
1640782263.431010,-0.274657190,0.036845830,10.157925610,0.108726340,-0.048641860,-0.004582110
1640782263.432260,-0.018199510,0.090791440,9.329658510,0.066983710,0.060868270,0.021602220
1640782263.436090,-0.017480870,0.052075020,9.672763820,-0.034570690,0.040863450,-0.000806150
1640782263.437980,-0.348602710,-0.065125190,10.770380020,-0.064650190,0.062957410,-0.021527710
1640782263.440980,-0.060088550,0.062494620,9.576698300,0.015182790,0.009214880,-0.044843550
1640782263.442279,-0.435164810,0.295658770,10.139831540,0.106863700,-0.109097380,-0.061003870
1640782263.448619,-0.412217710,0.682055000,9.288263320,0.052994490,0.033710900,-0.015164910
1640782263.449260,0.039427220,0.700935720,8.950361250,-0.073571510,0.051075220,0.018779940
1640782263.451269,-0.291414680,0.347504380,11.062930110,-0.072604430,0.096771130,0.012014810
1640782263.452890,0.200248790,0.280060470,9.966918950,0.024305290,0.062239180,0.003075600
1640782263.455999,-0.055789240,0.197545950,10.288633350,0.090681030,-0.120775420,-0.025177000
1640782263.457229,-0.357154280,0.140484320,9.516761780,0.039823350,-0.013996660,-0.024038550
1640782263.460919,0.073469820,0.052643970,8.344214440,-0.069476660,0.011588630,-0.011293590
1640782263.462280,-0.387032240,-0.183380870,10.475800510,-0.058595850,0.060457000,0.007775430
1640782263.466430,-0.014775880,-0.095144200,9.795143130,0.054152320,0.111767670,-0.005036590
1640782263.468469,0.138061730,0.330222310,10.137512210,0.052870800,-0.059984610,-0.022701920
1640782263.470990,-0.334326180,0.413010930,10.322484020,-0.021669270,0.016522410,0.010992590
1640782263.472180,-0.022791120,0.115193140,8.867969510,-0.064171850,-0.014206770,-0.011448560
1640782263.476750,-0.456814470,-0.111276120,10.071777340,0.039489570,-0.047063830,-0.030523540
1640782263.477520,-0.465236460,-0.128697980,9.482939720,0.166879590,0.065454850,-0.029225650
1640782263.480970,0.013480920,0.273500800,9.304943080,0.084453830,-0.021027030,-0.037980080
1640782263.482420,-0.356603260,0.592779930,10.726328850,-0.087948140,0.057382890,0.004273650
1640782263.487229,0.024916820,0.519625430,9.798204420,-0.144554690,0.042732060,0.022688510
1640782263.488050,-0.024576390,0.443996550,10.276654240,-0.002442300,-0.085729350,-0.020168720
1640782263.490949,-0.300557640,0.472677350,9.754553790,0.143694880,-0.016067920,-0.030119720
1640782263.492179,0.130618720,0.412953380,8.697927470,0.100457670,0.006568430,-0.010712440
1640782263.495960,-0.216500790,0.197983400,10.303221700,-0.030249360,0.040644410,-0.001980360
1640782263.497239,-0.109626660,0.066624140,10.175474170,-0.114600370,0.059700010,0.017102060
1640782263.501250,0.274363960,0.043874070,9.823632240,-0.051663820,-0.034363570,0.002442300
1640782263.502339,-0.135997940,0.207394570,10.134099010,0.038993360,-0.018455090,-0.047391650
1640782263.506029,0.110001130,0.536482160,8.943966870,-0.005358460,0.029808280,-0.040225680
1640782263.507210,-0.004548160,0.328469010,9.423766140,-0.033655770,0.024732950,-0.009390710
1640782263.511030,-0.402162610,-0.193169530,10.414483070,0.000973050,0.033429260,-0.004261730
1640782263.512210,-0.034951330,-0.211095140,9.649782180,0.065758820,0.000269710,-0.002600250
1640782263.516250,-0.269005030,-0.242678980,10.003661160,0.078766030,-0.033891200,-0.002372260
1640782263.517239,-0.286773710,-0.069369020,9.744663240,-0.030645730,0.065900390,-0.024455780
1640782263.521999,-0.076896870,0.280078500,9.405805590,-0.072623800,0.036007170,-0.034824010
1640782263.522600,-0.444218750,0.157358620,10.460327150,0.005261600,-0.032553080,-0.035882000
1640782263.526219,-0.126729650,0.403101270,9.445351600,0.098302970,0.010469550,-0.042894480
1640782263.527220,-0.000618030,0.652806700,9.395316120,0.108051300,-0.032344460,-0.015184280
1640782263.530959,-0.238182400,0.471875490,10.387809750,-0.023992360,0.064849860,0.021068750
1640782263.532480,0.221047790,0.456381170,9.582369800,-0.095462800,0.083830960,0.013519830
1640782263.537119,-0.084095250,0.211388360,10.626409530,-0.013865530,-0.044976170,-0.003412370
1640782263.537619,-0.240135370,0.133046850,9.972465520,0.073778620,-0.001935660,-0.020229810
1640782263.541200,0.002380930,0.418205050,8.614789010,0.063967710,-0.066690150,-0.031512980
1640782263.543300,-0.381555910,0.246241360,9.874338150,-0.048646330,0.024555630,0.012005870
1640782263.545950,-0.037077380,0.040118250,9.473349570,-0.090995440,0.144180660,0.019435580
1640782263.547250,0.126418920,-0.101112180,10.340044980,0.024850670,-0.026802720,-0.007838010
1640782263.551070,-0.103904370,-0.056287350,10.638273240,0.089842090,0.024527310,-0.007534030
1640782263.555899,0.246733750,0.131958900,8.943655010,0.037460030,-0.005686280,-0.004923340
1640782263.556480,-0.413435220,-0.117760460,10.227849960,-0.015464430,-0.053228440,-0.014883280
1640782263.557819,-0.378733190,-0.155798000,9.213235860,-0.002431870,0.071883210,-0.013692680
1640782263.560979,-0.120666370,-0.025683420,9.244668010,0.075919930,-0.020696220,-0.026473400
1640782263.562170,-0.460634860,0.305682690,10.670018200,0.092980270,0.063236070,-0.021144750
1640782263.566380,0.156139820,0.806838570,9.315723420,-0.027543310,0.070834170,0.004971030
1640782263.567989,-0.003490790,0.495809230,10.621372220,-0.073865060,-0.034892560,0.028316680
1640782263.571200,-0.141994910,0.155070600,10.115830420,0.041435650,0.059272340,-0.004687900
1640782263.572180,0.141601710,0.150939110,9.121271130,0.148586940,-0.070001180,-0.015641750
1640782263.575990,-0.425239380,0.020371920,10.162672040,0.139929350,-0.004619360,-0.003431740
1640782263.577240,-0.114940730,0.267809990,9.009697910,-0.031387810,0.082845990,-0.006957350
1640782263.580940,-0.124598880,0.340746640,10.281002040,-0.143191220,-0.009053940,0.005070870
1640782263.582270,-0.245241640,0.295973510,10.596600530,-0.043581430,0.077010700,-0.011594600
1640782263.589249,0.257514300,0.629872560,9.336995120,0.071942810,-0.010661780,-0.049379480
1640782263.590410,-0.119246880,0.732854190,10.110372540,0.083972510,-0.013239680,-0.011238460
1640782263.591719,-0.005427500,0.328546790,9.086155890,-0.000800190,0.075919930,0.027196110
1640782263.592180,0.099316190,-0.178830250,9.752564430,-0.031425060,0.002045930,0.028584900
1640782263.595929,-0.495763540,-0.422358870,10.627708440,0.051181030,0.026264790,0.018268820
1640782263.597220,-0.123349040,-0.317368720,9.220134740,0.063371660,-0.028096140,-0.013583900
1640782263.600999,-0.266306730,0.074958280,9.841274260,-0.013051930,-0.003540520,-0.046655530
1640782263.602229,-0.463880960,0.263235690,9.842584610,-0.055833160,0.110450400,-0.030291090
1640782263.606289,-0.212366830,0.196245980,9.926491740,0.009916720,-0.020229820,-0.029994550
1640782263.607339,-0.514838870,0.255653680,10.311633110,0.135959700,-0.086598100,-0.029805310
1640782263.610940,-0.113985730,0.369654030,8.917810440,0.116705890,-0.007212160,0.002539160
1640782263.612210,0.072835320,0.288372190,9.621447560,-0.000438090,0.064148010,0.013303760
1640782263.616430,-0.264938830,0.175853940,10.875354770,-0.044676670,0.095251200,0.001673400
1640782263.617590,0.066208050,0.254846360,10.171063420,0.004482270,-0.043098630,0.000058110
1640782263.622980,-0.136489180,0.380199340,9.843013760,0.088854130,-0.120760500,-0.016619270
1640782263.624519,-0.285652010,0.567846360,9.089322090,0.051951410,-0.021778050,-0.010405480
1640782263.625949,0.046851900,0.616640930,8.873323440,-0.036108490,0.066122420,0.021381680
1640782263.627220,-0.216085000,0.200494710,10.526428220,-0.040334460,0.075751550,0.016689300
1640782263.630930,0.053280960,0.106961150,10.488822940,0.028821830,0.038035210,-0.013607740
1640782263.632150,0.099826650,0.202659100,9.869431500,0.071504710,-0.075192760,-0.013391670
1640782263.636119,-0.398790900,0.006842210,9.829102520,0.019977990,-0.075933340,-0.020456310
1640782263.640190,-0.161408170,-0.078532790,8.700539590,-0.030097370,0.027725100,-0.011567770
1640782263.640910,-0.310261820,-0.230193590,9.571302410,0.019702320,0.021463630,-0.008986890
1640782263.642210,-0.396812050,-0.198862580,10.362847330,0.079949200,0.045228010,-0.018668170
1640782263.645939,0.266858040,0.391726460,9.389357570,0.072309370,-0.004655120,-0.018204750
1640782263.647280,-0.123784830,0.538614750,10.486624720,-0.041809680,-0.024181610,0.008806590
1640782263.651199,-0.000415650,0.364805520,9.827111240,-0.076130040,0.047823780,0.002501900
1640782263.652429,0.079540330,0.221283360,9.467752460,0.053988400,-0.055873400,-0.024026630
1640782263.657090,-0.506496490,0.076284170,10.405923840,0.154039230,-0.015281140,-0.023305410
1640782263.657750,-0.051463060,0.329817150,8.805860520,0.112485880,0.013262030,-0.015141070
1640782263.660930,-0.364946840,0.435825820,10.131583210,-0.042988370,-0.056511170,-0.005795060
1640782263.662180,-0.344029100,0.398715590,10.192776680,-0.139562800,0.083988900,0.021165610
1640782263.665959,0.203967840,0.421165670,9.465058330,-0.033158060,-0.005860630,-0.017756220
1640782263.667590,-0.238495320,0.468511520,10.816083910,0.093542050,-0.042806570,-0.051409010
1640782263.672880,0.155460660,0.598630610,8.920198440,0.084382300,0.047263510,-0.012768810
1640782263.674190,0.006244000,0.261877980,9.595179560,-0.020164250,-0.064536940,0.007644300
1640782263.676280,-0.395883860,-0.127901640,10.376982690,-0.068768870,0.033473970,0.030010940
1640782263.677280,0.194678350,-0.277879090,8.974793430,-0.013966860,0.002345440,0.022017960
1640782263.680940,-0.194946330,-0.295964960,10.452457430,0.064690420,-0.016640130,-0.027966500
1640782263.682160,-0.141122560,0.173332180,9.587136270,0.015467410,0.092537700,-0.032049420
1640782263.691969,0.063942640,0.258390280,9.460991860,-0.064636770,-0.041721760,-0.007034840
1640782263.692560,-0.509859440,-0.098865480,10.515681270,-0.008969010,-0.004427140,-0.006160140
1640782263.693400,-0.171979170,-0.040102490,9.064827920,0.101801760,-0.026409330,-0.015741590
1640782263.694700,-0.293754250,0.059064330,9.895800590,0.140438970,-0.068065550,-0.012569130
1640782263.695920,-0.425421540,0.248248880,9.806097030,0.029130280,0.101035840,-0.003165010
1640782263.697240,0.068958740,0.484099330,9.693254470,-0.097879770,0.007225570,-0.011134150
1640782263.701200,-0.339391350,0.410354700,10.863833430,-0.028994680,-0.012797120,0.001531840
1640782263.702380,0.012301390,0.534706350,9.224693300,0.080564630,-0.050520900,-0.025199360
1640782263.706669,0.217796530,0.805114570,9.161868100,0.087846820,-0.078071650,-0.002431870
1640782263.707589,-0.074000690,0.518827680,9.756645200,0.001382830,0.110362480,0.038488210
1640782263.710909,0.327885510,0.145274060,9.777714730,-0.086805220,0.058244170,0.014980140
1640782263.712170,-0.065454270,0.002470630,10.977324490,-0.011864310,-0.016851720,0.004664060
1640782263.716390,-0.226302770,-0.105175630,9.758289340,0.061072410,-0.046420090,-0.015853350
1640782263.717520,-0.093541350,0.074527520,8.890474320,0.019533930,-0.092065340,-0.030167400
1640782263.721079,-0.517753480,0.122733060,9.291296960,-0.027620790,0.062245120,-0.000780820
1640782263.723750,-0.192519590,-0.038548410,9.311854360,-0.038976960,0.094798200,0.010979180
1640782263.725960,-0.098869470,0.161128460,10.433782580,0.052227090,0.008009370,0.007495290
1640782263.727239,-0.042603650,0.345063450,10.069906230,0.067169960,0.016912820,0.018888710
1640782263.730950,0.223096420,0.412522080,9.630978580,-0.022318960,-0.018391020,0.011999900
1640782263.732190,-0.208471750,0.269186350,10.066215520,-0.040401510,0.009278950,-0.005069370
1640782263.736280,-0.242035660,0.055605060,9.449064250,0.010953840,-0.012485680,-0.014092030
1640782263.737239,-0.080802070,0.131258040,9.263064380,0.083808610,-0.021502380,-0.034396350
1640782263.742659,-0.361638900,0.284119340,9.900825500,0.062184040,0.038684900,-0.019255280
1640782263.743219,-0.108629230,0.502577300,9.811199190,-0.070369240,0.040557980,0.023378430
1640782263.745900,-0.158933880,0.373210280,10.316105840,-0.116881730,-0.013299290,0.030405830
1640782263.747249,-0.272317410,0.206349920,10.267204280,-0.032073260,-0.010402500,-0.000941750
1640782263.751500,-0.021318460,0.339644880,9.287096980,0.077557560,-0.021517270,-0.017310680
1640782263.752440,-0.397108020,0.272392210,9.718201640,0.075004990,-0.030742590,-0.017368790
1640782263.756580,-0.331823470,0.299037930,9.532472610,-0.042532390,0.020010770,0.002132360
1640782263.757249,-0.023256940,0.225209000,9.328699110,-0.106422590,0.013250110,0.020824370
1640782263.760970,-0.293751120,0.037301540,10.615602490,-0.056995450,0.018668170,-0.008666510
1640782263.762210,0.197589530,0.368799060,9.483056070,0.019651650,0.032942000,-0.012654070
1640782263.766420,0.083207880,0.381777050,9.687254910,0.010126830,-0.047467650,-0.011889640
1640782263.767989,-0.234060120,0.062735010,10.012727740,-0.028283900,0.028583410,0.009903310
1640782263.770990,0.060484460,-0.214414020,9.007594110,-0.001432000,-0.010228160,0.011500720
1640782263.772210,-0.482879850,-0.498318760,10.369410510,0.052851450,-0.055925560,-0.014173990
1640782263.775970,-0.319250400,-0.286084770,9.338199620,0.069427490,0.048235060,-0.029835110
1640782263.777220,-0.138094890,0.192159790,9.444870000,-0.018680100,-0.031201540,-0.050580500
1640782263.780939,-0.598203600,0.381722690,10.649950980,-0.096276400,0.052772460,-0.025968260
1640782263.782790,0.002504230,0.490175430,9.253987310,-0.016805530,0.005020200,-0.021272900
1640782263.786150,-0.229839580,0.553671060,10.361506460,0.098833450,-0.117416690,-0.030125680
1640782263.790429,-0.125266580,0.585287090,9.349582670,0.095778710,0.052420790,0.005406140
1640782263.792420,0.262575270,0.387651320,9.085245130,-0.004042680,0.004173810,0.004470350
1640782263.792830,-0.305741130,0.078690810,11.069204330,-0.069591410,0.047956410,-0.006070730
1640782263.795920,0.051892840,0.043107770,9.489699360,-0.019072000,0.003935400,-0.008958580
1640782263.797430,-0.117198580,0.107426640,9.803162570,0.051686180,-0.145295260,-0.046406690
1640782263.801380,-0.392677550,0.327761320,9.474160190,0.019124150,0.037086010,-0.028981270
1640782263.802320,0.160122390,0.386180940,8.646198270,-0.050117080,0.048127770,-0.002375250
1640782263.805930,-0.156849910,0.097680440,10.820281030,-0.032299760,0.052402920,-0.005392730
1640782263.807250,0.071097010,0.095304920,9.987854960,0.043720000,0.056198240,-0.011968610
1640782263.810880,0.240874420,0.130255550,9.685892110,0.071202220,-0.098979470,-0.019833450
1640782263.812219,-0.389188380,-0.000398790,9.996436120,0.015513600,0.008104740,-0.024215880
1640782263.816120,-0.091484930,0.031453750,8.674070360,-0.049738590,0.005300340,-0.025530160
1640782263.817420,-0.363331760,-0.113112380,9.989041330,0.025677680,-0.005391240,-0.030769410
1640782263.822330,-0.349802850,0.065500300,9.709007260,0.098979470,0.061859190,-0.047427420
1640782263.823120,0.098098730,0.523019310,9.492253300,0.043748330,-0.014832620,-0.021986670
1640782263.825970,-0.310287560,0.386886890,10.546906470,-0.035038590,0.049716230,0.014244020
1640782263.827250,-0.171761930,0.170659140,9.842554090,-0.040635470,-0.007878240,-0.005453830
1640782263.831060,-0.230476770,0.078262950,9.908149720,0.093375130,-0.101537990,-0.017485020
1640782263.832229,-0.392276140,-0.026527600,9.371320720,0.158797200,0.005981330,-0.041124220
1640782263.836140,-0.025176720,0.316338180,9.129421230,0.045487280,0.022293630,-0.042176240
1640782263.838100,-0.328895540,0.453720720,10.548581120,-0.063343340,0.063842540,-0.000298020
1640782263.840920,-0.085248810,0.389127280,10.070251460,-0.071474890,-0.003872810,-0.010602180
1640782263.842229,0.115893390,0.614407660,9.731008530,0.025749210,-0.082610550,-0.029081110
1640782263.846320,-0.066097770,0.635796900,9.437378880,0.091286010,0.010406970,-0.011907520
1640782263.847260,0.068215700,0.358658310,9.311935420,0.030465430,0.035561620,0.003919010
1640782263.851019,-0.167124880,-0.035746920,10.363738060,0.015026330,0.021125380,0.004920360
1640782263.852200,-0.173528150,-0.406553090,9.988834380,0.039979820,-0.006994610,0.002896790
1640782263.856050,-0.026647730,-0.339055810,9.512672420,0.055943420,-0.056411320,-0.029325480
1640782263.857250,-0.272105540,0.006495820,9.472757340,0.034458940,0.043949500,-0.044713920
1640782263.860910,-0.270120320,0.213870150,9.467763900,-0.034245850,0.034157930,-0.022535030
1640782263.862520,-0.328042270,0.217772310,10.009366040,0.022166970,-0.028879940,-0.028550620
1640782263.866430,-0.217680130,0.208926320,9.687940600,0.120280680,-0.027297440,-0.029785930
1640782263.867519,0.039191430,0.257518200,9.571223260,0.124843440,0.017289820,-0.012651090
1640782263.870920,-0.183738280,0.211867290,10.374259000,0.081406530,0.050812960,-0.023363530
1640782263.872170,-0.181791770,0.250804420,10.153949740,-0.001613800,-0.009235740,-0.027850270
1640782263.875900,-0.097521280,0.389411210,9.593155860,-0.016038130,-0.070343930,-0.026898090
1640782263.877230,-0.276362420,0.392999560,9.459921840,0.049461430,-0.039960460,-0.033284720
1640782263.880960,-0.116362740,0.613967840,9.239406590,0.071908540,0.024603310,-0.019763410
1640782263.882530,-0.057434550,0.647094550,9.939672470,0.032494950,0.036640470,-0.000604990
1640782263.887130,-0.138062400,0.287704170,10.601720810,-0.007663670,0.041306020,-0.002926590
1640782263.888100,0.036532100,0.185128060,9.928241730,0.017556550,-0.016619270,-0.014664230
1640782263.890869,-0.231216820,0.047799370,10.014088630,0.061577560,-0.089971720,-0.033181910
1640782263.892239,-0.318197310,-0.002180860,9.108802800,0.048506260,-0.019189720,-0.031493600
1640782263.895990,-0.144158180,0.164767530,8.763952260,0.001327690,-0.002980230,-0.024366380
1640782263.897260,-0.372451840,0.044711600,10.275496480,-0.015072530,0.057423120,-0.029999020
1640782263.901000,0.035180580,0.276373680,9.698297500,0.037184360,0.037702920,-0.037246940
1640782263.902240,0.025796880,0.595810060,10.314519880,0.040446230,-0.074110930,-0.034531950
1640782263.905920,-0.127857710,0.479835780,9.954876900,-0.008188190,0.030472880,-0.013555590
1640782263.907260,0.137488450,0.305920570,8.998994830,-0.007727740,-0.022849440,-0.019548830
1640782263.910960,-0.465228800,-0.078469430,10.408137320,0.051455200,-0.020945070,-0.033876300
1640782263.912230,-0.248724920,-0.205683050,9.068879130,0.118102130,0.026434660,-0.039561090
1640782263.916309,-0.246691200,0.057920820,9.718423840,0.078527610,-0.087180730,-0.053802130
1640782263.917320,-0.499188810,0.290820840,10.343720440,-0.053419170,0.068387380,-0.026807190
1640782263.920980,0.030768770,0.512249110,9.273527150,-0.094655150,0.016619270,-0.024220340
1640782263.922250,-0.222465860,0.536327720,10.820465090,0.000488760,-0.061450900,-0.046527380
1640782263.926309,0.019512300,0.696680490,9.229307170,0.097717350,0.031352040,-0.037747620
1640782263.931990,0.235900450,0.655981780,8.995350840,0.083088870,-0.067599130,-0.020107630
1640782263.934080,-0.336886110,0.313005920,10.429622650,-0.009466710,0.034807630,-0.006428360
1640782263.934790,0.119690600,0.112097870,8.994349480,-0.060413780,0.013631580,0.003707410
1640782263.936110,-0.079998790,-0.148044710,10.307304380,-0.000585620,-0.082381080,-0.036753720
1640782263.938099,-0.152842000,0.035599210,9.673279760,0.028006730,0.082984570,-0.063976630
1640782263.940899,0.078333170,0.283103970,9.176364900,-0.001446900,-0.022006040,-0.046920780
1640782263.942510,-0.486549560,-0.007530610,10.691637990,-0.009001790,-0.001217420,-0.024788080
1640782263.945920,-0.259307380,-0.154183610,9.191827770,0.035075840,-0.014078620,-0.017891820
1640782263.947310,-0.186900500,-0.190439970,9.630998610,0.105299070,-0.102832940,-0.011210150
1640782263.951020,-0.401654570,-0.159887390,9.880209920,0.090387460,0.094635780,-0.025168060
1640782263.952230,0.041893870,0.276392400,9.403912540,-0.019963080,0.025314090,-0.039036570
1640782263.955969,-0.328139480,0.461127370,10.967198370,-0.038385390,-0.029234590,-0.036919120
1640782263.958279,-0.173288320,0.621649740,9.520131110,0.009875000,-0.033569340,-0.053690380
1640782263.960889,0.060295970,0.971058850,9.068120960,0.064603990,-0.131897640,-0.038534400
1640782263.962180,-0.217476070,0.843201580,9.773441310,0.039966410,0.071720780,-0.001186130
1640782263.966300,0.152464820,0.527151350,9.422359470,-0.033488870,0.080813450,-0.010271370
1640782263.967450,-0.107607120,0.190539150,11.057576180,-0.020328170,-0.036977230,-0.012168290
1640782263.970929,-0.118923280,-0.078323270,10.025795940,0.022943320,-0.013403600,-0.018854440
1640782263.972190,0.033652450,-0.139145790,9.048377990,0.025486950,-0.094039740,-0.035041570
1640782263.975970,-0.429942070,-0.023222370,9.711916920,-0.005310770,0.004309420,-0.024588410
1640782263.977229,-0.085073280,-0.031158290,8.895691870,-0.056816640,0.079898540,-0.014270840
1640782263.980899,-0.074210990,-0.072088320,10.232117650,0.015674530,0.000746550,-0.021901730
1640782263.982479,-0.163384770,0.270371500,10.378530500,0.074864920,0.029397020,-0.030489270
1640782263.986100,0.242752120,0.474574980,9.349244120,0.001734500,-0.017674270,-0.016376380
1640782263.987779,-0.246054470,0.336065920,10.214473720,-0.013369320,-0.023560220,-0.021459160
1640782263.991279,-0.174470380,0.261710320,9.300086020,-0.006808340,0.044900180,-0.037597110
1640782263.992360,-0.220495130,0.189406500,9.562382700,0.055278840,-0.042447450,-0.027744480
1640782263.995900,-0.454087790,0.333210260,9.996223450,0.083389860,0.002560020,-0.032679730
1640782263.997269,0.038800560,0.611529410,9.159366610,-0.047457230,0.034239890,0.004649160
1640782264.001080,-0.220553580,0.424701630,10.499259950,-0.104542080,0.032849610,0.016228850
1640782264.002230,-0.114379440,0.128088460,10.368173600,-0.031639640,0.038370500,-0.015264750
1640782264.006189,0.078811860,0.183494250,9.498341560,0.076292460,-0.061357010,-0.039222830
1640782264.007320,-0.317288700,0.119677310,9.723031040,0.113347180,-0.042371450,-0.020414590
1640782264.010900,-0.080174970,0.098522880,8.928139690,-0.017945460,0.047166650,-0.012081860
1640782264.012230,-0.170906230,0.193984030,9.779856680,-0.095534320,0.002025070,0.000017880
1640782264.015930,-0.169568020,0.055606800,10.373774530,-0.048257410,0.035747890,-0.010640920
1640782264.017470,0.287015650,0.386214610,9.382299420,0.012612340,0.038492680,-0.045013430
1640782264.023180,-0.083013580,0.628784600,10.091818810,0.027404730,-0.015035270,-0.041772430
1640782264.025210,-0.139483570,0.306157620,9.740975380,-0.025503340,0.032132860,-0.001373890
1640782264.025940,-0.129139720,0.008370270,9.207121850,-0.011858340,-0.031317770,0.001707670
1640782264.027279,-0.464275900,-0.388973710,9.997089390,0.061473250,-0.036570430,0.011700390
1640782264.030860,-0.124134060,-0.424355630,9.376115800,0.085118420,0.096763680,0.003951790
1640782264.032230,-0.343926310,0.085303410,10.297836300,0.008159880,0.002799930,-0.032629080
1640782264.036029,-0.470148120,0.363867730,10.701024060,-0.096949940,0.010447200,-0.025276840
1640782264.038319,-0.000400570,0.615381780,9.124647140,-0.068737570,-0.018271800,-0.043079260
1640782264.040910,-0.306922380,0.839767990,9.845009800,0.047019130,-0.088034580,-0.049887600
1640782264.042199,0.027909520,1.005685090,9.128325460,0.071531540,0.089553000,-0.008736550
1640782264.045920,0.330823210,0.846717890,9.224419590,-0.013107060,0.044521690,0.025844570
1640782264.047279,-0.020358160,0.360900490,10.947505000,-0.090435150,0.037465990,0.036212800
1640782264.051030,0.449275880,0.046419940,9.457463260,-0.073431440,0.050349540,0.035737450
1640782264.052260,-0.114761410,-0.328534810,10.125583650,0.008803610,-0.098221000,-0.007916990
1640782264.056550,-0.562301810,-0.471976490,9.711212160,0.041958690,0.005240740,-0.044173000
1640782264.059310,-0.297836450,-0.285051940,8.354492190,0.004573170,0.001761320,-0.054444380
1640782264.060870,-0.867089810,-0.375476750,10.503793720,-0.027492640,0.007081030,-0.042393800
1640782264.062270,-0.287676130,0.122113200,9.478734020,-0.008171800,0.096245120,-0.027571620
1640782264.066350,-0.026478900,0.545823750,9.989539150,0.004076960,-0.049553810,-0.004579130
