# timestamp,accel_x,accel_y,accel_z,gyro_x,gyro_y,gyro_z
1640833850.924360,-0.101538330,0.202062060,10.397513390,-0.010396540,-0.077554580,-0.029742720
1640833850.925710,-0.048704860,0.395935860,9.747576710,-0.025871400,0.096759200,-0.010396540
1640833850.929070,0.279481770,0.438294500,9.477062230,-0.072118650,-0.085501370,-0.019596520
1640833850.930610,-0.369807570,0.364023210,10.994977950,-0.091604900,-0.033430760,-0.003823640
1640833850.934120,0.270341250,0.430047780,8.667746540,-0.081484020,0.006276370,-0.002464650
1640833850.935660,-0.167488190,0.173313510,10.219126700,-0.026226050,-0.102791210,-0.019802150
1640833850.939300,-0.146790770,0.223667870,9.719573020,-0.032757220,0.099232800,-0.019866230
1640833850.941600,0.460715230,0.287868890,8.933082580,-0.066649910,-0.023090840,-0.010930000
1640833850.945740,-0.286036220,0.078220640,11.123551370,-0.094252820,-0.000388920,0.008222460
1640833850.946350,0.304698470,0.041430430,9.113040920,-0.107501450,0.053101780,-0.006040930
1640833850.949250,-0.000300480,-0.200862060,10.034571650,-0.014032420,-0.134606640,-0.012521440
1640833850.958600,-0.289166240,-0.128088150,9.695415500,0.017592310,0.043281920,-0.017876920
1640833850.959160,0.309433400,-0.030517550,8.556006430,-0.021579860,0.046487150,-0.011132660
1640833850.959690,-0.520575700,-0.198848370,11.116714480,-0.050482160,0.025102500,0.000748040
1640833850.960170,-0.197765800,0.050226860,9.719252590,-0.042250750,0.000140070,-0.001165270
1640833850.961240,-0.096927030,0.087794300,9.393875120,0.013975800,-0.132966040,-0.015172360
1640833850.964180,-0.414943340,0.261625140,9.772343640,-0.004795190,0.076961500,-0.022649760
1640833850.965570,0.047274480,0.436058400,9.338405610,-0.006137790,0.068704790,-0.024898350
1640833850.969260,-0.266142250,0.329560190,10.662273410,0.011613960,-0.037536030,-0.008137520
1640833850.970710,0.040833080,0.455554310,9.536640170,-0.014662750,0.001637640,0.001072880
1640833850.974520,0.076937500,0.346137460,9.628293040,-0.025150180,-0.036409500,0.006428360
1640833850.975860,-0.269065890,0.196619630,10.261392590,-0.029337410,0.021356340,0.013904270
1640833850.979220,-0.006535620,0.144835050,9.545705800,0.003311040,-0.020928680,0.011703370
1640833850.980750,-0.121797830,0.019931340,9.993762020,0.029964750,-0.023061040,0.006273390
1640833850.984580,-0.043463680,0.340535220,9.773875240,-0.018724800,0.032848120,0.004644690
1640833850.986690,-0.120924030,0.498924230,10.031446460,-0.071723760,-0.029179450,0.007361170
1640833850.989150,-0.135911870,0.538354400,9.865583420,-0.103504960,-0.013312700,0.003044310
1640833850.990800,-0.014848040,0.620664360,9.597360610,-0.040934980,-0.036636000,-0.002159180
1640833850.994190,-0.066996980,0.528044220,9.985185620,0.021992630,0.004382430,0.000566240
1640833850.995630,0.167575880,0.567367550,9.498792650,-0.028488040,0.044898690,0.014470520
1640833850.999140,-0.060220940,0.334315480,10.094928740,-0.096093130,-0.015282630,0.027669970
1640833851.000810,0.058656250,0.154411760,9.765979770,-0.114013270,0.011895600,0.039997700
1640833851.004650,0.106468050,-0.113759110,9.455206870,-0.067126750,-0.029468540,0.031471250
1640833851.005540,-0.138856050,-0.274490650,9.903679850,0.003319980,0.011685490,0.005562600
1640833851.009120,0.146067100,-0.210984380,9.401750560,-0.000299510,0.050419570,0.002062320
1640833851.010520,-0.113710040,-0.196599040,9.912161830,-0.023855270,0.004281100,0.007069110
1640833851.014190,-0.141715170,-0.021756640,9.900225640,-0.070929530,0.037004050,0.023166840
1640833851.018950,-0.152185480,0.050205410,9.777672770,-0.066135850,-0.012049080,0.004643200
1640833851.019640,-0.362642790,0.053434630,9.753432270,0.029411910,-0.033415860,-0.003135200
1640833851.020590,-0.029558140,0.284165140,9.108014110,0.055284800,0.025171040,-0.015765420
1640833851.024090,-0.156397040,0.214325520,9.747425080,0.010827180,0.083041190,-0.006321070
1640833851.025640,-0.083142450,0.136481790,10.217198370,-0.017321110,0.046613820,0.030890110
1640833851.029140,-0.083511670,0.018275390,10.172229770,0.007876750,-0.056476890,0.014021990
1640833851.030550,-0.114507210,-0.118379180,9.294221880,0.030894580,-0.024047500,0.017341970
1640833851.034250,-0.032324850,-0.106998930,9.450208660,0.051352380,0.029562420,0.000742080
1640833851.035610,-0.362024310,-0.172859560,10.190938950,0.064581640,0.058627130,-0.013646480
1640833851.039230,-0.136545230,0.072181340,9.654866220,0.052335860,-0.021599230,0.001469250
1640833851.040560,-0.260730360,0.289656280,10.036973950,0.027267640,-0.045649710,0.004293020
1640833851.044040,-0.259843230,0.404055420,9.585145000,-0.008507070,0.036357350,0.004139540
1640833851.045610,-0.171206370,0.648790840,9.825500490,0.019961590,-0.041109330,0.010736290
1640833851.049410,-0.468041000,0.607280310,10.341469760,0.057238340,0.003647800,0.002282860
1640833851.051930,0.121775750,0.672637050,9.193613050,0.045959660,-0.014278300,0.008951130
1640833851.054080,-0.009040990,0.717014370,10.112486840,0.024038550,-0.020009280,0.024300810
1640833851.055820,-0.062289540,0.532481970,9.979671480,-0.055643920,0.060747570,0.021572410
1640833851.059080,0.245191440,0.514598970,9.646250720,-0.064533940,-0.055111940,0.024613740
1640833851.060580,-0.163293500,0.241267060,10.287609100,-0.001052020,-0.034250320,0.020824370
1640833851.064310,0.206655930,0.061712840,9.201354980,0.016658010,0.042770810,0.006823240
1640833851.065630,-0.030560550,0.148917600,9.933751110,0.021864470,-0.012278560,0.010138750
1640833851.069130,-0.306325350,0.111545230,10.040828700,-0.048244000,0.028581920,0.010591750
1640833851.070600,0.144066750,0.254061520,9.234252930,-0.082661220,-0.019343200,0.023102760
1640833851.074110,-0.279931130,0.221215890,10.031260490,-0.051183990,0.004136560,0.018896160
1640833851.075650,-0.082932990,0.151742120,9.719074250,-0.007122760,0.043936070,0.004011390
1640833851.079200,0.091239180,0.285132410,9.664294240,0.059057770,-0.014817710,0.002768640
1640833851.084810,-0.077266570,0.250357240,9.676066400,0.000432130,0.042603910,0.006921590
1640833851.085700,0.196896090,0.164235960,9.673357010,-0.078456110,0.066393630,0.029657790
1640833851.086430,-0.154600920,0.026703380,10.104142190,-0.039520860,0.011800230,0.024287400
1640833851.089540,-0.125921850,-0.046335840,9.509374620,0.013534730,-0.057885050,0.002889340
1640833851.090590,-0.011224930,0.004395410,9.241114620,0.051699590,0.041858850,0.008675460
1640833851.094110,-0.161252590,-0.079583730,9.661491390,0.009272990,0.105358660,-0.007630880
1640833851.096090,-0.256464480,-0.064580050,10.620612140,0.006496910,0.019870700,0.003021960
1640833851.099080,-0.219495270,0.177669540,9.695972440,0.022521620,-0.011029840,0.026175380
1640833851.100530,-0.112963240,0.151049970,9.292195320,-0.013935570,-0.036568940,0.006175040
1640833851.104100,-0.257175330,0.286022420,9.895966530,0.020533800,0.072102250,0.003467500
1640833851.105530,-0.102757440,0.408360000,9.323540690,0.041893120,0.051216790,-0.009061400
1640833851.109090,-0.165604400,0.374787000,10.354969020,0.039114060,-0.038465860,0.013546650
1640833851.110740,-0.016693830,0.626120270,9.721560480,0.005245210,0.068236890,0.024668870
1640833851.114200,0.038245740,0.550420700,9.722540860,-0.048650800,-0.030091400,0.021027030
1640833851.115650,-0.375052660,0.413522120,10.446678160,-0.032240160,-0.001196560,0.036659840
1640833851.119100,0.066571470,0.422597770,8.983847620,-0.008684400,0.034250320,0.005064910
1640833851.120530,-0.227323130,0.224336700,10.343642230,0.027196110,-0.029750170,0.015287100
1640833851.124090,-0.232168240,0.484669150,9.821094510,0.009669370,0.070375200,0.022296610
1640833851.125590,0.125730560,0.453522240,9.241898540,-0.093965240,-0.031417610,0.006827710
1640833851.132710,-0.352999540,0.431320340,10.573675160,-0.106637200,0.013798480,0.036920610
1640833851.133490,0.048318760,0.532960770,9.393115040,-0.041851400,0.037768480,0.005993250
1640833851.134180,-0.094794650,0.340383560,10.177390100,-0.008073450,-0.063455110,0.008572640
1640833851.135600,-0.161299470,0.439644840,9.651840210,-0.019778310,0.054502490,0.032958390
1640833851.139380,0.285008820,0.346008840,9.243721960,-0.080567600,0.011517110,0.008258220
1640833851.140610,-0.138577390,0.273816530,10.576501850,-0.121583060,0.056517130,0.054413090
1640833851.144220,0.151178490,0.241461680,9.422594070,-0.104703010,0.040914120,0.041663650
1640833851.145580,0.058396400,-0.059017000,10.143520360,-0.031965970,-0.077496480,0.017020110
1640833851.150290,0.072682790,0.081561330,9.288467410,0.006856020,0.079044700,0.032031540
1640833851.150790,0.274680080,0.061540330,9.195507050,-0.042594970,0.059950350,0.034305460
1640833851.154070,-0.219692620,-0.090599250,10.907838820,-0.094385450,0.081039970,0.041316450
1640833851.155850,0.130064920,0.112477030,9.281338690,-0.069053460,0.017769630,0.030519070
1640833851.159160,-0.100659940,-0.005682460,9.865265850,-0.015096370,-0.092349950,0.025942920
1640833851.160550,-0.130177420,0.048358450,9.268266680,-0.023616860,0.150880230,0.018769510
1640833851.165320,0.016738980,0.072879290,9.309584620,0.004149970,0.040474540,0.012336670
1640833851.165840,-0.490695830,-0.022818460,10.844992640,0.009717050,0.029864910,0.026729700
1640833851.169050,0.228833570,0.241031330,8.607375140,-0.044041880,0.078921040,0.037816170
1640833851.170580,-0.090455680,0.001118260,10.212676050,-0.044499340,-0.016815960,0.032222270
1640833851.174070,-0.274401370,-0.053110040,9.984410290,0.007663670,0.121884060,0.022000070
1640833851.176060,0.254494610,0.008822840,8.687496190,0.062787540,-0.025548040,0.005243720
1640833851.179130,-0.375628830,-0.102455210,10.523320200,0.060966620,0.054380310,0.024005770
1640833851.180720,0.147055460,0.112354710,9.112489700,-0.004014370,0.147156430,0.026611980
1640833851.184100,-0.217425080,0.038787890,10.496609690,0.008794670,-0.066280360,0.019745530
1640833851.185670,-0.462019920,0.221397890,10.073855400,0.005520880,0.062385200,0.005558130
1640833851.189110,0.148138690,0.338169460,8.701398850,0.038345160,0.015993410,-0.007636850
1640833851.190600,-0.575262610,0.341753780,10.864458080,0.080965440,0.040803840,-0.000758470
1640833851.194140,-0.128530930,0.655862210,9.374620440,0.020281970,0.094661120,-0.006192920
1640833851.195610,-0.035259190,0.607833800,9.769075390,-0.015030800,-0.071369130,0.011995440
1640833851.199100,-0.368944230,0.600279810,10.311806680,-0.048978630,0.070899710,0.020116570
1640833851.200520,0.203686670,0.597288190,9.145687100,-0.023087860,0.035005810,0.012911860
1640833851.204340,-0.245058250,0.320832250,10.542143820,0.022815170,-0.012968480,0.027553740
1640833851.205550,0.110034390,0.242263450,9.433910370,0.010418890,0.073961920,0.003567340
1640833851.209140,0.315844950,0.181310460,9.604519840,-0.005944070,0.011983510,0.016653540
1640833851.210610,-0.243354540,0.133565600,10.503911020,-0.060047210,0.084960470,0.021027020
1640833851.214200,0.012243870,0.172330680,9.569452290,-0.079153480,-0.004984440,0.002391640
1640833851.215940,-0.160438280,0.190805330,9.917675020,-0.008627770,-0.045694410,0.010551510
1640833851.219140,-0.047187580,0.348075990,9.165495870,0.001934170,0.092326110,0.001144410
1640833851.220920,0.011644450,0.405625910,9.832441330,-0.021158160,0.084877020,0.003813210
1640833851.224290,-0.183091920,0.366786300,10.421999930,-0.049138060,0.079244380,0.017349420
1640833851.225640,0.068618160,0.320281240,9.576624870,-0.051860510,-0.035667420,0.014491380
1640833851.229100,0.013139000,0.129505770,9.633498190,-0.033017990,0.020016730,0.022703410
1640833851.231690,0.156336810,0.000698970,9.032541280,-0.018964710,0.123539570,-0.001744930
1640833851.234110,0.002812590,-0.154806290,10.098799710,0.020489100,0.040020050,-0.021354860
1640833851.235600,0.116703540,-0.044741300,9.719131470,0.007131700,0.111427900,0.008420650
1640833851.239090,0.146686420,-0.151626450,9.675405500,-0.039485100,0.034907460,-0.008763370
1640833851.240890,-0.406449940,-0.281800240,10.560618400,-0.003984570,0.033344330,0.002431870
1640833851.244030,-0.149587620,-0.106683870,8.973438260,0.051571430,0.018025940,-0.026863820
1640833851.245670,-0.445984900,-0.072341160,9.620843890,0.065572560,0.006420910,-0.034411260
1640833851.250430,-0.332971510,0.195737850,9.623900410,0.032733380,0.198803860,0.001721080
1640833851.251330,-0.153255970,0.219145420,10.027927400,0.017678740,0.021600730,-0.013427440
1640833851.254080,-0.459691700,0.240242410,10.639084820,0.036676220,-0.025737290,0.006861990
1640833851.255930,0.233914290,0.490188780,8.688941000,0.029742720,0.055530670,-0.006444750
1640833851.259090,-0.171799360,0.113792550,10.197941780,0.056095430,0.035694250,-0.009989740
1640833851.260610,-0.178534140,0.262734140,10.109077450,0.090965610,0.122106080,-0.002920630
1640833851.264290,0.282725420,0.373111750,9.288423540,0.060632840,-0.030671060,-0.013045970
1640833851.265560,-0.240708050,0.164184840,10.417470930,0.002081690,0.041992960,0.005422530
1640833851.269050,0.059550140,0.525508700,9.285614010,-0.008888540,0.097343330,-0.013723970
1640833851.270650,-0.436802030,0.322016000,10.428540230,0.027243800,-0.056836020,-0.020949540
1640833851.274550,-0.475289400,0.458602040,9.803828240,0.048045810,0.046317280,-0.004526970
1640833851.275600,0.098591130,0.641989530,8.973155980,0.041820110,0.023755430,-0.013922160
1640833851.279150,-0.427184820,0.419105110,10.699414250,-0.018163030,0.091452900,0.003866850
1640833851.280660,0.158820240,0.684487700,9.462944980,-0.061787680,0.089558970,-0.003217160
1640833851.284140,0.087017100,0.374136120,10.260468480,-0.037290150,-0.048443670,-0.002749260
1640833851.286270,0.042337100,0.229932200,9.782986640,0.014705960,0.072297450,0.006681680
1640833851.289080,0.452289460,0.283602570,8.960981370,0.034530460,0.028279420,-0.009664890
1640833851.290620,-0.082445000,0.007699610,10.357769970,-0.026743120,0.074112410,-0.001119080
1640833851.294700,0.344860290,0.198710380,9.093820570,-0.066931550,0.114828370,0.011247400
1640833851.295630,-0.021236940,0.044946690,10.266916280,-0.039523840,0.006264450,0.000424680
1640833851.299150,-0.296968970,0.065920600,10.065773010,-0.033964220,0.101169970,0.000283120
1640833851.300720,-0.045116730,0.194711800,9.075741770,0.031675400,-0.013449790,-0.018766520
1640833851.304530,-0.512552560,0.100741390,10.093256950,0.017470120,0.049647690,-0.020286440
1640833851.305660,0.016420040,0.315155060,8.887517930,-0.036400560,0.183823750,0.008033220
1640833851.309060,-0.301256920,0.087466640,10.554227830,-0.023235380,0.049000970,0.010505320
1640833851.310630,-0.351907160,0.019165280,10.354721070,0.002633040,0.054404140,0.006556510
1640833851.314280,0.140330330,0.108550550,8.706370350,0.042542810,-0.042673950,-0.006876890
1640833851.316390,-0.336156100,-0.152100160,9.942481990,0.026211150,0.078114870,-0.017607210
1640833851.319130,0.081298410,-0.029279180,9.412350650,0.013475120,0.178729000,-0.016339130
1640833851.320640,-0.107112850,-0.026509760,10.424772260,0.068143000,-0.017450750,-0.012278560
1640833851.324150,-0.157675400,0.181088080,10.114373210,0.021646920,0.045777860,-0.004474820
1640833851.325640,0.139237970,0.448297980,9.084115030,-0.013923650,0.035074350,-0.016526880
1640833851.329120,-0.569904390,0.320283260,10.544832230,0.009500980,0.031113630,-0.018472970
1640833851.330820,-0.294641260,0.548742120,9.521476750,0.030951210,0.066840660,-0.015927850
1640833851.334130,-0.218436170,0.560565470,9.547737120,0.066114970,-0.033035870,-0.016203520
1640833851.335760,-0.388536420,0.522607030,10.177652360,-0.002326070,0.097686050,-0.007249410
1640833851.339120,-0.034495890,0.717056450,9.677277570,-0.048743180,0.063459580,-0.002893810
1640833851.340720,-0.388745460,0.457592670,10.497125630,-0.053569670,-0.043906270,-0.005075340
1640833851.344110,-0.058528040,0.407142040,9.591341020,-0.033433730,0.031213460,-0.016424060
1640833851.345650,0.124460740,0.326539040,9.394971850,0.039881470,0.024445360,-0.019186740
1640833851.351410,-0.133025940,0.133883390,10.083417890,-0.003120300,0.062453750,-0.016257170
1640833851.353730,0.163128570,0.210125820,9.592694280,-0.069822380,0.070098050,-0.017343460
1640833851.354180,-0.041552520,0.089594350,10.055035590,-0.065310300,-0.023216010,-0.007022920
1640833851.355810,-0.088835550,0.131824790,9.811152460,-0.055718430,0.020134450,-0.005006790
1640833851.359030,-0.036515920,0.170352070,9.452396390,-0.007683040,0.032888350,-0.013495980
1640833851.360600,-0.201728370,0.067910760,9.871401790,0.006076690,0.040541590,-0.019253790
1640833851.364840,-0.074588010,0.288961380,9.796177860,-0.006723400,0.061587990,-0.022578240
1640833851.365610,-0.094672440,0.281412420,9.853466030,-0.052621960,0.052347780,-0.008922820
1640833851.369060,-0.031122860,0.157410650,9.917046550,-0.082393000,0.019648670,-0.012347100
1640833851.370570,-0.119668910,0.043550140,9.717519760,0.011993950,0.011435150,-0.027613340
1640833851.374090,0.025903810,0.067276110,9.122539520,0.042761870,0.030040740,-0.039885940
1640833851.375620,-0.041918960,-0.026391410,9.742108350,-0.000078980,0.086905060,-0.024603310
1640833851.379140,-0.229614940,-0.164580370,10.257395740,-0.013069810,0.090014950,-0.018517680
1640833851.381480,-0.213103830,-0.201716440,10.134456630,0.001722570,-0.051400070,-0.019226970
1640833851.384580,-0.413472150,-0.108991850,9.676430700,0.035002820,-0.028973820,-0.028002260
1640833851.386240,-0.202856140,0.068533350,9.182056430,0.013108550,0.071430190,-0.053061540
1640833851.389400,-0.335215540,0.161473410,10.225233080,0.024040050,0.056493280,-0.052456560
1640833851.390610,-0.332369060,0.254184100,10.105485920,0.062419480,0.038409230,-0.032727420
1640833851.394050,0.040029950,0.469335320,9.614804270,0.029934940,-0.030483310,-0.040768090
1640833851.395670,-0.312350930,0.627263250,10.110693930,-0.006434320,0.012721120,-0.018401440
1640833851.399070,-0.184302320,0.537003040,9.581030850,-0.017689170,0.010119380,-0.022776430
1640833851.400990,-0.150355520,0.507033820,9.875263210,0.009341540,-0.033806270,-0.039939580
1640833851.404080,-0.196594610,0.453252020,9.776161190,0.043083730,0.050754850,-0.031527880
1640833851.405630,0.031099950,0.478937060,9.874437330,0.002600250,0.013038520,-0.041286650
1640833851.409070,-0.354460150,0.534710170,10.458120350,-0.055707990,-0.013616680,-0.027942660
1640833851.410640,-0.142508720,0.334410970,9.503578190,-0.081941490,-0.039282440,-0.025449700
1640833851.415220,-0.141705040,0.188526210,9.847809790,-0.009068850,-0.043486060,-0.035077340
1640833851.417570,-0.239887250,0.206059920,9.652855870,0.038662550,0.051702560,-0.024038560
1640833851.419060,0.081203940,0.272060420,9.608523370,-0.013041500,0.004427140,-0.020998720
1640833851.420570,-0.160378410,0.193936270,10.360032080,-0.076003380,0.018881260,-0.024332110
1640833851.424080,0.044194060,0.252415090,9.580722810,-0.070939970,-0.000806150,-0.016073890
1640833851.425640,-0.152760420,0.236097840,10.075475690,-0.022161010,-0.079670560,-0.026506190
1640833851.429180,-0.141061870,0.179264530,9.304941180,-0.007152560,0.026412310,-0.042150910
1640833851.431440,0.172725470,0.213658180,9.180980680,-0.004428630,-0.006797910,-0.040720410
1640833851.434060,-0.226198540,0.193769260,10.407722470,-0.022736190,0.061284010,-0.028166170
1640833851.435620,0.021843350,0.223864330,9.494228360,-0.084862110,0.027099250,-0.014638900
1640833851.439110,-0.282911600,0.053876810,10.406257630,-0.052338850,-0.112490380,-0.029574340
1640833851.440720,-0.411010270,-0.059752020,9.490963940,0.017866490,-0.005505980,-0.039717560
1640833851.444050,-0.051114260,-0.008469640,8.821228980,0.037041310,-0.019533930,-0.047339500
1640833851.445650,-0.586422440,-0.056977720,10.624769210,0.012490150,0.052112340,-0.036367780
1640833851.449850,-0.029779460,0.079206320,9.588890080,-0.039024650,0.044751160,-0.035315760
1640833851.451610,-0.083515960,0.151027660,10.267539020,-0.021094080,-0.116562840,-0.025765600
1640833851.454040,-0.296272160,0.282533290,9.893351550,-0.026440620,0.009731950,-0.040750210
1640833851.455630,0.093289550,0.389850410,9.188776020,0.004240870,-0.037501750,-0.043690200
1640833851.459060,-0.506028000,0.368413690,10.589424130,0.050237780,-0.048305100,-0.045064100
1640833851.460630,-0.098566110,0.552308440,9.243047710,-0.005073850,0.006221240,-0.032511350
1640833851.464260,-0.041063140,0.534251390,9.833097460,-0.051933520,-0.069726990,-0.017055870
1640833851.467090,-0.455411700,0.510624950,10.549159050,-0.073832270,0.019019840,-0.024493040
1640833851.469070,-0.035911600,0.588943180,9.619704250,-0.065268560,-0.082819160,-0.024753810
1640833851.470610,-0.385437310,0.361639410,10.221973420,-0.021186470,-0.108769540,-0.013138350
1640833851.474300,-0.114741940,0.163302290,9.322926520,-0.006282330,-0.001569090,-0.038529940
1640833851.475660,0.017355470,0.296212910,9.871191020,-0.018331410,-0.045153500,-0.025601690
1640833851.479350,-0.227862130,0.261178340,10.105159760,-0.100924070,-0.003737210,0.002208350
1640833851.480730,0.163022320,0.260580810,9.644450190,-0.137250130,-0.069189070,-0.020641090
1640833851.485200,-0.073144120,0.248416650,10.199361800,-0.056241460,-0.065098700,-0.000308450
1640833851.486230,0.012832700,0.204754370,9.372760770,-0.016535820,-0.045901540,-0.017213820
1640833851.489100,0.106797670,0.202917140,9.771480560,-0.018480420,-0.048506260,-0.013205410
1640833851.490900,-0.031149800,0.081058160,9.802387240,-0.061462830,0.040149690,0.000111760
1640833851.494110,-0.003195300,0.079098550,9.964148520,-0.075721740,-0.070826720,-0.002558530
1640833851.496200,-0.256632210,0.099344640,10.124348640,-0.069886450,-0.064019860,0.009602310
1640833851.499140,-0.059084070,-0.044967030,9.002561570,-0.055286290,-0.050053000,-0.018300120
1640833851.500600,-0.363269120,0.010547690,9.989174840,0.014279780,-0.061747440,-0.034184770
1640833851.504040,-0.272941770,0.212424250,9.520464900,-0.004895030,0.021041930,-0.022551420
1640833851.505720,-0.076499450,0.039968440,9.792700770,-0.052867830,-0.052505740,-0.008101760
1640833851.509100,-0.411893610,0.164004830,10.753108980,-0.031876560,-0.029851500,0.001242760
1640833851.510620,-0.061413770,0.194214600,9.434437750,-0.031094250,-0.101828600,-0.005729500
1640833851.514140,-0.202586780,0.123324040,9.690226550,-0.011286140,-0.114177180,-0.009188060
1640833851.515740,-0.136918650,0.281272410,9.568948750,-0.000219050,0.050638620,-0.007621940
1640833851.519060,-0.062282870,0.157571660,10.065094950,0.003872810,-0.071346750,-0.008009370
1640833851.520670,-0.316284240,0.377925340,10.396132470,-0.013464690,-0.109584650,0.015544890
1640833851.524080,0.106942630,0.544422090,9.116637230,-0.083756430,-0.073924650,-0.002954900
1640833851.525650,-0.217691350,0.315328900,10.249005320,-0.065295400,-0.043471160,0.011964140
1640833851.529160,-0.321425680,0.525850060,10.174646380,-0.021813820,-0.033876310,0.000657140
1640833851.530970,-0.060951830,0.348903860,9.688882830,-0.007043780,-0.141766670,-0.000895560
1640833851.534060,-0.042445480,0.231879980,9.546104430,-0.019061570,-0.042977930,0.017978250
1640833851.535640,0.078438190,0.398523090,9.551694870,-0.070580830,-0.008474290,0.004740060
1640833851.539520,-0.269300100,0.092148100,10.545825960,-0.095005340,-0.083842870,0.027474760
1640833851.541140,0.072972810,0.048148230,9.478128430,-0.050441920,-0.093434740,0.017900760
1640833851.544140,0.068065680,-0.015139990,9.678917880,0.022073090,-0.105786320,-0.011511150
1640833851.545710,-0.084476370,0.093228710,9.791475300,-0.001327690,0.030799220,0.018042330
1640833851.550640,0.052269160,0.247962150,9.656032560,-0.074240570,-0.058874490,0.008289520
1640833851.551100,-0.365602140,0.046980840,10.537723540,-0.083445020,-0.104896730,0.025269390
1640833851.554110,0.043439050,0.126451300,9.010994910,-0.022616980,-0.061209500,0.028622150
1640833851.555910,-0.299515810,0.068524360,9.895625110,0.036902730,-0.116252900,0.002513830
1640833851.559080,-0.387419100,0.043953090,10.047943120,0.018544500,0.009788570,0.005848710
1640833851.560720,0.041446440,0.257498380,9.377010350,-0.015176840,-0.089485970,0.014907120
1640833851.564060,-0.378597260,0.067483450,10.515514370,-0.050212440,-0.082604590,0.020770730
1640833851.565710,0.248011480,0.252926920,9.251970290,-0.053949660,-0.006651880,0.024567540
1640833851.569070,-0.131661800,0.135465040,10.192342760,0.028109550,-0.124146050,0.001652540
1640833851.570630,-0.328354090,0.168741390,10.138761520,0.038339200,-0.071908530,-0.006702540
1640833851.574090,0.193489180,0.409033750,8.875848770,-0.004076960,-0.093033910,0.004374980
1640833851.576080,-0.460931900,0.168160040,10.490998270,-0.041934850,-0.054079290,0.021152200
1640833851.579220,-0.111148530,0.410826150,9.913918500,-0.042139000,-0.025053320,0.030121210
1640833851.580710,-0.167601730,0.503448070,9.946590420,-0.026477880,-0.162267700,0.014825170
1640833851.584090,-0.333707120,0.475739540,10.014120100,-0.052201750,-0.058284410,0.022161010
1640833851.585650,0.149988460,0.517146230,9.534984590,-0.034637750,-0.038731100,0.027595460
1640833851.589320,-0.293259560,0.194474240,10.569937710,-0.003857910,-0.105245420,0.019949670
1640833851.590730,0.097677870,0.245205660,9.584626200,-0.021922590,-0.093185900,0.029245020
1640833851.594080,0.212297680,0.299201880,9.398755070,-0.052423780,-0.080911820,0.029242040
1640833851.595740,-0.143441270,0.183722360,10.096216200,-0.112956780,-0.025714940,0.046993800
1640833851.599020,0.094197040,0.189769430,9.911045070,-0.069564570,-0.080339600,0.045903020
1640833851.600590,-0.142160450,-0.014170590,10.003550530,0.000108780,-0.119058800,0.018465520
1640833851.604090,0.066567600,0.081053580,9.409861560,0.005871060,-0.069779160,0.023120640
1640833851.605880,-0.010746510,0.148898810,9.808081630,-0.030173360,-0.004912910,0.045096870
1640833851.609120,-0.105470670,-0.050755040,10.174885750,-0.094902510,-0.009787080,0.039039550
1640833851.610630,-0.065201480,0.036739350,10.127568240,-0.035873050,-0.132615850,0.043585890
1640833851.614200,-0.144111570,0.027928520,9.455253600,0.011184810,-0.106875610,0.020863120
1640833851.615760,0.182566370,-0.046187680,8.968086240,-0.004169340,-0.011402370,0.017313660
1640833851.619020,-0.167085330,0.053841990,10.158690450,0.013944510,0.032348930,0.025329000
1640833851.620620,-0.111831740,-0.013387180,10.235037800,-0.005169210,-0.050289930,0.025318560
1640833851.624140,0.039357030,-0.039406290,9.840844150,-0.002300740,-0.137813400,0.049521040
1640833851.625670,-0.163975130,0.023402680,9.536231040,0.011247400,-0.017052890,0.033856930
1640833851.629130,-0.107299700,-0.048356800,9.766051290,0.010602180,-0.028170650,0.014321510
1640833851.631950,-0.281898770,0.195533480,9.976784710,0.058305270,-0.054033110,0.026102370
1640833851.634040,0.004781070,0.246778760,9.477564810,0.033865870,-0.046020750,0.011509660
1640833851.635630,-0.081327450,0.340250250,10.230344770,-0.007297100,-0.027742990,0.024336580
1640833851.639400,-0.235303190,0.586652460,10.004202840,-0.008577110,-0.046807530,0.029535590
1640833851.640810,-0.115137690,0.401668190,9.934835430,-0.013236700,-0.119984150,0.018557900
1640833851.644070,-0.139435040,0.518508260,9.709164620,0.020816920,0.000201170,0.025315580
1640833851.645680,0.008714780,0.487674830,9.700101850,0.019502640,-0.032915170,0.025340910
1640833851.649060,-0.097931530,0.255739210,10.479966160,-0.006304680,-0.041079520,0.039553650
1640833851.650640,0.138175090,0.430112060,9.255702970,-0.034292040,-0.015597050,0.035327680
1640833851.654170,-0.055279800,0.188691080,10.295425420,-0.057120620,-0.098884110,0.032521790
1640833851.655870,-0.160232860,0.129793930,9.983067510,-0.013329090,0.014027950,0.039008260
1640833851.659070,0.125970350,0.055600190,9.204445840,0.021213290,-0.087808070,0.013946000
1640833851.660650,-0.263428780,-0.028998540,10.464492800,0.013795490,-0.031040610,0.020800530
1640833851.664960,0.183601980,0.319425370,8.944040300,-0.033196810,0.046330700,0.023144490
1640833851.665650,-0.064688120,0.190774870,10.341539380,-0.073319670,-0.097973650,0.026936830
1640833851.669030,-0.258530230,0.131816970,10.284921650,-0.039835270,0.024975840,0.028236210
1640833851.670700,0.251448630,0.176898900,8.827507020,0.034116210,-0.089843580,0.005790590
1640833851.674600,-0.361765090,-0.022576720,10.467728610,0.061507530,-0.044649840,0.014530130
1640833851.676560,0.124821190,0.107230160,8.938130380,-0.005990270,0.117525460,0.024715070
1640833851.679090,-0.026017470,-0.134849120,10.348810200,-0.025640430,-0.091646610,0.032068790
1640833851.682770,-0.419561560,-0.158787820,10.491280560,0.001741950,-0.015670060,0.040663780
1640833851.684060,0.301743540,-0.030805960,8.423445700,0.030803680,-0.061501560,0.009606780
1640833851.685650,-0.525022510,-0.124972520,10.772322650,0.054374340,-0.031413140,0.001874570
1640833851.689080,-0.228390470,0.206546620,9.525855060,0.039623670,0.066845120,-0.005635620
1640833851.690750,0.049355370,0.296105890,9.783194540,0.027614830,-0.131738190,-0.000925360
1640833851.694070,-0.329440410,0.421272550,10.383695600,-0.006902220,0.037400420,0.028057400
1640833851.698320,0.239127040,0.611483870,9.092543600,-0.006334480,0.009275970,0.008718670
1640833851.699020,-0.449611010,0.466239870,10.923053740,0.023603440,-0.111050910,0.010280310
1640833851.700630,-0.172975530,0.492653820,9.227798460,0.024484100,-0.009599330,0.011485820
1640833851.704140,0.166294250,0.309500580,9.318026540,0.033764540,-0.062645980,0.005446370
1640833851.705670,-0.361566780,0.197496560,10.711090090,0.010180470,0.062315170,0.037619460
1640833851.709090,0.216972430,0.300540690,9.460147860,-0.039446350,-0.016377870,0.023370980
1640833851.710620,-0.062448050,0.220365410,10.532780650,-0.053957100,-0.096662350,0.020740920
1640833851.714150,-0.014941490,0.224395870,9.473415370,-0.027383860,0.023561710,0.030292570
1640833851.715890,0.155286850,0.160378560,9.512998580,0.031606860,-0.071857870,0.016303360
1640833851.719030,-0.237740530,0.131695430,10.131293300,0.021483010,0.047793980,0.015461450
1640833851.720870,0.205688520,0.309586470,9.137868880,-0.026462970,-0.006370250,0.018410390
1640833851.724430,-0.151608300,0.288376480,10.504022600,-0.053344670,-0.033244490,0.040259960
1640833851.725640,-0.053418130,0.263718100,9.564408300,-0.073117030,0.039236250,0.038987400
1640833851.729050,-0.083725390,0.036803040,9.831805230,0.010846560,-0.095269090,0.022366640
1640833851.732710,-0.272015660,-0.061780500,9.935527800,0.068354610,0.016228850,0.000880660
1640833851.734030,0.168038960,0.050066420,8.830280300,0.019499660,0.021837650,0.006653370
1640833851.735780,-0.220060510,-0.149826710,10.621624950,-0.034819550,0.030170380,0.025720900
1640833851.739060,-0.004477280,-0.100889860,9.903639790,-0.047796970,0.051338980,0.021542610
1640833851.740910,-0.128170130,-0.185037640,9.956990240,0.042057030,-0.139674530,0.021845100
1640833851.744050,-0.360051360,0.008254170,9.670964240,0.072954590,0.002118940,-0.000697370
1640833851.745710,-0.006050420,0.180223670,9.083916660,0.035573540,0.048641860,-0.010111930
1640833851.749390,-0.510507110,0.206646370,10.897348400,0.039617720,-0.001080330,0.025355820
1640833851.750660,-0.081457590,0.471738820,9.724153520,0.008739530,-0.002868470,-0.000083450
1640833851.754080,0.027168610,0.549779300,9.578847890,-0.007309020,-0.069782150,-0.000971560
1640833851.755660,-0.302542600,0.639725450,10.205552100,0.013022120,0.038841370,0.018797820
1640833851.759060,0.008129950,0.498598070,9.620603560,0.011616950,-0.025895240,0.002333520
1640833851.760630,-0.184378000,0.222972210,10.120179180,0.047148780,-0.048206760,0.030870740
1640833851.764870,0.162598700,0.226724860,9.443394660,0.026687980,0.033998490,0.023154910
1640833851.765690,0.133833690,0.038902370,10.133703230,-0.012457370,0.017602750,0.023432080
1640833851.769110,-0.130801780,0.192157940,10.277573590,-0.044544040,0.015196210,0.032280390
1640833851.770620,0.002897160,0.147044480,9.637779240,-0.033155080,-0.078845020,0.005537270
1640833851.774330,-0.149918760,0.071890410,9.678649900,0.028149790,-0.012405220,0.014840070
1640833851.775630,0.040271280,0.401955990,9.166666980,0.042966010,0.047147280,0.009921190
1640833851.779080,-0.147741730,0.279821540,10.379737850,-0.007922950,0.031098730,0.012260680
1640833851.782730,-0.032409650,0.435639110,9.998789790,-0.044919550,0.046564650,0.037419800
1640833851.784570,0.084485130,0.382405280,9.737210270,-0.027462840,-0.078900150,0.025033950
1640833851.786120,-0.165694520,0.129752520,9.997035980,-0.008155410,0.030417750,0.029641390
1640833851.789030,0.197377470,0.170422060,8.932371140,0.016734000,0.040060290,0.007443130
1640833851.791090,-0.294723300,-0.149926250,10.313576700,0.040304660,-0.028023120,-0.006480510
1640833851.794080,0.043530330,-0.021487090,9.316210750,0.003913050,0.095896420,0.012011830
1640833851.795720,0.130574380,0.023777930,9.692727090,-0.029368700,-0.010745230,0.006020070
1640833851.799080,-0.491540220,-0.195976600,10.935211180,-0.009243190,0.035138420,0.019323820
1640833851.801150,0.038532760,0.089667740,8.889519690,0.049260260,-0.023311380,-0.005182620
1640833851.804030,-0.458297310,0.065669230,9.999500270,0.066249070,-0.049036740,-0.007195770
1640833851.805670,-0.229229810,0.256187350,9.580439570,0.028528280,0.144535300,-0.005498530
1640833851.809060,-0.072805400,0.517257510,9.874982830,0.018461050,-0.036399070,-0.002208350
1640833851.810640,-0.494555000,0.492883740,10.691622730,-0.015041230,-0.031846760,0.007826090
1640833851.814230,0.351844400,0.749761700,8.706006050,-0.030075020,0.046908860,-0.006401540
1640833851.818260,-0.241137800,0.489474000,10.576091770,0.014787920,-0.026324400,-0.004793700
1640833851.819140,-0.222163190,0.384173540,10.201721190,0.029154120,0.047577910,-0.001327690
1640833851.820640,0.350018680,0.367514850,8.954632760,0.023327770,-0.070980190,-0.007820130
1640833851.824340,-0.238400700,0.047941230,10.352948190,-0.035679340,0.031834840,0.011369590
1640833851.825660,0.153544920,0.232392090,9.435137750,-0.055055320,0.095830870,0.018461050
1640833851.829100,-0.217729150,0.044116430,10.412901880,-0.030153990,-0.082214180,0.002241130
1640833851.831800,-0.270439180,0.028177370,9.829727170,0.005710120,-0.013521310,0.007367140
1640833851.834140,0.236119610,0.197183580,8.741114620,0.041733690,0.012807550,-0.009122490
1640833851.835620,-0.298940900,0.187906130,10.394028660,-0.011749570,0.066688660,-0.002881880
1640833851.839030,0.010294110,0.393253330,9.745951650,-0.061148410,0.063589220,0.018160050
1640833851.840920,-0.028611700,0.222680460,10.017697330,-0.028181080,-0.081120440,-0.000979010
1640833851.844030,-0.097693230,0.253079350,9.593831060,-0.009556120,0.008583070,0.003126260
1640833851.845690,0.160485370,0.231805560,9.045716290,0.023923810,0.038991860,-0.011163950
1640833851.851450,-0.254800860,-0.044445450,10.246684070,0.003580750,0.054180630,-0.019687410
1640833851.852060,-0.037697650,0.115772500,9.609943390,-0.005614760,0.014320020,0.002132360
1640833851.854060,-0.114576970,-0.047064470,9.689330100,-0.006379190,-0.021286310,0.016963480
1640833851.855640,-0.216893290,-0.206651120,9.859538080,-0.027622280,0.050473210,-0.000837450
1640833851.859090,-0.273709680,-0.130266190,9.720456120,0.061134990,-0.020857150,-0.019951160
1640833851.860620,-0.343411270,-0.097082040,9.754344940,0.070247060,-0.024615230,-0.035111610
1640833851.864340,0.016678270,0.210547910,9.294616700,0.016388300,0.060170890,-0.025805830
1640833851.867330,-0.216981770,0.345511260,10.360664370,-0.005742910,0.029939420,-0.009633600
1640833851.869010,-0.120394390,0.398095310,10.237627030,-0.014591220,-0.008051100,-0.020323690
1640833851.870620,-0.067555710,0.668425080,9.424656870,0.019186740,-0.083245340,-0.025102500
1640833851.874360,-0.219732200,0.551921310,9.593761440,0.014336410,0.008644170,-0.017996140
1640833851.875660,-0.108184270,0.448433550,9.706045150,0.004591050,0.067317490,-0.022639340
1640833851.879150,-0.336445120,0.424555930,10.255355830,0.023242830,-0.038485230,-0.009343030
1640833851.880860,-0.133440080,0.282715350,9.797811510,-0.041407350,-0.036895290,-0.001265110
1640833851.885370,-0.068372060,0.286484660,9.565910340,-0.054970380,0.008396810,-0.010289250
1640833851.886060,-0.396754680,0.181705010,10.324682240,-0.029383600,-0.024002790,-0.004273650
1640833851.889090,-0.159186470,0.136962850,9.837955470,-0.012208520,-0.034864250,-0.016024710
1640833851.890960,-0.003489400,0.211415690,9.410530090,0.011578200,-0.040130320,-0.020547210
1640833851.894040,0.103623980,0.389244260,9.675749780,-0.047086180,0.019995870,-0.009995700
1640833851.895730,0.103461140,0.487571600,9.937030790,-0.105358670,0.055144730,-0.001293420
1640833851.899390,0.016647430,0.445027140,10.018172260,-0.088745360,-0.052498290,-0.008647140
1640833851.901160,0.004717030,0.351906180,9.794646260,-0.027494140,-0.083164880,-0.008584560
1640833851.904030,-0.012795250,0.243440270,9.085512160,0.018516180,0.013262030,-0.011260810
1640833851.905640,-0.105462250,0.176742550,9.614582060,-0.042757390,0.025162100,-0.002145770
1640833851.909020,-0.308763890,-0.073574220,10.315196990,-0.096373250,0.041177860,-0.005772710
1640833851.910630,-0.038689370,-0.178923580,9.593747140,-0.062730920,-0.025878850,0.001789630
1640833851.914300,-0.220243020,-0.184167210,10.010371210,-0.017724930,-0.074730800,-0.007635350
1640833851.915700,-0.285684470,-0.184521050,9.509613990,-0.003069640,0.036014610,-0.035545220
1640833851.919020,0.001665270,0.030802450,9.271848680,-0.007772450,-0.036489970,-0.040088590
1640833851.920630,-0.296461520,0.041495250,10.181520460,-0.003805760,0.017729400,-0.016103680
1640833851.924190,0.157612470,0.222499390,9.295506480,-0.022883710,0.043454770,-0.006337460
1640833851.925680,-0.093929630,0.375901790,10.432858470,-0.023768840,-0.062562530,-0.003419820
1640833851.929100,-0.343848880,0.376203300,10.052897450,-0.008241830,-0.021061300,-0.019475820
1640833851.930660,0.121182740,0.512025240,8.912725450,-0.023905930,-0.060541930,-0.038297480
1640833851.934090,-0.472682390,0.341864850,10.268222810,-0.008381900,0.006492440,-0.027713180
1640833851.935620,-0.156672570,0.332039650,9.592895510,-0.014708940,0.049072510,-0.027616330
1640833851.939120,-0.097033750,0.503679510,9.996503830,-0.035929680,-0.090461980,-0.022965670
1640833851.940640,-0.303026530,0.412453890,9.867289540,-0.101467970,0.001136960,0.001661480
1640833851.944150,0.131434990,0.314520450,9.316820140,-0.095637170,-0.013649470,-0.009116530
1640833851.945680,-0.381804650,0.200257200,10.535404210,-0.016088780,-0.044588740,-0.014491380
1640833851.949730,-0.076433640,0.117361490,9.439857480,-0.005197530,-0.027586520,-0.013455750
1640833851.950670,0.230592890,0.198435080,9.373272900,-0.029814250,-0.044734780,-0.021684170
1640833851.954080,-0.119994010,0.244091360,9.896737100,-0.097651790,0.057286030,-0.018125770
1640833851.955950,0.159383890,0.388352930,9.808130260,-0.128969570,-0.024819370,-0.005613270
1640833851.959150,-0.162449880,0.283580390,10.176136970,-0.090387470,-0.070458650,-0.019218030
1640833851.960710,-0.015879810,0.086444180,9.139507290,-0.016662480,-0.041703870,-0.029103460
1640833851.964950,-0.057370040,0.154077890,9.492912290,0.025850530,-0.004379450,-0.039274990
1640833851.965630,-0.249667930,0.118053960,9.730810170,-0.067920970,0.061880060,-0.015510620
1640833851.969010,-0.044594120,-0.036662570,9.982131000,-0.119906670,-0.040937960,0.003519650
1640833851.970640,-0.159497450,-0.146128650,10.028329850,-0.060080000,-0.032123930,0.005772710
1640833851.974140,0.004399010,-0.149824900,9.182010650,-0.018042330,-0.044292220,-0.023144480
1640833851.975790,-0.181109580,-0.103464060,9.926671980,0.024062400,-0.014983120,-0.033833090
1640833851.979130,-0.188038100,-0.031503070,9.695252420,-0.004068020,0.046074390,-0.060972570
1640833851.980710,-0.073831880,0.153215620,9.894901280,-0.038717690,-0.076410170,-0.031831860
1640833851.984360,-0.170717720,0.442717400,9.841688160,-0.055097050,0.000421700,-0.026546420
1640833851.985650,0.120064930,0.520869550,9.422103880,-0.075185300,0.007030370,-0.030460960
1640833851.989320,-0.263152660,0.598489520,10.445338250,-0.009661910,-0.032438340,-0.007182360
1640833851.990640,-0.143192800,0.584787910,9.582387920,-0.008928780,-0.029931960,-0.032873450
1640833851.994060,-0.040341370,0.359610530,9.624646190,-0.035999720,-0.072616340,-0.001993780
1640833851.995700,-0.257579620,0.325978100,9.844478610,-0.036752230,0.032931570,0.016696750
1640833851.999050,-0.033799060,0.174241160,9.608716960,-0.093524170,-0.021296740,-0.018624960
1640833852.000620,-0.126257670,0.242169740,10.047495840,-0.090000030,-0.035405160,-0.007130210
1640833852.004040,-0.019291550,0.150916760,9.530426980,-0.066854070,0.003135200,-0.016546250
1640833852.006360,-0.085542860,-0.049681750,10.181813240,-0.014851990,-0.056628890,-0.021791460
1640833852.009380,-0.111846320,0.142221940,9.541935920,-0.011485820,-0.009368360,-0.003184380
1640833852.010670,0.078378840,-0.058359790,9.349417690,-0.060924890,-0.047998130,-0.023442510
1640833852.014210,-0.048883220,0.118386640,9.847237590,-0.065176170,0.043985240,0.008510050
1640833852.015960,0.128019350,0.259158850,9.400385860,-0.070481000,0.005801020,0.008748470
1640833852.019080,-0.216289070,0.000242550,10.588582990,-0.041095920,-0.070863970,-0.008712710
1640833852.020650,-0.112155330,0.170423670,9.261528970,0.011031330,-0.009839240,-0.010727350
1640833852.024100,-0.068073510,-0.007644080,9.343229290,0.013907250,-0.090090930,-0.033223630
1640833852.026040,-0.321109500,-0.083087290,10.091953280,-0.031809510,0.098162890,-0.008103250
1640833852.029110,0.134350850,0.061642940,9.240704540,-0.038094810,0.018675630,-0.010962790
1640833852.030680,-0.387699070,-0.264921310,10.905376430,0.006043910,-0.115986150,0.005707140
1640833852.034060,-0.024802580,0.010258620,8.931421280,0.017391150,0.009654460,-0.003784900
1640833852.035650,0.002661850,-0.003965320,9.308070180,0.025539100,-0.083637240,-0.031739470
1640833852.039530,-0.567984880,-0.058058080,10.712652210,0.028981270,0.059050330,-0.011555850
1640833852.040990,0.208614930,0.415306270,8.794860840,0.029681630,-0.034004450,-0.026790800
1640833852.044030,-0.321509300,0.347673210,10.620776180,-0.004281100,-0.109508630,-0.007741150
1640833852.045720,0.019106300,0.679730770,9.379767420,-0.038407740,0.099228340,-0.000406800
1640833852.049270,-0.022655730,0.652478280,9.838937760,-0.017967820,-0.110982370,-0.014598670
1640833852.050680,-0.639459370,0.420140950,10.752038960,0.009907780,-0.057438020,0.008450450
1640833852.054020,0.257932340,0.457519020,8.352436070,0.023478270,-0.021727380,-0.006513300
1640833852.056020,-0.277034190,0.108546990,10.451011660,0.010852520,-0.061488150,-0.003494320
1640833852.059040,-0.158412340,0.240185740,9.891317370,-0.053071980,0.082851950,0.025203820
1640833852.060620,0.282526820,0.141662180,9.460817340,-0.067253420,-0.095020230,0.001320240
1640833852.064910,-0.329691380,0.023326060,10.690991400,-0.032763180,-0.046594440,0.002720950
1640833852.065630,0.254370600,0.325191440,8.746983530,0.006803870,-0.015461440,-0.010427830
1640833852.069040,-0.125426140,0.139914630,9.893697740,-0.000318880,-0.074939430,-0.016891960
1640833852.070650,-0.065966970,0.306791310,9.606457710,-0.045940280,0.067526110,0.005102160
1640833852.074300,0.239930720,0.380423280,9.496551510,-0.038014350,-0.030593580,0.011473890
1640833852.075680,-0.266719100,0.218066690,10.639648440,-0.054454810,-0.016741450,0.013639030
1640833852.079100,0.180758450,0.260589210,9.195035930,-0.037258860,-0.026251380,0.009058420
1640833852.080770,-0.126661490,-0.090116230,9.770234110,0.018633900,-0.067222130,-0.006650390
1640833852.084160,-0.093445290,-0.079404610,9.337505340,0.014951830,0.054104620,-0.011354680
1640833852.085640,0.015084100,-0.043769370,9.432047840,-0.001074370,-0.000451510,0.005128980
1640833852.089500,-0.265433280,-0.265129600,10.299144740,-0.034572190,0.012579560,0.008767840
1640833852.090650,0.002203550,-0.061462970,9.455787660,-0.000952180,-0.045540930,-0.002986190
1640833852.094050,-0.295615730,0.012181930,9.808892250,0.036528710,-0.082634400,-0.012014810
1640833852.095710,-0.157985050,0.123596600,9.406721120,0.011619930,0.037029390,-0.026921930
1640833852.099010,-0.217905220,0.232854740,9.870542530,0.053201620,-0.015328820,-0.029671190
1640833852.100620,-0.320569160,0.348218590,10.242490770,0.039842730,-0.027063490,-0.005780160
1640833852.104420,0.038305630,0.465692220,9.265975950,-0.006917120,-0.028966370,-0.004902480
1640833852.105680,-0.233788920,0.403179410,9.961824420,-0.010497870,-0.029489400,-0.008799140
1640833852.109100,-0.161768670,0.398793730,9.888942720,-0.008980930,-0.009970370,-0.003811720
1640833852.110640,-0.067427400,0.254028740,9.525337220,0.039364390,-0.056254860,-0.011196730
1640833852.115460,-0.049090170,0.197996710,9.846035960,0.031885510,-0.021892790,-0.016608840
1640833852.116400,0.058680630,0.335875240,9.901823040,-0.005657970,0.020207460,-0.000710790
1640833852.119090,-0.100873480,0.247347860,9.978980060,-0.040192900,-0.041207670,0.007355210
1640833852.120850,-0.091330790,0.316064360,9.987533570,-0.069427490,-0.068865720,-0.009377300
1640833852.124070,-0.056421900,0.334899370,9.492018700,-0.000320370,-0.021508330,0.002481040
1640833852.125670,-0.103799510,0.382814080,9.643058780,0.025142730,-0.040024520,-0.003430250
1640833852.129200,-0.102574580,0.533656540,9.944931030,-0.028398630,-0.006230180,0.003810230
1640833852.130720,0.161365510,0.429670930,9.332390790,-0.073437390,0.031243270,0.010707980
1640833852.134060,-0.019464900,0.369876980,10.301360130,-0.064796200,-0.044876340,0.002799930
1640833852.135950,-0.141433390,0.226866870,10.023741720,-0.026327370,-0.022216140,0.010631980
1640833852.139180,0.172532920,0.059006300,8.983773230,-0.009614230,-0.058163710,0.002206860
1640833852.140630,-0.151007010,-0.092811570,9.958671570,-0.005985800,-0.001940130,-0.003083050
1640833852.144040,0.124303210,-0.088196400,9.238953590,-0.023888050,0.102305430,0.025355820
1640833852.145710,0.015857630,-0.198056760,10.284224510,-0.050142410,-0.031995770,0.018671150
1640833852.149140,-0.394417520,-0.254628420,10.457393650,-0.025315580,-0.013604760,0.008912390
1640833852.150740,0.115768950,-0.238584550,8.765478130,0.040444740,-0.078021000,-0.009587410
1640833852.154070,-0.439603150,-0.172494200,9.786632540,0.074394050,-0.016863650,-0.022207200
1640833852.155750,-0.274421780,0.151054650,9.329121590,0.020903350,0.112785410,-0.000251830
1640833852.159060,-0.074335540,0.185413140,10.190813060,-0.003513690,-0.048689540,0.005804000
1640833852.160640,-0.349970730,0.282649220,10.277328490,0.013075770,-0.021483010,0.008895990
1640833852.164960,0.219458800,0.410718650,9.043180470,0.028748810,-0.021198390,0.009715560
1640833852.165640,-0.305391100,0.264386330,10.415222170,0.060720740,-0.014999510,0.003190340
1640833852.169080,-0.200569580,0.271514180,9.648696900,0.058351470,0.020630660,0.004415210
1640833852.170650,0.000080710,0.204249290,9.688195230,0.040687620,-0.081664330,0.019839410
1640833852.174050,-0.300068910,0.073634400,9.848101620,0.002217290,0.021028520,0.021028520
1640833852.175650,0.025657380,0.217860240,9.618343350,0.007422270,-0.006960330,0.005638600
1640833852.179120,-0.365563090,0.251967010,10.606647490,0.022552910,-0.036008660,0.004655120
1640833852.182040,-0.219844790,0.307540240,9.559591290,0.014844540,-0.045126670,0.001776220
1640833852.185230,-0.048836880,0.353456590,9.765559200,0.039352470,-0.087065980,-0.000607970
1640833852.186330,-0.167347310,0.472762020,9.607273100,0.027818980,0.049050160,0.017328560
1640833852.189430,0.100198390,0.587813020,9.609356880,-0.034849350,-0.021652880,0.021199880
1640833852.190660,-0.093919450,0.522872090,10.487688060,-0.037997960,-0.020574030,0.038404770
1640833852.194040,0.222856950,0.348844500,9.308123590,-0.012573600,-0.030283630,0.027021770
1640833852.195700,0.136552300,0.254645820,9.990577700,0.034815070,-0.079235440,0.024841730
1640833852.199240,0.070900640,0.126821070,9.545353890,0.007604060,0.069075820,0.013306740
1640833852.200880,0.231246890,-0.027230900,9.447961810,-0.031036140,-0.017094610,-0.004144010
1640833852.204050,-0.216078190,0.091499440,10.393457410,-0.020287930,-0.012165310,0.027565660
1640833852.205970,0.018517690,0.009537110,9.108448980,-0.042881070,-0.013267990,0.015181300
1640833852.209010,-0.251950920,-0.121557150,9.806932450,0.004647670,-0.074781480,0.018641350
1640833852.210650,-0.250784720,-0.010539300,9.470896720,0.049591060,0.053030250,0.007660690
1640833852.217940,0.040537840,0.010834520,9.475362780,0.039465730,0.011551380,0.006760660
1640833852.218890,-0.239179330,0.161466480,10.423032760,-0.003001090,0.024734440,0.036934020
1640833852.219410,0.052571260,0.087898010,9.779742240,-0.020678340,-0.012779230,0.015507640
1640833852.220630,-0.094143150,-0.043799550,9.757657050,0.038884580,-0.084209450,0.012879080
1640833852.224020,-0.020189590,0.220203580,8.888715740,0.064377490,0.008155410,0.001676380
1640833852.225650,0.019472200,-0.031373820,9.593935010,0.046303860,0.044021010,-0.002495940
1640833852.229090,-0.229934470,0.088388510,10.301363950,0.050504510,0.052616000,0.019931800
1640833852.230740,-0.138891130,0.235947340,9.905148510,0.028273460,-0.082647790,0.015905500
1640833852.234020,-0.312684630,0.102937260,9.920838360,0.005248190,-0.051714470,0.024093690
1640833852.235640,-0.113852310,0.329087470,9.093120570,0.029890240,0.029449170,0.014993550
1640833852.239480,-0.474185760,0.194104300,10.412955280,0.074224170,-0.029714410,0.000604990
1640833852.240630,-0.281681300,0.390734700,9.733085630,0.073339050,0.011131170,0.025475030
1640833852.244070,0.054795310,0.521611750,9.277227400,0.025232140,-0.084717580,0.011332330
1640833852.245720,-0.324860870,0.459784360,10.491255760,-0.032718480,0.012005870,0.021873410
1640833852.254720,0.139316380,0.674678030,9.214550020,-0.033016510,0.012016300,0.020661950
1640833852.255800,-0.227796410,0.383084770,10.538126950,0.017097590,-0.126190500,0.014536080
1640833852.256880,0.014995570,0.423668240,9.540811540,0.049458440,0.041556360,0.028947000
1640833852.257480,0.379399690,0.561616360,9.059754370,0.006473070,-0.024276980,0.018915540
1640833852.259050,-0.403892430,0.286715950,10.990690230,-0.082425780,0.016888980,0.040933490
1640833852.260660,0.285784420,0.399623810,8.927145000,-0.094269220,0.003457070,0.027425590
1640833852.264660,-0.221050560,0.094969660,10.203809740,-0.004562740,-0.141252550,0.008498130
1640833852.267340,-0.170566230,0.231113520,9.560588840,0.019000470,0.065067430,0.017119950
1640833852.269050,0.335377220,0.309050560,8.859674450,-0.020559130,0.007095930,0.017941000
1640833852.270660,-0.363224420,-0.107870370,11.011674880,-0.050263110,0.021719930,0.036162140
1640833852.274100,0.297998370,0.264237080,9.251825330,-0.044135750,0.038866700,0.032825770
1640833852.275650,0.006654820,0.097598360,9.898620610,-0.034359100,-0.110417620,0.025881830
1640833852.279140,-0.196459010,0.020891930,9.635463710,-0.032526250,0.032322110,0.030840940
1640833852.285020,0.279863510,0.158473340,8.640358920,0.010333960,0.012734530,-0.008228420
1640833852.285600,-0.327389210,0.012660010,10.295976640,0.003427270,0.041413310,0.008726120
1640833852.286210,0.085036510,0.132608530,9.728129390,-0.026087460,0.077708070,0.014840060
1640833852.289340,-0.144162310,-0.034064790,10.244899750,-0.008866190,-0.069017710,-0.000420210
1640833852.290660,-0.326232550,-0.027744960,9.732130050,-0.010132790,-0.033657260,0.011159480
1640833852.294030,0.041910310,0.064128250,8.745692250,0.023710730,0.016269090,0.002279880
1640833852.295870,-0.293923830,-0.085907600,10.063914300,0.019386410,0.074188400,0.002153220
1640833852.300470,-0.114064750,0.102524970,9.945109370,0.044715400,0.033603610,0.006631020
1640833852.301030,-0.149160440,0.160360650,9.891028400,0.034569210,-0.069279980,-0.005741420
1640833852.304050,-0.089339050,0.239193390,9.607725140,-0.037696950,0.000332300,-0.002637510
1640833852.305830,-0.169529440,0.258765430,9.810418130,0.016063450,0.016917290,-0.006550550
1640833852.309080,-0.251423510,0.266031830,10.053567890,0.056642300,-0.001285970,-0.029547510
1640833852.310660,0.031649710,0.553173840,9.495065690,0.034891070,-0.013734400,-0.016205010
1640833852.317300,-0.021826670,0.507227240,9.710071560,-0.003546480,0.011327860,0.005766750
1640833852.318120,0.003916800,0.499458700,9.970913890,-0.055649870,0.034219030,0.001128020
1640833852.319050,-0.219020380,0.536247670,10.117062570,-0.021041930,-0.052380560,0.018675620
1640833852.320640,-0.287798520,0.279454740,9.770515440,0.012238320,-0.065363950,0.004714730
1640833852.324040,-0.048692410,0.294753910,9.381641390,0.013333560,0.000365080,0.001662970
1640833852.325670,-0.189798250,0.368608000,9.881980900,-0.008115170,0.049787770,0.022608050
1640833852.329200,-0.077571890,0.282902660,10.177158360,-0.089059790,0.027102240,0.010791420
1640833852.330680,-0.003652050,0.348095030,9.903540610,-0.070624050,-0.039468710,0.009162720
1640833852.334020,0.013619190,0.232852740,9.537491800,-0.009435420,-0.055505340,0.009033080
1640833852.335640,0.098116160,0.160745860,9.483924870,-0.006458160,0.025197860,-0.008980930
1640833852.339250,0.127193360,0.173087490,9.460126880,-0.017578900,0.068420170,-0.000205640
1640833852.340630,0.156508890,0.111821900,10.105919840,-0.047351420,0.011950730,0.010448700
1640833852.344350,0.013128890,0.156368110,10.027097700,-0.056037320,0.030817100,0.019249330
1640833852.345700,-0.005105730,0.115967810,9.474462510,-0.061874090,-0.034569210,0.020976370
1640833852.349360,-0.316681980,-0.120385220,10.119758610,-0.008842350,-0.016503040,0.009343030
1640833852.350750,-0.166775050,-0.161238190,9.059871670,0.046648090,0.056245930,-0.007748600
1640833852.354050,-0.117701520,-0.057483260,9.676751140,0.035882000,0.011430680,-0.014701490
1640833852.356060,-0.313419520,-0.087601450,10.302606580,-0.029365720,0.101619960,-0.001442430
1640833852.359130,0.103143190,0.045847870,9.436141970,-0.039114050,-0.016035140,0.004570190
1640833852.360900,-0.287400540,0.015943360,10.329387660,0.019192700,-0.072972480,0.005796550
1640833852.364260,-0.059088680,0.081779220,8.931761740,0.040173540,0.070770080,-0.009164220
1640833852.365660,-0.044847850,0.077253450,9.707548140,0.063917050,-0.009882450,-0.014297670
1640833852.369040,-0.447917790,0.000704140,10.568547250,0.066383190,0.069060920,0.004656610
1640833852.370780,0.157965600,0.139747220,9.119422910,0.024414060,-0.005391240,0.010414420
1640833852.374070,-0.320958260,0.093466810,10.420449260,0.015658140,-0.050647560,0.019963080
1640833852.375810,-0.308516950,0.209285860,9.621073720,0.004278120,0.056560340,-0.014939910
1640833852.379140,-0.105114840,0.361494480,9.578828810,0.039018690,-0.064280630,-0.023783750
1640833852.380780,-0.521749620,0.340728730,10.353496550,0.058488560,0.028620660,-0.005467240
1640833852.384060,0.094133230,0.392735180,9.254352570,0.041100390,0.036327540,-0.012503570
1640833852.385670,-0.213377740,0.601709190,10.498181340,0.015655160,-0.051330040,0.012460350
1640833852.389070,-0.159658890,0.583744230,9.660647390,-0.056402390,0.014823680,0.023464860
1640833852.390760,0.243717720,0.404981050,9.447772980,-0.034709270,-0.036475070,0.008864700
1640833852.394060,-0.252221850,0.345839920,10.377532010,0.036516790,0.026492780,0.003486870
1640833852.395710,0.053047890,0.322661880,9.538975720,0.038658080,-0.007246440,-0.000247360
1640833852.399050,-0.009999960,0.352154310,9.994272230,-0.022974610,-0.032806400,-0.001594420
1640833852.400640,-0.071154500,0.352371310,9.500549320,-0.104428810,0.050912790,0.007639820
1640833852.404060,0.069497300,0.239350320,9.909904480,-0.079022350,-0.000947710,0.007665160
1640833852.405790,-0.138075470,0.143290460,10.132324220,-0.010487440,0.031758840,0.012473760
1640833852.409120,0.038532200,0.017597400,9.511668210,0.037689510,-0.038006910,0.000458960
1640833852.410680,-0.042695980,0.079049770,9.796841620,0.022442640,-0.004516540,0.007428230
1640833852.416780,0.126611610,0.127771450,9.003727910,-0.085434320,0.083668540,0.016206500
1640833852.417590,0.045871060,-0.161376980,10.215818410,-0.083778780,0.030592080,0.030221040
1640833852.419020,-0.042257130,0.001311610,10.188746450,0.010772050,0.062143810,0.001037120
1640833852.420650,0.021691980,0.030115930,9.380624770,0.057818000,-0.070527200,-0.014667210
1640833852.424160,-0.222949180,0.089737900,9.646903990,0.015185770,0.017224250,0.000806150
1640833852.425700,0.071999040,0.052241910,8.977210040,-0.051517790,0.129085780,-0.023391840
1640833852.429090,-0.250101420,-0.099009560,10.430712700,0.000737610,0.007122760,-0.002609190
1640833852.431770,-0.145943120,0.162537200,9.709569930,0.051189950,0.049605960,0.012202560
1640833852.434090,0.040142440,0.116520870,9.266357420,0.019264220,-0.016218420,-0.005120040
1640833852.435660,-0.364024340,0.049143650,10.198541640,0.017222760,0.061386830,0.021423400
1640833852.439280,-0.007655380,0.019283540,9.238359450,0.032596290,0.050888960,-0.021794440
1640833852.440950,-0.216085580,-0.074116240,10.134827610,0.067195300,-0.007155540,-0.014111400
1640833852.444040,-0.054780620,0.237867410,9.608951570,0.055454680,0.093492850,0.001411140
1640833852.445700,-0.006032670,0.245159210,9.861352920,0.005309280,-0.011536480,-0.027534370
1640833852.449240,-0.397855610,0.460198520,10.148262980,-0.019830470,0.011038780,-0.000567730
1640833852.450680,0.025037660,0.512689170,9.003789900,0.003914530,0.010210280,-0.017757710
1640833852.454060,-0.353511600,0.224901240,10.397138600,0.067853920,0.022396440,-0.018475950
1640833852.456180,-0.170976150,0.652480190,9.620322230,0.061550730,0.084640080,0.009123980
1640833852.459040,-0.093718230,0.490771230,9.902921680,-0.020848210,-0.058960920,0.008694830
1640833852.460660,-0.189882760,0.333806870,10.014505390,-0.074096020,0.054307280,0.021858510
1640833852.465150,0.192473430,0.401225690,9.255393980,-0.022554400,0.033539530,-0.000695880
1640833852.465720,-0.371245210,0.078649580,10.780610080,0.022286180,-0.019177790,-0.010019540
1640833852.469030,0.112434690,0.275670590,9.093490600,0.020688770,0.042815510,-0.019818550
1640833852.470670,0.139992940,0.268988160,9.463162420,-0.017794970,-0.046257670,-0.006060300
1640833852.474440,-0.156584610,0.152726130,10.163167000,-0.081048910,0.132361040,0.010588770
1640833852.475660,0.307222930,0.292358220,9.257439610,-0.070555490,0.022405380,0.003671650
1640833852.479140,-0.433848800,-0.085461820,10.908834460,0.019928810,-0.071115800,0.003854930
1640833852.482900,0.051474010,0.077839900,8.822460170,0.056512650,0.049379480,-0.011420250
1640833852.485000,-0.094091010,0.166122320,9.317290310,0.012393300,-0.017000730,-0.018505750
1640833852.485680,-0.408622560,-0.013461700,10.308809280,-0.081719460,0.128693890,0.010809300
1640833852.489080,0.276982370,0.097168920,9.125820160,-0.034709270,0.035971410,-0.009411570
1640833852.490800,-0.349274130,0.017737260,10.591990470,0.046280030,-0.057300930,-0.005348030
1640833852.494040,0.036378860,0.118200260,9.188248630,0.034159430,0.066278880,-0.004309420
1640833852.495740,-0.051991060,-0.040954200,9.384907720,0.043584410,-0.021573900,-0.024467710
1640833852.499120,-0.375521060,-0.151947110,10.237113000,0.026479360,0.065180670,-0.013922150
1640833852.500650,0.231239070,0.109581940,9.071617130,0.029933450,0.063891690,-0.009280440
1640833852.504150,-0.312017830,0.065448150,10.377022740,0.015650690,-0.007408860,-0.005660950
1640833852.505680,-0.184720100,0.290758220,9.841283800,0.007694960,0.034376980,-0.008139010
1640833852.509040,-0.217310310,0.382394190,9.432805060,0.036326050,-0.032095610,-0.028730930
1640833852.510650,-0.588284310,0.351062830,10.133353230,0.024776170,-0.005434450,-0.019188230
1640833852.514130,-0.107639120,0.460222180,9.519068720,0.042513020,0.045256320,-0.005993250
1640833852.515720,-0.164746310,0.369573830,9.926514630,0.045761470,0.031487640,-0.004817550
1640833852.519240,-0.067788270,0.540108030,10.145751000,-0.031235810,0.018118320,0.000515580
1640833852.520720,0.160928200,0.506251690,9.585153580,-0.041702400,0.002242620,0.006066260
1640833852.524060,0.034974320,0.214705620,9.801098820,-0.017847120,-0.004060570,0.000278650
1640833852.525660,-0.136356290,0.222324710,10.032047270,0.050961970,0.018991530,-0.009472670
1640833852.529130,-0.081402210,0.197470190,9.452654840,0.038386880,-0.012975930,-0.005675850
1640833852.531290,-0.077278880,0.156649710,9.661855700,-0.035376850,-0.002248590,-0.005434450
1640833852.534160,-0.204030870,0.386877300,9.826304440,-0.065155330,0.072829430,0.009030100
1640833852.535760,-0.119602400,0.205479610,9.828228950,-0.085659330,0.004298990,-0.002662840
1640833852.539080,-0.244969000,0.008696820,10.200767520,0.025591260,-0.028063360,-0.013685230
1640833852.540710,0.039026070,0.154310290,9.170161250,0.101025410,0.016887490,-0.024248660
1640833852.544040,0.063866180,0.173566330,9.531550410,-0.000882150,0.028188530,-0.004661080
1640833852.545710,-0.099181790,0.194239800,9.896507260,-0.096641470,0.081261990,0.028838220
1640833852.549160,0.191759450,0.029919660,9.624117850,-0.068260740,0.001294910,0.009571020
1640833852.550660,-0.133553940,-0.101753090,10.106493950,0.046356020,-0.021347400,0.002934040
1640833852.554080,-0.091130930,0.036734480,9.163393020,0.085024560,0.014813250,-0.019936270
1640833852.555670,-0.167306110,-0.106768600,9.722872730,0.029297170,-0.001038610,-0.032423430
1640833852.559050,-0.423292910,-0.028591310,9.725509640,0.003783400,0.069092210,-0.007106360
1640833852.560700,-0.114648110,0.097965290,9.465075490,-0.013786560,-0.011737650,-0.008754430
1640833852.565260,-0.367184220,0.052837200,10.299057960,0.004337730,0.018352270,-0.000828500
1640833852.565910,-0.124982660,0.176500600,9.262982370,0.077867500,0.012792650,-0.012291970
1640833852.569090,-0.223099350,0.100793110,9.987460140,0.095731020,-0.071701410,-0.029176470
1640833852.570650,-0.180814580,0.145512430,9.348245620,0.054831810,0.083807130,-0.000752510
1640833852.574230,0.116567170,0.135391460,9.588440900,0.024749340,-0.002777580,-0.007866320
1640833852.575670,-0.420478550,0.125099260,10.907927510,0.029557940,0.005307790,-0.005996230
1640833852.579110,0.012275580,0.402350990,8.857007030,0.026173890,-0.046454370,-0.012294950
1640833852.580680,-0.333608060,0.297041450,10.122445110,0.038070980,-0.087343160,-0.023873150
1640833852.584480,-0.439248980,0.313442380,9.743256570,0.050669910,0.102654110,-0.017184020
1640833852.586150,-0.159988980,0.378863780,9.569331170,0.069446850,-0.079357630,-0.013946000
1640833852.589040,-0.532442990,0.316029700,10.695448880,0.016985830,-0.026173890,0.003543500
1640833852.590860,0.183159900,0.509139540,8.711565020,-0.030519070,0.044335430,0.000604990
1640833852.594040,-0.269191120,0.420974050,10.669570920,-0.006318090,-0.078135730,0.008866190
1640833852.595760,-0.358222930,0.419377710,10.067031860,-0.005921720,0.021725890,-0.000597540
1640833852.599100,0.265534460,0.318711070,8.801337240,0.034244360,-0.134964290,-0.021985180
1640833852.600780,-0.328173340,0.259697260,10.429279330,0.037202240,-0.012582540,-0.012807550
1640833852.604000,0.182221700,0.429757740,8.989079480,-0.050230330,0.094646220,0.003154580
1640833852.605680,-0.018842270,0.182688850,10.483665470,-0.073686250,-0.093184410,0.013554100
1640833852.609020,-0.275867700,0.155928220,10.359007840,-0.032310190,-0.000935790,0.015531480
1640833852.610670,0.368763740,0.111132940,8.627280240,0.043414530,-0.085385130,0.006994600
1640833852.618410,-0.260165240,-0.031634200,10.091881750,0.038209550,-0.010308620,0.008487700
1640833852.619420,0.079468400,0.025981510,9.261804580,-0.031134480,0.108487900,0.002305210
1640833852.619730,-0.006637840,-0.113854180,10.202249530,-0.018365680,-0.074963280,0.008873640
1640833852.620670,-0.317841290,0.053520020,10.188635830,-0.007277730,-0.032262510,0.009524820
1640833852.624070,0.076260750,0.159690020,8.843515400,-0.002649430,-0.047774610,-0.011605030
1640833852.625700,-0.360744680,0.120085390,9.999216080,0.017437340,-0.013065340,-0.014196340
1640833852.629150,-0.138547660,0.250770090,9.458615300,0.031448900,0.041210650,-0.009028610
1640833852.632290,0.000011730,0.164886430,9.767605780,0.040116910,-0.024570520,0.004442040
1640833852.634040,-0.184467570,0.161572810,10.139535900,-0.001788140,0.015825030,0.026214130
1640833852.635660,-0.028311140,0.002526100,9.704468730,0.011447070,-0.066618630,0.017689170
1640833852.639010,-0.108947860,-0.089272390,9.570576670,0.038470330,-0.038538870,0.003245470
1640833852.640710,-0.091469330,0.028920610,9.353149410,0.043120980,0.014269350,-0.002357360
1640833852.644020,-0.242834570,-0.021708040,10.100185390,0.061696770,-0.003561380,-0.003650780
1640833852.645750,-0.162260000,0.295198980,9.857942580,0.028462710,-0.024241210,-0.007607040
1640833852.651680,-0.316861960,0.519819920,9.871835710,-0.011773410,-0.087012350,0.000499190
1640833852.652460,-0.284154980,0.513995530,9.719543460,-0.022973120,-0.014780460,0.006701050
1640833852.654010,-0.206470730,0.523493170,9.715033530,0.029438740,-0.018383570,-0.004321340
1640833852.655690,-0.404827480,0.495759130,10.345113750,0.069816410,-0.043477120,-0.002126400
1640833852.659090,0.055620640,0.579176840,9.407138820,0.010451670,-0.018650290,0.020614260
1640833852.660660,-0.062615100,0.361326010,9.849396710,-0.046497590,-0.059281290,0.019958620
1640833852.664300,-0.078884960,0.324640480,9.954004290,-0.051771100,0.010751190,0.023354590
1640833852.665860,0.089037990,0.276020380,9.683849330,-0.029057260,-0.052863360,0.011909010
1640833852.669070,-0.289188590,-0.013289340,10.200916290,0.032380220,-0.086067620,0.007207690
1640833852.670720,0.156538370,0.234059010,9.178285600,0.021974740,-0.032150750,0.000113250
1640833852.674100,0.064543420,0.286311360,9.601647380,-0.048606100,0.011469420,0.006470090
1640833852.675670,-0.106718330,0.187901420,10.210508350,-0.101441170,0.039988760,0.023783740
1640833852.679300,0.056242820,0.223180900,10.052222250,-0.050343570,-0.075702360,0.008560720
1640833852.680700,-0.174273650,-0.009214940,9.695287700,0.041177870,-0.084057470,0.020951030
1640833852.684320,0.018000110,0.161885690,8.983284000,0.042757390,-0.015175350,0.025676190
1640833852.686600,-0.227769350,0.065872670,9.793367390,-0.030194220,0.025346880,0.027531390
1640833852.689360,-0.111982200,-0.042530240,9.767479900,-0.059825170,0.016564130,0.036278360
1640833852.690760,0.005937860,0.106048690,9.902784350,-0.011301040,-0.059063740,0.019849840
1640833852.694030,-0.109534500,-0.013058020,9.704764370,0.005964930,-0.003968180,-0.001133980
1640833852.695930,0.068139660,0.053023230,9.462811470,0.035887960,-0.038103760,-0.013455750
1640833852.702250,-0.295434560,0.033289440,10.012663840,0.049953170,-0.023692850,-0.014050310
1640833852.702780,0.015139370,0.066624170,9.128170010,0.010916590,0.011630350,0.017702580
1640833852.704010,-0.068853710,0.043152630,9.954545970,0.005252660,-0.029630960,0.030262770
1640833852.706080,-0.246663690,0.039965170,10.093394280,0.010907650,0.032031550,0.018055740
1640833852.709020,-0.007708370,0.217858460,9.614292140,0.040812790,-0.068320330,0.002710520
1640833852.710850,-0.454219700,0.314560030,10.196932790,0.040757650,-0.055694580,-0.004702810
1640833852.714200,-0.053864560,0.296760860,9.191887860,0.016726560,0.005304810,-0.012238320
1640833852.718470,-0.162583430,0.533842210,9.970270160,0.034981970,-0.023537880,-0.006288290
1640833852.719050,-0.291043940,0.634831490,9.950150490,-0.010430810,-0.003755090,0.004723670
1640833852.720670,0.161144170,0.599692460,9.433324810,-0.043158240,-0.051935020,0.008007880
1640833852.724180,-0.302221060,0.581239400,10.287763600,-0.006277860,-0.030383470,0.014847520
1640833852.725730,-0.122662310,0.356498120,9.700272560,-0.003959240,-0.024831300,0.011058150
1640833852.729200,0.006067530,0.247283520,9.671540260,0.015857810,-0.056241450,0.017523770
1640833852.730700,-0.096986750,0.161232550,9.589383130,-0.013431910,0.010260940,0.008755920
1640833852.734040,0.160666840,0.192215370,9.755885120,-0.057256220,0.017148260,0.019636750
1640833852.735720,-0.104593070,0.246736540,10.089246750,-0.070069730,-0.011517110,0.023660070
1640833852.739240,-0.016913230,0.025070930,9.761696820,-0.033657260,-0.094622370,0.001266600
1640833852.740760,0.053965400,-0.021145940,9.479409220,0.054952500,-0.023382900,0.008341670
1640833852.744180,0.033003270,0.166815760,9.175811770,0.027306370,0.049687920,0.003720820
1640833852.745750,-0.077463230,-0.007629430,10.392589570,-0.046794120,0.016078350,0.029899180
1640833852.750270,0.002656420,0.046286880,9.904013630,-0.041720280,0.024069850,0.033625970
1640833852.750850,-0.039616020,0.033817600,9.562295910,-0.002646450,-0.117264700,0.015456970
1640833852.754080,-0.245288480,0.010337380,9.621648790,0.037041310,0.000914930,0.027602910
1640833852.755920,-0.011237950,0.043318700,8.863073350,0.039733950,0.052526590,-0.008365510
1640833852.759170,-0.454023660,-0.065937370,10.604725840,0.048381090,-0.033614040,0.001835820
1640833852.760790,-0.149987710,0.184436280,9.436157230,0.025789440,0.022800260,0.019110740
1640833852.764240,0.025976900,0.057440640,9.454652790,-0.014382600,-0.078965720,0.002342460
1640833852.765750,-0.379880520,0.041723120,10.474906920,0.027409200,0.035934150,0.028628110
1640833852.769020,0.146328790,0.123424120,8.956157680,0.082693990,0.003378090,-0.007987020
1640833852.770740,-0.298431490,0.063666220,10.371445660,0.086563830,-0.090511140,-0.009062890
1640833852.774040,-0.043516110,0.369548440,9.310671810,0.039839740,0.077299780,0.019890070
1640833852.775840,0.048349310,0.312634410,9.564125060,0.000095370,-0.053957100,0.001673400
1640833852.779120,-0.632585590,0.392828880,10.799352650,-0.000356140,-0.025177000,0.016427040
1640833852.782690,0.040974270,0.617584880,8.773767470,0.021597740,-0.024802980,-0.003601610
1640833852.784070,-0.380330560,0.286676880,10.375195500,0.057268150,-0.073471670,-0.005058940
1640833852.785710,-0.253856150,0.537831840,9.741767880,0.051122910,0.084416570,0.021888320
1640833852.789420,0.144915860,0.490465190,9.472145080,-0.009024140,-0.075849900,0.012174250
1640833852.790700,-0.235246380,0.271376850,10.497342110,-0.058035560,-0.000585620,0.040575870
1640833852.794060,0.358171160,0.425081520,9.009224890,-0.026339290,0.022536510,0.024127960
1640833852.795800,-0.089807880,0.074111800,10.542234420,0.028866530,-0.086285200,0.006729370
1640833852.799000,0.059189400,0.194488330,9.447903630,0.019216540,0.032562020,0.016792120
1640833852.800690,0.299059750,0.231088460,9.216800690,0.005722050,-0.047849130,-0.000771880
1640833852.804040,-0.312036190,0.239313350,10.535219190,-0.066642460,0.055617090,0.027509040
1640833852.806010,0.121630340,0.384844990,9.234746930,-0.089411440,0.018653270,0.027404730
1640833852.809330,-0.344954700,0.016146190,10.506875990,-0.001664460,-0.104643430,0.008372960
1640833852.810730,-0.107244610,0.094518510,9.092448230,0.060573220,0.042520460,0.012670460
1640833852.814110,0.077213760,0.113656910,9.049902920,0.045074530,-0.000368060,0.019474330
1640833852.815980,-0.347339000,-0.082382750,10.630698200,-0.056625900,0.107572980,0.034137070
1640833852.819000,0.280015350,-0.038806200,9.410079960,-0.042857230,0.010289250,0.037854910
1640833852.820680,-0.156739760,-0.237128090,10.209532740,0.041636820,-0.095568600,0.018195810
1640833852.824160,0.017402810,-0.067664330,9.091514590,0.053954130,0.056527550,-0.009141860
1640833852.825830,-0.060777780,0.083499380,9.305737500,0.061777240,0.003965200,-0.009876490
1640833852.829120,-0.493816290,0.060972150,10.421001430,0.026428700,0.026020410,0.004400310
1640833852.831810,0.078871270,0.257264760,9.180090900,0.001162290,0.023785230,0.018407400
1640833852.834010,-0.308157770,0.206274510,10.317400930,0.027866670,-0.023652620,0.027273600
1640833852.835750,-0.224862860,0.303695920,10.082875250,0.038981440,0.046166780,0.019781290
1640833852.839180,-0.122394110,0.425001060,9.565107350,0.060254340,-0.050245230,0.011795760
1640833852.840810,-0.286516700,0.260702040,9.798352240,0.037039820,-0.014446680,0.019270180
1640833852.844050,0.148975940,0.255311550,9.308173180,0.028438870,0.069272530,0.013691190
1640833852.845770,-0.119594320,0.386589620,10.180361750,0.033172960,0.007884200,0.006590780
1640833852.849100,-0.099598440,0.473976140,10.128939630,-0.022250420,-0.015689430,0.012554230
1640833852.850760,0.044836310,0.475712210,9.500413890,-0.032787030,-0.030922900,0.005336110
1640833852.854050,-0.206657200,0.374371410,9.915546420,0.016865130,-0.014652310,0.011081990
1640833852.856020,-0.242354590,0.391381320,9.970169070,0.033919520,0.017611680,0.020104640
1640833852.859040,-0.178254050,0.377848800,9.595901490,0.010499360,-0.011469420,0.030110780
1640833852.860700,-0.100231710,0.390514490,9.864979740,-0.061628220,-0.018423800,0.034619860
1640833852.864980,-0.091048840,0.401108860,9.969631200,-0.067816670,0.050941110,0.038862230
1640833852.865710,-0.025370340,0.282365440,9.846212390,-0.042924280,-0.033661730,0.029891730
1640833852.869070,-0.072002980,0.170060320,9.999566080,0.012575090,-0.060656670,0.021098560
1640833852.870840,0.290606350,0.159203400,8.937551500,0.025691090,0.048848990,0.011573730
1640833852.874390,0.279529900,0.239671840,9.657876010,-0.049041220,0.057066980,0.034716730
1640833852.875780,-0.075039330,0.044209720,10.579730030,-0.085227190,0.073993210,0.043587390
1640833852.879090,0.178593370,0.004533350,9.545940400,-0.042684380,-0.054179140,0.033868850
1640833852.880770,-0.171204330,-0.036335910,9.663121220,0.026631360,-0.091063980,0.026403370
1640833852.884100,-0.224737450,-0.052503940,8.972498890,0.025632980,0.104294720,0.008872150
1640833852.885720,-0.117385850,0.000056160,9.700616840,-0.006295740,0.052124270,0.000764430
1640833852.889120,-0.482296850,-0.027766160,10.684437750,0.004294510,0.033620000,0.026558340
1640833852.890900,0.084100750,0.146775990,9.105788230,-0.015541910,-0.008513030,0.020314750
1640833852.894090,-0.156997290,0.104251940,9.939730640,-0.012706220,-0.024513900,0.023414190
1640833852.897770,-0.145686840,-0.015216960,9.540237430,0.036261980,0.097738210,0.015109780
1640833852.899020,0.173782140,0.012715940,9.513902660,0.083629780,-0.006961820,0.004628300
1640833852.900730,-0.150607560,0.041112760,10.151609420,0.063517690,0.041645770,0.033755600
1640833852.904100,0.310710220,0.059517700,9.287461280,0.002241140,0.064720210,0.025382640
1640833852.905700,-0.148114280,0.174347310,10.555269240,0.007253890,0.001819430,0.008232890
1640833852.909030,-0.374605120,0.344746650,9.701256750,0.008048120,0.012867150,0.007262830
1640833852.910700,-0.096001800,0.372020750,9.259245870,0.039106610,-0.045098370,-0.003671650
1640833852.915330,-0.522356570,0.442902830,10.029996870,0.064358120,0.081034000,0.000046190
1640833852.916300,-0.257842180,0.608097310,9.606617930,0.028228770,0.043824320,0.019025800
1640833852.919030,-0.233553600,0.547775390,10.265074730,-0.019374490,-0.022865840,0.029410430
1640833852.921040,-0.045484290,0.504448710,9.478539470,-0.061173750,0.053392360,0.034300980
1640833852.924340,0.105310750,0.365996720,9.942186360,-0.012613830,-0.000613930,0.030303010
1640833852.925780,-0.104229170,0.242284940,10.248271940,0.034879150,0.042219460,0.016987330
1640833852.929120,0.274258200,0.146255430,9.110600470,0.017981230,-0.006881360,0.009754300
1640833852.930760,0.122335140,0.162241250,9.944325450,-0.007125740,0.031290950,0.013829770
1640833852.934050,0.089553370,0.352796520,9.478989600,-0.092272460,0.106190150,0.018522140
1640833852.936030,0.016434510,0.188250750,10.083010670,-0.085264450,-0.026299060,0.025570390
1640833852.939070,-0.249984120,0.098025580,10.089382170,0.002239640,0.043706600,0.014205280
1640833852.941010,0.021364650,0.050185890,9.013657570,0.066062810,0.013098120,-0.004246830
1640833852.944030,-0.334699480,0.084920770,10.117585180,0.046551240,0.058195010,0.019946690
1640833852.945840,-0.186599220,0.081362960,9.586715700,-0.071927910,0.132031750,0.021390620
1640833852.949400,-0.137462170,-0.149033310,10.058929440,-0.063177940,-0.040228660,0.033000100
1640833852.950780,-0.207407360,-0.052901010,9.767839430,0.032548610,0.026808680,0.015361610
1640833852.954080,0.226000910,-0.056648520,8.780926700,0.049756480,0.060758000,-0.017920140
1640833852.955740,-0.126778080,-0.012956630,10.249013900,0.061178210,0.078116360,0.004714730
1640833852.959120,0.131551250,0.053212420,9.607715610,0.025075680,0.101286170,-0.009220840
1640833852.960710,0.065685560,-0.021780890,9.970555310,0.008617340,-0.014656780,0.009600820
1640833852.964850,-0.251639490,0.175385420,9.940296170,0.022959710,0.051143770,0.029103460
1640833852.965750,-0.121259180,0.082819280,9.278059010,0.033068660,0.016777220,-0.018092990
1640833852.969010,-0.582340240,0.188681780,9.970955850,0.071780370,0.026682020,0.001449880
1640833852.970710,-0.331982610,0.323872950,9.327005390,0.059188910,0.080211470,-0.012150410
1640833852.974030,-0.382933940,0.216477040,10.250730510,0.044676660,0.011353200,-0.020329650
1640833852.975690,-0.391538200,0.619274500,9.949072840,0.022527570,0.053392340,0.006166100
1640833852.979150,-0.119914960,0.517459690,9.509565350,-0.020967420,-0.016078350,-0.020824370
1640833852.980810,-0.312774150,0.439475120,10.221778870,-0.005930660,0.030913950,-0.006820260
1640833852.984080,0.106481220,0.533444050,9.323043820,0.060264780,0.061729560,-0.009091200
1640833852.985760,-0.074018910,0.210180180,10.356905940,0.068771850,-0.014434750,-0.011588630
1640833852.989080,0.044766340,0.415123910,9.546285630,0.002323090,0.071433190,0.003243980
1640833852.990800,0.182791960,0.321791920,9.429643630,-0.053463880,-0.034315880,-0.002361830
1640833852.994020,-0.399221000,0.102403410,10.589591030,-0.042466820,0.043270000,0.000363590
1640833852.995760,-0.043038410,0.340377060,9.063585280,0.007942320,0.027744470,-0.022251910
1640833852.999080,-0.484025000,0.094077560,10.312287330,0.052151090,-0.072464350,-0.034281610
1640833853.001010,-0.183167130,0.316706360,9.273414610,0.014962260,0.118376340,-0.021961330
1640833853.004020,0.081870890,0.543917480,9.274415970,-0.047352910,0.025603180,-0.012032690
1640833853.006020,-0.482455730,0.159226180,11.018530850,-0.081430380,0.058636080,0.020049510
1640833853.009040,0.295761470,0.175399960,8.884556770,-0.010842080,0.019881130,-0.005100670
1640833853.010750,-0.110614390,-0.065343930,9.941914560,0.087767850,-0.091478250,-0.018765040
1640833853.015350,0.014924900,-0.111520100,9.254713060,0.049452480,0.164222730,-0.009506940
1640833853.016080,0.209643560,-0.079432380,9.297205920,-0.011712310,0.042173270,-0.024159250
1640833853.019310,-0.458372120,-0.254451660,11.084230420,-0.028383730,0.014443700,-0.010108950
1640833853.020710,0.171839910,0.059736000,8.788445470,-0.000317390,0.034081940,-0.016731020
1640833853.024060,-0.364265830,0.042437030,9.891608240,0.051893310,-0.055670750,-0.036218770
1640833853.025720,-0.511821150,0.115321840,9.864412310,0.055696070,0.108674180,-0.035697230
1640833853.029120,-0.064903300,0.340797390,9.037147520,0.068689890,0.015948710,-0.038658090
1640833853.030800,-0.651804570,0.157419920,10.694059370,0.048111380,-0.002142790,-0.004106760
1640833853.034450,0.051010490,0.312309770,9.278054240,0.018200280,0.075681490,-0.002641980
1640833853.035730,-0.196085410,0.352777150,10.017341610,0.042067460,-0.040444720,-0.031128520
1640833853.039040,-0.344694820,0.447704050,10.142405510,0.012314320,0.038044160,-0.028505930
1640833853.041020,0.191187400,0.572602990,8.941896440,0.024017690,-0.001388790,-0.047019120
1640833853.044060,-0.255521740,0.344999400,10.190568920,0.043985250,-0.001150370,-0.043947990
1640833853.045850,0.034794260,0.512161970,9.697299960,0.029014050,0.074551990,-0.033831590
1640833853.050480,-0.045282160,0.472859030,9.797996520,-0.007523600,-0.031174720,-0.026215620
1640833853.051370,-0.289361600,0.279930560,10.179400440,-0.057406720,0.006920100,-0.019323820
1640833853.054030,-0.068876330,0.319491480,9.570178030,-0.008890030,0.028660890,-0.018537040
1640833853.055790,-0.414396490,0.093144610,9.887722020,0.035479670,-0.027716160,-0.029139220
1640833853.059050,-0.221140860,0.206466590,9.432324410,0.010907650,0.004985930,-0.041106340
1640833853.060710,-0.016042570,0.310433420,9.170834540,-0.000439580,0.036643450,-0.034911930
1640833853.066340,-0.079023030,0.248861490,9.937031750,-0.061202050,0.066949430,-0.027006870
1640833853.067160,-0.039172280,0.299768540,10.241227150,-0.048592690,0.025491420,-0.027938190
1640833853.069020,-0.008310670,0.105404900,9.795382500,0.018534060,-0.062395640,-0.037418310
1640833853.070710,0.097145200,0.021688390,9.225379940,0.046072910,-0.014935440,-0.059805820
1640833853.074020,-0.007024560,0.139965440,9.400566100,0.021913650,0.103038560,-0.038516520
1640833853.078020,-0.032964090,-0.104130600,9.958144190,-0.042809540,0.064590580,-0.030462440
1640833853.079050,-0.199740140,-0.177311410,10.144231800,0.009270010,-0.024458770,-0.028114020
1640833853.080950,-0.246621060,-0.035620890,9.264290810,0.045749550,-0.033010550,-0.038255750
1640833853.084500,-0.271330710,-0.156691490,9.385446550,0.030925870,0.012385850,-0.045813620
1640833853.086700,-0.534663980,-0.073701220,9.827681540,0.067564850,0.075079510,-0.055912140
1640833853.089340,-0.159007460,0.109993870,9.670412060,0.062304740,0.005032120,-0.057035690
1640833853.090780,-0.187293280,0.120336680,10.069643020,0.046728550,0.025376680,-0.028222800
1640833853.094050,-0.042289350,0.290520040,9.657878880,0.042931740,0.032317640,-0.041626400
1640833853.096070,-0.162246020,0.246102850,10.185744290,0.053343180,-0.053994360,-0.039251150
1640833853.100390,-0.295116100,0.335080560,9.349236490,0.080020730,-0.014808770,-0.045223530
1640833853.101150,-0.010052360,0.389938030,9.048216820,0.062182550,-0.017653410,-0.058211390
1640833853.104000,-0.333277490,0.313904940,10.349848750,0.044377150,0.070236630,-0.044013560
1640833853.106100,-0.202997330,0.454483990,9.838991170,0.051032010,0.017619130,-0.045102840
1640833853.109060,-0.346580680,0.430547210,10.450838090,0.016435980,-0.116418310,-0.049306450
1640833853.110780,-0.370996120,0.412929620,9.458627700,0.010825700,0.011672080,-0.037646290
1640833853.115030,-0.126440570,0.294703070,9.362415310,0.053569670,-0.040319560,-0.044916560
1640833853.117370,-0.489663330,0.267529550,10.527615550,0.061286990,0.016245250,-0.037041310
1640833853.119040,0.145445960,0.473474530,8.919482230,0.014662740,-0.002200900,-0.032494950
1640833853.120740,0.034426920,0.369352580,10.317881580,-0.026904050,-0.070816280,-0.036044420
1640833853.124050,-0.073516280,0.419284580,9.997527120,-0.034792720,0.079694390,-0.027289990
1640833853.125790,0.183401600,0.362995950,9.491140370,0.011849400,-0.103132430,-0.045149030
1640833853.129100,-0.335827800,0.220345040,10.589702610,0.054909290,-0.066886840,-0.050424040
1640833853.130750,0.318933220,0.409607350,8.293494220,0.022506720,0.053454930,-0.040440250
1640833853.134000,-0.091501920,0.282945070,10.252579690,-0.038781760,-0.025665760,-0.023922320
1640833853.135740,-0.339206160,0.224891600,10.351114270,-0.075668100,0.087232900,-0.006595250
1640833853.139050,0.135998900,0.022054600,9.140125270,0.011090930,-0.128623860,-0.028868020
1640833853.140690,-0.512142780,-0.040966830,10.373444560,0.083564230,-0.074727840,-0.031016770
1640833853.144230,0.089771100,0.104398440,8.458223340,0.014282760,0.109989960,-0.038972500
1640833853.145870,-0.055949640,-0.087219140,10.128555300,-0.018310550,-0.015398860,-0.049090400
1640833853.150310,-0.299489970,0.080894020,10.564018250,-0.018537040,0.068825490,-0.032734870
1640833853.151060,0.355552550,0.189471480,8.933165550,0.016845760,-0.066843640,-0.033098460
1640833853.154000,-0.429453760,0.051094290,10.409623150,0.048261880,-0.073404610,-0.041627890
1640833853.156020,-0.136611040,0.185197770,8.861178400,0.050438940,0.036115940,-0.042596460
1640833853.159220,-0.162625640,-0.006751710,9.403615000,0.066813830,-0.049906970,-0.033211710
1640833853.160830,-0.477207360,-0.058679850,10.363359450,0.042144950,0.073471670,-0.010204320
1640833853.164080,0.008167110,0.020063800,9.578779220,0.065480180,0.000651180,-0.021117930
1640833853.165710,-0.414743210,-0.008023900,10.491737370,0.076305850,-0.100107500,-0.022765990
1640833853.169050,-0.226433250,0.242506060,9.213357930,0.041735180,-0.024710600,-0.026452550
1640833853.170770,-0.117160360,0.138429120,9.268445970,0.052385020,-0.027321280,-0.042492150
1640833853.174020,-0.346767570,0.147681150,10.221068380,0.099162760,0.022123760,-0.050447880
1640833853.175830,-0.117723070,0.485786050,9.795449260,0.119550530,-0.045919420,-0.036036970
1640833853.179060,-0.157181890,0.541315020,9.802807810,0.047802920,-0.094729650,-0.014302130
1640833853.180790,-0.158865080,0.576991980,9.741541860,-0.026024880,-0.017778580,-0.007341800
1640833853.184090,-0.278516440,0.503067970,10.002721790,0.030478840,-0.023461880,-0.017711520
1640833853.185750,-0.300225560,0.409073530,9.969060900,0.075407310,-0.079582640,-0.024837250
1640833853.189370,-0.165728240,0.465133550,9.640730860,0.092315660,-0.075803700,-0.026224550
1640833853.191010,-0.054906490,0.474004450,9.537051200,0.028269000,-0.013774640,-0.014503300
1640833853.194060,-0.016885790,0.408597380,9.912148480,-0.066302720,-0.010521710,-0.009951000
1640833853.195810,-0.092008170,0.331969620,10.191307070,-0.044101480,-0.062321140,-0.005754830
1640833853.199030,0.170741410,0.230476170,9.702875140,0.031206010,-0.081251560,-0.020827350
1640833853.200700,0.050799340,0.240535080,9.621074680,0.086200240,-0.043083730,-0.011378530
1640833853.204030,-0.050197060,0.322558130,9.625922200,0.025337930,-0.012996790,-0.001060960
1640833853.206390,0.058565690,0.196609820,9.742366790,-0.067116330,-0.025789440,0.003750620
1640833853.209210,-0.095595550,0.255059510,9.684540750,-0.045706320,-0.031830370,0.013369320
1640833853.210760,-0.072855140,0.242207900,9.743006710,-0.005675850,-0.058275460,-0.002044440
1640833853.216680,-0.212429330,0.126128510,9.856279370,0.034411250,-0.023004420,-0.015738610
1640833853.217560,-0.173045040,0.079339590,9.452705380,0.058586900,-0.038819010,-0.031718620
1640833853.219020,-0.162887750,0.159833580,9.909212110,0.013935570,-0.043845180,-0.018844010
1640833853.220800,-0.085950750,0.130555640,9.349236490,-0.039166220,0.044228140,0.005295870
1640833853.224230,-0.001939770,0.046470420,9.863577840,-0.032281880,-0.066865970,-0.003503260
1640833853.225820,-0.306370260,-0.075447310,10.278943060,0.048476460,-0.037893650,-0.007407370
1640833853.229150,0.074212230,0.022111880,8.692428590,0.089146210,-0.058411070,-0.024053450
1640833853.230740,-0.250546340,0.027770360,10.161782260,0.050659480,-0.044460590,-0.017336010
1640833853.234090,-0.201327440,0.070773760,9.763984680,0.004784760,0.083480780,-0.008687380
1640833853.235770,-0.022256190,0.210220290,9.811136250,0.017325580,-0.128933770,-0.017532700
1640833853.239070,-0.490390990,0.221796170,10.364294050,0.030198690,-0.061620780,-0.019662080
1640833853.241220,0.146803230,0.383434360,8.483833310,0.045435130,0.005470220,-0.031381850
1640833853.244040,-0.398263160,0.334520130,10.654495240,0.077505420,-0.082539020,-0.030991440
1640833853.245830,-0.394558070,0.496951100,9.832936290,0.038896500,0.029771030,-0.005213920
1640833853.250070,0.194532560,0.463697460,9.129999160,0.000597540,-0.126057850,-0.003002580
1640833853.250730,-0.507091340,0.450559140,10.849226950,-0.010481480,-0.019650160,0.009351970
1640833853.254040,0.065819220,0.545261140,9.002346990,-0.009869040,-0.000490250,0.003418330
1640833853.255960,-0.222861020,0.337951630,10.268705370,0.020100170,-0.158151970,-0.007325410
1640833853.259080,-0.323151200,0.372099520,9.856027600,0.032277400,0.006787480,-0.010986630
1640833853.260720,0.301996440,0.384311500,8.963252070,0.005850200,-0.078430780,-0.014071170
1640833853.264210,-0.339510200,0.341342120,10.721267700,-0.041879720,-0.043942030,0.000245870
1640833853.265740,0.147004020,0.481026710,9.264230730,-0.080840290,0.012291970,-0.000266730
1640833853.268980,-0.011298890,0.311289520,10.246755600,-0.021012130,-0.123493370,0.004677470
1640833853.270850,-0.327648460,0.408905740,10.031997680,-0.001291930,-0.034439570,0.010462110
1640833853.274420,0.242908120,0.348845570,8.830828670,-0.013610720,-0.077839200,0.019833450
1640833853.275730,-0.156475040,0.026389930,10.186494830,-0.032377250,0.001707670,0.012637670
1640833853.279130,0.194460140,0.266805350,9.366661070,-0.049284110,0.043322150,0.010655820
1640833853.283400,0.041769050,0.177542490,10.272652630,-0.052462520,-0.092259030,0.015683470
1640833853.284100,-0.133204060,0.020424240,9.904512410,-0.063544500,-0.018769500,0.010699030
1640833853.285750,0.090341330,0.012150230,9.070488930,0.001145900,-0.094567240,-0.002937020
1640833853.289160,-0.257123170,-0.092861290,9.791666030,0.025062260,0.000311430,-0.004351140
1640833853.290950,0.080238630,0.051971060,9.154385570,-0.019150970,0.075346230,0.004984440
1640833853.294100,-0.178174150,-0.050314610,10.540821080,-0.016427040,-0.047427420,0.016486640
1640833853.295850,-0.136946280,0.030207230,9.958964350,-0.018499790,-0.031352040,0.020967420
1640833853.299410,-0.040560390,-0.008048320,9.125397680,0.020250670,-0.089912110,0.011831520
1640833853.303240,-0.358000430,-0.103195240,9.875768660,0.049388410,0.007978080,-0.012424590
1640833853.304430,-0.081176740,0.076346560,9.347656250,0.050061940,0.028508900,-0.013256070
1640833853.305800,-0.178128300,0.148129400,9.842260360,0.047995150,-0.057245790,0.011488790
1640833853.309120,0.011528550,0.315827490,9.687061310,-0.016933680,0.015138090,0.027738510
1640833853.310740,-0.026691880,0.237037270,9.787455560,-0.002180040,-0.026072560,0.018236040
1640833853.314110,-0.319782500,0.142332720,10.155412670,0.066170120,-0.085251050,0.004576150
1640833853.317190,-0.185421820,0.144214500,9.500369070,0.087070470,-0.049681960,-0.009894370
1640833853.319640,-0.188925560,0.107669580,9.443062780,0.077354920,0.007627900,-0.005324190
1640833853.321070,-0.275518570,0.313281860,10.204537390,0.023056570,-0.020170210,0.002485510
1640833853.324350,-0.293594420,0.422285140,9.999820710,-0.031252210,-0.056728730,0.006206330
1640833853.325770,-0.032078580,0.451422570,9.269020080,-0.038060540,-0.086314970,0.008128580
1640833853.329130,-0.259874760,0.303121000,10.236532210,0.047488510,-0.037959210,-0.005722050
1640833853.330830,-0.177394700,0.358422460,9.773017880,0.112460550,0.000128150,-0.009141860
1640833853.334080,-0.055737800,0.470373630,9.919431690,0.051750250,-0.119279340,0.012603400
1640833853.336180,-0.208840760,0.426715050,10.030208590,-0.058156260,-0.025705990,0.017815830
1640833853.339040,0.337693690,0.576759340,8.960938450,-0.096914180,-0.017337500,0.018298630
1640833853.341140,-0.229278250,0.375393150,10.669262890,-0.028100620,-0.060206660,0.013139840
1640833853.344030,-0.282917740,0.320253010,9.819422720,0.052408870,-0.031718610,-0.002606210
1640833853.345810,0.035495540,0.335700360,9.202837940,0.052888690,-0.169304030,-0.002439320
1640833853.352260,-0.375347320,0.174571390,9.939438820,-0.030367080,0.000736120,0.030596550
1640833853.352870,0.228942280,0.171619430,9.039757730,-0.113199670,0.070153180,0.029423830
1640833853.354330,-0.075168080,-0.018324980,10.869829180,-0.061175230,-0.069092220,0.015166400
1640833853.355740,-0.054918640,0.169470190,9.907377240,0.030851370,-0.054539740,0.007686020
1640833853.359070,0.384190800,0.248046090,8.870402340,0.031496580,-0.112576790,-0.012721120
1640833853.360750,-0.256722810,0.077331880,9.979133610,-0.020296870,0.018386540,0.000827010
1640833853.364090,0.166661660,0.079937370,9.109462740,-0.035740430,0.015027820,-0.011739130
1640833853.365840,0.012110650,0.063609140,10.170583720,0.000910460,-0.069291890,0.009062890
1640833853.369050,-0.089944710,0.178389190,9.723369600,-0.013019140,0.030866270,0.022196770
1640833853.370750,0.051585190,0.120402110,9.778430940,-0.001408160,-0.068347150,0.004807110
1640833853.374100,-0.459960370,-0.058276490,10.251724240,0.030720240,-0.037278230,-0.006558000
1640833853.375760,-0.046111920,0.072683340,8.827022550,0.044454640,-0.046521430,-0.017632540
1640833853.379080,-0.200763580,0.035024700,10.083448410,0.029820210,-0.015988950,-0.011274220
1640833853.380780,-0.088852610,0.265032560,9.653835300,-0.012055040,0.068333750,-0.002722440
1640833853.384620,0.012831350,0.382210050,10.083572390,-0.002317130,-0.104899700,0.000528990
1640833853.386460,-0.165900890,0.392728870,10.121976850,-0.006943940,-0.009599330,-0.007914010
1640833853.389020,0.127506970,0.391791280,9.191409110,0.025126340,-0.042439990,-0.015185770
1640833853.390760,-0.272600380,0.236324640,10.507122040,0.079990910,-0.046539300,0.001469250
1640833853.394030,0.023500910,0.401083110,9.323044780,0.023178750,0.034560260,0.005602840
1640833853.395870,0.070684100,0.415581940,9.741583820,-0.039760770,-0.085908170,0.016103680
1640833853.399150,-0.187767040,0.431695250,10.286891940,-0.074686120,0.032372770,0.008781260
1640833853.401060,0.121247410,0.411936790,9.385492320,-0.050297380,-0.026603040,-0.010313090
1640833853.404050,-0.265622290,0.241661770,10.440158840,0.046835840,-0.097019970,-0.008647140
1640833853.405810,0.055037830,0.261414530,9.295987130,0.042451910,0.024767220,-0.023901460
1640833853.409040,0.153043030,0.259740650,9.430973050,-0.003963710,-0.011183320,0.001101200
1640833853.410770,-0.138421760,0.281802120,10.336488720,-0.092804430,0.052636860,0.032751270
1640833853.414120,0.211296410,0.120330860,9.560108180,-0.091713670,-0.020210440,0.012174250
1640833853.419190,-0.012868850,-0.068724940,9.843758580,0.038705770,-0.080962480,0.010709460
1640833853.419590,-0.053100960,0.039079950,9.368369100,0.071007010,0.018453600,-0.021861490
1640833853.420760,-0.057118970,-0.051443140,9.546735760,0.016416610,0.034062570,-0.019413230
1640833853.424350,-0.192101630,0.034390220,10.059660910,-0.032781060,0.030647220,0.000454490
1640833853.425770,-0.108282620,0.227422550,9.842189790,-0.047221790,-0.023971500,0.002458690
1640833853.429130,-0.056218910,0.200689350,9.594915390,-0.021192430,0.003057720,0.015844400
1640833853.430780,-0.024496530,0.316414830,9.624382020,0.034861260,0.010709460,-0.012099740
1640833853.434030,-0.240947720,0.166463960,10.021158220,0.081835690,-0.001031160,-0.009435420
1640833853.435790,0.098210200,0.168629990,9.278813360,0.047627090,0.023627280,-0.001536310
1640833853.439060,-0.123432070,0.201117070,10.066853520,-0.023424630,-0.013487040,-0.004866720
1640833853.441010,-0.074995240,0.180231600,10.002407070,-0.039620710,0.046546770,0.002148750
1640833853.444020,0.072674690,0.357178000,9.646459580,-0.009126960,-0.029423840,-0.015071030
1640833853.445880,-0.404619160,0.370139090,10.201046940,0.024087730,-0.020745400,-0.029614570
1640833853.450840,0.038014650,0.428478090,9.292354580,0.029625000,0.039690740,-0.013953450
1640833853.452300,-0.211876810,0.369176860,10.189096450,0.017665330,-0.027263160,-0.009991230
1640833853.454240,-0.242697310,0.282885820,9.950344090,-0.012122090,0.016045570,0.009432440
1640833853.455800,0.389102460,0.422203030,9.076059340,-0.042283540,-0.008998810,0.012975930
1640833853.459060,-0.104364690,0.245194350,10.302712440,-0.036542120,0.060428680,0.015921890
1640833853.460760,0.198306470,0.260692950,9.828499790,-0.010305640,0.041639800,0.017933550
1640833853.464260,0.115165980,0.176210400,9.972308160,0.027011330,-0.068610910,-0.004562740
1640833853.466360,0.019248900,0.044503260,9.372275350,0.018934910,0.023818020,0.003096460
1640833853.468980,0.291086670,0.275074240,9.272787090,-0.017328560,0.052841020,0.006555020
1640833853.470720,-0.182100970,0.129569530,10.198029520,-0.069057950,0.093017530,0.007228550
1640833853.474060,0.030447150,0.210373480,9.741110800,-0.036960850,0.006864970,0.013926630
1640833853.475770,-0.042148200,0.222404420,9.887948990,0.041028860,-0.024862590,0.006374720
1640833853.479090,-0.070725570,0.147944660,9.241768840,0.018814210,0.078661750,0.002168120
1640833853.484760,0.025322200,0.165747080,9.819137570,-0.004658100,0.054657470,0.006671250
1640833853.485440,-0.207502600,0.035880730,10.122511860,-0.011046230,0.100208830,0.019507110
1640833853.485950,0.218566460,0.061182100,9.315711020,-0.003896650,-0.000198190,0.023150440
1640833853.489010,-0.099432390,0.091214530,10.076188090,0.010977690,0.041119750,0.020828840
1640833853.491120,0.043622560,-0.061836470,9.356561660,0.008293990,0.117817520,-0.000658630
1640833853.494040,-0.099130650,-0.058003870,10.040889740,0.056439640,-0.007019940,-0.003036860
1640833853.496100,-0.246105250,0.090914710,9.859083180,0.050403190,0.082325960,-0.004585090
1640833853.499110,0.084187010,0.151691780,9.309535030,0.004230440,0.057242810,-0.003901120
1640833853.500730,-0.431834070,0.485833410,10.596375470,-0.000767410,0.041325390,0.009544190
1640833853.504040,-0.267334760,0.555230500,9.478161810,-0.030316410,0.038446490,0.006510320
1640833853.505780,-0.162718860,0.459229290,9.565369610,0.011868770,-0.013597310,0.003910070
1640833853.509010,-0.338935940,0.519043510,9.989001270,0.054252160,0.105883200,-0.001807510
1640833853.510850,-0.026691710,0.450575620,9.831307410,0.040981180,0.041048230,0.006034970
1640833853.516770,-0.120104860,0.462745960,10.173649790,-0.017376250,0.006143750,0.020401180
1640833853.518420,0.129938240,0.454437320,9.470744130,-0.092066820,0.065253660,0.006413460
1640833853.518990,0.025298350,0.212933790,10.173733710,-0.051884360,0.052636860,0.021989650
1640833853.520760,-0.180132230,0.206837240,10.068468090,0.022330880,0.031833350,0.003035370
1640833853.524300,-0.093949940,0.183267220,9.585243230,0.030191240,-0.034147500,-0.006110970
1640833853.525870,-0.086567510,0.241072610,9.465371130,-0.019501150,0.063869340,0.019264220
1640833853.529240,0.042065980,0.416981910,9.440279960,-0.104969730,0.103417030,0.022700430
1640833853.530740,-0.233151690,0.214883610,10.741339680,-0.092974310,0.065813960,0.034615400
1640833853.534030,-0.043349150,0.350440230,9.778078080,-0.011038780,0.015589590,0.021463630
1640833853.535780,-0.083035440,0.329346480,9.514466290,0.028498470,-0.069220370,0.012543800
1640833853.539020,-0.038476110,0.253994020,9.373134610,-0.021964310,0.132665040,0.031279030
1640833853.541030,0.228044640,0.168513640,9.290890690,-0.081785030,0.136454420,0.004115700
1640833853.544340,-0.163724900,-0.073008980,10.853247640,-0.043667850,0.042755910,0.027917330
1640833853.545900,0.280617090,0.118496250,9.342159270,-0.009088220,0.056537990,0.025588280
1640833853.549330,0.058503530,-0.070800860,9.546233180,-0.018021460,-0.014628470,0.010406970
1640833853.550780,-0.283302870,-0.130388320,9.933981900,-0.006593760,0.102825460,0.016418100
1640833853.554000,0.057444010,-0.041875450,9.035585400,0.011177360,0.064270200,-0.004296010
1640833853.555760,-0.365335400,-0.108918700,10.207852360,0.014075640,0.061297420,0.014448170
1640833853.559070,-0.045031560,0.226222070,9.696822170,-0.012706220,0.122538190,0.024625660
1640833853.560960,-0.286956730,0.143204210,10.098053930,0.001606350,-0.011383000,0.007277730
1640833853.564090,-0.426451440,0.250848110,9.779361720,0.012855230,0.011654200,0.020144880
1640833853.565740,0.058817580,0.379480900,9.018629070,0.022874770,0.060631340,0.008182230
1640833853.568990,-0.325137880,0.088794130,10.273816110,0.035785140,0.099404160,0.007203220
1640833853.570760,-0.028011240,0.374548970,9.980411530,0.037898130,0.063739710,0.021126860
1640833853.574320,-0.080648960,0.391105830,9.936051370,-0.011992450,-0.024755300,0.019389390
1640833853.576040,-0.133280750,0.312836680,9.574641230,-0.061705710,0.053131590,0.019542870
1640833853.579150,-0.143874850,0.434205110,9.824770930,-0.007976590,0.025822220,0.006660820
1640833853.583420,-0.482312320,0.265819760,10.167545320,0.034126650,0.020958490,-0.001893940
1640833853.584560,0.000133240,0.407743100,9.284067150,0.035165250,0.011299550,0.013783570
1640833853.585790,-0.180400160,0.544508990,10.168523790,-0.021784010,0.049757960,0.017923120
1640833853.589010,-0.077635600,0.507208050,10.002025600,-0.111979250,0.101517150,0.036485490
1640833853.591040,0.044814660,0.493865850,10.027978900,-0.079792750,-0.042691830,0.024524330
1640833853.594660,-0.217919330,0.317271230,9.979638100,0.000402330,-0.005228820,0.017435850
1640833853.595850,0.321954400,0.386415270,8.836218830,0.018699470,0.047567490,0.026449560
1640833853.599040,-0.029554140,0.299148080,10.049986840,-0.029331440,0.065736470,0.029730800
1640833853.600790,0.118214740,0.147704840,9.884377480,-0.121405740,0.117285560,0.038151450
1640833853.603980,0.259556950,0.101012550,9.871045110,-0.072495650,-0.015835460,0.043727460
1640833853.605850,-0.262438240,-0.014504240,10.064006810,-0.021043420,0.016263130,0.031086800
1640833853.609340,0.042940070,-0.023819440,9.108265880,-0.019359590,0.040756170,0.015380980
1640833853.610750,-0.336166650,-0.034806150,9.838171010,-0.001862650,0.033026940,0.008401270
1640833853.614160,-0.184784530,-0.070467390,9.531847000,-0.026251380,0.086922940,0.006289780
1640833853.617150,0.099493290,0.085158050,9.807454110,-0.035852190,0.085803870,0.032496450
1640833853.619000,-0.257248940,0.088719730,10.336369510,-0.017572940,0.052869320,0.026823580
1640833853.620780,0.024763880,0.137980730,9.685100560,0.005038080,-0.041086960,0.013574960
1640833853.624170,0.034215530,0.192548500,9.129834180,0.020508470,0.044138730,0.017797950
1640833853.625910,0.022496960,0.025464570,9.436406140,0.005635620,0.124737620,0.005979840
1640833853.629090,-0.182772550,0.022992520,10.621938710,0.038895010,0.079075990,0.016020240
1640833853.630780,-0.131725550,0.270487870,9.680515290,0.031518930,-0.008210540,0.024595860
1640833853.634000,-0.177010490,0.166741120,9.605089190,-0.028170650,-0.045841930,0.026921930
1640833853.635830,-0.307973860,0.268101450,9.702150340,-0.026243930,0.124801700,0.021515780
1640833853.639120,-0.360863180,0.246259200,9.869742390,0.030618910,0.018180910,0.004555280
1640833853.640820,-0.474229450,0.246467140,10.488445280,0.084216900,-0.024220350,0.009243190
1640833853.644050,0.049039830,0.603624170,8.893730160,0.020548700,0.065265600,0.015719230
1640833853.645850,-0.158685330,0.492673460,10.228331570,-0.063368680,0.013390180,0.026394430
1640833853.650730,-0.286281790,0.579041960,10.395156860,-0.060288610,0.072298950,0.041578700
1640833853.651270,0.250542250,0.538523610,9.155071260,-0.016430020,-0.054812440,0.015655160
1640833853.653980,-0.146206240,0.309008000,10.321209910,0.035631660,-0.004643200,0.027514990
1640833853.658600,0.252568720,0.534814890,9.089537620,0.009377300,0.127913060,0.025245550
1640833853.659050,0.025321280,0.302667230,10.168436050,-0.076103220,-0.026898090,0.027382380
1640833853.660760,-0.251952380,0.253889020,10.248989110,-0.105173890,0.040544570,0.043827300
1640833853.664980,0.209751520,0.239849930,8.971600530,-0.061433030,-0.017187000,0.007846950
1640833853.665790,-0.389663520,0.021374800,10.361867900,0.010171530,0.005741420,0.029930470
1640833853.669030,-0.088211560,0.279509430,9.327355380,-0.010335450,0.104424360,0.009246170
1640833853.670760,-0.075136510,0.093755220,9.918437960,-0.048217180,-0.026214120,0.003312530
1640833853.674050,-0.174351440,0.212758440,9.903851510,-0.073970860,0.070118890,0.044159590
1640833853.675830,0.274916230,0.311278460,9.133437160,-0.075252360,0.039929150,0.024814900
1640833853.679070,-0.242444630,-0.022495720,10.476953510,-0.035035610,0.025306640,0.027602910
1640833853.681640,0.148452420,0.132951260,9.159914020,0.028891870,0.035202510,0.007691980
1640833853.684490,0.094164550,0.031280020,9.504513740,0.013716520,0.001437960,-0.005964940
1640833853.685820,-0.061232480,0.015587340,9.907010080,-0.057864200,0.151436030,0.022745130
1640833853.689090,0.064624810,0.086009230,9.841082570,-0.051531200,0.024762750,0.012546780
1640833853.691030,-0.440477670,-0.112922120,10.471974370,0.006523730,-0.040847060,0.006273390
1640833853.694040,-0.049687620,0.175173000,8.739404680,0.020788610,0.033833090,-0.002478060
1640833853.695850,-0.406180320,0.122793680,9.837495800,0.022611020,0.027984380,-0.005497040
1640833853.699000,-0.465730850,0.065390710,10.254814150,-0.000388920,0.101836030,0.012382860
1640833853.700740,-0.041433480,0.348424110,9.538054470,0.017656380,-0.028662380,0.013354420
1640833853.704250,-0.398669570,0.346464010,10.300031660,-0.020752850,0.002804400,0.009991230
1640833853.705850,0.113023670,0.584583400,9.394447330,-0.043244660,0.085981190,0.016362970
1640833853.709020,-0.257458300,0.534140590,10.376757620,-0.000996890,-0.043913730,0.002412500
1640833853.710740,-0.160195800,0.450424490,9.792791370,-0.003141170,0.012190640,0.008864700
1640833853.715250,0.385906880,0.513417720,8.956317900,0.003540520,0.015714770,0.006778540
1640833853.716830,-0.152421890,0.352487360,10.448338510,-0.018970670,0.054028630,0.010965760
1640833853.719020,0.139585490,0.453683080,9.726097110,-0.089035920,0.061020250,0.023542340
1640833853.720990,-0.134640620,0.249544580,9.955443380,-0.067181880,-0.075657670,0.020340090
1640833853.724230,-0.289934750,-0.003135140,9.773903850,-0.023712220,0.007553400,0.010026990
1640833853.725800,0.048598790,0.090061490,9.126692770,0.026352700,0.050835320,0.003243980
1640833853.729080,-0.394053580,0.020174150,10.173463820,-0.012639170,0.042919810,-0.008521980
1640833853.731780,-0.011628090,0.170014430,9.780261990,-0.082233550,0.045384470,0.004230440
1640833853.734010,0.066623550,0.239087130,9.644763950,-0.055958340,0.008434060,0.016859170
1640833853.736040,-0.163586770,0.183538880,9.934391020,-0.048589700,-0.008039180,0.002574920
1640833853.739030,0.054729190,0.164499430,9.537132260,0.015087430,0.009934610,-0.003275280
1640833853.741070,-0.011518600,0.063767430,9.323612210,0.050491100,0.033809250,-0.010801850
1640833853.744030,-0.022994010,0.142015490,9.926721570,0.001002850,0.050723550,0.007322430
1640833853.745890,-0.055143940,0.191019550,9.956303600,-0.052668150,0.073780130,0.030924380
1640833853.750560,-0.158931310,0.006618030,9.938060760,-0.058980290,-0.040002170,0.002539160
1640833853.751980,-0.285259870,0.089983820,9.910925870,0.021202860,-0.042927270,-0.002984700
1640833853.754000,-0.080298310,0.206331570,8.785642620,0.051739820,0.070098040,-0.029112400
1640833853.755780,-0.285663430,0.036160900,10.283300400,0.022313000,0.043341510,-0.028823310
1640833853.759020,-0.396510210,0.312453870,10.542697910,0.021006170,0.060045720,0.001046060
1640833853.760760,-0.046694800,0.337472950,9.416671750,-0.025638940,-0.086869300,-0.008398300
1640833853.765080,-0.276099950,0.431718410,10.016536710,-0.043913730,-0.018291180,0.007011000
1640833853.765780,-0.043167380,0.620701610,9.171850200,-0.015009940,0.105303530,0.010804830
1640833853.769130,-0.108772800,0.283749760,10.351694110,0.034202640,-0.043404110,-0.004202130
1640833853.770780,-0.157206160,0.452610110,10.130462650,0.051069260,0.025394560,0.005726520
1640833853.774380,0.432202580,0.481445730,8.834659580,-0.034853810,0.000222030,-0.012886520
1640833853.775790,-0.123466590,0.305279610,10.615589140,-0.087495160,0.036992130,0.019083920
1640833853.779130,-0.023604230,0.445990410,9.669476510,-0.073789070,0.078128280,0.003889200
1640833853.784820,-0.051568870,0.039547140,9.908446310,0.002948940,-0.112956750,-0.015582140
1640833853.786450,-0.276025330,0.070868400,9.707057000,0.064471380,0.029025980,-0.006470090
1640833853.787150,0.128189310,0.291244570,8.822770120,0.004342200,0.070236620,-0.012186170
1640833853.789080,-0.335878820,-0.017084860,10.717364310,-0.089830170,0.042934720,0.017349420
1640833853.790980,-0.037406060,0.194713990,9.638100620,-0.081793960,0.046494600,0.015349690
1640833853.793970,0.017129910,0.085054200,9.844095230,0.006718930,-0.095386810,0.002223250
1640833853.795870,-0.275494640,0.051264770,9.857707020,0.041599560,0.064162920,-0.001724060
1640833853.799040,0.092627620,0.269168560,8.980507850,0.026766960,0.034056610,-0.029997530
1640833853.800970,-0.351099100,0.032598230,10.670145990,-0.018927450,0.004833940,-0.001466270
1640833853.803980,0.115621890,0.224910860,9.170110700,-0.037962190,0.075469900,0.004313890
1640833853.805840,-0.009155640,0.135182840,10.010387420,-0.017395620,-0.047048930,-0.010621550
1640833853.809040,-0.378776340,0.098697080,10.313196180,0.011548400,0.051733850,-0.008387860
1640833853.810780,0.054507950,0.282765330,8.884415630,0.046305370,-0.039184090,-0.026181350
1640833853.817370,-0.521376850,0.142731260,10.460453030,0.016753380,-0.013132390,-0.019069020
1640833853.818670,-0.093140790,0.361418040,9.352753640,-0.034998350,0.111182040,0.004711750
1640833853.819170,-0.341379280,0.317584460,10.313718800,0.006379190,-0.081317120,-0.005306300
1640833853.820810,-0.524625000,0.410022410,10.323081970,-0.012621280,-0.016322730,-0.018227100
1640833853.824310,0.112456780,0.663709100,8.681572910,-0.025944420,-0.023169820,-0.008082390
1640833853.825820,-0.521454570,0.297041150,10.752545360,-0.002557040,-0.015774370,-0.005646050
1640833853.829070,-0.056081990,0.444999160,9.676552770,0.002852080,0.058671840,-0.004650650
1640833853.831710,0.133980510,0.445832910,9.553015710,0.011700390,-0.115770110,-0.008924310
1640833853.834080,-0.152146370,0.379672170,10.208453180,-0.061105200,0.039483610,0.000841920
1640833853.835770,0.266884120,0.638418850,9.247495650,-0.104515260,0.028097630,0.006352370
1640833853.838990,-0.363154530,0.270938610,10.661198620,-0.067071620,-0.109107780,-0.000868740
1640833853.841070,-0.025874880,0.142131870,9.481595040,-0.011841950,-0.003187360,-0.012736020
1640833853.844060,0.167753460,0.152194720,9.129192350,0.045119230,-0.025466090,-0.018097460
1640833853.845900,-0.362950210,0.086688500,10.444280620,-0.049427160,0.041383500,0.009477140
1640833853.850980,0.085722710,0.196752130,9.553901670,-0.122800480,0.011977550,0.010576850
1640833853.851740,-0.191705700,-0.026397090,9.978604320,-0.075237440,-0.096324070,0.002424420
1640833853.854050,-0.125497160,0.034347860,9.564023020,-0.003957750,-0.012765830,-0.009666390
1640833853.856180,0.056409590,0.160562430,9.139416690,0.047259040,0.033637890,-0.031219430
1640833853.859020,-0.200621740,0.136996370,10.149296760,-0.008136030,0.010789930,-0.014147160
1640833853.860760,-0.045465250,0.211045190,10.067965510,-0.046105690,-0.010718410,0.010533630
1640833853.864330,0.019045430,0.135454920,9.428360940,-0.049133600,-0.026126210,0.017106530
1640833853.867400,-0.074464100,0.033470380,9.911282540,-0.029020010,-0.024531780,0.001189110
1640833853.868990,-0.198703390,0.030704500,9.801519390,0.045238440,0.028656420,-0.007428230
1640833853.870750,-0.150853930,0.080620910,9.481925010,0.039942560,-0.051274900,-0.030049680
1640833853.874430,-0.280076830,0.160549820,10.045068740,-0.010360780,-0.026637320,-0.004746020
1640833853.875820,-0.124729750,0.239287930,9.504592900,-0.033810730,0.045023850,-0.006867950
1640833853.879100,-0.307418500,0.220276950,10.330043790,-0.027187170,-0.086732210,-0.022137170
1640833853.880910,-0.450542390,0.514589730,10.003496170,0.020241740,-0.039510430,-0.005801020
1640833853.884680,0.006290730,0.497684450,8.991270070,0.010220710,-0.024895370,-0.016656520
1640833853.885880,-0.342457180,0.377179410,10.616672520,-0.003391500,-0.010529160,0.002099570
1640833853.889040,-0.086541880,0.560556350,9.723041530,-0.008477270,0.004030760,0.009015200
1640833853.891030,0.151086900,0.327583790,9.682368280,-0.043548640,-0.126773120,-0.004801150
1640833853.894000,-0.108873270,0.495399270,10.041143420,-0.049673020,0.023446980,0.008861720
1640833853.896450,0.172669110,0.471760900,9.418948170,-0.050523880,-0.011114780,0.000801680
1640833853.899060,-0.204501330,0.147257360,10.706194880,-0.024221840,-0.091981900,0.005266070
1640833853.900840,-0.064391180,0.340517550,9.313461300,-0.008618830,-0.008128580,0.001393260
1640833853.904020,0.093928610,0.245400100,9.450713160,-0.042031710,-0.073002290,0.002241130
1640833853.905890,-0.351644810,0.250044610,10.303782460,-0.088694680,0.051820280,0.026045740
1640833853.909050,0.053655420,0.304442910,9.290573120,-0.089798880,-0.041748580,0.001566110
1640833853.910800,-0.237493630,-0.077592980,10.478236200,-0.022238490,-0.098395350,0.007930400
1640833853.914200,0.125572700,0.088823270,8.898946760,0.024737420,0.047577920,0.004939740
1640833853.915940,0.209380550,0.117846020,9.694076540,-0.011256340,-0.027608870,-0.000579660
1640833853.919180,-0.149470570,0.005420240,10.659464840,-0.089818240,0.087250780,0.031115120
1640833853.920770,0.329329430,0.113143270,9.290290830,-0.055395070,-0.062701090,0.020717080
1640833853.924090,-0.206123290,-0.106104300,10.324538230,0.013975800,-0.120964650,0.013008710
1640833853.925830,0.141843570,0.061416150,8.598822590,0.014132260,0.088620190,0.000824030
1640833853.929110,-0.151705920,0.072403980,9.874042510,0.021223720,-0.032167130,-0.008223950
1640833853.930810,-0.503536760,0.069101050,10.665292740,-0.015570220,0.025066740,0.023134050
1640833853.933970,0.142129360,0.255831060,8.853311540,-0.024601820,-0.042270130,0.022202730
1640833853.935840,-0.519132140,0.063983110,10.623534200,0.003652270,-0.061193110,0.015187270
1640833853.939060,-0.265116630,0.190125910,9.417113300,0.017200410,0.030083950,0.008068980
1640833853.941150,-0.138018910,0.152941960,9.327226640,0.061154370,-0.106102240,0.002813340
1640833853.944110,-0.376406910,0.017848300,10.315741540,0.023385880,0.035293400,0.014348330
1640833853.945850,0.278617860,0.198037590,9.380063060,0.011104350,0.030106310,0.021301210
1640833853.949580,-0.171781610,0.130711620,10.690654750,0.018981100,-0.087104740,0.022891170
1640833853.950790,0.084282220,0.304405330,9.649060250,-0.024853650,-0.017732380,0.019125640
1640833853.954000,0.196055780,0.347283040,9.351502420,0.010566410,-0.058864060,0.012484200
1640833853.955830,-0.311800870,0.246432470,10.479393960,0.041171910,-0.005345050,0.019422170
1640833853.959190,0.019872920,0.504494850,9.510327340,0.036948920,-0.015039740,0.024265050
1640833853.960840,-0.240002950,0.496459840,9.833781240,-0.009226800,-0.096397110,0.031647090
1640833853.965290,-0.234513030,0.545715930,9.891113280,-0.073626640,0.003857910,0.044706460
1640833853.965940,-0.180311040,0.442876280,9.855669980,-0.029334430,-0.019715720,0.034043200
1640833853.968980,-0.350479360,0.219578340,10.212983130,0.016187130,-0.080294910,0.025752190
1640833853.970780,-0.022830570,0.236616400,9.603233340,0.034391880,-0.057208540,0.012470780
1640833853.974310,0.215108410,0.210101810,9.189163210,0.008589030,0.006641450,0.031791630
1640833853.975940,0.190556630,0.107573030,10.091831210,-0.083713250,0.018085540,0.036190450
1640833853.979100,0.158153710,0.058499340,10.288551330,-0.061984360,0.000537930,0.044572350
1640833853.980820,0.270522620,-0.094958710,9.542486190,0.020696220,-0.108601180,0.037752090
1640833853.983980,-0.018233860,-0.126516420,9.769661900,0.067807740,-0.064983960,0.026552380
1640833853.985830,-0.120196560,0.034256620,9.198392870,0.031077860,0.064030290,0.028067830
1640833853.989010,-0.214385660,-0.012625030,9.978713040,-0.017723440,-0.047110010,0.022736190
1640833853.990950,-0.456060110,0.166747750,10.181154250,-0.010326510,-0.013282900,0.029927490
1640833853.994010,0.001157720,0.370320950,9.052335740,-0.012496110,-0.033035880,0.024467710
1640833853.995890,-0.364983680,0.249775250,10.412684440,0.018166010,-0.048279760,0.019530950
1640833853.998980,-0.298381000,0.207455590,9.623794560,0.075641300,0.013050440,0.007562340
1640833854.000830,0.071232370,0.218213010,9.424213410,0.066110500,-0.106009860,0.008471310
1640833854.004080,-0.224725160,0.100236280,10.195351600,0.006903710,0.038482250,0.046093760
1640833854.005810,0.292805110,0.183053990,9.412055020,-0.021234150,0.016678870,0.031048070
1640833854.009460,-0.149442330,0.071067850,10.843898770,0.013695660,-0.108136240,0.030300020
1640833854.010800,-0.108824740,0.203989980,9.431855200,0.037667160,-0.020396710,0.018116830
1640833854.014050,0.090208760,0.179340080,9.370986940,0.052227090,-0.088413060,0.000156460
1640833854.016130,-0.553585110,0.226188790,10.561257360,0.049185760,0.022648270,0.022839010
1640833854.019060,-0.067665990,0.513607140,9.226047520,0.006219740,-0.045911960,0.031878050
1640833854.020800,-0.192477450,0.522211310,10.312323570,-0.038397310,-0.094002490,0.032162670
1640833854.024130,-0.126352130,0.631320540,9.716472630,-0.049598520,0.067502270,0.040470060
1640833854.025860,0.042777230,0.501743850,10.097711560,0.017252570,-0.082832570,0.023809080
1640833854.029020,-0.349433720,0.322881940,10.569091800,0.057917830,-0.068849330,0.026187300
1640833854.030990,0.256585870,0.363477260,8.611708640,0.023181740,-0.069655480,0.022098420
1640833854.034050,0.061364750,0.198936020,9.985157970,-0.037774450,-0.029715900,0.033991040
1640833854.035800,0.100933490,0.185920300,9.791055680,-0.099042060,0.116360190,0.046947600
1640833854.039520,0.158996450,0.041663080,10.224316600,-0.024735930,-0.098322320,0.030493730
1640833854.040860,-0.205618610,-0.014051340,10.434990880,0.053595010,-0.090490290,0.023107230
1640833854.043980,0.256271390,0.094237590,8.386299130,0.034372510,-0.029368700,0.022913520
1640833854.045880,-0.223090470,-0.062991950,10.105578420,-0.008781260,-0.000578170,0.031276050
1640833854.049020,-0.099407610,0.010449950,9.826198580,-0.045597560,0.106021780,0.027629740
1640833854.050890,0.024093390,0.115939710,9.905544280,0.022321940,-0.116433200,0.030030310
1640833854.054020,-0.363099010,0.180083270,10.318978310,0.032958390,-0.056946290,0.034812100
1640833854.056040,0.125189010,0.203850910,8.733211520,0.007697940,0.007340310,0.013066830
1640833854.059060,-0.344654320,0.052340550,10.262725830,0.050240760,-0.047159200,0.027799610
1640833854.060790,-0.067159920,0.179569680,9.645131110,0.038318330,0.059488420,0.027860700
1640833854.064860,0.184117320,0.082271780,9.508478160,0.035478180,-0.037011500,0.033465030
1640833854.065860,-0.270827950,0.097672980,10.653251650,0.028693680,-0.019237400,0.040420890
1640833854.068980,0.136888280,0.186356800,9.274528500,0.017614660,-0.035636130,0.018155570
1640833854.070910,-0.121009870,0.193285500,9.815655710,0.039210920,-0.078973180,0.009657440
1640833854.074420,-0.074383240,0.304537890,9.839462280,0.042051080,0.059904160,0.014001130
1640833854.075920,0.011253180,0.326571940,9.939644810,0.046470760,-0.013263520,0.012245780
1640833854.079120,-0.151681440,0.474835430,10.310539250,0.023029750,-0.046956540,0.040256980
1640833854.080880,0.109765120,0.514391600,9.480707170,-0.022180380,-0.000484290,0.025974210
1640833854.086840,-0.159979780,0.405317220,9.985239030,0.002525750,-0.023368000,0.035184630
1640833854.088610,-0.247172310,0.395360320,10.013456340,0.031210480,-0.024139880,0.042150910
1640833854.089350,-0.054916210,0.265880790,9.611833570,0.026011470,-0.040449210,0.022612520
1640833854.091090,-0.036714470,0.320895940,9.687264440,0.002917650,0.023761390,0.036263460
1640833854.093990,-0.012476210,0.404780360,10.026512150,-0.033128260,0.016969440,0.036492940
1640833854.095870,-0.155403330,0.204294090,10.219086650,-0.046707690,-0.019118190,0.031462310
1640833854.099190,0.129117770,0.169253170,9.527074810,0.000682470,-0.057570640,0.032614170
1640833854.100830,-0.014790680,-0.010107440,9.708568570,0.063647330,-0.027894980,0.011964140
1640833854.104240,0.098524720,-0.008404920,9.357871060,0.048640380,0.070625540,0.024576490
1640833854.106130,0.126518560,0.113626780,9.907893180,-0.017982720,0.016213960,0.034992400
1640833854.109010,-0.217482850,-0.092230040,10.390141490,-0.038819020,0.012178720,0.038808590
1640833854.110860,0.183954810,0.002172910,9.251481060,0.030797720,-0.052434210,0.038401790
1640833854.114150,-0.291950020,-0.092869970,9.931365010,0.084389730,-0.027461350,0.012063980
1640833854.115860,-0.219642700,0.003091990,9.507095340,0.058622650,0.075970590,0.010772050
1640833854.119000,-0.071131010,0.154865190,9.763690950,0.048668690,-0.023333730,0.025340920
1640833854.121100,-0.356359120,0.033144930,10.240355490,0.026248400,0.014576320,0.033843520
1640833854.124260,0.245556980,0.203563850,9.282519340,0.018382070,0.016404690,0.040939450
