# timestamp,accel_x,accel_y,accel_z,gyro_x,gyro_y,gyro_z
1640837707.979750,0.070675450,0.165725600,9.283072470,0.037425760,0.021141760,-0.047746300
1640837707.983430,-0.286186160,0.290102930,10.310503960,0.050756340,0.026999410,-0.002554060
1640837707.985270,-0.412161380,0.142806320,9.826389310,-0.001479690,0.044208770,0.000128150
1640837707.986739,-0.269366740,-0.009565040,9.639826770,-0.017923110,-0.058077280,0.015188750
1640837707.990059,-0.443878110,-0.015730770,9.672568320,0.047759710,0.040747230,0.011044740
1640837707.991840,-0.234752060,-0.091120880,9.363110540,0.046621260,0.075697910,-0.037069620
1640837707.995819,-0.237369820,0.214852800,10.360330580,0.052137670,0.023245810,-0.022615490
1640837707.996750,-0.248127940,0.287155120,10.010338780,0.015887620,0.018198790,-0.029493870
1640837707.999590,-0.035439950,0.225085180,9.635339740,-0.013259050,-0.031572580,-0.025738780
1640837708.001740,-0.239787250,0.325900730,9.879202840,0.058999670,0.038543340,-0.014005600
1640837708.004750,-0.400550900,0.205084800,10.086053850,0.059947380,0.041292610,-0.030285120
1640837708.007979,-0.329015730,0.382064610,10.055592540,0.041905040,-0.023058050,0.000429150
1640837708.009960,-0.273845910,0.287827100,9.728570940,0.025910140,-0.004068020,0.005619230
1640837708.012570,-0.063274230,0.281755510,9.611873630,-0.003699960,0.064750020,-0.013639030
1640837708.014700,-0.059308600,0.554446520,10.091257100,0.011990970,0.054264080,-0.002811850
1640837708.017089,-0.225284610,0.530509350,10.327715870,-0.011074540,-0.008921330,-0.014083090
1640837708.019610,-0.037882820,0.537046310,9.535779950,-0.023089350,-0.009886920,-0.014318530
1640837708.021880,-0.154592200,0.367389890,9.701779370,0.032295290,0.007325410,-0.009478630
1640837708.026010,-0.385836750,0.228873190,10.070720670,0.011238460,0.058221820,-0.018060210
1640837708.028149,-0.095588070,0.119351540,9.580844880,-0.000829990,0.024952000,0.005017220
1640837708.030910,-0.185742470,-0.168825820,10.067397120,-0.000326340,0.014048810,0.001344080
1640837708.031819,-0.040412030,-0.082579850,9.669366840,-0.000403820,0.088995700,0.002323090
1640837708.034700,0.058841150,0.008541120,9.819925310,0.025974210,0.005850200,0.000824030
1640837708.036909,-0.174087320,-0.071575370,10.123452190,0.009092690,0.026001040,-0.013211370
1640837708.039770,0.138231900,0.089792940,9.028646470,0.008194150,0.063487890,-0.029605630
1640837708.042240,-0.174786450,0.069730200,10.033134460,0.061452400,0.035926700,-0.038547820
1640837708.044900,-0.363550870,0.101742650,9.948863030,0.058743360,0.087644170,-0.023318830
1640837708.049990,-0.202060580,0.128271730,9.577119830,0.038151440,-0.013040010,-0.009776650
1640837708.051509,-0.611376400,-0.100615550,10.433551790,0.043031570,0.024202470,0.000779330
1640837708.052719,-0.337341160,-0.129566790,9.302015300,0.064532460,0.079818070,-0.017562510
1640837708.054659,-0.337752940,-0.047231790,9.953960420,0.111109030,-0.008149450,-0.021579860
1640837708.056870,-0.414471750,0.049946790,10.063333510,0.090433660,0.096747280,-0.023242830
1640837708.060220,0.022147180,0.237885740,9.296035770,0.031881040,0.019268690,-0.032019620
1640837708.061990,-0.330836890,0.264904800,10.549254420,0.044485920,-0.001519920,-0.008545810
1640837708.065780,-0.223087030,0.238232930,9.581663130,0.085991620,0.065642600,-0.040051340
1640837708.066810,-0.217758450,0.423878490,9.907315250,0.117614870,-0.052557890,-0.040704010
1640837708.069759,-0.520397900,0.432966980,10.334138870,0.098726160,0.060905520,0.004009900
1640837708.072019,-0.063318690,0.354962620,9.176699640,0.036050380,0.036270920,0.003324450
1640837708.075899,-0.253616750,0.380813390,10.366461750,0.045144570,0.000509620,0.014978650
1640837708.077080,-0.249540760,0.494689400,9.775073050,0.044745210,0.102515530,-0.003288690
1640837708.082739,-0.097147750,0.571397240,9.728670120,0.015622380,-0.044476990,-0.004912910
1640837708.084139,-0.408094560,0.394136370,10.367139820,0.037758050,-0.003950300,-0.000481310
1640837708.085110,-0.013888580,0.248129200,9.026885990,0.044481460,0.049550840,-0.043417510
1640837708.086769,-0.179075760,0.237428740,10.273642540,0.057126580,0.013297800,-0.016388300
1640837708.090530,-0.262376610,0.223105100,10.213930130,0.031410160,0.099837790,0.002376740
1640837708.094120,0.155483810,0.065120850,9.516887660,-0.027738510,-0.029438730,0.012460350
1640837708.094920,-0.122217240,0.013876510,10.230925560,0.029516230,0.025589770,0.028042500
1640837708.096860,0.064804740,0.062529620,9.108406070,0.055910650,0.085186970,-0.004822020
1640837708.099670,-0.014499720,-0.002859230,9.862041470,0.048673150,-0.003467500,-0.005294380
1640837708.101879,-0.220219700,0.032664140,10.040190700,0.057005890,0.104118910,-0.021001700
1640837708.104689,-0.037306850,0.068448820,9.428366660,0.036479530,0.032421940,-0.029300150
1640837708.107149,-0.458340170,0.097719300,10.490688320,0.058764230,0.017258530,0.005243720
1640837708.110190,-0.477958560,0.187840770,9.648135190,0.048027940,0.058414040,-0.009508430
1640837708.112180,-0.402823270,0.017034630,9.623688700,0.046843290,-0.030834970,-0.000855330
1640837708.114650,-0.497855900,0.066356700,9.753933910,0.099431000,0.070726870,0.000113250
1640837708.118960,-0.133223700,0.118366110,9.292122840,0.081968310,0.076310340,-0.016604360
1640837708.119870,-0.162672910,0.154910040,10.432405470,0.072400280,0.028963390,0.011616940
1640837708.122049,-0.156127360,0.349712850,10.254332540,0.039799520,0.040593750,-0.001588460
1640837708.124570,-0.077623170,0.241094870,9.696944240,0.012986360,-0.044359270,0.005684790
1640837708.130940,-0.297439660,0.248494040,9.898770330,0.078032920,0.022301080,-0.004832450
1640837708.131870,-0.353510680,0.359690040,9.691350940,0.100310160,0.052997470,-0.025443730
1640837708.132340,-0.418964390,0.303396110,10.004086490,0.064583130,-0.008265680,0.013823810
1640837708.134729,-0.326002720,0.390696350,9.938375470,0.041142100,0.011260810,0.010742250
1640837708.136860,-0.165870440,0.333150540,9.704520230,-0.005517900,0.051385170,0.026582180
1640837708.139809,-0.294308270,0.395112430,10.337344170,0.029203300,0.037385520,0.026333330
1640837708.142930,-0.433862300,0.515519260,10.371775630,0.044149160,-0.036683680,0.020413100
1640837708.144559,-0.169384750,0.392113150,9.397733690,0.010612610,-0.051678720,0.025868420
1640837708.146920,-0.138946090,0.339610930,9.507680890,0.027227410,0.018042330,0.011697410
1640837708.149629,-0.247224540,0.295156570,10.060574530,0.013092160,0.079049170,0.017550590
1640837708.155340,-0.079962370,0.280316350,9.978945730,-0.003789360,0.008234380,0.034053620
1640837708.156570,-0.176477730,0.300403590,10.229194640,-0.006659330,-0.043113530,0.039470200
1640837708.157019,-0.116810240,0.206874390,9.558862690,-0.029072170,0.010879340,0.047311190
1640837708.159700,-0.105028510,0.131599020,9.561388020,0.003775950,-0.000312920,0.034207110
1640837708.162310,-0.276517060,-0.072442560,10.178284650,0.026233490,0.034615390,0.035950540
1640837708.165079,0.016471290,-0.148216440,9.370327950,0.043913720,0.052413340,0.025337940
1640837708.166829,-0.220130010,-0.067592950,10.120879170,0.053764880,-0.024995210,0.027605890
1640837708.169770,-0.464188130,-0.098740750,10.058967590,-0.002808870,0.016342100,0.045737630
1640837708.172060,-0.354083240,-0.051285650,9.345601080,-0.012312830,-0.061075400,0.033329430
1640837708.174780,-0.573177810,-0.066572740,10.055372240,0.051449240,-0.029122830,0.003986060
1640837708.177199,-0.249255910,0.129896460,9.095848080,0.081738840,0.090382990,0.011248890
1640837708.182030,-0.223899720,0.260768920,10.109233860,0.084908310,-0.003264840,0.018532580
1640837708.183080,-0.490525540,0.301934780,10.686781880,0.036993620,0.003507730,0.040976700
1640837708.186280,-0.078452790,0.191434170,9.050735470,0.000153480,-0.101053710,0.052213670
1640837708.187460,-0.340464230,-0.117732730,9.878465650,0.063452120,-0.071986030,0.033701960
1640837708.189600,-0.223655420,-0.095865640,9.414698600,0.107771160,0.106197600,0.019750000
1640837708.192080,-0.201926140,-0.132544410,10.096916200,0.122459230,-0.043483080,0.013248620
1640837708.194680,-0.557205260,0.036734340,10.870567320,0.090841960,-0.059020520,0.024832790
1640837708.198300,-0.088226120,0.213492830,8.890346530,0.009591880,-0.064840910,0.037202240
1640837708.199999,-0.508696440,0.207005310,10.224778180,0.021585820,-0.088140370,0.033453110
1640837708.202090,-0.595825250,0.564189370,9.966429710,0.081032540,0.038315370,0.018137700
1640837708.204680,-0.224346180,0.635494410,9.418156620,0.093059250,-0.120610000,0.028201940
1640837708.207290,-0.450300340,0.711948510,10.595681190,0.076216440,-0.063651810,0.044476980
1640837708.209669,-0.025011580,0.701684530,9.280797960,0.007581710,0.028465690,0.059671700
1640837708.212309,-0.256054280,0.454974680,10.530055050,-0.019158420,-0.126649450,0.062084200
1640837708.217540,-0.435054390,0.536790550,10.307691570,0.006257000,-0.072190170,0.057198110
1640837708.218180,0.062877050,0.290869680,8.767164230,-0.002196430,-0.115825220,0.041842450
1640837708.219679,-0.273309590,0.319586070,10.254784580,0.010479990,-0.050398710,0.048416860
1640837708.221930,-0.039942850,0.367861300,9.720887180,-0.025968260,0.040803850,0.045770410
1640837708.224640,0.124896790,0.061616850,9.976112370,-0.061336160,-0.122199960,0.033965710
1640837708.227180,-0.146708100,0.312533620,10.353302960,-0.000868740,-0.063709910,0.051911180
1640837708.229640,-0.044244730,0.242176410,9.255851750,-0.032295290,-0.056013470,0.044357780
1640837708.232319,-0.398691240,0.258627470,10.071012500,-0.055734820,-0.128613430,0.059112910
1640837708.235980,-0.343297690,0.103294540,9.644619940,-0.029356780,-0.024196510,0.053450470
1640837708.237270,-0.079053060,-0.098333370,9.342947010,-0.010061260,-0.024783610,0.024785110
1640837708.239560,-0.339575380,0.112400830,10.340974810,0.027129060,-0.034980480,0.063540050
1640837708.241969,-0.164764670,-0.080934640,9.958725930,-0.028753290,-0.041607030,0.050804030
1640837708.245050,-0.084059820,-0.069391950,9.774258610,-0.059290230,-0.122140350,0.056502230
1640837708.246850,-0.264209660,-0.160406190,9.746829030,0.010682640,-0.077882420,0.050672890
1640837708.249709,-0.144256920,-0.285794910,9.342697140,0.049926340,-0.009071830,0.015346710
1640837708.253450,-0.264350680,-0.047336050,10.013675690,0.071305040,-0.059008610,0.025603180
1640837708.254760,-0.441506090,-0.090405050,10.258502960,0.045150530,-0.079494740,0.039209430
1640837708.257419,-0.327501120,0.039013420,9.482529640,-0.016425550,-0.119113930,0.041283660
1640837708.259640,-0.465678420,0.053637440,9.755288120,0.026261810,-0.114850710,0.053182240
1640837708.261920,-0.431539950,0.020413060,9.932189940,0.066106020,-0.013527270,0.029569870
1640837708.264609,-0.269574340,0.305657030,9.884895320,0.093412400,-0.092625630,0.030444560
1640837708.268720,-0.270573440,0.282591910,10.336984630,0.079354640,-0.111661870,0.043873490
1640837708.269539,0.001921650,0.298931930,9.572582240,0.017304720,-0.044284760,0.036670270
1640837708.271849,-0.235511120,0.474337340,10.087633130,0.005170700,-0.122973350,0.037595630
1640837708.274850,-0.455489010,0.375850980,10.398053170,0.019414720,-0.130812820,0.045156480
1640837708.276810,-0.171990190,0.396182000,9.009817120,0.027479230,-0.127327440,0.034114710
1640837708.279600,-0.307940690,0.432649490,10.024992940,0.053326790,-0.113700340,0.033295150
1640837708.283000,-0.299281690,0.477649780,10.238536830,0.020177660,0.011128190,0.053228440
1640837708.284619,-0.015484600,0.523667810,9.894312860,-0.043250620,-0.133849680,0.052961710
1640837708.286939,-0.280724440,0.457944990,10.673925400,-0.061340640,-0.151175310,0.059470550
1640837708.289759,0.031944860,0.428789170,8.979784010,-0.030975040,-0.056073070,0.034810600
1640837708.291859,-0.213462490,0.443774880,9.956318860,-0.006048380,-0.154943760,0.037007040
1640837708.294649,-0.454228220,0.288977740,10.397778510,-0.011856850,-0.053964560,0.047861040
1640837708.297230,0.155012610,0.081156570,9.032717700,-0.051808360,-0.108164550,0.029507280
1640837708.299890,-0.137702350,0.104835410,10.549465180,-0.042314830,-0.102056570,0.063426790
1640837708.301990,0.038601700,0.132369650,9.637585640,-0.049190220,0.037813190,0.074288260
1640837708.304600,0.030100580,0.037754050,9.951339720,-0.066198420,-0.178775190,0.052614510
1640837708.306800,-0.327955310,0.125832240,10.264247890,-0.021553040,-0.108340380,0.071947280
1640837708.309660,0.173699530,0.045869170,8.408786770,-0.018611550,-0.056764480,0.038419660
1640837708.311890,-0.300592660,-0.064300630,10.322196960,-0.004826490,-0.066520270,0.039884450
1640837708.315970,-0.336103200,0.022595700,10.174627300,0.018142160,0.011025370,0.031980870
1640837708.319059,-0.056024810,0.064399290,9.527555470,-0.023344160,-0.172871350,0.028666850
1640837708.319840,-0.440858570,0.091046270,10.115324970,-0.038032240,-0.094901030,0.066822770
1640837708.321859,-0.121299570,-0.000813240,9.076863290,-0.025890770,0.001755360,0.041882700
1640837708.324669,-0.246287300,-0.070803600,10.137778280,0.025227670,-0.111226740,0.037117310
1640837708.328070,-0.245777930,-0.019715630,9.920187000,0.075706850,-0.052532550,0.031577050
1640837708.330140,0.179074110,0.040009040,9.120406150,0.016041100,-0.083969540,0.026230520
1640837708.331960,-0.166004660,0.035258470,10.381903650,-0.012272600,-0.058841710,0.054748360
1640837708.334720,-0.183665590,-0.021589010,10.074797630,0.005184110,-0.057597460,0.039558120
1640837708.336830,-0.164456070,0.173020970,9.662272450,0.029027460,-0.164911150,0.021004680
1640837708.339939,-0.370447930,0.102006950,9.814992900,0.060871250,-0.077481580,0.027835370
1640837708.341930,-0.309909190,0.166535260,9.655800820,0.056403880,-0.019401310,0.004212560
1640837708.345360,-0.449827910,0.476422550,10.172259330,0.034280120,-0.120449070,0.027494140
1640837708.351460,-0.330998750,0.394054740,9.966400150,-0.004984440,-0.121095780,0.044837590
1640837708.352210,-0.023644970,0.536594330,9.283140180,-0.026658180,-0.055325030,0.038267670
1640837708.353299,-0.147820500,0.565481900,10.197730060,0.000673530,-0.053845350,0.035955010
1640837708.354620,-0.255772230,0.525534510,10.569255830,0.007237490,-0.080835830,0.037129220
1640837708.356830,0.073962730,0.495658400,9.373307230,-0.002087650,-0.142277790,0.036215790
1640837708.359670,0.008349920,0.293635700,9.837701800,-0.025205320,-0.101742170,0.033031400
1640837708.362140,-0.024734340,0.295923920,9.846211430,-0.027747450,0.036443770,0.038407750
1640837708.364640,0.100813690,0.403810230,9.742756840,-0.051556520,-0.098849830,0.028248130
1640837708.369370,-0.267501650,0.400033950,10.584371570,-0.075341750,-0.109167400,0.035865600
1640837708.370010,0.094848600,0.518017770,8.924009320,-0.077062850,-0.036376720,0.040419390
1640837708.371919,-0.184587660,0.436181520,10.085960390,-0.075566770,-0.112067180,0.023150450
1640837708.374640,-0.338924170,0.228082050,10.272918700,-0.038196150,0.013387210,0.037957730
1640837708.377120,0.181420490,0.181386860,9.111049650,-0.027768320,-0.071200730,0.016003850
1640837708.382730,-0.285086270,0.062592950,10.609955790,-0.048789380,-0.065721570,0.037291650
1640837708.383340,-0.007359010,0.146149340,9.167551990,-0.095538790,0.010588770,0.049838430
1640837708.384660,-0.027243830,0.003672480,9.728209500,-0.110356490,-0.138266400,0.035260610
1640837708.386920,-0.227221060,-0.110281170,10.004963870,-0.050340600,0.003415350,0.022462010
1640837708.389580,0.334660350,0.177486490,8.709944730,-0.012353060,0.002487000,-0.003007050
1640837708.392069,-0.173918660,0.143309880,10.697614670,-0.034198170,-0.026430200,0.011654200
1640837708.396289,-0.161680090,0.108943340,10.001127240,-0.052644320,0.025610630,0.022037330
1640837708.397179,-0.100346320,0.112094190,9.540447240,-0.061494110,-0.153484940,0.031712640
1640837708.400139,-0.572696030,-0.169942510,9.929488180,-0.030834970,-0.032551590,0.028268990
1640837708.402390,-0.170386540,-0.169170900,8.843536380,0.006067750,0.030678510,0.004543360
1640837708.404700,-0.456081060,-0.118245230,10.414765360,0.026932360,-0.028401610,-0.004737080
1640837708.406890,-0.289250220,0.035376840,9.986078260,0.001165270,0.000759960,0.003035370
1640837708.409780,0.071682620,0.268055020,9.408989910,-0.053048130,-0.087551780,0.016255670
1640837708.411909,-0.227432300,0.311498490,10.262922290,-0.046768790,-0.004109740,0.011472400
1640837708.415350,-0.068180700,0.466325310,9.671038630,-0.019335750,-0.004494190,-0.005380810
1640837708.417660,-0.230509920,0.647226150,10.082511900,0.006037950,-0.097863380,-0.000007450
1640837708.420030,-0.164405870,0.531655070,9.625567440,-0.017423930,-0.018431250,0.003863870
1640837708.421860,-0.001997450,0.474908020,9.517337800,-0.056530540,-0.002181530,0.005888940
1640837708.424680,-0.284752490,0.461788480,10.341750140,-0.045564760,0.000602010,0.015851860
1640837708.426990,-0.205070530,0.265077650,9.965486530,-0.068154930,-0.039760760,0.006075200
1640837708.430070,-0.134943530,0.369177250,9.623634340,-0.064246360,-0.069500510,0.017395620
1640837708.431820,-0.244996830,0.328580860,9.827672000,-0.065425040,-0.007961690,0.003863870
1640837708.435099,-0.334708810,0.211836070,10.010522840,-0.101450090,0.000846390,0.008225440
1640837708.436830,-0.131179850,0.180054550,9.772374150,-0.055417430,-0.055116420,0.023226440
1640837708.439649,-0.121693250,0.003050640,9.978325840,-0.040312120,-0.023721160,-0.009234250
1640837708.442390,0.052789550,0.243375850,9.411796570,-0.064547380,0.037157540,0.022447110
1640837708.444939,0.004795770,0.189796640,9.928135870,-0.097823160,-0.030280660,0.031237310
1640837708.447260,-0.116831880,0.019289030,10.161164280,-0.107181070,-0.017055870,0.019498170
1640837708.449620,0.204028610,0.022540850,9.037945750,-0.026007000,-0.017973780,0.019718710
1640837708.451949,-0.165702330,0.023043540,10.007869720,-0.010332470,0.003135210,-0.008127090
1640837708.454690,-0.200510400,0.078306640,9.641179080,-0.065942120,0.068300960,0.003950300
1640837708.456920,-0.074589730,0.056628860,9.616885190,-0.068053600,-0.061416630,0.007845460
1640837708.459610,-0.429347250,-0.060218210,10.201295850,-0.056073070,0.011540950,0.005456810
1640837708.461920,-0.125065210,-0.091353340,9.057084080,-0.021147730,0.031295420,0.015063590
1640837708.465440,-0.456269000,-0.199155630,10.431295390,0.035694250,-0.046835840,-0.010144710
1640837708.466840,-0.395569380,-0.157829940,9.789198880,0.017309190,0.049136580,-0.003254410
1640837708.469620,0.035356490,0.003198230,9.099979400,-0.008443000,-0.054709620,0.013744830
1640837708.471920,-0.244283850,0.056478850,10.292945860,-0.015069550,0.045032800,0.016012790
1640837708.475250,0.159030230,0.294268460,9.271961210,-0.016941130,0.074343380,0.015868250
1640837708.476790,-0.114769650,0.493115100,10.498841290,-0.005371870,-0.085413450,0.013186040
1640837708.479770,-0.241932450,0.464305460,9.896402360,0.003959240,0.013418500,0.000856820
1640837708.481930,0.046130010,0.358804700,9.026978490,0.003229080,-0.034862760,-0.011067090
1640837708.484660,-0.516049680,0.384955530,10.733160020,0.024700170,0.029924510,0.012135510
1640837708.486830,-0.237177820,0.298909690,9.601467130,-0.013843180,0.049090390,0.014843050
1640837708.489980,-0.152216760,0.222378360,9.930295940,-0.053438540,-0.084298860,0.023002920
1640837708.491900,-0.254932110,0.352971700,9.935209270,-0.025594240,0.068956630,0.032663360
1640837708.494680,0.025876890,0.329838370,9.417706490,-0.056232520,0.026547910,0.016507510
1640837708.496919,-0.229283840,0.381031480,10.434816360,-0.035606330,-0.051194430,0.034341220
1640837708.499640,0.108159170,0.213624570,9.482617380,-0.016692280,0.037613510,0.007787350
1640837708.501950,0.256954730,0.206666230,9.442935940,-0.029554970,0.039397180,0.010243060
1640837708.505780,-0.097937410,0.332615910,10.404775620,-0.027059020,0.075450550,0.043700640
1640837708.507030,-0.054092610,0.118155810,9.903030400,-0.082667180,0.011944770,0.027601420
1640837708.509760,-0.104226850,0.113368120,9.544616700,-0.059635950,-0.051139300,0.039896380
1640837708.512509,-0.261834740,-0.135369840,9.476135250,0.005345050,0.050264600,0.031639640
1640837708.514629,-0.169535120,-0.196400700,9.401622770,0.005510450,0.111441340,0.009977820
1640837708.516909,-0.229099960,-0.203376020,10.197234150,0.020070380,0.048519670,0.024230780
1640837708.519610,-0.252859710,-0.252188590,10.187448500,-0.000010430,0.035806000,0.017204880
1640837708.522060,-0.032708250,-0.025076350,9.260627750,-0.028474630,0.012914840,0.035668910
1640837708.524690,-0.259272340,-0.146171600,9.931002620,0.006073710,0.023123620,0.038421150
1640837708.526970,-0.317895260,-0.149747600,9.802858350,0.049601500,0.078612570,0.011904540
1640837708.529670,-0.092928040,0.026795610,9.341947560,0.088690210,0.007337330,0.001090760
1640837708.531880,-0.228088070,-0.045732230,10.084661480,0.070221730,0.042684380,0.014452640
1640837708.535940,0.037260890,0.087701210,9.499303820,0.029413400,0.121349100,0.022700430
1640837708.537639,-0.214938730,0.125580030,10.471652030,0.028666860,-0.025533150,0.021286310
1640837708.540449,-0.438293250,0.131431300,10.153010370,0.049605980,0.003656740,0.039525330
1640837708.541839,-0.139448210,0.155939220,8.789905550,0.065548730,0.004933770,0.010189420
1640837708.545169,-0.617648540,0.083434140,10.429867740,0.092461700,0.047217300,0.009438390
1640837708.546840,-0.521105410,0.247658160,9.961035730,0.094321370,0.094059120,0.009530780
1640837708.549600,-0.237379510,0.331190940,9.823471070,0.041677050,-0.086906540,0.009031590
1640837708.551869,-0.364067080,0.340962410,10.160265920,0.031760340,0.037673120,0.043587390
1640837708.554900,0.140240800,0.565068660,9.096954350,0.022812190,0.088989730,0.021295250
1640837708.556810,-0.200076480,0.593275610,10.775713920,0.030004980,-0.015103820,0.030045210
1640837708.559630,-0.160912280,0.561195080,9.933987620,0.045230990,0.028353940,0.036323070
1640837708.562620,0.145457180,0.427011160,9.243043900,0.028879940,-0.056111810,0.006303190
1640837708.564570,-0.283181460,0.356138890,10.247890470,0.021363790,0.050762300,0.028328590
1640837708.566870,-0.076631500,0.271385700,9.417940140,-0.004802640,0.076192620,0.029349330
1640837708.570000,-0.157505680,0.121132300,10.122554780,-0.021974740,-0.042267150,0.029036400
1640837708.572199,-0.308335810,0.105702360,9.938909530,0.008486210,0.039909780,0.027398770
1640837708.574750,-0.148371980,0.115804370,9.352189060,0.007089970,-0.005246700,0.015044210
1640837708.576860,-0.371238260,-0.055985920,10.092203140,0.010816750,0.008927290,0.027844310
1640837708.579640,-0.162322790,-0.184465210,9.640255930,0.040215260,0.052380560,0.018705430
1640837708.582739,-0.040656910,0.013761090,9.640327450,0.039407610,0.016625230,0.022651260
1640837708.584600,-0.102656830,0.033532470,9.915531160,0.016607340,0.043648490,0.040799380
1640837708.586990,-0.061782760,0.016439920,9.846944810,-0.008679930,0.029224160,0.039184100
1640837708.589609,-0.147569090,0.051172960,9.848790170,0.023651130,-0.018259890,0.027395790
1640837708.592029,-0.233182180,-0.174964030,9.551284790,0.080432000,-0.008936230,0.017265980
1640837708.594800,-0.258424940,-0.111251880,9.430145260,0.105108330,0.063304600,0.002719460
1640837708.597390,-0.202650440,-0.047186760,9.777561190,0.081856550,0.048811740,-0.003758070
1640837708.599700,-0.372014730,0.043148510,10.407855990,0.025625530,0.000046190,0.027258700
1640837708.603479,-0.130126880,0.148147150,9.507112500,0.031735000,0.006625060,0.044368210
1640837708.604720,-0.289318050,0.097816560,9.781124110,0.067877770,-0.025026500,0.019992890
1640837708.606850,-0.541033800,0.190651190,10.078194620,0.109957170,0.041691960,0.022782390
1640837708.609580,-0.219892250,0.245721010,9.460290910,0.125376900,-0.035153330,0.007049740
1640837708.612049,-0.474363300,0.114954160,10.238252640,0.084415080,-0.029385090,0.018131730
1640837708.615020,-0.095998700,0.216311560,9.497386930,0.069741910,0.065949560,0.030994420
1640837708.617060,-0.041766210,0.406740010,10.096358300,0.045177350,-0.032952430,0.019064550
1640837708.619680,-0.269625720,0.494758700,10.477091790,0.019179290,0.033573810,0.057131060
1640837708.623700,0.220093270,0.572450880,9.197086330,0.042210520,-0.031724580,0.038097800
1640837708.624780,-0.322495310,0.481917860,10.354466440,0.068241370,-0.043693180,0.022333860
1640837708.627040,-0.271383200,0.427766650,9.541932110,0.073795010,0.054533780,0.026310980
1640837708.629599,-0.103942300,0.383010800,9.591421130,0.031280520,-0.058937080,0.039094690
1640837708.632520,-0.511970940,0.088711120,10.440656660,0.002205370,0.034472350,0.040070710
1640837708.637260,0.016032830,0.226029410,9.136955260,0.013491510,0.016915800,0.038945670
1640837708.637810,-0.262626500,0.257454750,10.427580830,0.020672380,-0.036205360,0.039230290
1640837708.639619,-0.306005240,0.152917710,9.950195310,0.004193190,0.030568250,0.037696960
1640837708.641840,0.130654950,0.135247950,9.229726790,0.023356080,-0.062672800,0.028967860
1640837708.645520,-0.291622520,0.033355420,10.048870090,0.061862180,0.021211800,0.019420690
1640837708.646809,-0.025357160,0.148614480,9.247142790,0.037662690,0.055693090,0.028672810
1640837708.649629,-0.178859100,0.151816260,10.238563540,0.005088750,-0.057318800,0.035712120
1640837708.652410,-0.324526280,-0.011714970,9.941442490,0.008118150,-0.001604860,0.034555800
1640837708.655040,-0.037738320,-0.141653930,9.291030880,0.048004090,-0.032551590,0.021648410
1640837708.656800,-0.425192150,-0.118699130,10.118782040,0.114181650,0.009860100,0.011157990
1640837708.659780,-0.358417090,-0.195577320,9.713600160,0.083768380,0.022287670,-0.004763900
1640837708.661880,-0.126867950,0.063052280,9.527815820,0.047945990,-0.065484650,0.015199190
1640837708.664739,-0.399400530,0.092049010,9.932260510,0.056307020,-0.000098350,0.033985080
1640837708.667260,-0.167051990,0.049210540,9.621405600,0.049762430,0.014883280,0.019171840
1640837708.669680,-0.288052350,0.333502110,10.097155570,0.112386070,-0.069160770,0.028197470
1640837708.671830,-0.453298930,0.192491470,10.214648250,0.098453460,-0.033771990,0.004740060
1640837708.674589,0.015738590,0.315568660,9.152539250,0.072081390,-0.020314750,0.011445580
1640837708.677420,-0.217669110,0.292023330,10.209769250,0.100162650,-0.035239760,0.026866800
1640837708.679570,-0.251819490,0.346487520,10.176568030,0.058193500,0.025321550,0.005382300
1640837708.684670,0.215298310,0.681483030,9.145812030,0.026719270,-0.085388130,0.040279330
1640837708.687719,-0.247778610,0.462786940,10.454608920,0.016742950,-0.044079120,0.022484360
1640837708.688290,-0.003497770,0.530186770,9.486760140,0.030303000,0.070710480,0.002390150
1640837708.689610,-0.166045440,0.539254430,10.144722940,0.073423990,-0.127023460,0.020845240
1640837708.691910,-0.544226290,0.289901610,10.511158940,0.046029690,-0.023603440,0.024046010
1640837708.694579,0.207115100,0.238831670,8.501334190,-0.013253090,-0.001820920,0.016529860
1640837708.696890,-0.388613430,0.240482360,10.637387280,0.004966560,-0.024282930,0.031185150
1640837708.699900,-0.261276450,0.346161280,10.041278840,-0.003138180,0.068421670,0.022381550
1640837708.701990,0.272857900,0.369311360,9.266135220,-0.024616720,-0.132517530,0.018954280
1640837708.705479,-0.224867750,0.338442860,10.484869960,0.001364950,-0.003983080,0.013634560
1640837708.706849,0.369819910,0.320925530,8.809347150,0.004522500,0.088720030,0.002183020
1640837708.709699,0.053989190,0.162120090,10.318573950,0.020052490,-0.055503850,0.024548180
1640837708.712080,-0.196338700,0.164141640,10.238655090,0.011397900,0.036415450,0.017662340
1640837708.715900,0.264160190,-0.037279990,8.863106730,-0.037424270,-0.043864540,0.021891290
1640837708.716950,-0.510393680,-0.152538480,10.389783860,0.023378430,-0.027987370,0.043940550
1640837708.720140,-0.359925060,-0.199364540,9.470790860,0.032666320,0.057469310,-0.010526180
1640837708.721930,-0.207782570,-0.227917020,9.530119900,0.044636430,-0.052352260,-0.006318090
1640837708.724710,-0.545764210,-0.018527890,10.298162460,0.060734160,0.028739870,-0.012229380
1640837708.727079,-0.033957920,0.083440000,9.274900440,0.010269880,0.037296120,-0.002978740
1640837708.731429,-0.256025080,0.123383340,10.143898010,0.031462320,-0.040538610,0.031866140
1640837708.732900,-0.381469640,0.066150420,10.169347760,0.070640440,-0.002117460,-0.000661610
1640837708.734580,0.005973740,0.151422050,9.016763690,0.078113380,-0.035932660,0.005264580
1640837708.736940,-0.391042740,-0.011486940,9.957080840,0.102533420,-0.026811660,0.009758770
1640837708.739630,-0.216604230,-0.012099890,9.772142410,0.083373490,0.055919600,-0.008296970
1640837708.741860,-0.139475910,0.180013030,9.777963640,0.068281590,-0.051362820,0.002349910
1640837708.745080,-0.429442050,0.157645170,10.472636220,0.060461470,-0.054238740,0.004932280
1640837708.747239,-0.195227490,0.308707420,9.394775390,0.046382850,0.003634390,-0.003243980
1640837708.749670,-0.366429150,0.389809100,9.857627870,0.081679220,-0.076447430,-0.010347370
1640837708.752030,-0.575967430,0.384849970,10.438945770,0.097928940,-0.009168680,-0.002734360
1640837708.754700,-0.166444660,0.513432620,9.215214730,0.064487740,-0.033070150,0.006519260
1640837708.756840,-0.317004050,0.344027940,10.255042080,0.041374560,-0.088346030,0.017650430
1640837708.759660,-0.180155690,0.374912380,9.872148510,0.045880680,0.054588920,0.024993710
1640837708.762869,0.079061090,0.536071000,9.567365650,0.027218460,-0.071346770,0.013110040
1640837708.765529,-0.322175260,0.418027910,10.693446160,0.021681190,-0.078661750,0.023637710
1640837708.768640,0.169675010,0.498450820,8.873362540,0.027531390,0.000038740,0.004239380
1640837708.769580,0.049817560,0.476697740,9.824098590,0.006186960,-0.068682440,-0.005044040
1640837708.771839,-0.214373280,0.337525070,10.321554180,0.001454350,0.059933970,0.011299550
1640837708.774610,0.162310410,0.278025540,9.351397510,-0.003294650,-0.048680600,0.001972910
1640837708.776899,-0.378871800,0.104758640,10.504427910,0.011247400,-0.088296840,0.019007920
1640837708.779800,-0.237509240,0.088102440,9.265969280,0.010508300,0.009594860,0.023049110
1640837708.781890,-0.168442860,-0.079341840,9.434092520,-0.011511150,-0.064831970,0.016868120
1640837708.785620,-0.321350870,-0.282006860,10.089960100,0.026568770,0.035478180,0.004911420
1640837708.786840,0.149624760,-0.073410380,9.237441060,0.058148810,0.010678170,-0.007736680
1640837708.790160,-0.081575190,0.079063160,10.208627700,0.037476410,-0.024482610,0.003795330
1640837708.791920,-0.203228130,0.083334680,10.012380600,-0.006669760,-0.017352400,0.002917650
1640837708.796589,-0.167013600,0.123347610,9.491863250,0.008018320,-0.096327070,0.005264580
1640837708.797590,-0.338060140,-0.073329900,9.532453540,0.079083450,-0.015129150,-0.013457240
1640837708.799650,-0.277248860,-0.065742020,9.561507230,0.116305050,0.036194920,-0.018160050
1640837708.802110,-0.340702330,0.121730980,10.239099500,0.101071600,-0.006516280,-0.006948410
1640837708.806870,-0.276603880,0.218033840,9.997720720,0.026147070,-0.065408650,0.003157560
1640837708.807649,-0.159331230,0.310291410,9.584467890,-0.019933290,-0.048993530,0.020733480
1640837708.809769,-0.059778420,0.342353700,9.473853110,0.048467520,0.014893710,-0.006785990
1640837708.812009,-0.307808820,0.412487150,10.267656330,0.098733600,-0.014562900,-0.025887790
1640837708.816480,-0.254833340,0.597134590,9.933053020,0.095835330,-0.044818230,-0.006669760
1640837708.818600,-0.051756390,0.374137460,9.563266750,0.029866400,-0.079108770,0.002567470
1640837708.819599,-0.217321280,0.202113210,9.983459470,-0.009451810,0.024589900,0.006026030
1640837708.826920,0.029922330,0.335635720,9.647922520,0.032195450,0.014425820,-0.003492830
1640837708.827999,-0.178773250,0.327579470,10.314405440,0.025676190,-0.059056290,-0.004842880
1640837708.828470,-0.060016790,0.307601420,9.568677900,0.011670590,-0.009278950,0.004753470
1640837708.829579,0.097293280,0.272030860,9.421424870,0.019405780,-0.047719480,-0.012861190
1640837708.831930,-0.362465290,0.124736980,10.279674530,0.029923030,0.015546380,-0.010679660
1640837708.835209,0.041095260,0.137021560,9.239858630,0.029528140,-0.014585260,0.002014640
1640837708.836990,-0.043413700,0.025963440,10.011580470,0.022837520,-0.045333800,0.002339480
1640837708.841210,-0.119285320,0.054439860,9.696584700,0.018361210,0.070352850,0.016452370
1640837708.843190,0.085185890,0.171534050,9.552359580,0.019976490,-0.042684370,0.011162460
1640837708.844620,-0.343913670,0.107232120,10.282368660,0.018782920,-0.027199090,-0.009962920
1640837708.850839,0.038519230,0.065028970,8.942441940,0.025241080,0.027970970,-0.023365020
1640837708.851570,-0.094231610,0.075014380,9.854231830,0.066639480,-0.019943720,-0.027985870
1640837708.852170,-0.277128880,0.092072990,9.913609500,0.074510280,0.065013770,-0.004626810
1640837708.854590,-0.015790540,0.143389900,9.583389280,0.020603840,-0.040222700,0.001807510
1640837708.857540,-0.457948090,0.066752110,10.366456030,0.026197730,-0.034143030,0.022032860
1640837708.859609,-0.331364510,-0.090441110,9.277004240,0.041115280,0.003309550,-0.003473460
1640837708.861899,-0.157980590,-0.065849330,9.442446710,0.094832490,-0.028316680,-0.003956260
1640837708.864670,-0.438462790,0.089104350,10.155663490,0.126609210,0.046305350,-0.016754870
1640837708.867659,-0.198910430,0.303341950,9.722728730,0.033567850,-0.004839900,-0.018641350
1640837708.869540,-0.188434530,0.512031320,9.791718480,0.005640090,-0.087665010,0.018146640
1640837708.871889,-0.291030590,0.451992720,9.858878140,0.010390580,-0.010287760,-0.017762180
1640837708.875370,-0.035826930,0.634068610,9.427133560,0.046089280,0.024203960,-0.011511150
1640837708.876890,-0.355342950,0.652955590,10.401131630,0.088469690,-0.056546930,-0.001248720
1640837708.880010,-0.250582460,0.442604990,9.971714020,0.028139350,-0.022245940,0.001101200
1640837708.882730,0.237717940,0.305251090,8.977225300,-0.002101060,-0.007060170,0.014568870
1640837708.884580,-0.295875370,0.246916000,10.604920390,-0.001966950,-0.017131860,0.011107320
1640837708.886910,-0.049136720,0.258863090,9.564335820,-0.027005380,0.039555130,0.017513330
1640837708.890110,0.065353280,0.116081200,9.405804630,-0.003431740,-0.114819400,0.010016560
1640837708.892050,-0.458310370,0.101837910,10.418173790,0.023534900,0.002209840,-0.001429020
1640837708.894630,0.099565600,0.170832470,8.844839100,0.002130870,0.048147150,-0.000628830
1640837708.896890,-0.308577240,0.043099150,10.524908070,0.004038220,-0.082045780,0.007796290
1640837708.900139,-0.247831670,0.144396930,9.839719770,-0.004719200,0.070609140,0.002528730
1640837708.902340,0.253832160,0.201673850,8.902912140,-0.012253220,-0.049324330,0.009268520
1640837708.904569,-0.461171300,0.187097740,10.721269610,0.016985840,-0.025285780,0.033117830
1640837708.907169,0.153929110,0.175797600,8.753943440,-0.003394480,0.056555870,0.009125470
1640837708.909530,0.057316530,-0.077431000,9.663427350,0.024047500,-0.074619050,0.009916720
1640837708.913750,-0.324013080,-0.009164960,10.168911930,0.060486800,0.088943550,0.002869960
1640837708.916950,0.221074980,-0.096676510,8.984526630,0.025616590,-0.005535780,-0.009049480
1640837708.918320,-0.490393580,-0.152063340,10.756725310,0.034007430,-0.052467000,0.017361340
1640837708.920390,-0.307729840,-0.096120230,9.369002340,0.023357570,0.024563080,-0.000667570
1640837708.922070,-0.117168530,-0.278388530,9.162628170,0.054170190,-0.071901080,-0.000543890
1640837708.924860,-0.635438320,-0.143816770,10.172601700,0.121267140,0.037693980,0.000531970
1640837708.926859,-0.094046910,-0.086000350,9.206306460,0.100718460,0.021184980,-0.009621680
1640837708.929630,-0.358694290,-0.023071600,10.262552260,0.086851410,-0.076737990,0.022426250
1640837708.932030,-0.332090170,0.056535460,9.916536330,0.081726920,-0.004366040,0.015434620
1640837708.935040,-0.001766210,0.077957250,9.263588910,0.089836110,-0.031289460,0.003272300
1640837708.937579,-0.546034040,0.276243950,10.406453130,0.125418600,-0.036746270,-0.006051360
1640837708.939639,-0.269100640,0.457929220,9.576877590,0.105778880,-0.032767650,-0.001156330
1640837708.941870,-0.077893980,0.508722010,9.308356290,0.074312090,-0.055275860,0.008212030
1640837708.944650,-0.320041330,0.393316060,10.229994770,0.089709460,-0.007939340,0.011631840
1640837708.947019,-0.147012620,0.514909270,9.803994180,0.082412370,-0.017137830,0.008817020
1640837708.950330,-0.180454850,0.533358570,9.774944310,0.068287570,-0.105495770,0.023169820
1640837708.952010,-0.271897490,0.336884440,10.090126990,0.043730440,-0.040350860,0.024130940
1640837708.955109,-0.008182590,0.405374440,9.263119700,0.049290060,0.011019410,0.011795760
1640837708.956840,-0.158322630,0.381347950,10.128864290,0.058822330,-0.070677710,0.010055300
1640837708.959580,-0.202085360,0.305011510,10.095332150,0.039467220,-0.009496510,0.027339160
1640837708.961959,0.184220120,0.391465780,9.001379970,0.017324090,-0.053842370,0.004434590
1640837708.965210,-0.286940930,0.259817990,10.402590750,0.009474160,-0.059016050,0.007377560
1640837708.966889,-0.101080490,0.368457350,9.479702000,0.026711820,0.021113460,0.015902520
1640837708.969800,0.015438870,0.297597650,9.645125390,0.021182000,-0.106653590,0.014036900
1640837708.973170,-0.228959890,0.142425520,10.173127170,0.024856630,0.010006130,0.010158120
1640837708.974579,0.230068640,0.295258190,8.839075090,0.024478140,0.018878280,0.017018620
1640837708.976859,-0.200975550,0.137766840,10.404680250,0.006026030,-0.058533260,0.025318570
1640837708.980379,-0.230019960,0.055574880,9.835184100,0.015743080,0.005550680,0.041207670
1640837708.982129,-0.091449720,-0.120727020,9.338773730,0.043994180,-0.110453360,0.026731190
1640837708.986709,-0.437994390,-0.271381740,9.917483330,0.069113080,-0.014390050,0.001133980
1640837708.988420,-0.127865850,-0.177008900,9.126634600,0.071316960,0.038287050,-0.003108380
1640837708.989539,-0.219776940,-0.094394320,10.101270680,0.058889400,-0.039757790,-0.002583860
1640837708.991870,-0.246314420,-0.014599390,9.924372670,0.050681840,-0.022196770,0.016069410
1640837708.994639,-0.033160570,0.025829570,9.313799860,0.064240400,-0.075820100,0.036983190
1640837708.996889,-0.280482710,0.033490810,9.759976390,0.104461610,-0.015769900,0.018674140
1640837708.999719,-0.348237960,0.100307350,9.799491880,0.115428880,-0.012405220,0.009197000
1640837709.003690,-0.399290830,0.299078760,9.885420800,0.107260070,-0.082810230,0.014108420
1640837709.005970,-0.303882480,0.344211490,9.448366170,0.074958800,-0.059469050,0.016029180
1640837709.006840,-0.293048860,0.441771000,9.695577620,0.048455600,-0.025035440,0.014872850
1640837709.009630,-0.224039000,0.618891950,9.927407260,0.068046140,-0.011134150,0.015941260
1640837709.011979,-0.232723150,0.584418710,10.118569370,0.049859290,-0.089196870,0.016240780
1640837709.016160,-0.150780840,0.493135060,9.700716970,0.057433560,-0.063367190,0.025871400
1640837709.019250,0.014268590,0.432143930,9.536612510,0.069689750,-0.053450470,0.005921720
1640837709.020269,-0.311074230,0.357582900,10.222920420,0.034347180,-0.042890010,0.016708670
1640837709.021900,-0.001138580,0.381724920,9.360726360,0.017519300,-0.055044900,0.042882570
1640837709.024590,-0.054360730,0.259721190,9.823913570,0.000089410,-0.092197970,0.026492780
1640837709.028000,-0.244430170,0.268560020,9.862366680,0.010359290,0.012044610,0.019948190
1640837709.030660,-0.080715620,0.448883830,9.705924990,0.017304720,-0.066818300,0.022055210
1640837709.031999,-0.503491400,0.285681070,10.523622510,0.004579130,-0.106987360,0.024220350
1640837709.036280,-0.049611700,0.219130770,8.950211520,0.008735060,-0.048331920,0.011983510
1640837709.037210,0.035080790,0.345640720,9.381422040,0.018544500,-0.050528360,0.005224350
1640837709.040370,-0.154245930,0.305505160,9.975125310,0.002534690,0.053410240,0.025677690
1640837709.041960,0.199370970,0.359033200,9.742219920,-0.037059190,-0.064323840,0.033594670
1640837709.045009,-0.152525650,0.195922940,10.461865430,-0.012467800,-0.122317680,0.032953920
1640837709.046880,-0.066286340,-0.063447900,9.158790590,0.021801890,-0.050354010,0.016304850
1640837709.050010,-0.140164490,-0.187727940,9.451803210,0.053340200,-0.038927800,0.000287590
1640837709.053550,-0.489695370,-0.166079100,10.213812830,0.069873030,-0.006954370,-0.013554100
1640837709.054960,-0.206472260,-0.110690040,9.442504880,0.002087650,-0.062547630,0.000278650
1640837709.056880,-0.188648300,0.150727090,9.585557940,-0.007942320,-0.090208640,0.021933020
1640837709.059589,-0.332271160,0.224455120,9.922603610,-0.001852210,-0.010356310,0.021757190
1640837709.061920,-0.090038940,0.238379930,9.730464940,0.036840140,-0.021938980,0.004343690
1640837709.064960,-0.216680790,0.488687160,10.315004350,0.096695110,-0.113780800,0.008426610
1640837709.067740,-0.196524840,0.298250530,9.798038480,0.060683490,-0.032597780,0.021182000
1640837709.070430,0.155810270,0.381429430,9.093570710,0.033947820,-0.037640340,0.019125640
1640837709.072000,-0.333040180,0.612282040,10.568473820,-0.009182090,-0.073668360,0.025601690
1640837709.074700,-0.027215940,0.502057730,9.439371110,-0.060378020,0.007286670,0.032109020
1640837709.077000,0.103045730,0.539801600,9.551979060,-0.016024710,-0.126712050,0.002427400
1640837709.081169,-0.437841000,0.536203210,10.677448270,0.040286780,-0.013574960,0.002986190
1640837709.087370,0.110711780,0.444376290,9.046504970,0.005567070,-0.007568300,0.003425780
1640837709.088080,-0.285155560,0.381596620,10.490953450,-0.033602120,-0.146956760,0.026170910
1640837709.088500,-0.134663950,0.209203930,9.529666900,-0.064119700,0.032725930,0.033423300
1640837709.089550,0.327742550,0.150948730,8.779673580,-0.058861080,-0.057309880,0.016374890
1640837709.091920,-0.503293690,0.396248850,10.871388440,-0.023755430,-0.043895840,0.037072600
1640837709.094600,0.062033680,0.227020770,9.193991660,-0.058546660,-0.025105480,0.017923120
1640837709.096860,0.134977620,-0.009856040,9.621455190,-0.036858030,-0.131221090,0.014789400
1640837709.099830,-0.200006740,0.022973600,10.098718640,0.026471910,0.058452790,0.002424420
1640837709.102330,0.223276670,-0.045288580,9.286062240,-0.007632380,0.020720070,-0.016677380
1640837709.104590,-0.217960310,0.227307320,10.382721900,-0.033327930,-0.092595800,0.032381710
1640837709.106890,-0.169991820,0.150567560,9.591025350,-0.067554420,-0.037911540,0.025169560
1640837709.109650,-0.011925280,0.122996810,8.906550410,-0.058808920,-0.051930550,0.024579460
1640837709.112010,-0.539786100,0.100260170,10.245466230,0.032071770,-0.027966500,0.017850100
1640837709.114810,-0.296169670,-0.025794420,9.914757730,0.049565740,0.018559400,-0.013759730
1640837709.117210,-0.153564010,0.241254480,9.743330960,0.013755260,-0.080727060,-0.006605690
1640837709.120230,-0.269645420,0.203153860,10.251641270,-0.033585730,-0.045818100,0.035092240
1640837709.121919,0.095653970,0.264722910,9.269337650,-0.066857030,0.030224020,0.023154910
1640837709.124580,-0.078377880,0.560639980,10.043980600,-0.036303700,-0.081729890,0.021536650
1640837709.126940,-0.282206120,0.520667140,10.247005460,-0.011053680,-0.048218670,0.024844710
1640837709.129710,0.160549460,0.477848290,8.857989310,-0.003433230,-0.039808440,0.009121000
1640837709.131919,-0.290623040,0.400821120,10.549523350,-0.004842880,-0.052909550,0.008548800
1640837709.134600,-0.291045640,0.397486810,10.160179140,-0.041879720,0.038814540,0.030258300
1640837709.136880,0.018702800,0.446126280,9.526969910,-0.102178760,-0.108808280,0.016124550
1640837709.140169,-0.311903860,0.401263000,10.359902380,-0.108827650,-0.045388940,0.035415590
1640837709.141970,0.096638940,0.455804350,9.029889110,-0.071521100,0.030800700,0.020775200
1640837709.144879,-0.184236230,0.444000540,10.199008940,-0.062435870,-0.093702980,0.013121960
1640837709.149370,-0.203550740,0.264930780,9.992010120,-0.068640720,-0.017026070,0.031375890
1640837709.151019,0.349276450,0.010037910,9.041500090,-0.067131240,-0.029750170,0.009135900
1640837709.151870,-0.139037950,-0.020330930,10.376032830,-0.055614110,0.016669930,0.018380580
1640837709.155340,-0.052498700,0.092517360,9.858304020,-0.076153880,-0.001424550,0.032901780
1640837709.156890,-0.060551380,0.159494010,9.770656590,-0.130020100,-0.099772230,0.019040710
1640837709.159809,-0.253043740,0.005867860,9.698390960,-0.100781020,-0.027842820,0.013372300
1640837709.162140,-0.168116150,-0.101867200,9.319576260,-0.018273290,-0.004287060,-0.000731650
1640837709.164850,-0.281960990,0.024217970,9.775297160,0.020861630,0.000508130,-0.012110170
1640837709.166940,-0.235333290,-0.006201000,9.943880080,-0.027801100,-0.033959740,0.006034970
1640837709.170080,-0.171424610,0.108739090,9.804426190,-0.095327220,-0.035303830,0.033399470
1640837709.171850,-0.117868370,0.085990760,9.566897390,-0.093357260,-0.029878320,0.029529630
1640837709.174820,-0.309919690,-0.011048820,10.037684440,-0.030340260,-0.040175020,0.008076430
1640837709.176920,-0.155149500,0.130210950,9.599256520,0.040300190,-0.017295780,-0.007431210
1640837709.179649,-0.153922360,0.116127800,9.680186270,0.014398990,-0.068765880,-0.022356210
1640837709.182690,-0.220074790,0.091869290,9.687344550,-0.031691790,-0.004482270,0.009530780
1640837709.184650,0.046532800,0.062466390,9.605238910,-0.033417340,-0.018757580,0.012844800
1640837709.187490,-0.289321540,0.109177910,10.523552890,-0.029712920,-0.049267710,0.009565060
1640837709.189540,-0.116839720,0.243559020,9.505930900,-0.012962520,-0.046715130,0.022387510
1640837709.194759,-0.134564490,0.253860290,9.674915310,-0.005123020,-0.086447620,-0.009164210
1640837709.195619,-0.523363830,0.231415170,10.081085210,0.004994870,0.014071170,-0.014093520
1640837709.196890,-0.172962110,0.419892280,9.534588810,0.004141030,-0.070905690,-0.004455450
1640837709.199640,-0.418194560,0.411964950,10.379886630,-0.025646390,-0.088131440,-0.000561770
1640837709.201969,0.000014790,0.535096230,9.238417630,-0.071939850,0.005860630,0.009743870
1640837709.205070,0.085145090,0.656335950,9.948715210,-0.083695360,-0.042000410,0.024364890
1640837709.206859,-0.297522570,0.571475740,10.677022930,-0.049149990,-0.011512640,0.022676580
1640837709.209760,0.077485330,0.424797330,9.434509280,-0.052401430,-0.128960610,0.014410920
1640837709.211969,-0.050746970,0.263625230,9.691357610,-0.025865440,-0.107862070,0.005663930
1640837709.220549,-0.118173170,0.112209490,9.483254430,-0.065955520,0.061379380,-0.000566240
1640837709.221500,0.014863900,0.108400520,9.990646360,-0.112010540,0.003479420,0.007113810
1640837709.222509,-0.260309520,0.181190540,10.624156950,-0.090380020,-0.082871320,0.013425950
1640837709.222980,-0.055544410,0.182564750,9.552970890,-0.089715430,-0.064888600,-0.010390580
1640837709.225540,0.034469440,0.394969280,9.156954770,-0.076265630,-0.040137770,0.017203390
1640837709.227550,-0.302975150,0.143641650,10.127404210,-0.062525260,-0.005041060,0.013063850
1640837709.229570,0.018431350,0.028590290,9.471291540,-0.059279810,0.023286050,-0.018608570
1640837709.231920,0.203230280,0.166676060,9.551876070,-0.024624170,-0.069332120,0.008791690
1640837709.234599,-0.206583530,-0.009303600,10.536826130,-0.065249190,0.018994510,0.005567070
1640837709.236990,0.140433130,0.051298100,9.268537520,-0.106894960,-0.015626850,0.000913440
1640837709.239689,-0.379003700,-0.128013240,10.435445790,-0.050935150,-0.145235640,-0.000764430
1640837709.242159,-0.388442960,-0.222784610,9.394092560,-0.000147520,0.042252250,-0.027517980
1640837709.244550,0.048829180,-0.113199990,8.880513190,0.013545160,-0.042536860,-0.036525730
1640837709.253960,-0.597010370,-0.082496110,11.032232280,0.016154350,0.008463860,-0.013184550
1640837709.255110,0.051879310,0.079973120,9.164314270,-0.041699400,0.010211760,-0.025042890
1640837709.255630,-0.135417580,0.134195400,10.147726060,-0.050705680,-0.159677860,0.001247230
1640837709.256350,-0.351858470,0.193993610,10.145868300,0.008066000,0.048343840,-0.004062060
1640837709.256899,0.133965570,0.228932320,9.091833110,0.030981010,-0.044494870,-0.041532520
1640837709.259680,-0.552396360,0.397976340,10.818579670,0.045911960,-0.091265130,-0.017143790
1640837709.261950,-0.087401150,0.417491530,9.266303060,-0.010691580,0.002758200,-0.027172260
1640837709.264609,0.078890430,0.367814570,9.483222960,-0.050428510,-0.062492490,-0.019089880
1640837709.266889,-0.382003340,0.551770150,10.748468400,-0.022439660,0.008836390,-0.007292630
1640837709.269810,0.092443150,0.540907320,9.558972360,-0.041084000,-0.044326480,-0.023479770
1640837709.271900,0.047166030,0.474783030,9.825524330,-0.029523670,-0.085817280,-0.002591310
1640837709.274649,-0.156937870,0.322128360,10.265438080,-0.008083880,0.035695730,-0.015635790
1640837709.276890,0.075963650,0.295964810,9.702068330,-0.034058100,-0.005793570,-0.007967650
1640837709.279660,-0.057105560,0.072178800,10.011776920,-0.037713350,-0.091284500,-0.001615290
1640837709.281999,0.027253340,0.068925070,9.601143840,-0.047315660,0.011675060,-0.021687150
1640837709.288560,0.116400610,0.355394240,9.261150360,-0.055751210,0.038538870,-0.016869610
1640837709.289399,-0.248096640,0.298938100,10.625830650,-0.072593990,-0.052160040,-0.009334090
1640837709.290480,-0.070777160,0.271133840,9.818426130,-0.048953290,-0.002244110,-0.023514030
1640837709.292220,0.201047780,0.343984070,9.030503270,-0.015322860,-0.038976960,-0.023639200
1640837709.296049,-0.205244780,0.138807640,10.355822560,-0.022296610,0.051638480,-0.001101200
1640837709.296890,0.206968810,0.183559370,9.330076220,-0.035434970,0.081913170,0.002062320
1640837709.299559,-0.011751550,0.027261680,10.261238100,-0.053729120,-0.078633440,-0.001013280
1640837709.302480,-0.179868890,-0.147118260,9.890227320,-0.031985350,0.015842920,0.004452470
1640837709.304600,0.105937800,-0.083134610,8.926404000,-0.009357930,-0.012645130,-0.030764940
1640837709.307160,-0.478163270,-0.249894960,10.503744130,0.010472540,0.025975710,-0.037719310
1640837709.309589,-0.283121530,-0.147793870,9.610152240,0.045347210,0.040882820,-0.046245750
1640837709.312019,-0.217178490,0.068075080,9.783582690,0.027136510,-0.072257210,-0.035560120
1640837709.314750,-0.346523170,0.087382710,9.975269320,-0.012017790,0.054755810,-0.022980570
1640837709.316980,-0.158041270,0.268445430,9.695946690,-0.005616250,0.012566150,-0.007265810
1640837709.319650,-0.459730540,0.317895140,10.470435140,0.047598770,-0.051039460,-0.015962120
1640837709.322280,-0.188073260,0.288658830,9.368177410,0.058677800,-0.018340350,-0.020882490
1640837709.325060,-0.179251240,0.404975500,9.695014000,0.042897470,-0.021821260,-0.024174160
1640837709.327020,-0.271632370,0.382414340,10.187906270,0.033462050,0.041614480,-0.022019450
1640837709.331250,-0.122523760,0.448879960,9.886114120,-0.013335050,-0.042706730,-0.022096930
1640837709.331990,-0.016667310,0.512155290,9.834231380,-0.013697150,-0.028315190,-0.014445190
1640837709.335630,-0.030178450,0.444772840,9.903835300,-0.000739100,0.026386970,-0.034812090
1640837709.337639,-0.318176930,0.517603930,10.304330830,0.016821920,-0.027024750,-0.046199560
1640837709.339660,-0.235673790,0.436167420,9.819563870,0.012522940,-0.078839070,-0.028491020
1640837709.341960,-0.279291300,0.156398760,9.703114510,-0.015214090,-0.028832260,-0.040270390
1640837709.345209,-0.115795430,0.278817150,9.459977150,-0.002813340,0.051571430,-0.022444130
1640837709.346920,-0.051623680,0.280262500,10.139296530,-0.009480120,0.011666120,-0.020436950
1640837709.350630,-0.072532880,0.326853330,10.129771230,-0.042660540,0.006148220,-0.028225780
1640837709.352440,0.304022670,0.353387300,9.341281890,-0.019907950,-0.054708130,-0.012192130
1640837709.354780,-0.062456940,0.172490760,10.146011350,0.010599200,-0.002139810,-0.036534670
1640837709.356940,0.019803320,0.097026340,9.428213120,0.016160310,0.050979860,-0.048139700
1640837709.359550,-0.033338080,-0.031834240,9.982074740,0.034168360,-0.058731440,-0.066736350
1640837709.361920,-0.260142510,0.021684860,9.832416530,0.027622290,0.046098240,-0.062455240
1640837709.366350,0.053622180,0.242269160,9.030813220,-0.034105770,0.019605460,-0.053343170
1640837709.367740,-0.438587700,0.304153980,10.668474200,-0.035816430,-0.007772450,-0.028052930
1640837709.370080,-0.275481580,0.258215580,9.711731910,0.012628740,0.020703670,-0.035148860
1640837709.372020,-0.098170090,0.245595100,9.628668790,0.062973800,-0.070196390,-0.055500880
1640837709.377440,-0.424067910,0.308338670,10.239919660,0.078357760,0.070624060,-0.050148370
1640837709.378670,-0.029531500,0.230685950,9.681362150,0.005555150,0.042508540,-0.071872760
1640837709.379580,-0.105575080,0.362812250,10.269564630,-0.003400440,-0.055430830,-0.034958120
1640837709.382010,-0.095950000,0.405313160,9.717020030,-0.016440450,0.009910760,-0.043186550
1640837709.385520,0.259752300,0.400286500,9.281616210,-0.030611460,0.033891200,-0.046786660
1640837709.389490,-0.154475760,0.478577380,10.519804000,0.041112310,0.022244450,-0.037825110
1640837709.390309,-0.273782100,0.360133380,10.476720810,0.036035480,0.012175740,-0.069700180
1640837709.391860,-0.020846280,0.427108680,9.388867380,0.004930790,-0.050809990,-0.053116690
1640837709.394660,-0.325323310,0.443431380,10.087880130,-0.024925170,-0.013498960,-0.044670700
1640837709.396900,-0.185478450,0.583480950,9.627237320,-0.075006480,0.102479760,-0.042083860
1640837709.399670,0.059572790,0.655899580,9.591590880,-0.073105100,-0.014986100,-0.031341620
1640837709.402380,-0.338785260,0.469955060,10.720151900,-0.034362070,0.005389750,-0.043083720
1640837709.406890,0.141952020,0.482158510,9.183258060,-0.005023180,0.048254430,-0.052112340
1640837709.407719,-0.228715360,0.150903330,10.350426670,0.001971420,-0.078323470,-0.033026930
1640837709.409510,-0.400129380,-0.050236710,10.135606770,-0.042633710,0.050680340,-0.042240310
1640837709.411919,0.352390860,-0.019705510,8.610251430,-0.067244480,0.007228550,-0.059594210
1640837709.415220,-0.190296800,-0.019653720,10.561816220,-0.025528670,0.049827990,-0.028376280
1640837709.417960,0.106414350,0.231746080,9.637633320,-0.040543080,0.126262020,-0.053823000
1640837709.419620,0.028435910,0.200934370,10.085786820,-0.045220560,-0.121374430,-0.043705110
1640837709.422659,-0.558435080,0.045928150,10.230051990,0.017890330,-0.013437870,-0.026884670
1640837709.424870,-0.029606320,-0.075929660,8.480444910,0.034865740,0.036396090,-0.073227290
1640837709.426910,-0.635174040,-0.120554740,10.577312470,0.037746130,0.027462840,-0.045768920
1640837709.429580,-0.458443080,0.077082810,10.076170920,0.026632850,0.084574530,-0.048004090
1640837709.432000,0.045732470,0.249277960,9.404850010,-0.024585430,-0.078982120,-0.047044460
1640837709.435200,-0.449520590,0.350013940,10.259750370,-0.016896430,0.010727350,-0.019620360
1640837709.436950,0.022672490,0.297449230,9.276676180,0.011862810,0.039383770,-0.055727370
1640837709.440410,-0.232877910,0.242846220,10.265543940,0.081844630,-0.068588560,-0.056728720
1640837709.441980,-0.268210410,0.195026080,9.892918590,0.101877760,0.019121170,-0.060336290
1640837709.444569,0.161673710,0.375457200,9.254007340,0.010304150,0.005599860,-0.062999140
1640837709.446990,-0.356470640,0.390023650,10.633479120,-0.036123410,0.001236800,-0.038656600
1640837709.451570,-0.189106750,0.512862030,9.893558500,-0.040155650,-0.011664630,-0.042960050
1640837709.454530,-0.100773630,0.713627820,9.470953940,-0.010626020,-0.074374680,-0.044944890
1640837709.455320,-0.430408920,0.533688600,10.084329610,0.029727820,-0.002381210,-0.047896800
1640837709.457490,-0.238419790,0.591294770,9.868818280,0.022272770,0.025928030,-0.043895840
1640837709.459580,-0.335868210,0.529385210,10.237521170,-0.007866320,-0.071859360,-0.022032860
1640837709.461979,-0.202612210,0.333597990,10.025687220,-0.077590350,-0.036957860,-0.014938420
1640837709.464820,0.168019410,0.435010490,9.333761220,-0.082723780,0.042551760,-0.035202500
1640837709.466920,-0.059716820,0.572592740,10.123462680,-0.057367990,-0.021788480,-0.051298750
1640837709.469650,-0.193394930,0.584105550,10.202225690,-0.081464650,-0.017775600,-0.046238300
1640837709.472580,0.154033120,0.559533180,9.274137500,-0.062377750,-0.074157100,-0.042526430
1640837709.475489,-0.283980940,0.260989760,10.292327880,-0.042940680,-0.027875600,-0.040380660
1640837709.477000,-0.036403240,0.251987730,9.448462490,-0.056788340,0.065961500,-0.028754770
1640837709.479679,0.042817910,0.191833600,9.854043010,-0.086139140,-0.048460070,-0.020234290
1640837709.483530,-0.157779780,0.002316510,10.281293870,-0.106589500,0.046615300,-0.025925050
1640837709.485999,0.303151220,0.191818430,8.998992920,-0.070562970,-0.001844760,-0.032471120
1640837709.489760,-0.458333250,0.032695420,10.616192820,-0.049200650,-0.078596170,-0.039142370
1640837709.490360,-0.210660770,-0.029652350,9.266930580,-0.050084300,0.038521000,-0.058622670
1640837709.491979,-0.110580420,-0.000578970,9.421527860,-0.016604360,-0.061663990,-0.053973510
1640837709.494619,-0.590606690,-0.020385360,10.451820370,-0.021636490,0.081142800,-0.041431200
1640837709.496930,0.123228670,0.231771840,9.033318520,-0.067941830,0.031471250,-0.024847680
1640837709.499570,-0.393686060,0.246982890,10.821702960,-0.067301100,-0.082942840,-0.010050830
1640837709.502230,-0.188830900,0.179809910,9.366521840,-0.037740160,0.040218230,-0.020712610
1640837709.505679,0.056483390,0.123675080,9.093273160,-0.002840160,-0.091955090,-0.045813630
1640837709.506870,-0.596321110,0.152487230,10.664452550,0.036914650,0.050079830,-0.048072640
1640837709.510000,-0.010103740,0.128101920,9.249817850,-0.000719730,0.032615670,-0.066800420
1640837709.511920,-0.334172930,0.337425890,10.548240660,-0.045377020,-0.119498390,-0.039540230
1640837709.515839,-0.213075380,0.477666470,9.756818770,-0.071953240,0.044700510,-0.015898050
1640837709.517700,0.235515740,0.384917710,9.232854840,-0.068248820,-0.020442900,-0.038203590
1640837709.519600,-0.383970050,0.700376150,10.834018710,0.010371210,-0.016738480,-0.015488270
1640837709.522040,-0.004261840,0.405647700,9.465471270,-0.009208920,-0.000493230,-0.029242040
1640837709.524730,0.046054270,0.318636800,9.606011390,-0.035214420,-0.075088430,-0.014278290
1640837709.526919,-0.334774850,0.361677830,10.330483440,-0.029474500,0.036005680,-0.005850200
1640837709.529670,0.009824080,0.237080750,9.544510840,-0.090815120,0.016812980,-0.024889410
1640837709.531960,-0.152296410,0.522637840,9.989809990,-0.099074840,-0.069111590,-0.012189150
1640837709.534690,-0.167427990,0.397999170,9.914077760,-0.075981010,0.020514430,-0.026597080
1640837709.536890,0.082546270,0.423395780,9.447065350,-0.054594870,0.025267900,-0.038859250
1640837709.539549,-0.249441800,0.443103580,10.386223790,-0.036181510,-0.052402920,-0.008995830
1640837709.542440,0.077539040,0.070640070,9.593980790,-0.063017020,0.029844050,-0.000531970
1640837709.544730,0.360288830,0.094841410,9.080796240,-0.073525310,0.031268600,-0.011815130
1640837709.553000,-0.093471990,0.123938050,10.514410020,-0.076669460,0.044813750,0.012093780
1640837709.554360,0.176910760,0.076540950,9.600596430,-0.099879510,0.051768120,0.004909930
1640837709.555040,0.002395400,-0.029206720,9.764249800,-0.055205820,-0.071683530,-0.025600200
1640837709.555580,-0.399434090,-0.123827990,10.093530650,-0.005383790,0.037202240,-0.030449040
1640837709.557150,-0.049440880,-0.026168390,8.773689270,0.000973050,0.064210600,-0.044442710
1640837709.559600,-0.531222220,-0.106531340,10.509976390,-0.020630660,-0.001791120,-0.040602700
1640837709.561960,-0.239447370,0.160493120,9.689016340,-0.046460340,0.079722710,-0.009150800
1640837709.564509,0.084264690,0.198826220,9.214761730,-0.043031580,-0.028935080,0.005210940
1640837709.566910,-0.356271060,0.143608380,10.550417900,-0.022526090,0.060117260,-0.005577510
1640837709.569490,0.175115780,0.295036410,9.203513150,0.018008050,0.073607250,-0.018656250
1640837709.572219,-0.185331790,0.105954670,10.453369140,0.044524670,-0.067776450,-0.038042660
1640837709.574519,-0.154768090,0.160759020,9.634254460,0.019717220,0.076198590,-0.027716160
1640837709.577100,0.204096030,0.282973320,9.105679510,-0.013037030,0.012259190,-0.021460650
1640837709.579589,-0.391257730,0.252866600,10.881587980,-0.030677020,0.058905780,-0.012268130
1640837709.583340,0.039864070,0.496523650,9.327448840,-0.029991570,0.056950760,-0.010150670
1640837709.584570,-0.180124190,0.476204100,10.073450090,-0.013105570,-0.064618890,-0.024238230
1640837709.586930,-0.322999450,0.418744560,9.963561060,0.007158520,0.106751920,-0.023932750
1640837709.589810,0.037049250,0.554743830,9.408523560,0.013768670,0.031577050,-0.015291570
1640837709.592280,-0.342608570,0.465470730,10.795509340,-0.026312470,0.015249850,-0.005802510
1640837709.595470,0.230764900,0.428293910,9.138154030,-0.075519080,0.095912820,-0.002576410
1640837709.605049,0.241857810,0.441255030,9.834396360,-0.059942900,0.025933980,-0.005474690
1640837709.606119,-0.143000660,0.446947160,10.440175060,-0.041787330,0.113792740,-0.011959670
1640837709.606900,0.154930920,0.370680330,9.244296070,-0.056132680,-0.004965070,-0.007411840
1640837709.607470,-0.198240300,0.157266410,10.033521650,-0.028435880,-0.007583200,-0.016912820
1640837709.607810,-0.040002150,0.020962670,9.273383140,-0.024588410,0.158378500,-0.025531650
1640837709.609740,-0.036284380,0.110777910,9.773139950,-0.039894890,0.066466630,-0.001095240
1640837709.613010,-0.312131580,0.062728780,10.556954380,-0.045508150,0.085800890,-0.002683700
1640837709.614750,0.073972310,-0.020473890,9.359300610,-0.061567130,0.050108140,-0.023616850
1640837709.617800,-0.057680730,0.041520560,9.583260540,-0.001409650,0.028355420,-0.014117360
1640837709.619550,-0.154125590,-0.094110910,9.679560660,0.025178490,0.139284150,-0.037766990
1640837709.621960,0.121202570,-0.116706560,9.420238490,0.011946260,0.100274380,-0.032880910
1640837709.624820,-0.133027550,0.004832910,10.062083240,0.039002300,0.045089430,-0.013957920
1640837709.627420,-0.070038450,0.079370870,9.530406000,-0.015836950,0.100305680,-0.016310810
1640837709.631260,-0.015772330,0.208110930,9.423098560,-0.024016200,0.069856640,0.022181870
1640837709.632059,-0.438296140,0.057479410,10.490468980,0.032462170,0.079648180,-0.018487870
1640837709.634600,-0.217846530,0.076291990,9.514214520,0.072705750,0.082539010,-0.038108230
1640837709.637040,-0.197536920,0.079770480,9.388534550,0.107163180,0.042438500,-0.032967330
1640837709.640159,-0.368069800,0.054084850,10.130141260,0.071322930,0.133912270,-0.039768220
1640837709.642619,-0.066216140,0.292981830,9.415158270,0.000685450,0.097222620,-0.018644330
1640837709.645079,-0.247679700,0.357940550,10.182184220,0.001446900,0.007426740,-0.006932020
1640837709.647030,-0.151647660,0.393113340,9.715790750,0.023175780,0.106447950,-0.014993550
1640837709.649819,0.065297690,0.520809650,9.325936320,0.060684980,0.073370340,-0.036072730
1640837709.652550,-0.405685690,0.562052370,10.825233460,0.079496210,0.065843770,-0.024713580
1640837709.654790,-0.087196210,0.483578620,9.382287030,0.024223330,0.090344240,-0.007756050
1640837709.657199,-0.018537890,0.290033700,9.627092360,-0.007760530,-0.014419860,-0.011238460
1640837709.659570,-0.304235580,0.357673380,10.132134440,0.005018710,0.157336880,0.002491470
1640837709.662040,0.008676330,0.419517520,9.374757770,-0.000931320,0.106549270,-0.007927420
1640837709.664559,-0.358902190,0.440276980,10.704800610,0.003392990,-0.014354290,-0.006768110
1640837709.666910,-0.104639830,0.453587770,9.389267920,0.003528600,0.105249880,-0.011348720
1640837709.670090,0.113215160,0.346690770,9.209468840,-0.004868210,0.057217480,-0.018107890
1640837709.672010,-0.305391970,0.314402220,10.584144590,0.010266900,0.138457120,0.002922120
1640837709.675949,0.159894590,0.321388210,9.281789780,-0.007593630,0.104039910,-0.008220970
1640837709.676930,0.050148490,0.189527840,10.042347910,-0.017215310,0.005804000,-0.000385940
1640837709.679600,-0.098877200,0.248770070,9.669157980,-0.008371470,0.150537490,0.015985960
1640837709.682350,0.041296440,0.072707210,9.372234340,-0.023373960,0.075651710,-0.007206200
1640837709.684600,-0.270232470,-0.030938930,10.243938450,0.028273460,0.078086560,-0.001518430
1640837709.686900,-0.003838680,0.068314430,9.154739380,0.048254430,0.128203650,-0.026385490
1640837709.689920,-0.026159460,0.105189120,9.633533480,0.003185870,0.096410540,-0.006176530
1640837709.691969,-0.347097460,0.028845150,10.208118440,0.002877410,0.136020780,0.007545950
1640837709.694720,-0.179004940,-0.016157010,9.681251530,0.017024580,0.060611960,-0.011049210
1640837709.697240,-0.265900250,-0.075818680,9.621438030,0.066441300,0.051981220,-0.003503260
1640837709.699570,-0.262499510,-0.243239400,9.327903750,0.108750150,0.132192690,-0.029979640
1640837709.701920,-0.193281130,-0.064021100,9.593253140,0.084458290,0.129601360,-0.047181550
1640837709.704589,-0.193253370,0.037084670,9.971695900,0.059185920,0.087840860,-0.009515880
1640837709.709329,-0.142567140,0.082726810,9.756747250,0.045271220,0.065927190,-0.000102820
1640837709.710240,-0.072466810,0.297575270,9.514241220,0.058116020,0.101393470,-0.002367790
1640837709.712090,-0.278111640,0.221852660,10.042314530,0.109481830,0.077641030,-0.003877280
1640837709.715420,-0.297387510,0.291099400,9.884879110,0.135941820,0.086869300,-0.018021470
1640837709.717990,-0.159872040,0.363781240,9.354278560,0.107298800,0.075796250,-0.024299320
1640837709.721470,-0.379664360,0.284897710,10.069418910,0.074394050,0.069408120,-0.008150940
1640837709.723750,-0.199702640,0.482170430,9.643645290,0.060926380,0.123855470,-0.007787350
1640837709.725230,-0.218767600,0.528582930,9.843404770,0.049756480,0.029039390,-0.010047850
1640837709.726930,-0.408776760,0.536491510,10.202815060,0.054177640,0.078678120,-0.002907220
1640837709.730049,0.036290030,0.630381170,9.220291140,0.073209400,0.086537010,-0.018475950
1640837709.732060,-0.335299490,0.497363980,10.531735420,0.073482100,0.040924550,-0.005459790
1640837709.734560,-0.118601040,0.498741510,9.722932820,0.051073740,0.115692640,0.013645000
1640837709.737460,0.225094420,0.467890590,9.300060270,0.012344120,0.028637050,0.001430510
1640837709.740579,-0.258917690,0.429970530,10.430809020,0.001540780,0.095868100,0.012442470
1640837709.741930,0.159974780,0.563154040,9.243432040,-0.000260770,0.110429530,0.006119910
1640837709.744530,-0.229892600,0.370862390,10.445899010,0.000217560,-0.010347370,-0.005882980
1640837709.751000,-0.337829680,0.378537120,9.885353090,0.032742320,0.089131290,-0.005403160
1640837709.751550,0.240628050,0.410038980,8.821222310,0.015965100,0.061950090,-0.000584130
1640837709.752169,-0.360661720,0.260736940,10.580037120,-0.024496020,0.110992790,0.014023480
1640837709.754900,0.022501960,0.415262250,9.342648510,-0.041431190,0.119222720,0.019420690
1640837709.756960,0.106846560,0.247935670,9.680879590,-0.019781290,-0.020590420,0.021824240
1640837709.759620,-0.315714150,0.128420040,10.011546130,0.008888540,0.109848390,0.022643800
1640837709.761989,0.124599130,0.072057580,9.099823950,0.018246480,0.087498140,0.007349250
1640837709.764570,-0.342698510,-0.120359350,10.590049740,0.024886430,0.054740920,-0.017331540
1640837709.767599,-0.289642540,0.014045870,9.582726480,0.030484800,0.115430370,-0.000186260
1640837709.769840,-0.019446370,0.177640870,9.315573690,-0.001521410,0.023762880,0.017273430
1640837709.771930,-0.557697180,0.142499310,10.297218320,-0.013965370,0.086717320,0.024566060
1640837709.774590,-0.183694510,0.146770030,9.323118210,0.018200280,0.057034200,0.035841760
1640837709.776950,-0.301479220,-0.018477620,9.888296130,0.091001390,-0.000806150,0.020131470
1640837709.779559,-0.453977470,-0.090153500,9.885880470,0.104393080,0.112050790,0.004689400
1640837709.783300,-0.115596960,0.098078950,9.720396040,0.069779170,0.048396000,0.008824470
1640837709.785120,-0.430575010,0.250739100,10.315197940,0.029526650,0.005178150,0.018201770
1640837709.787550,-0.210479270,0.448160440,9.388287540,-0.020100180,0.029703970,0.034043190
1640837709.789520,-0.152346360,0.578540920,9.477702140,0.022645290,0.015158950,0.032094120
1640837709.791980,-0.575426520,0.478469580,10.344264030,0.089605150,0.039440390,0.012862680
1640837709.794550,-0.329808320,0.563075180,9.760221480,0.082901110,-0.007890160,0.021414460
1640837709.796880,-0.356319960,0.436941950,9.839567180,0.071211170,-0.049458440,0.045469400
1640837709.799960,-0.357110140,0.234507440,10.051091190,0.001876060,0.043734910,0.032871960
1640837709.802150,-0.024742620,0.455690320,9.687588690,-0.016334650,0.045508150,0.051189960
1640837709.805019,-0.287096140,0.541837330,10.428503040,-0.003112850,-0.055368240,0.039955980
1640837709.806890,-0.118851020,0.537269470,9.689591410,-0.019568210,-0.023579600,0.027854740
1640837709.809579,0.107059020,0.606383200,9.112545970,0.026057660,-0.021117930,0.030715770
1640837709.811950,-0.461615530,0.567971530,10.697182660,0.017996130,-0.004406270,0.021010640
1640837709.814620,-0.103917230,0.483056250,9.717302320,-0.028410560,0.020515920,0.050310790
1640837709.817360,-0.026252020,0.527963340,9.759023670,-0.052051250,-0.082974140,0.054173180
1640837709.819980,-0.284718130,0.553285120,10.328076360,-0.084951520,0.049893560,0.057466340
1640837709.822019,0.103269250,0.554967820,9.190647130,-0.079914930,0.024972860,0.064206130
1640837709.824659,-0.334059950,0.458129760,10.549937250,-0.042751430,-0.105084500,0.046972930
1640837709.826910,-0.217862050,0.173800510,9.476860050,-0.025342400,0.005303320,0.039629640
1640837709.829540,0.113405670,0.134132460,8.847473140,-0.019340220,-0.048905610,0.032486020
1640837709.832020,-0.332917420,0.024276720,10.596024510,-0.070197880,0.056640800,0.042624780
1640837709.836050,0.159284200,-0.012369610,9.506914140,-0.088882450,0.059504810,0.057494640
1640837709.838310,-0.045696900,0.092944360,10.292305950,-0.050903860,-0.130397100,0.061637170
1640837709.841450,-0.358477260,0.100858150,9.904235840,-0.036577880,0.003872810,0.060781850
1640837709.842909,-0.019102720,0.077636880,8.780852320,-0.036121910,-0.050432990,0.041350730
1640837709.844900,-0.586796700,0.005788530,10.410101890,0.007751590,-0.041402880,0.029665230
1640837709.846920,-0.268620160,0.103023440,9.162871360,0.005839770,0.044791410,0.026865310
1640837709.849720,-0.165982370,0.163490070,9.825510980,-0.025308130,-0.077277430,0.048239530
1640837709.852100,-0.516643820,0.282063190,10.633833890,-0.037628410,0.005283950,0.051592290
1640837709.854960,-0.090054650,0.194374430,9.254524230,-0.043909240,-0.081647930,0.053939220
1640837709.857650,-0.361504020,0.153627650,9.968647000,0.009477140,-0.098970550,0.044795870
1640837709.859589,-0.236451550,0.211077020,9.436531070,0.043557580,0.019498170,0.024701650
1640837709.862020,-0.120161790,-0.010212260,9.662929530,0.033260890,-0.063499820,0.036729870
1640837709.864640,-0.333050970,0.316325900,10.296895030,0.017140810,-0.075502700,0.054588910
1640837709.867290,-0.111388740,0.299636660,9.573076250,-0.060521070,-0.064717240,0.057283050
1640837709.870819,-0.184141870,0.386680990,9.942051890,-0.067794350,-0.070175530,0.064553330
1640837709.872000,-0.335271090,0.648602550,10.289434430,0.004059080,-0.068713730,0.056242940
1640837709.874990,-0.362260880,0.564252500,9.904178620,0.005638600,-0.090339760,0.035627180
1640837709.876950,-0.228480670,0.737462100,9.587397580,-0.011649730,-0.114385810,0.046306860
1640837709.879580,-0.315708970,0.621763110,10.007467270,-0.049920390,-0.079564760,0.068379940
1640837709.882810,-0.155605030,0.515730380,9.675784110,-0.097200270,-0.038506090,0.071649260
1640837709.885100,0.047828980,0.578011100,9.788190840,-0.092878950,-0.120216610,0.077515850
1640837709.886999,-0.150684220,0.416992130,10.332724570,-0.082391510,-0.066050890,0.074847040
1640837709.889540,0.107783890,0.435659110,9.385601040,-0.078520190,-0.063817200,0.054135930
1640837709.892020,-0.241135140,0.308910730,10.394268040,-0.084090220,-0.158108740,0.061045580
1640837709.894660,-0.350536880,0.124858360,9.789866450,-0.100119430,-0.054669390,0.060181330
1640837709.897600,0.142363280,0.157989710,8.794391630,-0.100217760,-0.110110650,0.051565470
1640837709.899680,-0.333896790,0.314523820,10.418337820,-0.101624430,-0.047272440,0.074245020
1640837709.902040,-0.042243400,0.356419150,9.425088880,-0.157339890,-0.003677610,0.067842010
1640837709.904529,-0.045291240,0.274749160,10.033345220,-0.138564420,-0.198045400,0.068663070
1640837709.907080,-0.482224260,0.123121260,10.163009640,-0.052461030,-0.076736510,0.078678130
1640837709.910590,0.043706200,-0.154123350,8.785502430,-0.054810950,-0.082762550,0.035549710
1640837709.913010,-0.442116440,-0.123557240,10.480361940,-0.048084560,-0.111614170,0.047831240
1640837709.914840,-0.203678180,0.011203120,9.472136500,-0.093896690,-0.024983290,0.042241810
1640837709.916940,0.167876330,0.056445210,9.255887990,-0.138413920,-0.127938360,0.053174790
1640837709.920810,-0.407214370,0.342026680,10.503870010,-0.102096800,-0.084100670,0.078001620
1640837709.922190,-0.014955580,0.166143510,9.406212810,-0.074289740,-0.087505580,0.051938000
1640837709.924500,-0.235946190,0.212888080,9.887393950,-0.010770560,-0.175088660,0.063695010
1640837709.926970,-0.519318220,0.178815200,10.012595180,-0.009134410,-0.068549810,0.053039200
1640837709.929720,-0.057864180,0.180221010,9.365995410,-0.084735460,-0.078682600,0.038228930
1640837709.932180,-0.403776080,0.385442760,10.349141120,-0.101487340,-0.143761930,0.065214940
1640837709.934680,-0.207564350,0.401367340,9.840316770,-0.112557400,-0.097195790,0.055180490
1640837709.936960,0.145046110,0.554972470,9.236522670,-0.103849190,-0.127823670,0.062185540
1640837709.941550,-0.280549850,0.411393400,10.502110480,-0.050400200,-0.111188000,0.062337530
1640837709.947039,-0.134153560,0.351007670,9.947296140,-0.055238600,-0.094319880,0.049100820
1640837709.948449,-0.086185210,0.292406380,9.655373570,-0.080221900,-0.189180670,0.068171330
1640837709.949040,-0.352270510,0.096233610,10.282420160,-0.095686300,-0.121682870,0.074060250
1640837709.951490,0.023245090,0.309481650,9.184658050,-0.119644400,-0.048935410,0.071823600
1640837709.952469,-0.047886350,0.382053940,9.860605240,-0.130409020,-0.149542110,0.065407160
1640837709.954569,-0.111693410,0.434674050,10.188914300,-0.128649180,-0.078937400,0.063458090
1640837709.957320,0.245105550,0.476651370,9.196774480,-0.093215700,-0.105242420,0.064519030
1640837709.959650,-0.332056790,0.146561680,10.719310760,-0.078971690,-0.171390180,0.057239840
1640837709.962639,-0.216602670,0.059447160,9.618872640,-0.061540310,-0.073981300,0.064249340
1640837709.964890,0.030719620,-0.066626550,9.129122730,-0.086583180,-0.163005280,0.045567740
1640837709.966930,-0.295743290,-0.116343690,10.137798310,-0.113292050,-0.040078170,0.060322890
1640837709.970270,0.109727240,0.056189400,9.334245680,-0.113606470,-0.042526440,0.069920730
1640837709.972100,-0.214773880,-0.027202920,10.539692880,-0.087714200,-0.187443200,0.064317890
1640837709.974599,-0.307874710,-0.134409620,9.759632110,-0.025407980,-0.117157410,0.060206660
1640837709.977010,-0.170646430,-0.131515680,9.269309040,-0.011505190,-0.151398820,0.042286520
1640837709.979660,-0.543382230,-0.139795390,10.302052500,-0.032493480,-0.072509050,0.046554210
1640837709.982810,-0.232303710,-0.034784250,9.560059550,-0.039620700,-0.098133090,0.041250880
1640837709.984570,-0.115683920,0.328494220,9.859280590,-0.047007200,-0.151921780,0.052306050
1640837709.987059,-0.086270340,0.447313640,9.881809230,-0.067445630,-0.080649540,0.063672660
1640837709.989899,0.029402620,0.576571460,9.917985920,-0.068674980,-0.133638100,0.057898460
1640837709.991969,-0.087483190,0.513303820,10.184782980,-0.011667610,-0.125825390,0.052253890
1640837709.996420,-0.164299910,0.341026100,9.824590680,0.005804000,-0.139625390,0.039808450
1640837709.997079,-0.160239410,0.381983220,9.890298840,-0.032606720,-0.130470080,0.050239270
1640837709.999719,-0.148421470,0.333376440,9.788261410,-0.076644130,-0.099423530,0.062942510
1640837710.002009,-0.206303890,0.262774970,10.028326030,-0.126422960,-0.126832740,0.058309730
1640837710.004940,0.055268780,0.416793530,9.624378200,-0.087039170,-0.105702880,0.056311490
1640837710.006960,-0.049488930,0.328937380,10.079453470,-0.031347580,-0.119514760,0.049744550
1640837710.009580,-0.184410140,0.314690440,10.223691940,-0.037045780,-0.091192130,0.053478780
1640837710.013010,-0.042131310,0.291600470,9.715152740,-0.056144600,-0.174348060,0.066089640
1640837710.014619,-0.330993320,0.079561840,10.096694950,-0.094051670,-0.138068200,0.054137410
1640837710.017269,0.148303090,0.224089180,8.892240520,-0.095312300,-0.042541330,0.057868660
1640837710.019630,0.030749340,0.282928850,10.125076290,-0.071296100,-0.115792450,0.051599740
1640837710.022260,-0.118275630,0.262264850,10.260961530,-0.082886230,-0.049540400,0.049206610
1640837710.024550,0.349239320,0.235049710,9.153759000,-0.060184300,-0.170548280,0.048936900
1640837710.029019,-0.395600140,0.009230560,10.663339610,-0.024743380,-0.129698230,0.055779530
1640837710.029899,-0.092604640,-0.118193470,9.054082870,-0.040265910,-0.027179720,0.034385910
1640837710.032050,-0.142203180,-0.154939380,9.802255630,-0.040280820,-0.188380450,0.034520030
1640837710.034580,-0.384111230,-0.100852240,10.046113970,-0.030001990,-0.015182790,0.051002200
1640837710.039280,0.315849750,-0.025971290,8.805706020,-0.054435430,-0.062058870,0.039400160
1640837710.040330,-0.347283150,0.026315170,11.009279250,-0.011852380,-0.140492590,0.072941190
1640837710.043180,-0.099009340,-0.054329590,9.675261500,0.026208170,-0.070942940,0.039447850
1640837710.044620,0.117201150,-0.063088750,9.135768890,0.034251810,-0.190007700,0.036990640
1640837710.047010,-0.331213330,0.138946060,10.112167360,0.030954180,-0.035159290,0.043059890
1640837710.049620,0.114416190,0.147498700,9.427978520,-0.024500490,-0.007493790,0.019682940
1640837710.052009,-0.039364420,0.505433440,10.173455240,-0.015707310,-0.143210570,0.040832150
1640837710.054600,-0.165933980,0.504728200,10.136224750,-0.003445150,-0.091715160,0.042396790
1640837710.057010,0.114772340,0.538147210,9.292332650,-0.011579700,-0.079368070,0.036616630
1640837710.060150,-0.297977510,0.365849670,10.257802010,0.040021540,-0.103399160,0.057408220
1640837710.062049,-0.282336210,0.082920590,10.162019730,0.050090260,-0.076255210,0.052769480
1640837710.064610,0.007472970,0.175463650,9.277778630,0.010548530,-0.082281240,0.048521160
1640837710.066980,-0.109162640,0.180529730,10.224401470,-0.028893350,-0.081384190,0.059841580
1640837710.069890,0.000659470,0.370933180,10.026346210,-0.055341430,-0.016129020,0.056538000
1640837710.072049,0.258948390,0.603240310,9.474752430,-0.060158980,-0.095711660,0.027532880
1640837710.075110,-0.006950930,0.625373240,10.415027620,-0.016461310,-0.091162310,0.036573410
1640837710.077050,0.198282120,0.699204090,9.521287920,0.014577810,0.003550950,0.038889050
1640837710.079620,0.179876890,0.555247550,9.966132160,-0.035396220,-0.087359560,0.039340560
1640837710.083979,-0.104179570,0.320438650,10.227593420,-0.065988290,-0.032198430,0.062686190
1640837710.084699,0.284003970,0.272560000,9.057866100,-0.071893630,-0.029546030,0.041083990
1640837710.087319,-0.023832990,0.104687420,10.024272920,-0.059902670,-0.032903260,0.048542030
1640837710.092610,-0.174523100,-0.056959510,10.028604510,-0.026363140,-0.003030900,0.036470600
1640837710.093550,-0.005778050,-0.184993510,9.702430730,-0.007088480,-0.084050000,0.031414630
1640837710.095690,-0.229238350,-0.401894690,9.842274670,0.028012700,-0.031314790,0.047917660
1640837710.096930,-0.187309090,-0.375401790,9.638421060,0.017736850,0.012013320,0.042414670
1640837710.101410,-0.056107670,-0.118286300,9.761425020,-0.002464650,-0.017505880,0.039881480
1640837710.102730,-0.086259050,-0.014780100,9.893020630,0.002616640,-0.039133430,0.039930650
1640837710.105610,0.082122470,0.307846130,9.527633670,0.014580790,-0.008548800,0.036430360
1640837710.107060,0.096932050,0.413400830,9.664601330,0.044894210,-0.029090050,0.020669400
1640837710.109560,-0.168789100,0.294673710,10.201189990,0.056736170,-0.012010340,0.004051630
1640837710.111980,0.031139430,0.453924240,9.434728620,0.067237020,-0.031836330,0.017604230
1640837710.114679,-0.182218820,0.268392530,9.827226640,0.042505570,-0.049723680,0.033834580
1640837710.117859,-0.146022810,0.133543160,9.709478380,0.001087780,0.063540040,0.039340560
1640837710.119580,-0.039897770,0.154693070,9.939354900,0.042772300,-0.048196320,0.051665320
1640837710.122680,-0.436723980,-0.027794580,10.610301970,0.047823790,-0.025214260,0.027351080
1640837710.124660,0.048861050,0.039434040,8.984189990,0.043901800,-0.014628470,0.024436420
1640837710.126989,-0.269522790,-0.006114590,10.364100460,0.084669870,-0.063636910,0.018347800
1640837710.129590,-0.258818120,0.189287810,9.971029280,0.073704130,0.081823770,0.009092690
1640837710.132040,0.236502830,0.522051690,9.255530360,0.024828320,-0.084161770,0.026808680
1640837710.134600,-0.079121220,0.690463660,10.550848960,-0.007663670,0.012071430,0.045165420
1640837710.137110,0.459350560,0.837504390,9.171906470,-0.022265320,0.102013370,0.033208730
1640837710.139969,0.039712510,0.902376950,10.524471280,0.006884340,-0.071938320,0.039890400
1640837710.142030,-0.198844610,0.768946950,10.283595090,0.030745570,0.000756980,0.039321180
1640837710.144500,0.198996810,0.422908630,8.810260770,-0.006824730,-0.031617280,0.029791890
1640837710.146920,-0.227654110,0.180015910,10.090880390,-0.002841650,0.045962630,0.059698530
1640837710.149580,-0.128893350,-0.080773260,10.053469660,-0.026729710,0.101727270,0.022539500
1640837710.152050,0.038475500,-0.042141840,9.744502070,-0.038580590,-0.010938940,0.033783910
1640837710.155000,0.002331460,0.013785120,9.969478610,-0.018940870,-0.000458960,0.039951500
1640837710.157559,-0.030318780,-0.010383890,9.846747400,-0.030578670,0.065760300,0.013245640
1640837710.159550,0.084078540,0.012401700,9.466790200,0.004693870,0.024959440,0.027625260
1640837710.162210,0.043155640,-0.089866860,9.999728200,0.073944040,0.011461980,0.016072390
1640837710.164590,0.077939440,0.146368860,9.521644590,0.058171150,0.139521050,0.020803510
1640837710.167019,0.231031540,0.268218010,9.575778960,-0.014673170,0.035510960,0.046925240
1640837710.169620,-0.282841980,0.195263500,10.682847020,-0.020404160,0.004012880,0.060722230
1640837710.172109,0.004611030,0.267152220,8.930612560,0.009283420,0.069373850,0.030903520
1640837710.174840,-0.124906610,0.135812610,9.677304270,0.054885450,-0.005736950,0.015209620
1640837710.176970,-0.569319730,0.075989080,10.386371610,0.096885850,0.133423490,0.007474420
1640837710.179499,0.003833970,0.061713190,9.165843960,0.062100600,0.036048890,-0.007002060
1640837710.183030,-0.347346630,0.058369670,10.395254140,0.044329460,-0.008980930,0.031052530
1640837710.184660,-0.155299980,0.194329260,9.718070980,0.005123020,0.115980220,0.033485890
1640837710.187009,0.128719720,0.142150700,9.609313010,0.012770300,0.016428530,0.046978890
1640837710.189790,-0.309751270,0.121767390,10.467806820,0.108377640,0.030367080,0.033469500
1640837710.192000,0.116350980,0.274574820,9.400406840,0.103315720,0.070090600,0.007067620
1640837710.194579,0.028443710,0.301526840,9.868290900,0.070327520,0.030174850,0.023466350
1640837710.198900,-0.267312350,0.369412780,10.494854930,0.033697490,0.056909020,0.025430320
1640837710.199499,0.123241220,0.655688050,9.288461690,-0.003632900,0.044474010,0.031669440
1640837710.203420,-0.028716650,0.647642020,9.755097390,0.007300080,0.029982630,0.036166610
1640837710.204759,-0.228266330,0.675543070,10.272267340,0.027762350,0.109738120,0.039078290
1640837710.207010,-0.088575420,0.661191580,9.654877660,0.044901680,0.046251720,0.046227880
1640837710.209600,-0.343258260,0.309692650,10.301075940,0.018882750,-0.029654800,0.036205350
1640837710.212040,-0.156966760,0.116726670,9.465262410,0.016768270,0.099706640,0.044678140
1640837710.214619,0.099863810,0.079212340,9.342722890,0.018437200,0.084953000,0.038328760
1640837710.217569,-0.217935790,-0.050730670,10.575789450,-0.007437170,0.086320960,0.030742590
1640837710.219540,0.153236910,0.053399790,9.473617550,-0.003282730,0.051036490,0.030334290
1640837710.222580,0.048375300,-0.015661580,9.821290970,0.021876400,-0.002975760,0.034213070
1640837710.225989,-0.119652380,-0.060073140,9.766017910,0.058405110,0.105646250,0.023365020
1640837710.227000,-0.036222070,0.082684200,9.687932010,0.056558860,0.052839530,0.018998980
1640837710.229620,-0.151367650,0.154636470,10.012346270,0.036525720,0.058010220,0.020654500
1640837710.232030,-0.063656540,0.241805820,9.508487700,0.019876660,0.088696180,0.038866700
1640837710.234650,-0.192026940,0.386022930,10.025730130,0.008672480,0.064609930,0.042726100
1640837710.236980,-0.293018940,0.229245870,9.957310680,0.042539840,0.028222800,0.035911790
1640837710.239699,-0.333920390,0.086935130,9.659854890,0.076968970,0.003187360,0.010299680
1640837710.242050,-0.188302070,0.101281520,9.441594120,0.107239190,0.084628170,0.006920100
1640837710.244710,-0.259267810,0.057578800,10.223209380,0.068409750,0.079314410,0.007221100
1640837710.247000,-0.075146650,0.214280520,10.107110020,0.025844580,0.064082440,0.023901460
1640837710.249899,0.085542470,0.404230330,9.872556690,0.025531650,-0.016021730,0.031295420
1640837710.252040,-0.139460880,0.478565750,10.029954910,0.013475120,0.067800280,0.022798770
1640837710.255000,0.177438570,0.483051750,9.247255330,0.065366910,0.084023190,0.025412440
1640837710.257030,-0.279931220,0.503070650,10.821777340,0.106200590,0.005596880,0.027287010
1640837710.259510,-0.206002640,0.426284490,9.805399890,0.063698000,0.076641140,0.043106080
1640837710.261999,0.159191950,0.347317430,9.166039470,0.012530390,-0.029253960,0.044687090
1640837710.264510,-0.341267850,0.365540890,10.560719490,0.006590780,0.119005150,0.044898690
1640837710.270170,0.095836700,0.317953050,9.343451500,0.000625850,0.105915960,0.043550130
1640837710.271060,-0.231413800,0.364332850,10.473832130,0.032030050,-0.075390940,0.032834710
1640837710.272130,-0.238912250,0.264464910,9.673922540,0.055548550,0.069415570,0.034640730
1640837710.274649,0.100243930,0.008953860,8.962972640,0.038783260,0.056102870,0.013984740
1640837710.278129,-0.391662120,0.126476660,10.549097060,0.049835450,0.052252410,0.022920970
1640837710.279520,0.018088020,0.076555280,9.581665990,0.025147200,0.064997370,0.027559690
1640837710.282630,0.175002140,0.184769180,9.413891790,0.007617470,0.034841900,0.026564300
1640837710.283599,-0.079804680,0.383753570,10.302962300,0.015433140,0.070844590,0.044398010
1640837710.287439,-0.084159400,0.145713050,10.063687320,0.021925570,0.060276690,0.029908120
1640837710.288349,-0.021505590,0.069172710,9.424112320,0.085292760,-0.019633780,0.012369460
1640837710.292199,-0.178555950,-0.019826720,9.924045560,0.118422510,0.045770410,0.022773450
1640837710.293210,-0.170065370,-0.080127390,9.590353010,0.078761590,0.145366790,0.014676160
1640837710.297080,-0.111125740,0.117143590,9.960466380,0.028613220,-0.008916850,0.019164380
1640837710.297410,-0.502622010,0.235750600,10.608510970,0.023935740,0.009575480,0.046901410
1640837710.302810,0.006364220,0.341676120,8.908473010,0.030985480,0.067125270,0.010834630
1640837710.303730,-0.308846320,0.491816160,10.252536770,0.082252930,-0.002330540,0.010497870
1640837710.307099,-0.540326000,0.582548080,10.495094300,0.122852630,0.071902570,0.015743080
1640837710.307760,0.144561400,0.556965710,9.151304240,0.050567090,-0.020416080,-0.004228950
1640837710.312060,-0.117560000,0.641262650,10.172716140,0.006893280,-0.005850200,0.032518800
1640837710.313040,0.179571760,0.494385360,9.760876660,-0.011460480,0.146366700,0.025880340
1640837710.317610,0.381828990,0.449072810,9.769645690,0.006024540,0.048357250,0.023508070
1640837710.318220,-0.049665470,0.314561960,10.726851460,0.057369470,-0.024145840,0.029489400
1640837710.323340,0.226116430,0.119744840,9.367470740,0.035765760,0.047044450,0.017605720
1640837710.324659,0.143164160,-0.022562790,9.229228970,0.033393510,0.041274730,0.027799610
1640837710.327040,-0.379471540,-0.243759130,10.640102390,0.024729970,0.067010530,0.016620760
1640837710.327560,-0.221707370,-0.183007030,9.302815440,0.018331410,0.077183540,-0.010925530
1640837710.332090,-0.716575980,-0.256162880,9.660556790,0.042228400,-0.076548760,-0.040216750
1640837710.332919,-1.768998270,-0.508089780,10.130376820,0.067323450,-0.053875150,-0.090779370
1640837710.339219,-2.411308770,-0.977225240,8.825921060,0.112023930,-0.209437330,-0.132220970
1640837710.339800,-3.367568490,-2.187342880,9.721226690,0.274075660,-0.357945320,-0.153067750
1640837710.342090,-3.790677310,-2.891238210,9.582174300,0.472670880,-0.297230570,-0.161081580
1640837710.343510,-2.959085700,-3.328747750,9.157891270,0.546661080,-0.371344450,-0.114378360
1640837710.347119,-2.251379970,-3.457633500,10.741354940,0.552722810,-0.352849160,-0.059139730
1640837710.347679,-0.399359140,-2.594088320,9.503943440,0.563846530,-0.291626160,-0.029696530
1640837710.352239,0.958688680,-1.466003420,9.545123100,0.597055380,-0.410334860,-0.038167840
1640837710.353060,1.546635150,0.243777690,9.321142200,0.638496990,-0.404214950,-0.092162210
1640837710.357380,1.777769800,1.868581060,8.145426750,0.628782930,-0.489479360,-0.121040660
1640837710.357839,0.937133670,2.753998990,8.491710660,0.584559200,-0.539286550,-0.132277610
1640837710.362069,-0.317037310,2.840921640,9.093531610,0.568108380,-0.517687380,-0.123599190
1640837710.362720,-1.333050490,2.255051140,9.454102520,0.567323150,-0.497384490,-0.087206090
1640837710.367090,-2.205095290,1.091273670,10.244530680,0.595824540,-0.563532230,-0.056752570
1640837710.367610,-2.554964300,-0.161641420,10.314714430,0.576831460,-0.550898970,-0.030732150
1640837710.372030,-1.689417600,-1.075901870,8.741381650,0.541462060,-0.514942530,-0.031225390
1640837710.372520,-0.860803480,-1.718064070,9.367216110,0.539302890,-0.509084820,-0.062727940
1640837710.377020,0.303249270,-1.626484160,9.209785460,0.598496380,-0.433977010,-0.092814880
1640837710.377920,1.681427720,-0.774015490,8.673653600,0.605018560,-0.515684600,-0.111776610
1640837710.382089,2.040462970,0.206854700,9.617270470,0.574086730,-0.478932350,-0.098896040
1640837710.383160,2.189008240,1.377165910,9.324644090,0.532637600,-0.431211380,-0.050751870
1640837710.387019,1.541408060,2.126132250,9.503685000,0.482627810,-0.535905540,-0.031858690
1640837710.387470,0.565138820,2.277610540,9.172220230,0.471349120,-0.522633020,-0.029833620
1640837710.392010,-0.310385820,2.250775810,8.303975110,0.488390090,-0.468146860,-0.043380270
1640837710.392589,-1.332857250,1.607102870,9.019167900,0.461411570,-0.465612170,-0.057686880
1640837710.397060,-2.186565400,0.727582450,9.890644070,0.411093240,-0.486579570,-0.069740420
1640837710.397580,-1.758808970,-0.129828830,9.004698750,0.397783610,-0.520743490,-0.076773790
1640837710.402050,-1.337066770,-1.047071220,9.602323530,0.430798590,-0.501793620,-0.085511810
1640837710.402639,-0.365102200,-1.316511030,9.432233810,0.470532570,-0.332856240,-0.085312150
1640837710.407339,0.935135600,-1.100294710,9.399162290,0.485023920,-0.430895480,-0.066952430
1640837710.407840,1.428013800,-0.705382590,9.837124820,0.479368950,-0.449499550,-0.034341220
1640837710.412079,2.297831540,0.030071600,8.242663380,0.454708990,-0.431020620,-0.015498700
1640837710.412690,1.720693470,0.729070660,9.400890350,0.432078570,-0.453285870,-0.033113360
1640837710.417050,0.901820960,1.177968620,9.592494010,0.442913260,-0.381736520,-0.064198690
1640837710.417440,0.158893820,1.674147130,9.178539280,0.454008640,-0.510792550,-0.098128630
1640837710.422289,-1.151610610,1.668546680,9.784676550,0.422902410,-0.454571900,-0.102908920
1640837710.422799,-1.567828060,1.545239570,8.964291570,0.345104960,-0.394059720,-0.064221030
1640837710.427050,-1.952399490,1.134025810,9.593548770,0.346042310,-0.493668080,-0.022330880
1640837710.427480,-1.495994330,0.427771690,9.237726210,0.334072110,-0.402982560,0.014086070
1640837710.432020,-0.368138160,-0.072778240,8.796001430,0.356720450,-0.370547240,0.011637810
1640837710.432619,0.260532800,-0.378976020,10.347037320,0.384305450,-0.354929270,-0.005100670
1640837710.437320,1.053575750,-0.520944650,10.040142060,0.353689550,-0.371608230,-0.030711300
1640837710.438629,1.765861870,-0.182464580,9.207359310,0.325155350,-0.500701430,-0.059166560
1640837710.442119,1.695648430,0.247001620,9.197726250,0.283944610,-0.357511700,-0.085271920
1640837710.443110,1.500326400,0.853942690,8.583494190,0.280498000,-0.274787840,-0.068262230
1640837710.446990,0.672183450,1.463644270,9.808202740,0.285373660,-0.374567510,-0.038148460
1640837710.447389,-0.163067340,1.510842320,9.602698330,0.257669360,-0.361940260,0.006325540
1640837710.452040,-0.605225560,1.355486510,8.915092470,0.229968160,-0.413161580,0.019510090
1640837710.452510,-1.346486810,0.810452640,9.656600950,0.244197220,-0.320927770,0.009450310
1640837710.457100,-1.378649590,0.234456490,9.350930210,0.231106610,-0.295227860,-0.019148000
1640837710.457980,-1.073938610,-0.132293750,9.386578560,0.258068740,-0.373077480,-0.022481390
1640837710.462119,-0.602248190,-0.437906440,9.345975880,0.258617130,-0.348408490,-0.020639600
1640837710.463130,0.152861910,-0.428958560,8.993649480,0.208224390,-0.296495880,-0.019542870
1640837710.467140,0.755248610,-0.186840250,9.629384040,0.217099500,-0.345024470,-0.001749400
1640837710.467610,1.131270290,0.117697940,9.798682210,0.231108110,-0.282481310,-0.007553400
1640837710.472550,1.738472460,0.746744690,8.968903540,0.241425680,-0.256013900,-0.018821660
1640837710.473520,1.324293020,1.396551130,10.090065960,0.190281840,-0.282490280,-0.032645460
1640837710.477020,0.922470150,1.702393530,9.421604160,0.098550320,-0.212009270,-0.028045480
1640837710.477749,0.470078500,1.798484090,9.086256030,0.074635450,-0.341947410,-0.016111140
1640837710.482120,-0.708635330,1.443988680,9.739220620,0.102241320,-0.251394450,-0.008596480
1640837710.482990,-0.840118170,0.977088510,8.732308390,0.107321150,-0.230123100,0.009053950
1640837710.487089,-1.444377780,0.440876250,10.141844750,0.122164210,-0.294724110,0.059485440
1640837710.490090,-1.269510270,-0.113994320,9.631312370,0.065059970,-0.200796130,0.075188290
1640837710.492400,-0.257995930,-0.451336320,8.968848230,0.010302660,-0.257210370,0.069218870
1640837710.493350,-0.024655800,-0.330946000,9.977066040,0.059244040,-0.171187530,0.049754980
1640837710.497190,0.958729330,-0.101762590,9.147361760,0.045937300,-0.159826890,0.025370720
1640837710.498180,1.302269340,0.279675220,9.608757020,0.072157380,-0.259974630,0.014874340
1640837710.502040,1.263293150,0.721957030,9.713370320,0.060471900,-0.182427480,0.003941360
1640837710.502699,1.464188100,0.875818250,8.804767610,0.039145350,-0.142776940,0.031965970
1640837710.507370,0.567536590,1.119971510,10.042726520,0.040645900,-0.172534600,0.047039990
1640837710.510140,0.281693820,1.163163190,9.290608410,-0.031816960,-0.099493560,0.073115540
1640837710.512090,0.047541940,0.893333730,8.854115490,-0.030602510,-0.168111940,0.093109890
1640837710.513059,-0.772079770,0.661569600,9.814136510,-0.019389390,-0.094434610,0.085657840
1640837710.517099,-0.593134400,0.237996800,8.836689950,-0.030082470,-0.074589260,0.071175400
1640837710.517710,-0.988365830,-0.280698480,10.119569780,0.014829640,-0.212724520,0.052112340
1640837710.522220,-0.829112890,-0.380608080,9.292268750,0.018227100,-0.098282110,0.044548510
1640837710.523100,0.011203310,-0.313009800,8.609409330,-0.022187830,-0.153011050,0.052809710
1640837710.527259,-0.086787510,-0.149986480,10.234531400,-0.033153600,-0.040581820,0.075434150
1640837710.529009,1.070022110,0.282299250,8.972379680,-0.034220530,-0.030143560,0.063002130
1640837710.532140,1.033433910,0.723619520,10.283918380,-0.005333120,-0.150662630,0.071130700
1640837710.533000,1.192054390,1.171887640,9.370726590,-0.024686750,0.001703200,0.077708070
1640837710.537040,1.290161730,1.388971570,9.020748140,-0.087739540,-0.093625510,0.065183650
1640837710.538230,0.210683350,1.471659780,10.253464700,-0.107854610,-0.029414890,0.097608560
1640837710.542240,0.359118610,1.302400350,8.572332380,-0.157408420,-0.020962950,0.096426910
1640837710.542899,-0.465965600,0.944661260,9.836169240,-0.153398510,-0.079736120,0.105752050
1640837710.547089,-0.829603910,0.649335920,9.662183760,-0.135014970,0.066752730,0.128458440
1640837710.547649,-0.682429310,0.290460970,9.391296390,-0.168451640,-0.082084530,0.114390240
1640837710.552140,-0.860878110,-0.015531720,10.016289710,-0.174126070,-0.051513330,0.140401720
1640837710.552830,0.172159810,-0.110023350,8.514399530,-0.178080810,0.048109890,0.122803470
1640837710.557090,0.532286760,0.072470590,9.466542240,-0.172398980,0.044474010,0.111578430
1640837710.557670,0.912414970,0.427430390,9.723005290,-0.212317720,0.128602950,0.118023150
1640837710.562060,1.533944370,0.704662380,9.131093980,-0.259824130,0.045596070,0.113771860
1640837710.562739,0.987134100,0.790017550,10.051594730,-0.228057800,0.006970760,0.117313880
1640837710.567040,0.911489840,0.759176140,9.027731900,-0.199516150,0.095258660,0.135682540
1640837710.567479,0.469084500,0.553539570,9.062254910,-0.189404190,0.071629890,0.139832500
1640837710.572080,-0.214860260,0.266739310,9.714399340,-0.207121670,0.152091680,0.160506380
1640837710.572780,-0.012282010,0.332420350,8.590494160,-0.246153800,0.170914870,0.179590280
1640837710.577520,-0.572360990,0.260098160,9.838563920,-0.311341880,0.105309510,0.183701560
1640837710.578630,-0.436171050,0.268806040,9.309252740,-0.315834580,0.174002360,0.166727600
1640837710.582170,-0.117129920,0.281698940,8.975807190,-0.247030000,0.078193850,0.127688050
1640837710.583099,-0.296983060,0.218609050,9.713130000,-0.219295930,0.187948350,0.120699410
1640837710.587129,0.531943260,0.240332020,8.784893040,-0.212812420,0.226160930,0.133197020
1640837710.587720,0.343912780,0.166030360,10.218345640,-0.246270030,0.135424750,0.146603580
1640837710.592209,0.747183560,0.228629010,9.046457290,-0.279660550,0.217452690,0.191865860
1640837710.592700,0.912097220,0.266756090,8.918774600,-0.301249270,0.153882790,0.195369090
1640837710.597030,0.325093510,0.208785360,9.828014370,-0.282582640,0.282959670,0.179973260
1640837710.597580,0.539349440,0.409776570,8.975171090,-0.224727420,0.224618690,0.158162440
1640837710.602160,-0.231152890,0.528197770,10.052901270,-0.237336770,0.162893550,0.151792170
1640837710.603659,-0.156003000,0.666927400,8.869922640,-0.318424490,0.270728830,0.178581520
1640837710.608569,-0.364685390,0.678602040,9.512501720,-0.336566600,0.206841530,0.199761990
1640837710.610260,-0.762114230,0.636312370,9.904660220,-0.325623210,0.267863360,0.220604270
1640837710.612100,-0.161867230,0.766665580,8.872946740,-0.314571050,0.194318610,0.220853120
1640837710.612700,-0.256578680,0.636340020,9.718443870,-0.307551060,0.236286220,0.213730350
1640837710.617190,0.336643430,0.640025140,8.983834270,-0.348523290,0.323593620,0.206089050
1640837710.617920,0.579360720,0.617520210,9.725037570,-0.377917350,0.232859000,0.208339120
1640837710.622110,0.806774740,0.452585610,9.321951870,-0.404904780,0.315630440,0.205050420
1640837710.624420,1.140624170,0.532245160,8.931642530,-0.404286380,0.295843210,0.213986670
1640837710.627490,0.472604480,0.434275900,9.828217510,-0.377567170,0.338114890,0.231300340
1640837710.628019,0.338244290,0.202302140,9.223805430,-0.419741870,0.281484450,0.240887700
1640837710.632040,-0.077088580,-0.138113470,9.445995330,-0.372077580,0.258620080,0.243717480
1640837710.632730,-0.341470300,-0.320310380,8.951009750,-0.323534100,0.365360140,0.236970230
1640837710.636999,-0.360766380,-0.057678360,9.198858260,-0.359469650,0.364990560,0.234982420
1640837710.637400,-0.460909550,0.168116930,9.550232890,-0.402769480,0.365318360,0.270052280
1640837710.642030,-0.022507300,0.319364850,9.038429260,-0.444361660,0.310801000,0.258152190
1640837710.642570,0.143086300,0.643706080,9.195158960,-0.382061330,0.358301400,0.252766940
1640837710.647110,0.269090210,0.691564860,9.122326850,-0.358060060,0.386358890,0.233212160
1640837710.647699,0.379538210,0.555880070,9.531721120,-0.360575380,0.334353830,0.219590990
1640837710.652249,0.436394570,0.332164670,9.276845930,-0.346556370,0.360071720,0.246964440
1640837710.653270,0.429860120,0.032461620,9.102867130,-0.391550450,0.383830130,0.257700770
1640837710.657090,0.198880540,-0.211272460,9.539661410,-0.365433100,0.391013950,0.286415250
1640837710.658259,0.056020350,-0.242860530,9.339126590,-0.371181960,0.380821620,0.285992030
1640837710.662040,-0.126140850,-0.232725260,9.311876300,-0.379198880,0.373351660,0.278794830
1640837710.662580,-0.357105550,-0.064591800,9.410940170,-0.349067150,0.386963810,0.271689890
1640837710.667110,-0.278856640,0.204265620,9.184063910,-0.342255920,0.394658800,0.273637470
1640837710.667529,-0.339867680,0.500447750,9.609411240,-0.335751560,0.385351540,0.273230760
1640837710.672020,-0.206253230,0.870606480,9.356319430,-0.388893490,0.397872920,0.290903480
1640837710.672520,0.026050730,0.940562250,9.128241540,-0.423982770,0.366768240,0.289358230
1640837710.678930,0.055789840,0.874012590,9.499101640,-0.395724210,0.397530260,0.295057890
1640837710.679780,0.299944850,0.926878510,8.930484770,-0.385409620,0.410363140,0.298005370
1640837710.682950,0.371999410,0.555287300,9.477352140,-0.415884020,0.375622510,0.311507310
1640837710.683820,0.466020760,0.232175740,9.171916960,-0.419233830,0.464338120,0.317041670
1640837710.687060,0.426650880,0.017003310,9.122328760,-0.423000840,0.419952030,0.314341550
1640837710.687530,-0.117959190,-0.221770140,9.937107090,-0.432469010,0.417502310,0.331738650
1640837710.692459,-0.064756490,-0.215818730,8.728465080,-0.439125390,0.382521840,0.326530640
1640837710.693699,-0.484253290,-0.479469840,9.359761240,-0.407591520,0.338876340,0.315326510
1640837710.697199,-0.410257460,-0.371565790,8.708290100,-0.330829680,0.503637020,0.318315710
1640837710.697759,-0.308601920,-0.180828140,9.214872360,-0.330235060,0.426368450,0.294175740
1640837710.702000,-0.413325850,0.052963450,9.975296020,-0.357124270,0.440859850,0.333269030
1640837710.702479,0.319145440,0.523682120,8.393190380,-0.391215180,0.392520490,0.336304400
1640837710.707120,0.098773500,0.635220890,9.431110380,-0.423434500,0.396877620,0.340001370
1640837710.708789,0.295329210,0.734311640,8.850514410,-0.378227290,0.513602910,0.356634020
1640837710.712570,0.253430900,0.474483040,9.421550750,-0.331696870,0.356598200,0.307746260
1640837710.713699,-0.131045550,0.262694420,9.571779250,-0.313603910,0.432536070,0.337411490
1640837710.718010,0.212558540,0.044109490,8.366922380,-0.335957170,0.407715230,0.359451860
1640837710.718750,-0.485592100,-0.393492970,9.989381790,-0.379593730,0.416193990,0.349253480
1640837710.722030,-0.324947300,-0.130701470,9.003232000,-0.377096300,0.462970200,0.372698990
1640837710.722659,-0.311410550,-0.145243790,9.321089740,-0.372101430,0.337360890,0.356064800
1640837710.727030,-0.371848200,0.086986790,9.313847540,-0.341534670,0.473487470,0.339666040
1640837710.727380,0.106853740,0.556219940,8.823788640,-0.312127200,0.426539840,0.334984150
1640837710.732030,-0.315371300,0.678301390,10.172290800,-0.350143070,0.392156900,0.337447260
1640837710.732550,0.241247100,0.807015300,8.668060300,-0.382271500,0.409604670,0.375117450
1640837710.737100,0.207632910,0.702588380,9.140632630,-0.374811920,0.368580220,0.364360210
1640837710.737500,-0.072585290,0.576659860,9.400986670,-0.356638520,0.499990700,0.380344780
1640837710.742540,0.153696240,0.552485470,9.019039150,-0.374174180,0.370012280,0.392258260
1640837710.743430,-0.223185610,0.122737230,9.694338800,-0.401136370,0.372909070,0.391940860
1640837710.747220,0.222702190,-0.010443830,8.403083800,-0.400729540,0.456172320,0.396466340
1640837710.747810,-0.027949320,-0.004809170,9.274493220,-0.379295710,0.438572560,0.377392830
1640837710.752009,-0.257910640,-0.021180880,9.465222360,-0.402200280,0.456312420,0.379574390
1640837710.752560,-0.084147240,0.025900740,9.090707780,-0.408957990,0.343413710,0.378771220
1640837710.757320,-0.416571410,-0.202227560,9.250226970,-0.355994730,0.380356610,0.376558360
1640837710.758580,-0.226726790,-0.211802910,8.673256870,-0.318320180,0.420081680,0.379955860
1640837710.762090,-0.240990850,-0.183782960,9.237012860,-0.289773940,0.428001640,0.374093680
1640837710.763000,-0.074438870,-0.045955010,9.126719470,-0.334119860,0.431828290,0.379288260
1640837710.767000,0.221461340,0.252812740,8.839159970,-0.362148940,0.389969440,0.406330910
1640837710.768119,0.098793380,0.274196860,9.039216040,-0.373722670,0.421863880,0.403870700
1640837710.772859,0.003977080,0.263642280,9.154038430,-0.350767430,0.389744400,0.406545490
1640837710.773630,-0.222090470,0.096114610,9.278404240,-0.261096750,0.359411600,0.387875830
1640837710.777040,-0.512978850,-0.213363200,8.999461170,-0.246959970,0.342831020,0.378510360
1640837710.777570,-0.478744750,-0.370596080,8.804809570,-0.249850790,0.389230310,0.392231430
1640837710.782050,-0.662949320,-0.426833270,9.401090620,-0.269389150,0.382971820,0.389473230
1640837710.782869,-0.454848830,-0.212854970,9.187597270,-0.305612420,0.360021000,0.415852700
1640837710.787000,-0.102917750,0.018916050,8.801815030,-0.274966660,0.327868790,0.400848720
1640837710.787400,-0.091532680,0.251621750,9.165404320,-0.272798570,0.389421050,0.378066330
1640837710.792080,0.187010630,0.553072930,9.112309460,-0.215169800,0.386758180,0.379015510
1640837710.792870,-0.147438970,0.646446760,9.762659070,-0.222146530,0.283141430,0.386494430
1640837710.797279,0.043836660,0.588532980,8.744667050,-0.280642510,0.303837690,0.418920900
1640837710.798139,0.031307530,0.436031310,8.759438510,-0.274328890,0.314252170,0.429345730
1640837710.802080,-0.415304450,0.413038310,9.549525260,-0.297135110,0.389721990,0.437915410
1640837710.802719,-0.102647940,0.378455970,8.942626000,-0.294979010,0.298196140,0.449714150
1640837710.807010,-0.402890740,0.122982950,9.581991200,-0.281216260,0.258036050,0.419321750
1640837710.807449,-0.017274600,0.192205760,8.475706100,-0.274677600,0.361330810,0.394868880
1640837710.812100,-0.034278130,0.227285250,9.213879590,-0.275596980,0.300344880,0.401248130
1640837710.812680,-0.176758260,0.168485520,9.391605380,-0.321576000,0.364282700,0.399406250
1640837710.817000,0.381294040,0.232878630,8.524510380,-0.320980040,0.271412790,0.402452110
1640837710.817370,-0.216245030,0.189482420,9.592683790,-0.282749530,0.297249880,0.409138200
1640837710.821970,0.081708550,0.160606550,8.457112310,-0.293465050,0.328134030,0.412818850
1640837710.822579,-0.252849640,-0.029138550,9.437203410,-0.265976790,0.229774460,0.421066640
1640837710.827550,-0.225538690,-0.189563710,8.758527760,-0.257073370,0.360991060,0.407816470
1640837710.829970,0.132806180,-0.148121910,8.499034880,-0.263308020,0.291223880,0.405064310
1640837710.832219,-0.410850520,0.029760160,9.605454440,-0.271238420,0.350257840,0.426325260
1640837710.832899,0.037776650,-0.018554910,8.575260160,-0.308336410,0.283735990,0.408674870
1640837710.837090,-0.447863100,-0.031867880,9.390563010,-0.246119530,0.180767490,0.405755730
1640837710.837530,-0.370940420,-0.160649750,8.316820140,-0.208538800,0.299169150,0.388427140
1640837710.842430,-0.372470050,-0.393335340,8.928599360,-0.166648660,0.239852100,0.376585220
1640837710.843910,-0.681402500,-0.260114460,9.609809880,-0.141082700,0.309735570,0.386019050
1640837710.847000,-0.104936700,-0.162341620,8.621330260,-0.219300430,0.207133620,0.408943060
1640837710.847400,-0.211637840,-0.021904760,9.144056320,-0.226230960,0.227996740,0.429558840
1640837710.852000,0.189545910,0.245920810,8.514110570,-0.237029820,0.309407710,0.406967190
1640837710.852579,0.082206540,0.376425210,9.297651290,-0.178514470,0.212466750,0.400070940
1640837710.857120,-0.079667820,0.515077890,9.148006440,-0.133651510,0.220693680,0.386504890
1640837710.857940,0.097014470,0.518411700,8.350577350,-0.186133410,0.187923060,0.387203750
1640837710.862380,-0.378379910,0.367550430,9.402695660,-0.192746560,0.242766780,0.424452190
1640837710.865260,-0.454695760,0.301587520,9.069292070,-0.225853960,0.237159460,0.422486750
1640837710.867010,-0.467635040,0.181185770,9.041075710,-0.219935210,0.129100700,0.434352550
1640837710.867529,-0.433874930,0.093274640,8.929005620,-0.201892850,0.223530840,0.425551830
1640837710.872040,-0.174151870,0.190946880,8.635253910,-0.204841840,0.241278160,0.395712320
1640837710.872619,-0.257204120,0.195052700,9.645896910,-0.199392470,0.173959180,0.412155750
1640837710.877270,0.072819450,0.238778520,8.723817830,-0.223286490,0.200471310,0.401257040
1640837710.878130,0.457291360,0.371191800,8.417116170,-0.238029690,0.173640300,0.400157330
1640837710.882010,0.126290620,0.457290710,9.297840120,-0.230833920,0.280375780,0.427238730
1640837710.882640,0.246951650,0.493497400,8.757450100,-0.265446340,0.192464890,0.420384200
1640837710.886999,-0.046867170,0.262493490,9.256025310,-0.247855510,0.111636540,0.434824910
1640837710.887359,-0.110972900,0.057882900,8.317906380,-0.188571210,0.232641440,0.417748150
1640837710.892540,-0.178718160,-0.125142710,8.652441020,-0.204223420,0.200113680,0.401072290
1640837710.893560,-0.579338250,-0.239015370,9.359732630,-0.204055040,0.244617510,0.417679610
1640837710.897630,-0.250610650,-0.188044680,8.584143640,-0.246724530,0.158911940,0.389702620
1640837710.898280,-0.488613070,-0.178167250,9.040058140,-0.232189940,0.130914150,0.410689500
1640837710.902079,-0.416099760,-0.116961540,8.469223980,-0.200490700,0.197814450,0.399215580
1640837710.902770,-0.284633790,-0.164091330,8.871815680,-0.169111770,0.131197240,0.373358990
1640837710.907009,-0.377977760,-0.003027010,9.109941480,-0.107111060,0.160381200,0.389342010
1640837710.907510,0.219141390,0.100695470,8.138101580,-0.169381530,0.179411520,0.377117100
1640837710.912000,0.161479060,0.254274100,9.214648250,-0.197510440,0.176495330,0.416380170
1640837710.912600,0.229865070,0.460587170,9.096497540,-0.215272620,0.208853210,0.421035320
1640837710.917009,0.299970120,0.487908660,8.722245220,-0.204464840,0.085927560,0.408406620
1640837710.917519,-0.188715730,0.436804530,9.096627240,-0.170433540,0.120273250,0.405691650
1640837710.922170,-0.098592620,0.258665770,8.089609150,-0.161601630,0.183326040,0.374962480
1640837710.924630,-0.658299740,0.104535720,9.496536250,-0.150874260,0.088086730,0.370502410
1640837710.927029,-0.610832510,0.175514710,8.851870540,-0.189642640,0.166982430,0.393740920
1640837710.927630,-0.164555880,0.047105210,8.327786450,-0.237657160,0.090777900,0.394317570
1640837710.932050,-0.489535000,0.181916180,9.664927480,-0.223033160,0.202767550,0.409151700
1640837710.934540,0.176098450,0.418012350,8.319290160,-0.200480250,0.159648110,0.411248270
1640837710.937130,-0.103478680,0.281900440,9.507473950,-0.203879210,0.021502380,0.393369880
1640837710.937729,0.256601930,0.393786670,8.164060590,-0.190021140,0.179918140,0.395889670
1640837710.942050,0.426526310,0.224192200,8.408356670,-0.204862700,0.103780650,0.392079410
1640837710.942580,-0.152642180,0.125962200,9.593704220,-0.204215990,0.197331640,0.407514070
1640837710.947049,0.317504790,0.187246900,8.165927890,-0.237502230,0.114733000,0.394666250
1640837710.947510,-0.320719240,-0.011570530,9.362301830,-0.229446620,0.055065760,0.400665460
1640837710.952139,-0.259909000,0.043251120,8.173348430,-0.200684380,0.170665990,0.399975480
1640837710.953320,-0.410908460,-0.171573590,8.598837850,-0.197106610,0.060361620,0.369779740
1640837710.957430,-0.611493890,-0.308108480,9.115546230,-0.153045340,0.146284670,0.368107800
1640837710.957919,-0.092775070,-0.152927340,8.084105490,-0.149689610,0.121372950,0.354667010
1640837710.962370,-0.311321820,-0.147999410,9.190170290,-0.172886250,0.097389520,0.370824370
1640837710.963630,-0.080349100,0.096766180,8.837002750,-0.201906290,0.128066550,0.393596350
1640837710.967350,0.164124400,0.078344040,8.566627500,-0.197716100,0.030066080,0.400817450
1640837710.967909,-0.059511260,-0.076869350,9.037314410,-0.121416170,0.097820170,0.395976010
1640837710.972030,0.211965900,0.090209890,8.273481370,-0.094275180,0.158427670,0.358852740
1640837710.972640,-0.071339890,0.050341680,9.319602970,-0.112465050,0.049768400,0.355331690
1640837710.976970,-0.198822290,0.292641010,8.963658330,-0.160308210,0.100421930,0.370140460
1640837710.977470,0.234338640,0.523418250,7.897936340,-0.230313870,0.053529450,0.366479160
1640837710.982020,-0.324023840,0.535562100,9.330505370,-0.216084750,0.130897760,0.377114210
1640837710.982770,0.069277710,0.750740950,8.372339250,-0.163605820,0.168792900,0.372588660
1640837710.987320,-0.353063400,0.568682250,9.609831810,-0.155164320,-0.007765000,0.374071300
1640837710.989410,-0.365237680,0.292964010,8.770391460,-0.175663840,0.099161270,0.388725130
1640837710.992090,0.103162790,0.061042720,7.834223750,-0.201883910,0.032906230,0.376993390
1640837710.992710,-0.380034210,-0.185624380,9.359193800,-0.185239360,0.142592190,0.381742510
1640837710.997010,0.386859000,-0.055422650,7.944460870,-0.209793490,0.160129370,0.370216370
1640837710.997480,0.111174460,-0.085683030,9.354711530,-0.221534120,0.018693510,0.363810390
1640837711.002290,0.242115070,0.038395540,8.655607220,-0.197027650,0.152693690,0.381550280
1640837711.002849,0.338810770,0.089239920,8.240827560,-0.175581870,0.034348670,0.359512870
1640837711.006970,-0.350013640,-0.080101600,9.437580110,-0.170405210,0.089867420,0.360225170
1640837711.007350,0.115688540,0.059170310,7.746299270,-0.161151600,0.124245880,0.352671770
1640837711.012019,-0.361367080,0.019826440,8.938332560,-0.167191040,0.041715800,0.337748230
1640837711.012590,-0.326119810,0.189672440,8.578734400,-0.203396390,0.164124370,0.357234510
1640837711.017170,-0.181397350,0.190408810,8.350657460,-0.204017800,0.032256540,0.353698490
1640837711.018299,-0.617480810,-0.124014750,9.368789670,-0.157426310,0.038617850,0.357052710
1640837711.022159,-0.043081940,-0.064495000,7.714441300,-0.103107110,0.098793220,0.348615740
1640837711.022910,-0.276604650,-0.232872810,9.025147440,-0.124275690,0.047272440,0.335763420
1640837711.027010,-0.204392970,-0.140641290,9.012606620,-0.141335990,0.132043640,0.347781150
1640837711.029680,0.345061210,0.077049150,8.275631900,-0.175625100,-0.009167190,0.357303050
1640837711.032040,-0.004737840,-0.011029830,9.091717720,-0.175203400,0.065164280,0.365021820
1640837711.032549,0.350871530,0.261822790,8.115779880,-0.125314310,0.127588210,0.351221830
1640837711.037050,-0.156464770,0.333034190,9.393362050,-0.099973400,0.002533200,0.346401420
1640837711.037439,-0.294132560,0.344089150,8.754883770,-0.122571010,0.049181290,0.354449540
1640837711.041970,0.093507220,0.469011870,7.750394340,-0.182966870,0.030770900,0.359210310
1640837711.042510,-0.496277540,0.252158370,9.327504160,-0.186006710,0.107482080,0.365297470
1640837711.047040,-0.079323700,0.492662610,8.386085510,-0.171983290,0.113175820,0.365370570
1640837711.047490,-0.110569260,0.427260730,8.831164360,-0.183413940,-0.032806400,0.361254840
1640837711.053830,-0.183750240,0.216290490,8.751293180,-0.196081430,0.084975380,0.368286760
1640837711.054450,0.250788660,0.100349890,7.928661350,-0.164066260,0.054454810,0.384047630
1640837711.057020,-0.449863400,-0.313538010,9.660579680,-0.142811210,0.020918250,0.380414690
1640837711.057459,0.224894780,-0.351963430,7.937198640,-0.141051430,0.090864300,0.370214910
1640837711.061990,0.262150650,-0.322227660,8.444984440,-0.157438260,0.002484020,0.346905050
1640837711.062530,0.078080860,-0.059452170,8.784307480,-0.192298010,0.176873800,0.354896520
1640837711.067400,0.534798320,0.242472930,8.094025610,-0.202907670,0.054317720,0.347252250
1640837711.067920,-0.296872620,0.164057370,9.665582660,-0.176210700,0.012040140,0.342401860
1640837711.071970,0.162118430,0.170211330,7.531539920,-0.095382330,0.070673210,0.351192030
1640837711.072450,-0.434266210,0.000374900,8.754405020,-0.089243050,0.008969010,0.327211620
1640837711.077020,-0.670370340,-0.153740300,8.828825950,-0.125867140,0.149379670,0.348587330
1640837711.077420,-0.256076870,-0.137406990,8.262085910,-0.140030700,-0.027042630,0.355315300
1640837711.082239,-0.564969540,-0.243859410,9.030479430,-0.141736840,0.058540690,0.367815760
1640837711.084710,0.152466890,-0.003954360,7.832466130,-0.137472150,0.109250850,0.369760390
1640837711.088600,-0.133605140,0.020322160,9.333719250,-0.103327650,0.029703980,0.340010290
1640837711.090150,-0.033953770,0.113002850,8.921971320,-0.084733980,0.045666100,0.343029200
1640837711.092049,0.281886250,0.310121390,8.074237820,-0.092318660,-0.023616850,0.327065590
1640837711.092620,-0.171180780,0.209454120,9.062340740,-0.124736130,0.064894560,0.331309380
1640837711.097040,0.002054920,0.478644940,8.454083440,-0.132632260,0.086486350,0.349780950
1640837711.098029,-0.172216460,0.478160020,8.930615430,-0.143849880,-0.021977730,0.355619250
1640837711.102020,-0.352552180,0.439063880,8.717751500,-0.173430130,0.040698060,0.364394430
1640837711.102569,-0.011866130,0.310011450,7.998683930,-0.128018870,0.037990510,0.364932450
1640837711.107020,-0.596901240,0.040112860,9.374782560,-0.098603990,0.012864170,0.357723300
1640837711.107349,-0.205983270,-0.013814380,8.242707250,-0.107945510,0.054176160,0.365904000
1640837711.112030,-0.100262080,-0.073522830,8.550498010,-0.151860710,-0.047735870,0.344145390
1640837711.112670,-0.269903570,-0.051836370,8.821966170,-0.172428800,0.089229630,0.339801640
1640837711.119200,0.273202330,0.174315650,8.099021910,-0.161135210,0.021660330,0.342921910
1640837711.120859,-0.420002700,0.040708450,9.612714770,-0.132425140,-0.033077600,0.332686330
1640837711.123010,0.291903260,0.087018700,7.807047840,-0.086657700,0.024244190,0.342181350
1640837711.124009,0.141934770,-0.050999010,8.404457090,-0.072698300,-0.009576980,0.335264240
1640837711.127009,0.015264720,-0.160723920,8.869366650,-0.112508240,0.157798840,0.343556730
1640837711.127499,0.433432880,0.114833610,8.243304250,-0.130878430,0.003427270,0.344398710
1640837711.132460,-0.107104700,0.062642730,9.077005390,-0.147040220,-0.015634300,0.344631170
1640837711.133960,0.198017060,0.199321210,7.668258190,-0.148010250,0.081756720,0.340807440
1640837711.136960,-0.408410430,0.017481000,8.997162820,-0.096713010,-0.010764600,0.319744650
1640837711.137300,-0.680920960,-0.260292770,9.071419720,-0.051116950,0.048510740,0.321075320
1640837711.141980,-0.407028880,-0.259936690,8.154932020,-0.002481040,-0.052101910,0.323838000
1640837711.143000,-0.633209940,-0.304276910,8.931523320,-0.074881320,0.046874590,0.332875610
1640837711.147230,0.061622110,0.016060340,8.046369550,-0.128346700,0.107595320,0.356207790
1640837711.147960,0.083855530,0.277720540,9.173126220,-0.129264640,-0.001814960,0.338469540
1640837711.152079,0.388145510,0.550862850,8.597870830,-0.124576700,0.076738010,0.326937530
1640837711.154960,0.591382860,0.816135290,8.279586790,-0.081805880,-0.015644730,0.307101010
1640837711.156989,-0.059568180,0.564114810,9.269454960,-0.077182050,0.033806270,0.314594840
1640837711.157330,0.097900260,0.423918070,8.253957750,-0.079917910,0.026668610,0.332625210
1640837711.162020,-0.415943240,0.130435990,9.015698430,-0.113692890,-0.028347970,0.346180890
1640837711.162609,-0.374872150,-0.227669510,8.291583060,-0.137229260,0.078731780,0.361144480
1640837711.167110,-0.180839150,-0.081056120,8.201909070,-0.125491620,0.036156180,0.340223340
1640837711.167600,-0.454863910,-0.186087970,9.032996180,-0.140512000,0.068376960,0.341245560
1640837711.172030,-0.070048240,-0.069849630,8.438741680,-0.122720020,0.016041100,0.325639640
1640837711.172619,-0.169414860,-0.069473800,8.698718070,-0.063866360,-0.035609300,0.312438550
1640837711.177290,-0.173459710,-0.072265770,8.582889560,-0.082778950,0.047025080,0.314541160
1640837711.178730,0.113589300,0.052841080,8.249969480,-0.092431900,0.041300070,0.311556460
1640837711.182030,-0.227346030,-0.055148870,8.962724690,-0.112003100,0.008858740,0.310598340
