# timestamp,accel_x,accel_y,accel_z,gyro_x,gyro_y,gyro_z
1691765277.750344,-0.008572936048228348,0.17283025530019686,9.858820616338583,0.0035549014370078735,-0.0013006469242125983,-0.008546227460629923
1691765277.752344,-0.049221683749999995,0.09412265622469636,9.849076924898785,0.0017526157692307693,-0.002737553537449393,-0.023653074068825913
1691765277.754344,-0.011286950714285711,0.09970140267857143,9.802631330357144,0.00020924750000000003,-0.004051810535714286,-0.02235153142857143
1691765277.756344,0.0038685672836418212,0.10147630463731866,9.81162779833917,0.0,4.2094977488743926e-05,-0.004953289774887442
1691765277.758344,0.019923974533007337,0.1308276111638142,9.865417510063569,-0.003367175041564792,0.00106526,0.018295984635696823
1691765277.760344,0.008790792900302115,0.21083200103726082,9.859537133811681,0.0024802544612286,-0.0006200607049345417,0.03101979481369587
1691765277.762344,0.0047884,0.18772136123612512,9.85453415,-0.0008502771089808269,-0.0027690390363269424,0.025356198335015137
1691765277.764344,0.02400675656484727,0.11182851607411116,9.846846813795693,-0.013246728958437655,0.002789853740610916,0.003768703705558339
1691765277.766344,0.017263955159045725,0.13781177505964215,9.806735835119285,-0.010877134244532802,-0.0008407757554671968,-0.012969543429423459
1691765277.768344,-0.027614724680000004,0.14080779243,9.82760419043,0.0006008064899999995,-0.00637560704,-0.02107305926
1691765277.770344,-0.023117742298507462,0.17304003543283583,9.854367389800995,-0.0018729555323383083,-0.0023880965373134335,-0.013922635492537314
1691765277.772344,0.05247252391650099,0.14049156411530814,9.855552755964213,0.00015883385685884618,0.004805341590457256,0.005893894771371767
1691765277.774344,0.01634174995085995,-0.007574380879606879,9.85453415,-0.0005805274398034397,0.005568688555282555,0.024641895036855037
1691765277.776344,-0.026446830770020534,0.020122113028747425,9.843199800718686,-0.010310859419917865,0.0002832715092402462,0.024559596960985627
1691765277.778344,0.008902108165230613,0.1578571309123163,9.84402539581855,-0.006777627856056767,0.000650602280790674,0.011424735712113533
1691765277.780344,-0.015511665301144853,0.1443790655500249,9.83725396085117,0.0058130921652563465,0.00106526,-0.006044804838227974
1691765277.782344,-0.02394202,0.1763553174875125,9.804631471913087,0.002536518591408591,-0.004920333381618382,-0.02241365611888112
1691765277.784344,-0.0276946479296875,0.12295301601074218,9.79707336,0.00023042489257812503,-0.002217390952148438,-0.02556635
1691765277.786344,-0.04047143415748032,-0.019892607070866125,9.80881436598425,-0.004353322960629922,0.0015467321417322831,-0.00815304998425197
1691765277.788344,0.007462749783677489,0.07656737576204523,9.81532766363815,-0.0044611235791543755,-0.00046506738446410985,0.009582139587020647
1691765277.790344,0.038580986308926785,0.17528341686058174,9.835654311965898,0.0017896838816449344,0.004121087261785356,0.028342228014042126
1691765277.792344,0.012910796656962636,0.08211612390587096,9.843942051213004,0.008232152037845705,0.0019687453081028627,0.03111854026686075
1691765277.794344,-0.02582212395705521,0.04884611851226994,9.814346850015337,0.0027775264417177915,-0.004042122177914111,0.015570507484662578
1691765277.796344,-0.03351882,0.07135621349771225,9.775353945292323,-0.006767439369598373,-0.0009748221657346207,-0.008298986573462128
1691765277.798344,-0.0065591020990681675,0.038100566135360475,9.795302663771457,-0.005951687435017165,-0.0025704245218244235,-0.01878083257969593
1691765277.800344,-0.003741448706686188,0.09607654360175696,9.824310452240118,0.0013324882528062462,-0.004028145915080527,-0.01857531598340654
1691765277.802344,-0.008597529841107125,0.13777642722706304,9.842019517703742,0.00997504691440287,-2.4028405945668296e-05,-0.005398395217837006
1691765277.804344,-0.00957681,0.03879479965045593,9.864375355065855,0.007398032431610942,0.00106526,0.011693083085106384
1691765277.806344,0.013853963604010025,0.0026498231979949875,9.829848096000001,-0.0005585299197994982,0.00106526,0.018388759959899748
1691765277.808344,0.04177205931982634,0.08293431942112879,9.809706143212736,-0.0029691717366136035,0.002742551345875543,0.015820177308248914
1691765277.810344,-0.0015286813849287179,0.09014096269857434,9.829456004200612,0.006951339343177189,-0.005260149796334011,0.0013841915631364558
1691765277.812344,-0.041043113143712576,0.13192481279441118,9.823947177719562,0.014674498787425149,-0.00745685,-0.014848315029940122
1691765277.814344,-0.017087270515411822,0.13980250707427994,9.794068217559374,0.016835376599292573,-0.004031207524002021,-0.020678725876705408
1691765277.816344,-0.0019456593722194755,0.024396480425111222,9.795127704691053,0.007706972995551162,-0.0006492682600098862,-0.011119195071675728
1691765277.818344,0.011598739171747967,-0.0009221563008130081,9.816404578495936,0.0010257496341463416,0.0025803406046747968,0.006099828932926831
1691765277.820344,0.01824814966983492,0.10483944406703352,9.84043005024012,-0.0017276583941970983,0.002331964857428714,0.022544813901950976
1691765277.822344,-0.015623062567164177,0.16019949052736318,9.868141774169153,0.006465787562189055,-0.0021676247462686566,0.02556635
1691765277.824344,-0.0009804746157659923,0.1714210415666832,9.843072375458602,0.005116652117005453,-0.0014930560585027267,0.011093115493306892
1691765277.826344,-0.006679322697697698,0.12651162920920922,9.793332278678678,0.0034106567717717717,-0.00021486475475475473,-0.009551126751751751
1691765277.828344,-0.021099281305876447,0.0765134449874435,9.771185706715219,-0.0027854201707684574,-0.0034178366750376695,-0.02495640518332496
1691765277.830344,-0.03164374298447671,0.11324802007511267,9.799149853895845,-0.0025476743314972457,-0.0008342886629944916,-0.021700026139208815
1691765277.832344,-0.0068066945022288265,0.18555478026745914,9.82191422260525,0.0012652330212976721,0.0,-0.0007143945814759786
1691765277.834344,0.011185447551420176,0.16755659734573947,9.844446151821744,0.004618926718903037,0.0016589337414299706,0.02085038962781587
1691765277.836344,-0.001150116153846156,0.061046507362637364,9.834230440047095,-0.000714079686028257,0.00213053,0.029018001177394035
1691765277.838344,-0.0047884,0.046079774174516606,9.822819615825484,-0.0064533787059990085,-0.0004631776003966282,0.021181702588001984
1691765277.840344,-0.03960880927680798,0.10591805354114714,9.817146428329178,-0.008317566907730672,-0.005368828379052369,-0.0032037664837905253
1691765277.842344,-0.021361298838804506,0.21822309597746203,9.82001591933366,-0.0009358296031357176,-0.005548664448799608,-0.02116593205291524
1691765277.844344,-0.022001430334346504,0.22511802315096252,9.801924829098278,0.006161694984802432,-0.004476918156028369,-0.02450108
1691765277.846344,-0.016191440333839152,0.1040078954729388,9.800948645786544,0.0014219688669701563,-0.0016746765907941323,-0.01329344014162873
1691765277.848344,-0.01047163625250501,0.04157226187875752,9.794074620636273,-0.009528140245490983,0.0006671217434869739,0.006671242484969938
1691765277.850344,-0.001990894776046738,0.11317091004868549,9.818835637638754,-0.010874095837390458,0.00106526,0.024997409474196687
1691765277.852344,0.022824722555555555,0.16831238383333336,9.833411987611111,-0.001343419444444445,-0.0014736176111111107,0.027069552277777777
1691765277.854344,0.02121521885221675,0.1884437199507389,9.83538055,0.006080926438423646,-0.00213053,0.011584618532019706
1691765277.856344,-0.030792777125256673,0.12622162561088296,9.789276238326488,-0.00023569360369609868,-0.00213053,-0.013056594260780284
1691765277.858344,-0.0093912995157385,0.03148984220338984,9.755450239806295,-0.009628650435835351,-0.0029636510169491525,-0.028106989128329297
1691765277.860344,-0.0037203107769423556,0.02445806087719298,9.775231547669172,-0.01171791,0.0009424536090225561,-0.026754426390977446
1691765277.862344,0.022023207561728396,0.10533502331790123,9.801859298832305,-0.00575319716563786,0.0012784235956790123,-0.00682010509259259
1691765277.864344,0.040295813958020996,0.12449849,9.829780923763119,0.0008847928185907045,0.0019229061619190405,0.0158799427886057
1691765277.866344,-0.015102628933064917,0.07018011229491697,9.847020193683946,-0.003911507493709108,0.001267377156517363,0.02628206559637645
1691765277.868344,-0.002063241147058824,0.030793661147058823,9.811649810897059,-0.009563877529411765,0.004455309205882352,0.021764289911764705
1691765277.870344,0.03112105900248139,0.04651286608436725,9.809385370124069,-0.009815763285359802,0.004489443285359801,0.006849937573200992
1691765277.872344,-0.022580490871768874,0.12878208711606692,9.819049519148505,0.0022649674911302577,2.8079888494677435e-05,-0.012042944759249873
1691765277.874344,-0.04936005679691269,0.1889675364592378,9.835752444442837,0.011883378080077184,-0.003524160627110468,-0.02417528490593343
1691765277.876344,-0.05267244,0.1288043016083551,9.832557527347259,0.01215514148302872,-0.0017211082506527419,-0.016471826845953004
1691765277.878344,-0.021969338448877808,0.03721341481795512,9.815240621246883,0.0014722470623441397,0.004911377381546135,0.0015200584139650874
1691765277.880344,0.00879842001509814,0.03845663770005033,9.826880969260191,-0.001924123885254152,0.0038150064066431806,0.019068069602415704
1691765277.882344,-0.02034772887780548,0.0739515783541147,9.861448076134662,0.0013016953865336656,0.001479677306733167,0.02494472306733167
1691765277.884344,-0.0728257261963775,0.1291727724880839,9.865224743708294,0.01112282509056244,-0.004657108207816969,0.014121605910390848
1691765277.886344,-0.05621168869565218,0.1436521,9.826636523043478,0.012181068695652175,-0.00639159,-0.006021057391304348
1691765277.888344,-0.01697217729315628,0.04705254616956078,9.777587172359551,0.010858294780388151,-0.004672367630234933,-0.022687196588355468
1691765277.890344,-0.04735302432879378,-0.025167067305447467,9.798563914640079,0.005610255389105058,-0.0025802625,-0.0205239575
1691765277.892344,-0.08335649258016774,0.05417723025653674,9.821447662516032,0.00919900488406512,-0.003776514203256043,-0.0018919374543660585
1691765277.894344,-0.04970528855397149,0.10766837119144602,9.863325880784114,0.011487390779022402,-0.0017568154989816703,0.022394963884928717
1691765277.896344,-0.13032636879003556,0.111087551886121,9.87752186811388,0.0066000888256227755,-0.00106526,0.031108752775800712
1691765277.898344,-0.11129956172277228,0.06820393172277228,9.851793855683168,-0.004849589584158415,-0.0036092433663366336,0.02517399293069307
1691765277.900344,-0.11521475846265061,0.07944826504096386,9.852286486578313,-0.009087347175903614,-0.0010000656481927712,0.004685113956626508
1691765277.902344,-0.1121278223233909,0.18476070812663528,9.862116409759288,-0.006213762114076399,-0.0033736178859236003,-0.020463558885400315
1691765277.904344,-0.09851637821302373,0.2455404230136295,9.867983245204442,0.0032882833720343256,-0.005983982291771832,-0.029873651686017164
1691765277.906344,-0.09576806,0.1474026123959391,9.872839441467004,0.009709043208121828,-0.002008858563451776,-0.015991401218274113
1691765277.908344,-0.057594939029454374,0.05960417717527766,9.850783889739256,0.0030095862192177697,0.005728561154031868,0.0058998441525832945
1691765277.910344,-0.04042281500986193,0.08786295110453649,9.852418564990137,-0.003914373333333334,0.005796969625246548,0.02642149966469428
1691765277.912344,-0.03445864775245986,0.11979935712584153,9.850685575789747,-0.00789487598135681,0.00532632,0.03089267
1691765277.914344,-0.04517931344516775,0.21389560100150223,9.826424787461193,-0.01543966647471207,0.001002852438657987,0.017922259198798196
1691765277.916344,0.029492750815920392,0.21915640545273632,9.863572546626866,-0.054914641502487566,-0.0025820711243781094,-0.0014394305870646749
1691765277.918344,-0.0293656838482508,0.043421966156292596,9.91231256392549,-0.051417281590186284,0.0030534992049068605,-0.012356774938664243
1691765277.920344,-0.016477272973568283,0.2006673368777533,10.019504506437224,0.05424988395925109,0.006984050666299559,-0.0008230010077092519
1691765277.922344,0.07983723248993964,0.2095095123641851,10.076843028787726,0.12416653038229378,0.005745352811871227,-0.0019386935311871234
1691765277.924344,0.03854809472334003,0.13431616472334004,10.13475904584507,0.09542529389839036,0.007912860342052314,-0.019577182489939636
1691765277.926344,0.004842603454724412,0.054772080127952746,10.08168852394685,0.06759081752952756,0.007672315536417323,-0.08207201687007874
1691765277.928344,0.1304580378618255,0.11504725180030258,10.049875704871406,0.03468153238527484,0.008310462723146747,-0.12169370076147253
1691765277.930344,0.21720817065184436,0.2661955558463871,10.096586614946943,-0.018985279514906514,0.026676290439615967,-0.12091585902475999
1691765277.932344,0.2571382312112112,0.3163773251701702,10.162908940990992,0.007473382777777777,0.06038631200700702,-0.09155089906906907
1691765277.934344,0.3107030085714286,0.24799100558823528,10.200848048235295,0.00544717319327731,0.08655496899159663,-0.032562183571428566
1691765277.936344,0.4057870276085791,0.07615744015549597,10.20887566,-0.05987242662198392,0.11391189755495978,0.020543320718498657
1691765277.938344,0.5423212867497508,0.0692814627218345,10.239849868464606,-0.05840686862412761,0.15462478075772682,0.04705430946161516
1691765277.940344,0.6948164397930339,0.18989246070166582,10.239370579025744,-0.07952917385663806,0.1942690664209995,0.0824162964209995
1691765277.942344,0.5881946463157894,0.14805101598086123,10.25258983930622,-0.07105415880382776,0.2455026744258373,0.11531614875598087
1691765277.944344,0.6339184897698209,0.35633805107416877,10.23783873230179,-0.062060505754475706,0.2973613451662404,0.1351332837595908
1691765277.946344,0.6363886720103094,0.37734593499999997,10.23281765,-0.07730854,0.38556533469072163,0.13761130427835053
1691765277.948344,0.3485270284966053,0.14647127265761395,10.236649298884577,-0.10653264140640156,0.48024001485935985,0.14168120923375363
1691765277.950344,0.07762253717348927,0.02427804389863547,10.20425527177388,-0.14177154115009746,0.5927646366276803,0.13367718612085772
1691765277.952344,0.08694152127496159,-0.06676549542242705,10.220872396221198,-0.18706599900153612,0.6920357273886328,0.14191907342549923
1691765277.954344,-0.07172371717196821,-0.0937260882306163,10.314680506356858,-0.25993352034294237,0.7467980345477137,0.17169605551689862
1691765277.956344,-0.2601004241783308,-0.18936161883359254,10.271867228864696,-0.32728744836184553,0.7971132563867289,0.19284543883359254
1691765277.958344,0.016315874801512253,-0.2627104594990548,10.394243547287335,-0.37016630271266543,0.8188047188563328,0.18112918898865785
1691765277.960344,-0.01888718095826894,-0.1459661289438434,10.74639349044307,-0.39682169488923236,0.8039590890777949,0.15338381633178774
1691765277.962344,0.012065910777722025,-0.09870885767185149,10.789478967737079,-0.418548433386854,0.7718383366281987,0.1775052322378324
1691765277.964344,0.08689271481180061,-0.056993199491353,10.964815225249236,-0.41514644543234996,0.7570963497253306,0.1913943137639878
1691765277.966344,0.06938151705705706,0.04174394648648649,11.183898124144145,-0.38471401705705704,0.7249300641741742,0.18414358627627628
1691765277.968344,0.30252214399217225,0.11564321954990214,11.132484695792563,-0.36798737277886495,0.70526134407045,0.19997786555772995
1691765277.970344,0.046609704193548374,0.0681189016935484,11.349945069354838,-0.36198371870967744,0.7079627048387097,0.23174656661290324
1691765277.972344,0.09042771993933266,0.0991523914661274,11.325552489231546,-0.32924211432760364,0.6913706338725986,0.21276853019211325
1691765277.974344,0.3722264138522168,0.23639145391133007,11.515850954118227,-0.3055377789261084,0.6683700054876848,0.21432175830541872
1691765277.976344,-0.013111604428223844,0.17912124210218977,11.757969993143552,-0.2890909957810219,0.6743880714403893,0.22285073111435522
1691765277.978344,0.2509636808328995,0.03446104749609577,11.751691659489849,-0.24202242172826655,0.6485292011504424,0.2205091814627798
1691765277.980344,0.11817028235294119,0.012374735764705882,12.104313565333333,-0.24213251678431372,0.6471961569803921,0.20087962435294118
1691765277.982344,0.068953008,-0.062249245999999994,12.089760592,-0.267168324,0.6419283379999999,0.201121922
1691765277.984344,0.2960294325364431,-0.0926130209329446,12.256298030699709,-0.2510939054033042,0.6302483266958212,0.20572544036929058
1691765277.986344,-0.16097396484407483,0.004400155717255702,12.38803796997921,-0.22529789284823284,0.6257265974636175,0.18609129255717255
1691765277.988344,0.28800797007944384,0.02873042,12.39130893714002,-0.2540100216285998,0.6235922431380337,0.16563327853028798
1691765277.990344,0.0033736452272727924,-0.10458308454545454,12.585665530681819,-0.2561234627272727,0.6036901745454546,0.17124126272727275
1691765277.992344,0.11669182696729438,-0.07112369090188306,12.478536808097125,-0.2328304836075322,0.5844458511496531,0.16945199739345887
1691765277.994344,0.2500662376504854,-0.012580019650485441,12.614077257533982,-0.22446879634951458,0.560298046893204,0.154527466776699
1691765277.996344,-0.08422441126881719,0.0038822081720430108,12.623528988150538,-0.23147852410752687,0.5409825295483871,0.14847494896774194
1691765277.998344,0.4012157408745794,-0.025548120211436806,12.711248297534839,-0.21304623613166745,0.526991575358001,0.15819510277270543
1691765278.000344,-0.08435135127431903,-0.08826173635214007,12.65321400457685,-0.18499333274319066,0.49975306185797663,0.14624070625
1691765278.002344,0.30819398299188644,0.09278138606997971,12.660040892418865,-0.18932644463995943,0.4839898223630832,0.14576134881845842
1691765278.004344,0.03565471184815183,-0.10812176380619382,12.725330346733267,-0.2018207915084915,0.4667592901048951,0.15355770474525474
1691765278.006344,0.04632981687499997,-0.1249008761922269,12.598920734269958,-0.20711057476365546,0.4494257881092437,0.1469292787394958
1691765278.008344,0.4221935987164751,-0.027744300574712638,12.695843937715516,-0.19023082072796935,0.42635067914750957,0.14154344340517241
1691765278.010344,-0.01819112467336681,-0.19438751590452263,12.550200974698491,-0.16881497603015075,0.3934867344472362,0.12738207040201005
1691765278.012344,0.4465796132261257,0.04206260560613559,12.75931805916378,-0.18126310271152896,0.36021698922315687,0.10717793848095003
1691765278.014344,-0.07791037104493204,-0.09330131877742942,12.638147779446186,-0.21203437541274817,0.32186680626959246,0.10738800427377221
1691765278.016344,0.4214146359657701,0.07156848168704155,12.660784533325183,-0.21584758173594132,0.2796540460635697,0.11709574408312959
1691765278.018344,0.11442699529087264,-0.10521039723671013,12.72886100545637,-0.22359760869107323,0.2503830850250752,0.11594393820461384
1691765278.020344,0.18831986627054953,-0.17114999618600282,12.528588938248003,-0.2456127411272898,0.24026441888210429,0.11583963180366369
1691765278.022344,0.4705251661676647,0.16446874634730538,12.738500684491019,-0.25246766,0.2327251949700599,0.12369187095808384
1691765278.024344,-0.07310718193421706,-0.0727052182179676,12.536630330024545,-0.23726529316151201,0.22778407273441334,0.11641086691212567
1691765278.026344,0.4796138419787986,0.19671127505805155,12.719771236789502,-0.22905013717819284,0.22180999580010097,0.10295208429076225
1691765278.028344,-0.028471453770655963,-0.015209242358537822,12.78503704,-0.23733738934902354,0.2026200212468703,0.10354241976464697
1691765278.030344,0.3649655134412956,0.06411032190283401,12.827686748502025,-0.23709680578947367,0.19037612117408906,0.10094566708502024
1691765278.032344,0.10147622069306933,0.1660011455643564,12.980147696336633,-0.2347758462970297,0.1748489140990099,0.08728840095049505
1691765278.034344,0.12321940901587303,0.05656179617687074,12.844200365868481,-0.22350938596825398,0.13818629223129253,0.07408202073922902
1691765278.036344,0.3953742545540691,0.25602744955964324,13.067774106716833,-0.20947587756410255,0.0841653890858417,0.05618528023411372
1691765278.038344,-0.05026133230588231,0.05074580924705879,12.97173952802353,-0.19298330117647058,0.06519668828235295,0.04576125289411765
1691765278.040344,0.5539283000266098,0.15781599001064395,12.989755739536987,-0.16421910345928686,0.03683977722192656,0.04451490311868015
1691765278.042344,0.1419327882750795,0.2594084416250568,12.870895658370403,-0.14682081330912392,-0.002687580072628235,0.040870280077167497
1691765278.044344,0.3360009585513513,0.2089762764,12.746186304562162,-0.13228051074594596,-0.051943440367567574,0.048269722
1691765278.046344,0.19433689566037737,0.29941074,12.680053656792454,-0.11420438679245283,-0.07687993,0.04162571452830188
1691765278.048344,0.21612275326923078,0.15193972923076923,12.439811910000001,-0.10154838653846153,-0.09837307269230769,0.035215183653846155
1691765278.050344,0.37027443225225226,0.23246045717717717,12.340636250900902,-0.09075221561561561,-0.11747019174174174,0.028266294834834834
1691765278.052344,-0.031006802677165324,0.2571080363877953,12.083521752253937,-0.059756509980314954,-0.15010058001968504,0.03727691673228346
1691765278.054344,0.4413026942857143,0.16528542089285714,11.909272156964285,-0.03829245428571429,-0.16129244553571428,0.025927773214285715
1691765278.056344,0.12242884616895877,0.2622003738310413,11.693610437200393,-0.026646260009823182,-0.18744259198428292,0.023221300992141453
1691765278.058344,0.2990503067514677,0.09095155248532291,11.39583352816047,-0.017043186555772995,-0.212108537925636,0.015977926555772994
1691765278.060344,0.15796002463609174,0.10732611622133598,11.272908675962114,0.0023270130109671,-0.22716578490528413,0.02205830113659023
1691765278.062344,-0.00983138113924048,0.2599678825063291,11.06711525749367,0.0381904077721519,-0.24172603037974683,0.01536407675949367
1691765278.064344,0.4427041063728987,0.24725285295975546,10.9446117585838,0.06555582660213959,-0.253503619770759,0.010235329271523179
1691765278.066344,-0.0694709789450223,0.3600125161367013,10.873944640326894,0.08045042104011887,-0.2666516782912333,0.012123118276374443
1691765278.068344,0.17265409654228855,0.19277731057711445,10.588575190283581,0.08644647974129353,-0.2644781353880597,0.010266286631840796
1691765278.070344,0.19167569607537688,-0.012536474984924634,10.594819140055277,0.08482556266331658,-0.2664884766080402,0.005377178311557789
1691765278.072344,-0.06128126966223127,0.009395466949846464,10.503392539160696,0.08674491323439099,-0.28205247465711364,0.007713085578300921
1691765278.074344,0.3004793926035503,0.0008641826331360972,10.27317213693787,0.08991872249999999,-0.3137282515976331,0.010233469644970414
1691765278.076344,-0.018775449680962286,-0.0408742282583682,10.41168968666318,0.09143946810669457,-0.34740435880230125,0.007084679199790795
1691765278.078344,0.20961085844678812,0.11495382026845638,10.188530884309683,0.10110053961169703,-0.3672654809539789,-0.003958741265580057
1691765278.080344,0.4383321625857902,0.1791983002658289,10.223930526727887,0.11488534362010633,-0.39794809566940553,0.0010364284340260987
1691765278.082344,-0.001266862047447137,0.18295948575038679,10.202724080577617,0.12835749222795256,-0.4100795527797834,0.0023530314440433214
1691765278.084344,0.3475949801839303,0.27068154469022265,9.923555693857695,0.14994292300096804,-0.43339711575992257,0.009532210106485962
1691765278.086344,0.12952161732570805,0.1254087083714597,10.040355838376906,0.16617427915577343,-0.42664712313725495,-0.001589195190631807
1691765278.088344,0.04182580541465766,0.227786232825458,9.782523469604628,0.17874664978302796,-0.4196273927434908,-0.0033914832835101254
1691765278.090344,0.35700523095591874,0.22785589522040614,9.711830857657256,0.18109496,-0.4160862831401684,-0.005758444878652799
1691765278.092344,-0.0816230241379311,-0.007228469157088108,9.872330113371648,0.18354384122605363,-0.39586207486590036,-0.00884047122605364
1691765278.094344,0.08070613485861186,0.13928468299742933,9.608890526462726,0.1925718846015424,-0.38326188454498716,0.0028343180154241625
1691765278.096344,0.11948826930513595,0.13688420588620342,9.783817264657603,0.20755116954682779,-0.3611922355689829,-0.002854112401812689
1691765278.098344,-0.19930163643863183,0.10066967278169014,9.75552412838531,0.2227827945523139,-0.3541039799346076,0.012464343757545272
1691765278.100344,0.13097787102289332,0.22952616337067705,9.562838333132001,0.23658157602045787,-0.35945383516317586,0.00960502087189479
1691765278.102344,0.00635171169665813,0.12407996575835475,9.7799508381491,0.25402311724935733,-0.35437706259640106,0.011674090514138816
1691765278.104344,-0.07666985504024144,0.19760353439637826,9.58466163609155,0.2637767162575453,-0.3696960458853119,0.005091081921529175
1691765278.106344,0.24225494965299685,0.2088720644479495,9.592169168596214,0.2616506768559411,-0.38650839514721347,0.007696006777076761
1691765278.108344,-0.05519692063336307,0.056600125169491505,9.656518271262266,0.25855944254237284,-0.40502380103479035,0.005281661793041926
1691765278.110344,0.279171688410873,0.1121132184004182,9.654264939362259,0.272458220987977,-0.41827361688970205,-0.0014416956455828543
1691765278.112344,0.32818789948731225,0.09368507669601242,9.706287204557224,0.27525860473847746,-0.43104042986535474,-0.004905951315380632
1691765278.114344,-0.04626993972602739,-0.013416433400195701,9.671153000342466,0.2799008466634051,-0.4630945386056752,-0.003638781805283757
1691765278.116344,0.2646036287037037,0.15178795402777778,9.677607245601852,0.27346225055555556,-0.4751621793518519,-0.004921913842592592
1691765278.118344,0.16966189645317806,0.01822427810771471,9.822358247816593,0.2859736157787482,-0.49977749523532267,-0.00785535920426977
1691765278.120344,0.005515754455696215,0.0245602688607595,9.756547750556962,0.2812837533670886,-0.5195496720506328,-0.013603021569620254
1691765278.122344,0.32198052478371497,0.13158971325699745,9.827204941399492,0.2678584280661578,-0.5308269670483461,-0.020101784503816795
1691765278.124344,-0.005130269089118733,-0.15420969172328902,9.8574317096258,0.257556379286066,-0.5446013577203348,-0.01788553234367307
1691765278.126344,0.09796315537575151,-0.05338734123747493,9.778766612314628,0.24883637690380764,-0.5620534703707415,-0.016190847865731463
1691765278.128344,0.252063952335,-0.10936234973500002,9.88925482634,0.245433730205,-0.57760872452,-0.015125156095
1691765278.130344,-0.0820762272983871,-0.20758356359879032,9.848063539117943,0.24931430134576613,-0.5874546779284274,-0.010610226733870968
1691765278.132344,0.2269215922727273,-0.0029004834189723105,9.784629205943675,0.249485039263834,-0.6223233987302371,-0.012143696210474309
1691765278.134344,0.2078776690154152,-0.18279509403779215,9.822503544092491,0.2340636541422178,-0.6804857529935355,-0.02207708668324217
1691765278.136344,0.1346896952953157,-0.07814557480651732,9.57276955293279,0.21377318541751528,-0.7527688135845213,-0.03481093596741344
1691765278.138344,0.4065087273505976,0.07758740057768924,9.644979706533865,0.21845135942231075,-0.8142588574501992,-0.026971136693227094
1691765278.140344,0.19810294861966232,0.04785550129096326,9.424410409016883,0.2529098594637537,-0.8528642245878848,0.0010779583118172807
1691765278.142344,0.3180277457348407,0.2655127811510791,9.133266658705036,0.2986046817060637,-0.8649169624049332,0.02057832690647482
1691765278.144344,0.3143330407078811,0.34589944325625294,9.270256644303917,0.38735408062293536,-0.8785173887305332,0.0649605200660689
1691765278.146344,0.09593012710206245,0.37375121272342676,8.993062204621893,0.4360345262136436,-0.8785845683818085,0.08360777080909572
1691765278.148344,0.15878587601167315,0.5618455477237354,8.954249020340466,0.5178024293385214,-0.8471504969455254,0.07586279024319066
1691765278.150344,0.038564167960975615,0.5451492379317073,9.049096497131707,0.5921113873170731,-0.7875068458634147,0.07267909477073171
1691765278.152344,-0.09586056356612184,0.47208108968796436,8.782593571768201,0.673099936166419,-0.6985681339227341,0.05298780751857355
1691765278.154344,-0.1592378843137255,0.39931528313725495,8.81254007490196,0.7336747925490196,-0.6120048825490196,0.005138338823529411
1691765278.156344,-0.2604644285922602,0.3208391415255188,8.78195336068424,0.7582525792035895,-0.5181642425630959,-0.04132365263039821
1691765278.158344,-0.25335046911955517,0.3611427985542169,8.777360932826692,0.7427558837488415,-0.39442772786839664,-0.04332486410101946
1691765278.160344,-0.3707348808032537,0.045700406263345206,8.807237118002034,0.7049938558820539,-0.2943736686120996,-0.04556645898322318
1691765278.162344,-0.34794796925329424,0.06900769341142023,8.804808223147877,0.6669304134114202,-0.22772328503660322,-0.02793083019033675
1691765278.164344,-0.48884354892606585,-0.08247527824069079,9.10856889185645,0.5609942226605505,-0.15033852796006478,-0.02468332407447383
1691765278.166344,-0.5586502572344689,-0.5450143278957915,8.909817628036073,0.4745934428256513,-0.10144989084168338,0.008931995330661323
1691765278.168344,-0.30071172599999996,-0.31220389400000004,8.974425508,0.388608454,-0.06732471000000001,0.038349518
1691765278.170344,-0.379599374010989,-0.5617428866483516,9.308367088406593,0.29348034131868134,-0.03610777796703297,0.00039216087912087583
1691765278.172344,-0.2311095981762918,-0.4841381651367781,9.114776716413374,0.17835083776595745,-0.047880237933130704,0.008259844969604866
1691765278.174344,-0.1369790783654321,-0.4223513818617284,9.283612582409877,0.10698252921975308,-0.05475301383209877,-0.017877507965432096
1691765278.176344,-0.15690152500943397,-0.6434123625849056,9.370978150216981,0.08519703331132075,-0.07141291616037736,-0.02957113966037736
1691765278.178344,0.05790449849840254,-0.28229653109691155,9.320349019084132,0.0577783974973376,-0.12017634963791266,-0.05681182977635783
1691765278.180344,-0.08925883460937502,-0.4389431930078125,9.691952835273437,0.010454990683593748,-0.1603181279296875,-0.03818099123046875
1691765278.182344,0.03829983959383035,-0.3532733788894602,9.691342073172237,-0.021413182776349616,-0.19205102252442158,-0.02665352174293059
1691765278.184344,0.2393339469051095,-0.30751103498783455,9.73396669963017,-0.05903898127007299,-0.21891314174209245,-0.0538189246812652
1691765278.186344,0.013316903432225025,-0.22304407358567774,10.01180182004092,-0.12553447119693095,-0.24248415621483377,-0.02973259452685422
1691765278.188344,-0.003444159954476479,-0.0583545810925645,9.971555642716236,-0.10713909875569044,-0.2479997086798179,0.0018702734901365724
1691765278.190344,-0.15059988346476097,-0.2870894529423361,9.97602354717102,-0.06937449691473632,-0.1930585691375062,-0.005269623888615079
1691765278.192344,-0.024437370689655152,0.24949231999999988,10.044584048965516,-0.10064912206896551,-0.1747401051724138,-0.017815626896551723
1691765278.194344,-0.1490542838265787,0.02407289085768144,10.024646417747407,-0.06222007672950047,-0.1577143560885957,0.0068303467012252594
1691765278.196344,-0.24039669392017496,-0.11684333130672499,10.054712252766539,-0.03301620483870968,-0.09946680947512301,-0.013864746041552762
1691765278.198344,0.030093790694444483,0.4312223334027777,9.938364380625,-0.038697206875,-0.053226235555555564,-0.020498939791666667
1691765278.200344,-0.14291616099157167,0.07587138390183445,10.034195251279128,-0.02129102975706495,-0.01924024707982152,-0.02101903499752107
1691765278.202344,-0.19072951127682403,0.10127062404506433,10.125577037875537,-0.008015775139484978,0.014344496233905582,0.003691846233905581
1691765278.204344,-0.1845741400872939,0.1405960742774006,10.014896742211446,-0.017096923375363726,0.06330315475266732,0.0032412511930164888
1691765278.206344,-0.1363429542706131,0.11856613200845666,10.114737557737843,-0.033178594016913324,0.09116005558139535,0.00020269217758985198
1691765278.208344,-0.10552993309178743,0.18320847536231882,10.108689403719806,-0.0379069461352657,0.09734046816425121,-0.0025319302415458935
1691765278.210344,-0.20058852184237463,0.15879169378710337,10.09874249,-0.04862054195496418,0.10741942877175026,-0.007475389846468781
1691765278.212344,-0.08225784135660846,0.29895638614962594,10.168211283376559,-0.069163026638404,0.11401517228428927,-0.017966572069825437
1691765278.214344,-0.005157300528700906,0.11378606024169183,10.138322725166162,-0.07350325,0.09776617219033233,-0.02801709410876133
1691765278.216344,-0.17172174177693764,-0.011296647287334594,10.17527766142722,-0.08413827599243856,0.07001898420132326,-0.03228164149338374
1691765278.218344,-0.10802427578369905,-0.025968458871473355,10.16329580393417,-0.08567197747648903,0.045213630329153605,-0.030503627272727273
1691765278.220344,0.19549688883004335,0.22242906753009148,10.137817389378911,-0.09421973992296581,0.031481462397688974,-0.03391767267693789
1691765278.222344,-0.16823440514944943,-0.023296702181436812,10.20849399025695,-0.10541872581017304,-6.870783429470395e-05,-0.03260982627687468
1691765278.224344,-0.16407218950965824,-0.07477878414561664,10.170717881114413,-0.09399178205052006,-0.016806801961367013,-0.02430797002971768
1691765278.226344,0.033549928385807115,0.21868718250374813,10.148583946861569,-0.10241285251374313,-0.022564868705647174,-0.0037249680309845087
1691765278.228344,-0.24146328440427695,0.020562830921588615,10.169900426461304,-0.10718708286659877,-0.028613520498981672,-0.0015235902494908345
1691765278.230344,0.2038648519223108,0.27117195470617533,10.082240635836653,-0.09291832528884462,-0.022922283979083666,-0.010761927051792828
1691765278.232344,0.14175944779644267,0.31795329613636364,10.102567999219367,-0.08181325336956521,-0.01278422263339921,-0.008522640316205534
1691765278.234344,0.092042459,0.1771242105365854,10.101930861439024,-0.08238131829268293,0.0017797703414634165,-0.02071809236585366
1691765278.236344,0.07549440422291993,0.17757684827315542,10.12197035632653,-0.07878441343799057,0.023412408540031397,-0.029668535023547882
1691765278.238344,-0.20696495063859324,0.08174852324386857,10.120231560610828,-0.08098622135122628,0.040584557843590933,-0.02847623276723739
1691765278.240344,0.06105981338141031,0.2400417506570513,10.038772397836539,-0.11471566001602564,0.076593200625,-0.030211516041666667
1691765278.242344,0.07246496585638039,0.14702559829209122,10.08057398985444,-0.13184571931586608,0.09266869972343522,-0.02427262433284813
1691765278.244344,-0.12491805201732042,0.13164084678553234,10.079959667789097,-0.14258045773306163,0.11152282546612328,-0.01819198005603668
1691765278.246344,0.007696463863275049,0.150868965590885,10.002768963312135,-0.14932727023317435,0.11878460945416004,-0.025946842109167992
1691765278.248344,-0.20155838334883724,-0.02367475623255816,10.127873767860466,-0.14936493823255814,0.12014696390697675,-0.03607035051162791
1691765278.250344,-0.07907004546351087,0.09907367307692308,10.013061315069034,-0.14428345333333334,0.10662309765285996,-0.03915845284023668
1691765278.252344,0.0405582706185567,0.03380514096907215,10.125142855463917,-0.14440592775257732,0.08649068620618557,-0.03277280781443299
1691765278.254344,-0.06147314660550458,0.011509740122324159,10.201261080948012,-0.1517040806116208,0.0786112996941896,-0.03772079061162079
1691765278.256344,0.2377430116751269,0.22568693685279181,10.150175231624365,-0.15078629223350254,0.03945804401015228,-0.022002844314720812
1691765278.258344,0.2434506965467626,0.05072032930455639,10.231210030095923,-0.15187809470023983,0.024189419736211033,-0.02648855282973621
1691765278.260344,-0.189647685709985,-0.017048924400401406,10.144677955203212,-0.1515016535273457,0.0032540525589563503,-0.01961946561465128
1691765278.262344,0.24729332907969148,0.1538936240874036,10.174635526560412,-0.14100157005655528,-0.02779545887403599,-0.015333233670951157
1691765278.264344,-0.15332987364457834,0.06416748716867471,10.236365683207831,-0.14194328073795182,-0.05051824338855422,-0.007995902876506025
1691765278.266344,0.273964564549483,0.2135849419842442,10.25101403353028,-0.1316653242934515,-0.0722271329098966,0.005540846607582472
1691765278.268344,0.41549893056658593,0.3066247571961259,10.396124811399517,-0.12478553752058111,-0.08409966165617433,0.011811279176755448
1691765278.270344,-0.1667023144593895,0.2185572885721676,10.332666498613554,-0.11598707520951888,-0.09639789554061044,-0.0006987894774961208
1691765278.272344,0.18323478719939124,0.37377243039573815,10.254238082039574,-0.10621999485540334,-0.08526817582952816,-0.0016732889193302892
1691765278.274344,-0.18775953085995079,0.22158425066339066,10.337986707985259,-0.09503885656019656,-0.08627857191646192,-0.005318471916461916
1691765278.276344,-0.10641436507614213,0.11054648375634518,10.246162150304567,-0.08751931360406091,-0.08219298746192893,-0.017568749238578683
1691765278.278344,-0.16084112072346504,0.06992299174678723,10.480595799547833,-0.08710780857686816,-0.057139952351261306,-0.02024002
1691765278.280344,-0.3139097968191378,0.024007472613038906,10.478122074773923,-0.08224714720294427,-0.04326138358569927,-0.010030958364879076
1691765278.282344,0.053522106526663504,0.35053418359131666,10.260556240349223,-0.08096009,-0.03179052666352053,-0.009895543926380368
1691765278.284344,-0.2512335103369066,-0.04307607493108728,10.466594409709035,-0.07444343824910668,-0.02061631575293517,0.0015660849004594177
1691765278.286344,-0.3290277718072289,0.012132792331063375,10.286350575458355,-0.0853199259559979,0.0007840205238344652,0.009620299298061812
1691765278.288344,-0.14140694840466925,0.14197057385214007,10.458609107976654,-0.08926148978599222,0.02137264728599222,0.01825352978599222
1691765278.290344,-0.32392992215943495,-0.22126674267406665,10.497306367608477,-0.09286611940464178,0.03741002497477296,0.02193197470232089
1691765278.292344,-0.10695272535487027,-0.0633602036172296,10.256316874527656,-0.10951523659813998,0.059572423646598135,0.014899620504160549
1691765278.294344,-0.039008346230946886,0.0438365617182448,10.402133017191685,-0.12694015912702078,0.0779379962817552,0.007447991870669746
1691765278.296344,-0.09884843605720696,0.0017080339427930427,10.267308839091418,-0.14201534035333707,0.11699268415591699,0.0028456843522153673
1691765278.298344,0.03932849310362174,0.2285788088128773,10.234937265628773,-0.14659175202213282,0.12505068603118713,0.00213053
1691765278.300344,-0.08406761465721041,0.06088856210401891,10.439595696449173,-0.15188102413238772,0.12301109608037825,-0.007618525891252954
1691765278.302344,-0.0163036698409441,0.1523591805079528,10.276466252493586,-0.15176054848640327,0.11104275089276551,-0.009833881929194458
1691765278.304344,0.00042321934848485107,0.010062902156565662,10.339989051712122,-0.14043359930303032,0.09925789441919192,-0.008754002353535352
1691765278.306344,0.07218911118340164,0.1878368955122951,10.234061546951844,-0.13827535834528687,0.08152656079918032,-0.011090867187499999
1691765278.308344,0.14493679487804878,0.1979596012195122,10.156904009512195,-0.14191401170731707,0.05032724682926829,-0.007430871951219512
1691765278.310344,-0.04958314677419354,-0.11353149838709675,10.313448844193548,-0.15099264516129032,0.02223310193548387,0.0043297829032258065
1691765278.312344,0.03854626998959959,0.1343691188611544,10.2172374925117,-0.14830941178367135,0.00495350892875715,0.012545526177847113
1691765278.314344,0.13827413552552553,-0.049494548018018,10.380539797297297,-0.13757586168168168,-0.02959068237237237,0.026708383783783783
1691765278.316344,0.04527596118300338,-0.0628064619893771,10.403085368203767,-0.13942928077257363,-0.0538470319942057,0.025686707001448577
1691765278.318344,0.05457497446428572,0.1714419517410714,10.168986813705358,-0.13492240397321428,-0.06509526553571429,0.022874648616071427
1691765278.320344,0.07084785543364681,-0.04634544236677121,10.334975919158829,-0.12044334144723093,-0.05778753412225705,0.012198779932079414
1691765278.322344,-0.038893322299306254,0.1437256595341923,10.239089270158573,-0.11717909,-0.0630379989692765,0.007888657120911793
1691765278.324344,0.18280732276488398,0.299096418345106,10.133954852441978,-0.11717909,-0.05129930864278506,0.011732417669021191
1691765278.326344,0.059329773800195884,0.10953296733104798,10.234860105093047,-0.10710654513222331,-0.03702498033300686,0.01278317
1691765278.328344,0.1305388764836272,0.3512975325037783,9.982831879143577,-0.09682743420151134,-0.018110570156171284,0.011942231753148614
1691765278.330344,0.11675554326241135,0.18151784801418439,10.060706982198582,-0.09139364595744681,-0.01128726695035461,0.013425356028368795
1691765278.332344,-0.1421743691394659,0.11590209629080118,10.064470626142432,-0.08122878599406529,0.0012075131157270012,0.01893135821958457
1691765278.334344,-0.06822712191082803,0.20794479949044586,9.910530969426752,-0.07137950401273885,0.015850049808917195,0.021067809426751592
1691765278.336344,-0.16124470628454451,-0.064471906171955,10.077135881141249,-0.07429592137154555,0.023386205445240532,0.014566970962128967
1691765278.338344,-0.10008464450227388,0.10657161703890855,9.912834539509854,-0.07734659123799899,0.03991646310257706,0.01620881247599798
1691765278.340344,0.07867267388616289,0.08805681399411187,9.923709832315996,-0.08956061226692835,0.04788880753680079,0.011988664210009813
1691765278.342344,0.014560851235675132,-0.011824275151968114,9.98578924017439,-0.08599449170901843,0.043154087304434485,0.008981768809167913
1691765278.344344,0.12618891723823247,0.2800249947742555,9.897275554899137,-0.0857594157012488,0.03753649951008645,-0.008314896099903936
1691765278.346344,0.02256059722852513,0.06422048098865474,10.052348571231766,-0.07090310363047002,0.032800473468395465,-0.012993806855753647
1691765278.348344,-0.02589406714145383,0.17778241169941061,9.960396332711198,-0.05514261,0.02939313586444008,-0.009363447161100196
1691765278.350344,0.026906045293262244,0.2695641244886088,9.952323787983518,-0.043946416277266115,0.02133575452253999,-0.007696961754726127
1691765278.352344,-0.11570496819958848,-0.11448569760288069,10.084650700144033,-0.0339750279526749,0.01496904950617284,0.0034780036008230453
1691765278.354344,0.02441443830938697,0.224866912217433,10.026680293472223,-0.0181589843151341,0.004107999683908046,0.004768183280651341
1691765278.356344,0.08910427542536115,0.15598051589085074,10.082901567094703,0.009281306613162114,-0.01521122478330658,0.01368429099518459
1691765278.358344,0.06840970720192308,0.10910653653846154,10.088484261701923,0.02495587121153846,-0.02419584560576923,0.011794728067307692
1691765278.360344,0.1266914429750382,0.5157400650738665,10.008563005272542,0.026010255639327563,-0.023036409500764136,0.008966023555781966
1691765278.362344,0.005611486033300667,0.1337540360088149,9.996070959755142,0.01477650277179236,-0.012410695215475024,0.001052226963761018
1691765278.364344,0.02011821737603306,0.36300847229855376,9.910068196606405,0.007456303760330578,-0.007030417856404959,-0.0036222301446280983
1691765278.366344,-0.009412271253158161,0.30268807811015663,9.919275525886812,-0.004895693335017686,-0.0020503215361293587,-0.000788048489135927
1691765278.368344,0.05938810700764818,0.286851011414914,9.877739116558319,-0.02160165066921606,0.010583394780114722,0.00499228396749522
1691765278.370344,0.07375925698757764,0.3647068047204969,9.887041727111802,-0.02471611897515528,0.019800025248447206,0.021695668633540374
1691765278.372344,-0.050422981268582745,-0.056260183904856265,9.953965795797819,-0.031300194568880085,0.02130529,0.02726612864222002
1691765278.374344,-0.020203552262920213,-0.01077090490717511,9.919731337380833,-0.03472505838434521,0.02130529,0.030249663582538888
1691765278.376344,0.05181576655988172,0.36458181876293744,9.956263434440611,-0.03347471695416462,0.015428748279940858,0.024176617816658454
1691765278.378344,-0.05391226890397183,-0.03268103576168924,9.93543858762192,-0.03722748476621418,0.0037581470889894424,0.0232114116892911
1691765278.380344,0.1326305164655172,0.34777842241379303,9.876453459827587,-0.037495475344827583,-0.006621173965517241,0.01916557267241379
1691765278.382344,-0.021067061218781213,0.20081396716283717,9.952624571643357,-0.023585867312687313,-0.02564509478521479,0.022390241733266734
1691765278.384344,-0.023476833624939582,-0.1299858215466409,9.877545772687288,-0.0012099399806669887,-0.04306572463992267,0.02426321140647656
1691765278.386344,0.10212422064853555,0.4219354616422594,9.91522560127615,-0.0017371802196652708,-0.05972500845188285,0.021073511861924688
1691765278.388344,-0.08323267374193549,0.08001742319106692,9.923420551439206,0.03376756365756824,-0.07316595206947892,0.023678473379652606
1691765278.390344,0.14456428829787238,0.17544368563087578,9.864317076966849,0.06129197035625927,-0.08327616747154874,0.027048548480950025
1691765278.392344,0.07056409890190338,0.44164081153733525,9.920344838433381,0.08092578692532942,-0.08770105560761346,0.026043613674963398
1691765278.394344,-0.02647354162094763,-0.03453621465336654,9.8892016760399,0.10323342095261846,-0.09169190164588528,0.019835167326683292
1691765278.396344,0.16473761232339096,0.26552710960753534,9.950662945274724,0.12920636729984303,-0.09524668069073783,0.00954724246467818
1691765278.398344,0.0026668409497762613,0.018439278324216823,9.95784783834908,0.11442507280457484,-0.09415221310293387,-0.0054550476877175515
1691765278.400344,0.11107595293829578,-0.14651764146914792,9.902103911714006,0.09540846072477963,-0.08700738090107737,-0.0127320516748286
1691765278.402344,0.11176617806209313,0.23949449508262388,10.001133000650976,0.08993562775162744,-0.08018982325488233,0.005438339048572861
1691765278.404344,-0.07918333435311285,-0.1566525252237354,9.917992075583658,0.07152918641050583,-0.07066910891050583,0.01554892125
1691765278.406344,0.17445427483032871,0.19011434010604455,9.81770206766702,0.07205220672322375,-0.06646097546129374,0.02991382460763521
1691765278.408344,-0.05639187961909356,0.21699039696721312,9.911198408895853,0.07014823024108004,-0.06185261923818708,0.043927010279652845
1691765278.410344,-0.0903646591454273,-0.22257102063968018,9.76538283141929,0.05015314266366817,-0.053250442103948026,0.045211721824087954
1691765278.412344,0.16633224097194385,0.0898521353607214,9.835275002865732,0.02395350280561122,-0.05529020831663326,0.04390960165330662
1691765278.414344,-0.1606412199179066,-0.34192493250384814,9.918788123299127,-0.013478958619805026,-0.07268011151872755,0.052213263961005646
1691765278.416344,0.11781710904525111,-0.34825574408751864,9.862015574584783,-0.0554827387369468,-0.08695227381899553,0.059455102899055194
1691765278.418344,0.10718270463268366,-0.08985255523238384,10.193814097916041,-0.0980298775712144,-0.08862936316341828,0.057308666641679155
1691765278.420344,-0.08211304344742062,-0.4860395799305556,10.109580510064484,-0.1192160882986111,-0.10533647047619048,0.057304990788690474
1691765278.422344,0.36329588014170033,-0.05024915958502019,10.149723424969634,-0.15412101035425102,-0.1276662267611336,0.053251902874493925
1691765278.424344,-0.08991028751364766,-0.07057607739950371,10.411455389419354,-0.18488708794044664,-0.134644664,0.04964607801488834
1691765278.426344,0.1722942494867963,-0.1823911664175386,10.24025214821126,-0.20168105119083207,-0.1479793932735426,0.04646399893373194
1691765278.428344,0.3392282335963581,-0.0012352508801213857,10.468430882063734,-0.2156473497572079,-0.16580460449165402,0.05435757874051593
1691765278.430344,-0.10528249676352713,-0.2611071296693387,10.411817388737475,-0.20806812793587176,-0.18913994325651304,0.047866449679358714
1691765278.432344,0.36685763266467075,-0.018952903113772457,10.388972011497007,-0.19787445748502994,-0.19216223215568864,0.04838022482035929
1691765278.434344,0.07398706556012802,0.12091211050754458,10.542413652775492,-0.16699273971193415,-0.19958973816643805,0.05998115268404207
1691765278.436344,0.16520258045657019,0.07915529054565701,10.247694944677061,-0.09497995079064589,-0.2218128440311804,0.07573223490534521
1691765278.438344,0.29441793494880547,0.37372660198439783,10.357524561287178,-0.06615390730375427,-0.22605627158946856,0.07122417396879571
1691765278.440344,-0.09760341856202537,0.3249834950835443,10.287715922673419,-0.04244930792911393,-0.22158578946329116,0.05904153598481012
1691765278.442344,0.29518075948013733,0.26577399378616967,10.09132856911231,0.00621029308974988,-0.22720121333006377,0.052276843094654246
1691765278.444344,-0.03418586718407968,0.4706786281393035,10.29166566802985,0.046255797462686564,-0.22737618662686565,0.050304861084577115
1691765278.446344,-0.048114988595927125,0.31246771189710615,9.975789090385852,0.08976879259378348,-0.22601530765273312,0.05095343403001072
1691765278.448344,0.15893476384143462,0.45102737588485137,10.072886488107597,0.12999493194903255,-0.22583605,0.06130372568664465
1691765278.450344,-0.2111626545707196,0.300633309573201,10.095553389612903,0.1616801694044665,-0.2142381580744417,0.06060217992555832
1691765278.452344,0.14603301031802118,0.5743352734427057,9.946611121196366,0.1950181331701161,-0.21426065637556788,0.07133883948006058
1691765278.454344,0.0703667955640633,0.62718795618683,10.122246944655437,0.22461146944359367,-0.2126205889178152,0.08225701126595202
1691765278.456344,-0.22582929821158687,0.1471812886397985,9.82538160631738,0.24480367617128462,-0.19382070671536525,0.08761625711335012
1691765278.458344,0.156713249971333,0.47381401579550886,9.781623747190636,0.2622840956330626,-0.18050812432393692,0.08013607969421882
1691765278.460344,-0.09528970157270028,0.504099040553907,9.95212560024728,0.28328763748763597,-0.17789917,0.0777643
1691765278.462344,-0.11387639444906446,0.04506673775467773,9.630435093284824,0.28198944303534307,-0.1552960666735967,0.07106709089397088
1691765278.464344,0.03480700408751865,0.4651037483689706,9.857886745365489,0.29194125381402286,-0.13651912418697165,0.06503621683242168
1691765278.466344,-0.3144943932816408,0.056605680685342774,9.786856998259129,0.31020510380190097,-0.12307348028014008,0.06307548230115058
1691765278.468344,0.04170450241590212,0.1208376265443425,9.659674146636085,0.31082592501529055,-0.10923683804281345,0.05942350892966361
1691765278.470344,-0.13222294922233302,0.31510844558325024,9.943795061445662,0.3117082792821535,-0.1013774902093719,0.05687322071784646
1691765278.472344,-0.18268720572657743,-0.1553118222370936,9.626714406606117,0.31704144788718924,-0.09193659685468453,0.06547710330783939
1691765278.474344,-0.11656791054928886,0.2746180923688083,9.880516908102011,0.3312032050416871,-0.0997921324717999,0.06738385503187837
1691765278.476344,-0.29249163554487184,0.12600253169871795,9.894268653141026,0.3296669183974359,-0.1050139052724359,0.06374514945512821
1691765278.478344,-0.0605558350646353,0.04772928506925207,9.601217687502308,0.3217787162742382,-0.1102032322299169,0.06047957759464451
1691765278.480344,-0.1349482901746725,0.011241770764192138,9.780951725540392,0.31036234948144104,-0.10179788573689956,0.06300643284388646
1691765278.482344,-0.3317394005405406,-0.25206891539118065,9.668222524082504,0.3127376894262684,-0.09419331531531532,0.06310315097202467
1691765278.484344,0.08163281333666828,0.11514446215107549,9.639070574882442,0.31665104152076035,-0.0774903911955978,0.0628506
1691765278.486344,-0.06884449540352758,0.09049596099946552,9.798450248824158,0.330267835414217,-0.06474655435595938,0.06541440587386424
1691765278.488344,-0.15869807619277107,-0.19285149481927713,9.575837802385543,0.3217124354698795,-0.04862483195180723,0.056841485421686745
1691765278.490344,0.15159660718846552,0.28971320857878474,9.715860443269825,0.30998427243048404,-0.03791727035015448,0.06285828155509783
1691765278.492344,-0.14873272394521864,0.051303338279673205,9.712670069596347,0.3004301639019702,-0.03621899,0.06415543057184046
1691765278.494344,-0.05059001686208553,0.15052292049975974,9.56961177125901,0.3123901942527631,-0.039355916439211915,0.06705279380105718
1691765278.496344,-0.22960603612200436,-0.03227738473311545,9.701996528747276,0.3123974922984749,-0.04721511623638344,0.05302301318627451
1691765278.498344,-0.32353434067946824,-0.2033621457016248,9.623538117863122,0.3102101500541605,-0.0506963037469227,0.054084591240768094
1691765278.500344,0.024912515334608032,0.07833572,9.627428548948375,0.30999196,-0.0672644200956023,0.05458716690248566
1691765278.502344,-0.20080182004226102,-0.0454986888695193,9.680570838082408,0.3083127388272583,-0.07075877459059694,0.05180966612255679
1691765278.504344,-0.21083527358900145,-0.016700508408104192,9.580923243140377,0.31279153887120115,-0.07934601383502171,0.04948931447178003
1691765278.506344,-0.12884675150026412,-0.18342645435287902,9.833721185868992,0.32627535681986264,-0.08460158334918119,0.05243711909138933
1691765278.508344,-0.3158169706818182,-0.16802942875,9.794243855113637,0.34291832079545453,-0.07404798681818182,0.05412269920454545
1691765278.510344,0.06934404000488992,0.3629188167726161,9.674155516831297,0.39482346063080687,-0.059638656728606354,0.07109142179462102
1691765278.512344,0.09997269225692695,0.5216465122115869,9.807091610075567,0.47598214449874054,-0.040511709607052894,0.10417105765743073
1691765278.514344,-0.39209917551321144,0.5459339539684959,9.80364281726626,0.5831716284756098,0.027883620045731715,0.12381858925813008
1691765278.516344,-0.11246675748881158,0.8537073141471905,9.830644538264545,0.7100355759572352,0.11535950803580308,0.140420500099453
1691765278.518344,-0.4648176783978442,0.9101814190347869,10.170500426727093,0.8237824300587947,0.23002875475747184,0.10372627079862812
1691765278.520344,-0.31290218026986505,0.8117408785357322,10.052629317126437,0.8803188737881059,0.3239553676911544,0.07607883382308846
1691765278.522344,-0.3341539062288353,0.3604151826218574,10.03167541981016,0.9380344766187789,0.4009209378912263,0.051786941323755775
1691765278.524344,-0.3553255510617284,0.5581622916493827,9.927140463634567,0.967990816854321,0.4569279635259259,0.08326790332839507
1691765278.526344,-0.2552933296132597,0.17209151198895029,9.928106178453039,0.9293637759668508,0.5007037143646409,0.0833554638674033
1691765278.528344,-0.43195722038763495,-0.17189850730127576,9.943422623032385,0.8932780841707556,0.5283476445387635,0.16172836349362119
1691765278.530344,-0.23569181481762919,-0.11392713006079026,9.704104690688956,0.8502164598125633,0.5202710417983789,0.14485059336372846
1691765278.532344,-0.29889555890981173,-0.5615909568334985,9.691576732289397,0.7278252845738356,0.4932850023439049,0.18179440132309216
1691765278.534344,-0.05354218060210736,-0.3150351336427496,9.818752100827899,0.5747104253336679,0.4534087217812343,0.10722344038635223
1691765278.536344,-0.22410699,-0.8021912746192894,9.739077836700508,0.43758033817258885,0.41874625979695435,0.051678843045685284
1691765278.538344,0.2555419446733668,-0.6525943944723618,9.556883436231157,0.3315381343718593,0.3248949520603015,-0.043686547939698485
1691765278.540344,0.2482399296475771,-0.5944909516103769,9.881605129280471,0.25755569699951053,0.22384892149290259,-0.07169704443954969
1691765278.542344,0.020019680647732935,-0.7331410849975087,9.900521385241655,0.1522224124015944,0.16414095513702043,-0.09013771624813155
1691765278.544344,0.49593544502311243,-0.5484086889522342,9.717338043235747,0.08494375936825886,0.11413594070878275,-0.09480853
1691765278.546344,0.3766594799852508,-0.38688134018190756,9.874822458746314,-0.006529854832841686,0.03512439582104229,-0.09818763811701081
1691765278.548344,0.5209696041128646,-0.3699780126542324,9.958903380411286,-0.034132275356288856,0.01704423,-0.07091472360593018
1691765278.550344,0.3567062273825503,-0.33933849846596353,9.730357153326942,-0.08409154516778523,0.015524465551294343,-0.09066085025886865
1691765278.552344,0.45631612986984815,-0.08168849960954447,9.68887736746204,-0.1454467223969631,-0.003714561475054232,-0.09173637
1691765278.554344,0.33409482768152227,-0.38210116539809713,9.698622255498247,-0.13296068162243366,-0.02205369710565849,-0.056835619053580366
1691765278.556344,0.3174261738349766,-0.32162315780487805,9.525844248982875,-0.1705738825947068,0.022758070555267254,-0.06001800311364816
1691765278.558344,0.28083747120648545,-0.08103293822126847,9.54552601791607,-0.18607533278016214,-0.004094434344301387,-0.06783098057224607
1691765278.560344,0.03874520554931016,-0.2533473987429739,9.58124552884006,-0.1891598279969341,0.0018191721154828828,-0.057529181875319364
1691765278.562344,0.2689690028517469,-0.044556118111425846,9.54709091338999,-0.19915314582625118,0.027053088866855524,-0.0805527003871577
1691765278.564344,-0.008686243008086236,-0.07288182790835579,9.688442534959568,-0.1940044744690027,0.01981564362264151,-0.09368009670619946
1691765278.566344,0.08660241978774721,-0.038528975084418715,9.57784415894356,-0.20165718751567777,0.03579812503135553,-0.08572475513265798
1691765278.568344,-0.023030765652398144,0.007364115569881386,9.74964129684889,-0.22307153943269725,0.05081569367199587,-0.07971957995358432
1691765278.570344,-0.21508069840954275,-0.17543358281809146,9.738322658956262,-0.2195217784691849,0.06170803153081511,-0.10923090419483102
1691765278.572344,0.1986400255336368,0.05100122318158826,9.651445008270107,-0.21646097963581185,0.07073959088517956,-0.11973798507840162
1691765278.574344,-0.08468362341584157,0.0016925360099009912,9.908372822009902,-0.22641194093069308,0.0936114362970297,-0.09496674357425743
1691765278.576344,-0.09892903614379085,-0.09363989006535947,9.67739469647059,-0.2553640688888889,0.10331672300653594,-0.07822382607843137
1691765278.578344,0.15337292213032583,0.13518658894235586,9.76557314059148,-0.2594968061002506,0.11207062770927317,-0.07051730220050124
1691765278.580344,-0.10893617773529413,0.07223447597058823,9.874335586647058,-0.270570890882353,0.10310820152941177,-0.05418436376470588
1691765278.582344,0.12756055656596177,0.03454111901309164,9.71206843734139,-0.31482694251762333,0.07164841589123867,-0.0550944430715005
1691765278.584344,0.10995780708775314,-0.0028675017357762747,9.91770222418515,-0.3397320443972999,0.05015474320154291,-0.0629348350337512
1691765278.586344,0.05792375404365904,0.0005873483264033277,9.80754114551975,-0.3357642581912682,0.027510839002079002,-0.0616546683991684
1691765278.588344,0.11683513384615385,0.016111227862137863,9.810591864135864,-0.34098463805194806,-0.022131107232767237,-0.06827696381618382
1691765278.590344,0.07784188193740685,0.19910052274714357,9.957014920059612,-0.3513552233532041,-0.04659857262791853,-0.07197546770988575
1691765278.592344,0.15533723535820895,0.040479877194029845,9.79605136264179,-0.33295872652238806,-0.065806319,-0.06249763437313433
1691765278.594344,0.1453809243974422,0.024740479778652236,9.889583910816528,-0.318898671529759,-0.10285749207575012,-0.05802730725036891
1691765278.596344,0.22964216260504203,0.37852530142857144,9.86712884512605,-0.3223364794957983,-0.11376845563025209,-0.05327217579831933
1691765278.598344,0.08019978962113661,0.051727172592223314,9.88446283546361,-0.3058190396211366,-0.11312513633100699,-0.05391427928215354
1691765278.600344,0.13551507136760427,0.32599227033947625,9.90031886085354,-0.30063808775945683,-0.10376874042677013,-0.06597303752667313
1691765278.602344,-0.04951064783919598,0.006323579879397023,9.853995152000001,-0.27471617342713567,-0.07551172898492461,-0.07338547812060302
1691765278.604344,-0.159716263599182,-0.042454241206543966,9.905008178650307,-0.2885940816359918,-0.05035825286298568,-0.08729613538854805
1691765278.606344,0.027764567777220278,0.18005405564475663,9.744518706076267,-0.3042882726593076,-0.02268697798795785,-0.09397256886101354
1691765278.608344,-0.1693941226511853,-0.11680507231253023,9.760943772883406,-0.32255144596516694,0.010320228384131588,-0.07988245895984519
1691765278.610344,-0.16430605011190236,0.1338025053509664,9.72158423533062,-0.3345558749643947,0.020616063550356053,-0.07145616571719227
1691765278.612344,-0.04167205063063063,0.003221028068068038,9.656992326816816,-0.3525886666366366,0.017944213643643646,-0.06022423093093093
1691765278.614344,-0.29238705682459676,-0.05365232427419355,9.780951134314517,-0.3712672144959677,0.028906033729838715,-0.0549824671875
1691765278.616344,0.02386012646881286,0.10858210844064388,9.597381720754527,-0.3621609862575453,0.0182916811971831,-0.05774504618712274
1691765278.618344,-0.02839700651358025,-0.13258319918518516,9.797728372380247,-0.37420136382716046,-0.007052311466666664,-0.07126224410864197
1691765278.620344,-0.22384402492774566,0.20617121586705206,9.78023785666185,-0.3797913926734104,-0.027385913526011565,-0.07051219404624277
1691765278.622344,0.19432789409594098,0.012280223948339497,9.750178864870849,-0.36593209830258305,-0.042099567269372695,-0.07008733040590406
1691765278.624344,-0.13847803468734365,0.03217260888944472,9.934075707723862,-0.3390535751875938,-0.07216194225612807,-0.058310838849424715
1691765278.626344,0.11370440799306245,0.229266766382557,9.730868652170466,-0.3274822418830525,-0.08562446151635282,-0.03161164563924678
1691765278.628344,0.14159551360973188,0.0005848815541211194,9.925009676469712,-0.3369107592353526,-0.07977793752234359,-0.02556635
1691765278.630344,-0.18567205164807304,0.35322245611561875,9.851715015907708,-0.3185221709178499,-0.07265298069979716,-0.03323333694726167
1691765278.632344,0.2869495000000001,0.1446807194074074,9.740321968444444,-0.2937683675555555,-0.047731735777777784,-0.033465087703703704
1691765278.634344,-0.011193670129870104,0.17562102721278722,9.939644227452549,-0.2996159903696304,-0.03397884626373627,-0.02713817352647353
1691765278.636344,0.006335428646153857,0.2911496582769231,9.637818589876924,-0.30167304883076923,-0.005234548553846155,-0.020394078707692307
1691765278.638344,0.06121277542605289,-0.11250637038197836,9.78573784927522,-0.2989219621645446,0.017201777551420175,-0.02511979026444662
1691765278.640344,-0.27471070383,0.13667060863000002,9.81078254713,-0.30503208115999997,0.026373820870000002,-0.01564979708
1691765278.642344,-0.07956183768036529,0.0772616506392694,9.607667046127855,-0.3021673719269406,0.02769688,-0.02281222289497717
1691765278.644344,-0.14323275688013135,0.015494821603721948,9.921542900673236,-0.28900910153256704,0.028510838927203064,-0.029887460990695128
1691765278.646344,-0.15769726849871465,0.1302470325706941,9.724538352802057,-0.28978753414910025,0.018450163789203083,-0.0446419743033419
1691765278.648344,0.1191827455358899,-0.006379826755162216,9.786267686647001,-0.28486343555555554,0.0006693287807276304,-0.0470863679252704
1691765278.650344,-0.1397597695614035,0.24894097453216382,9.980558640994152,-0.251168796374269,-0.0015449407309941518,-0.058427577134502924
1691765278.652344,0.021265214624425127,0.1884238001737353,9.763493400572305,-0.24265220654573327,-0.014460265487991824,-0.04336720450689831
1691765278.654344,0.12915649875945537,0.15989355942511346,10.050590459833586,-0.24372959511346445,-0.021506734508320725,-0.04089744939485628
1691765278.656344,-0.09418814141116752,0.24825806428426397,9.916554852862944,-0.2344403702030457,-0.018914116558375632,-0.0346324512284264
1691765278.658344,0.058887171489361706,-0.05980410361702132,9.856571767021276,-0.21964846085106382,-0.01140059489361702,-0.0330232
1691765278.660344,-0.06966004526475039,0.15668438984871405,10.084319333661119,-0.22546700556732224,-0.013777525839636914,-0.027995020272314673
1691765278.662344,0.025650811273445193,0.14996731468410662,9.904358545103653,-0.22133313331688056,-0.014084521806515302,-0.01502306858835143
1691765278.664344,-0.14734460004639174,0.1436397647525773,9.846865305257733,-0.2041145458969072,-0.024068386737113402,-0.0032012810567010313
1691765278.666344,-0.05283763540167569,-0.053061837604731404,9.518978080413998,-0.20619036128634796,-0.02409419369147363,-0.0036026842483982257
1691765278.668344,-0.01816804574297189,-0.052105139889558234,9.756396010793173,-0.20941857935742972,-0.025973841977911645,-0.0008770254016064257
1691765278.670344,-0.037750489237909135,0.08071278314118221,9.791817119907181,-0.19910036327796776,-0.02663161,-0.0008274369320957497
1691765278.672344,0.10147864713182286,-0.06769845618949535,9.713241866014418,-0.18331269980432544,-0.010550069907312047,-0.0002188664984552008
1691765278.674344,-0.0132441175297619,0.20450471775297616,10.00453501594246,-0.18425957011904762,0.006298058298611111,0.0016919536359126983
1691765278.676344,-0.0909844983291267,0.0880814834881373,9.854505140050481,-0.16830963503785967,0.02322448477031802,0.011506041029782938
1691765278.678344,-0.171916555398533,0.015772465364303177,9.958572354914425,-0.16989951795110025,0.045013544122249394,0.018026150161369194
1691765278.680344,-0.13295745047572338,0.141378844664051,10.00297451,-0.17395104827366356,0.07124419328102011,0.018360264693477193
1691765278.682344,-0.066842998699187,-0.028847214715447128,9.965990940487805,-0.1640074281300813,0.0711821825203252,0.01481843512195122
1691765278.684344,-0.12654522560636183,0.2082051167196819,10.16562775109344,-0.15674635168986084,0.07088562069582505,0.022065585765407555
1691765278.686344,-0.03732838071823204,0.21169504983425413,10.031731359392266,-0.16459218453038674,0.06972479624309393,-0.00021776088397790216
1691765278.688344,-0.05689142049673858,0.2053559532714501,10.137996301364778,-0.15399939894129452,0.04440383898645258,-0.0008332933567486217
1691765278.690344,0.015383814468193382,0.25239882491094146,10.12047425761832,-0.14176690913486006,0.030535955307888038,0.01877955585750636
1691765278.692344,0.06433380033674962,-0.03780244509028796,10.08494049147389,-0.14285825223035628,0.022144915539287456,0.029225887520741824
1691765278.694344,-0.012036515585957669,0.02797891210635005,10.228254208585442,-0.13872251395973156,0.0024313529375322683,0.021564318311822407
1691765278.696344,0.14539201641194333,0.028143983906882594,10.15743429840081,-0.1503979817408907,-0.01164836681680162,0.018309497677125506
1691765278.698344,0.08659561137777777,0.06922967333333332,10.201597287866665,-0.16282447955555554,-0.03355819768888889,0.025822012622222223
1691765278.700344,0.18731646934865898,0.3830355670114942,10.181668013256704,-0.14874928022988507,-0.048169541398467436,0.030151883429118773
1691765278.702344,0.22134179909974425,0.20670471515089517,10.04803444720716,-0.09837758356010232,-0.05030663672122762,0.03750112724808184
1691765278.704344,0.18203280532992328,0.4466270194680307,9.920790404235293,-0.041841736526854224,-0.06792954179028132,0.0445182459488491
1691765278.706344,0.15680748321012658,0.39823029972658225,9.780817057589873,-0.003173142526582278,-0.0759029229670886,0.048405073159493675
1691765278.708344,-0.0628843483015267,0.19730689633110687,9.776334300081107,0.02391914682729008,-0.06675182312022901,0.0357392119417939
1691765278.710344,-0.0547413504145854,0.33568334464035965,9.705608248271728,0.06413189742757243,-0.054114578306693306,0.013988914840159843
1691765278.712344,0.008253986616658049,0.28631827284531813,9.496073085659596,0.10751676429901708,-0.03846029182100362,-0.0024606314330056916
1691765278.714344,-0.11532512219658979,0.3738412604714142,9.620421315165498,0.13662844584754263,-0.018912983761283853,0.00407621560682046
1691765278.716344,-0.05978183948370927,0.2827294092932331,9.450988546075187,0.15025567869172934,0.008240183127819546,-0.008186784436090225
1691765278.718344,-0.060710282575024206,0.24258385930784124,9.459377686350436,0.17642191521297193,0.026308316360116164,0.005725921582768636
1691765278.720344,-0.15084703421730178,0.1898964460916581,9.47625065,0.1696655750823893,0.06457466480432544,0.02082257465499485
1691765278.722344,-0.07585573014084507,0.06133877088028171,9.391307155880282,0.16789916929577464,0.07350325,0.04061508552816902
1691765278.724344,-0.2798988273653281,0.11304806348677768,9.658725691214496,0.15314662737022527,0.09456595820274241,0.0658038182027424
1691765278.726344,-0.23894917950819672,0.029306076502732245,9.491610155081966,0.1333210480874317,0.10096727628415302,0.06637819885245902
1691765278.728344,0.08232248311258278,0.15982485298013246,9.541544109006622,0.09757398807947021,0.09273444582781457,0.07767964125827814
1691765278.730344,-0.27432643986875316,0.004242124103987888,9.683964668101968,0.06629536619384149,0.08539484535588086,0.06721973901060072
1691765278.732344,0.14115155054294182,-0.008721228183613032,9.462622857956564,0.06156976216189536,0.08840432688055282,0.05881773893385982
1691765278.734344,0.08550518109305763,0.14244969704579025,9.763257511358937,0.05427971016248154,0.08364449877400296,0.04251302032496307
1691765278.736344,-0.21998501810947796,-0.09802999800304105,9.64087642832235,0.04125537613786112,0.0693993010897111,0.033299094855549924
1691765278.738344,0.1878252488799193,0.038360382795156384,9.650565758789101,0.019596134268415742,0.07968522180625631,0.03451521496468214
1691765278.740344,-0.2826146655850541,-0.09404951342182892,9.917009338092429,0.012393519488692231,0.07469001515240904,0.022552811671583087
1691765278.742344,-0.014247854300816876,-0.08585071292647767,9.705651994147045,0.022969476074002883,0.06681219696299856,0.032033693733781836
1691765278.744344,0.07920511214928534,0.1443314492641609,9.951039775172049,0.028310995479089465,0.06582081879830598,0.02698237380624669
1691765278.746344,-0.24235943833922263,4.837021706199929e-06,9.917522984199898,0.04252830254416961,0.06432561867238769,0.03654647929328622
1691765278.748344,0.2673161664851485,0.24762918671287135,9.861188127618812,0.05861327714356436,0.075015178990099,0.03685340376237624
1691765278.750344,-0.05734623162278607,0.2108662479511728,10.133091048851124,0.06423151913355672,0.08265666592149354,0.05497304788415509
1691765278.752344,-0.023283013469387742,0.05987884726844585,9.855225719073783,0.058247272752485604,0.08331416179487179,0.0472523634065934
1691765278.754344,0.10846106020572,0.18624318440541895,10.112209105930758,0.07013374144004014,0.09420133726041144,0.04111183186653286
1691765278.756344,-0.2981609817635169,-0.07027266403233953,10.125467022971197,0.08128360991915108,0.09607457917129864,0.03356417090955028
1691765278.758344,0.11994513759384029,0.09733271306063518,9.969600892006737,0.0764181135226179,0.09170348111645814,0.02862167959095284
1691765278.760344,-0.0339293931608321,0.1289370589802131,10.299941012227295,0.07624288390664637,0.08887310609335362,0.029371246047691528
1691765278.762344,-0.0803311895930824,0.03899893769074263,9.981482920752798,0.06900377772126144,0.08841695,0.034102551953204475
1691765278.764344,0.30086380045296157,0.2881050579840717,10.216586961602788,0.05856408817322051,0.07645035746640119,0.03258945444001991
1691765278.766344,-0.1719731720377733,0.026250543846918495,10.296040412624254,0.057307731575546715,0.0752006772166998,0.03280665157554672
1691765278.768344,0.13739397843580908,0.0774435325135268,10.062731746123955,0.06335991617806197,0.07813476252336449,0.023852912341367438
1691765278.770344,0.057402087321063416,0.08059499720858895,10.440619247617587,0.06413261739263804,0.0754355355010225,0.02215379464212679
1691765278.772344,-0.19121467873747494,-0.12802022352705414,10.180850759248496,0.06562583447895791,0.07029357781563125,0.034340371352705415
1691765278.774344,0.21969480632835822,0.056212518587064636,10.291942030537314,0.06179063382089552,0.059879521611940295,0.04664692039800995
1691765278.776344,-0.12319897492625365,0.0059607826548672554,10.433126217256637,0.05152548575221239,0.04749382802359882,0.03562822141592921
1691765278.778344,0.20442066054508404,0.07512402247580233,10.164484980703005,0.04476389619969435,0.0396551886653082,0.027719666199694345
1691765278.780344,0.09562723122632105,0.13872525362911264,10.432685125274178,0.041977576056829516,0.031556464227318046,0.03427379375872383
1691765278.782344,-0.11524942375943634,0.006400604871665827,10.174619638142929,0.04496144919476598,0.0298274,0.029386719627579265
1691765278.784344,0.12986703371854613,0.111025802917055,10.128584069440821,0.06015616709226468,0.028232984753028892,0.018130343616029825
1691765278.786344,-0.10063947521126762,0.07848727413867823,10.293324466858072,0.07677636401950162,0.021799255081256772,0.021653838244853736
1691765278.788344,0.1535475088454012,0.03855554632093933,10.008203529168298,0.07989483,0.019398860684931508,0.015024187367906066
1691765278.790344,0.14091064770992368,0.1521201435114504,10.223814275648856,0.07138356038167938,0.014919125190839695,0.01533655727735369
1691765278.792344,0.0026469380113100793,0.12038930629594721,10.082549718557964,0.06682500856738925,0.015459891767200752,0.02484195093779453
1691765278.794344,0.09965121262037507,0.14734594681196145,10.023348865382665,0.06444498301064369,0.017580369472883932,0.034903207693867205
1691765278.796344,-0.09298208654545456,0.1290008362077922,10.192184666493507,0.06642269532467533,0.02813681561038961,0.0322705971948052
1691765278.798344,0.035614797778889457,0.009605555482741376,9.964243335967984,0.06880094966983491,0.04018375921960981,0.021601580780390192
1691765278.800344,-0.06901764736692016,0.01694148105513308,10.120240210874524,0.07165118379277566,0.06268554837452471,0.01596276325095057
1691765278.802344,-0.057364333658914725,-0.03361533634108527,10.040479919689922,0.07814911782945737,0.07495332782945736,0.010018443379844961
1691765278.804344,0.010206417229219146,0.06301393455919396,10.004593158060453,0.08404587912342569,0.07918966323929472,0.017654407808564233
1691765278.806344,-0.06722490726256983,0.09196944893854749,10.148311773128492,0.08437608547486034,0.08412018675977653,0.021930161117318436
1691765278.808344,0.09671538252952756,0.057194554586614176,9.985977108774605,0.08666125879921259,0.08605627770669291,0.02988664071850394
1691765278.810344,-0.06512228649122806,0.13405849119298247,10.148457828210526,0.08818520922807017,0.0787847156491228,0.02612327192982456
1691765278.812344,0.004788402571428582,0.021342600285714275,10.027874186285715,0.07937741942857142,0.07094661285714285,0.029431735142857143
1691765278.814344,-0.047893906329896895,-0.003988689917525774,10.050068657072165,0.056456816494845366,0.05996450455670103,0.02161498455670103
1691765278.816344,-0.09444753511100147,-0.018851240217069562,10.111484775959546,0.04526138629995067,0.053330492767636906,0.023368547232363097
1691765278.818344,0.23310493258982035,-0.12516513896706585,10.036457462170658,0.02282504354790419,0.04635973761976048,0.012824635239520958
1691765278.820344,-0.07181872185619576,-0.06151425971953085,10.238016271142273,-0.005059595369709329,0.03368919332483427,0.01298797097399286
1691765278.822344,0.14604391252747254,-0.09585417515484515,10.09940740876124,-0.03198986201798202,0.030039176953046955,0.0095809988011988
1691765278.824344,0.1273827851811949,-0.07256705469147894,10.216149706209597,-0.042298614142997064,0.02648449985308521,0.013536474142997062
1691765278.826344,-0.08845945368421053,0.08140286263157893,10.102774824210526,-0.04115284789473684,0.012110378947368421,0.013231702631578947
1691765278.828344,0.2734361254260529,-0.028866426043095014,9.919287743956906,-0.020647974387855043,-0.0013939216846229185,0.01195683707149853
1691765278.830344,-0.1890753588465499,0.09546725303810505,9.969726943779609,0.010461752142121526,-0.003415207095777549,0.0057969714315139025
1691765278.832344,0.07476695842519676,0.19919003858267717,9.631440009212598,0.048918285118110236,-0.009067325433070865,0.01181017811023622
1691765278.834344,0.12505625160463993,0.2916852766118898,9.68249663096665,0.09708270706621557,-0.009845328409859836,0.01627038234896085
1691765278.836344,-0.22735094253596164,0.41163686289824186,9.550303731379861,0.12673695014384656,0.004024394517847628,0.008536873921150772
1691765278.838344,0.20154908781686753,0.2822804246072289,9.31782890333494,0.16267023860240964,0.02411091283373494,-0.006098959079518071
1691765278.840344,-0.08035714398171656,0.32594946045708484,9.596629180919248,0.17401843978161502,0.06307728701879126,-0.008750428643981716
1691765278.842344,-0.15254220995654275,0.1561814797682279,9.300195919039112,0.18363184029454369,0.08867156166103332,-0.0068987610719459195
1691765278.844344,-0.015758722558956342,0.16818275216758655,9.407475749006522,0.1944762365880582,0.12354662601103863,-0.011224560928248872
1691765278.846344,-0.35057828295202953,0.000454357601476052,9.565114949725883,0.20302525686874012,0.1578135699525567,0.007621383906167633
1691765278.848344,-0.13350375343522564,0.015982252605531287,9.252024592692868,0.19366570116448326,0.18160200576419214,0.016126272387190686
1691765278.850344,-0.12487634248473461,0.15600658454673555,9.562675481625176,0.18912521447627995,0.19187119009863787,0.024829821075622358
1691765278.852344,-0.32767400160782184,-0.09581488688212927,9.376837969098315,0.18359753659424224,0.1814924831124389,0.014485510917979358
1691765278.854344,0.16089614990936563,0.12013443526686804,9.432884828046324,0.15578821637462237,0.16769064062437058,0.01830902704934542
1691765278.856344,-0.11019328175438603,-0.09554004947368422,9.7018814339599,0.12692398340852132,0.1369225283709273,0.008279157844611527
1691765278.858344,0.09583939723690532,-0.10850416697260933,9.404226043065833,0.11651054562229697,0.09874146447381067,0.02093672276309467
1691765278.860344,0.24203201533333332,0.14121436842424245,9.767152910909092,0.11504856,0.07226366545454546,0.00916773284848485
1691765278.862344,0.019235963626707125,0.008748467086494682,9.716484396874051,0.10423318753667173,0.044648966949924124,0.014244476530096105
1691765278.864344,0.3224337047963584,0.056380185572592244,9.655807569621466,0.070006300752276,0.015154113248682318,0.011445339750838524
1691765278.866344,-0.05739746608258328,-0.05158243862890417,9.942296958920064,0.04463170528851244,-0.016747041794600317,0.012091228173636845
1691765278.868344,0.1651425791866245,-0.022128789127880716,9.736397235124265,0.04890444892001808,-0.018840691355625848,0.01354902836873023
1691765278.870344,0.2695332419921656,0.03432805469501959,9.923779702445438,0.05959102639059877,-0.03265181888640179,0.022884410889759375
1691765278.872344,0.1056716290466633,0.03927307887104867,9.928455209111892,0.04307666482689412,-0.04238662015052684,0.024715951319618668
1691765278.874344,0.20683139680769233,-0.013195733798076925,9.844667288826923,0.04407838841346154,-0.03958379223076923,0.014680163817307692
1691765278.876344,0.008830240221992774,0.11762118255033557,10.050959852183789,0.04831086624161074,-0.044193349788332476,0.005874080211667527
1691765278.878344,0.12000145015461348,0.05607088950623443,9.867681346074813,0.04984215594513716,-0.044966381940149625,0.007621028009975061
1691765278.880344,0.007273435407182588,-0.09341867568032372,10.038525407182599,0.05516258937278705,-0.04049514119878604,0.006823730885179565
1691765278.882344,0.056736467976424364,-0.015440014410609021,10.0160085493222,0.048092815815324166,-0.03606830918467584,-0.009504189945972494
1691765278.884344,0.008669384096209903,-0.1238283919387755,9.99339771,0.04580637,-0.033535645262390675,-0.015466524737609328
1691765278.886344,-0.08487211182801237,0.07732458141606591,10.126989600731205,0.025167557924819773,-0.019814360581874357,-0.015153413177136973
1691765278.888344,0.07894127905025125,0.05065601760301508,10.026625347447236,0.020011444110552765,-0.017652338221105526,-0.009056887663316584
1691765278.890344,-0.0856982670183486,-0.006770147579001018,10.15368704137105,0.021094082033639144,-0.007860801717635065,-0.0006243938175331297
1691765278.892344,0.12867795676300578,0.11940561838150289,10.064455609537573,0.02213194407514451,0.012860139494219654,0.00106526
1691765278.894344,0.01849188278429373,0.019334310407955108,10.116872955864356,0.01986900096889342,0.020611046858745537,0.015240722774094849
1691765278.896344,-0.12965335145918366,0.2346415469489796,10.122611186193877,0.02345212106122449,0.03071548915306123,0.020030229
1691765278.898344,0.0717244699703996,0.02998716923532313,10.049266299773063,0.02450108,0.04829111447459299,0.02108824189442526
1691765278.900344,-0.14617937715804735,-0.023615690637989368,10.208003142232963,0.01796430447075882,0.050563764200096666,0.01476850680038666
1691765278.902344,0.04020479826625384,0.029605082631578954,10.055261450866874,0.011806953003095975,0.045061014303405575,0.011948771300309597
1691765278.904344,0.016023940410830995,-0.06993036337068159,10.171256993846871,0.0075095685714285714,0.03896122916900093,0.008574831195144725
1691765278.906344,-0.17023916640153597,0.21847780162369718,10.17238348738892,0.004711007366977509,0.025520181568842566,-0.00010576790455293396
1691765278.908344,0.20479578117134567,0.05192613585188771,10.111285961335915,0.003428334419167473,0.02486871892545983,-0.016286786703775414
1691765278.910344,-0.0431238279195289,0.1045883158047105,10.251600743827282,0.012102091565260058,0.02961466682041217,-0.02590767266928361
1691765278.912344,0.020584604159663872,0.19685267203256301,9.995852465493696,0.0166044724947479,0.01990265275210084,-0.026851489784663864
1691765278.914344,0.044147325290034706,0.01993704142786315,10.149501413445712,0.015346777491323748,0.030623842102131878,-0.021539252473971246
1691765278.916344,-0.2691561265371025,0.20955368994447246,10.116636742130238,0.006363625492175668,0.04691357978798587,-0.01853000349318526
1691765278.918344,0.09806780379444713,-0.0696032815781783,9.98512238803702,0.0034261747442766682,0.055911595440818314,-0.009760684466634195
1691765278.920344,-0.06659131190476186,0.07498435979736576,10.249497748652482,0.01243239990881459,0.05920366433637285,-0.002418696990881459
1691765278.922344,-0.07468165320182094,0.1810123010419828,9.97223884743551,0.0149137,0.05624509987354578,0.0014920185938290334
1691765278.924344,0.16061766340019573,-0.03030235287671232,10.07502304572407,0.013240754476516634,0.05455728116438356,0.00213053
1691765278.926344,-0.12466117652129816,0.2880618117241379,10.165376983843814,0.006880460644016227,0.05095551096348885,0.0029737708012170386
1691765278.928344,0.09592626603550294,-0.08487373641025647,9.957749170808679,-0.003020349112426035,0.04172076088757396,-0.0001428729437869822
1691765278.930344,-0.028004091138917275,0.06701808485699698,10.245024183125638,-0.00702486817671093,0.027524952763023493,0.003181106455566905
1691765278.932344,-0.1041011661902415,0.15021285309512075,10.064777856387384,-0.00745685,0.020293050941350418,-0.001630182262198127
1691765278.934344,0.20885168545275595,-0.16204691515748032,10.123217047125983,-3.0405059055118276e-05,-0.0006290957578740167,-0.010622234940944882
1691765278.936344,0.03227373947584794,0.3267433351593011,10.26723211024666,-0.0029341317574511807,-0.015676791336073997,-0.027133041017471736
1691765278.938344,0.18015346610832497,-0.080725654212638,10.042112587893682,-0.005966338776328987,-0.026635883881644933,-0.023218919508525577
1691765278.940344,0.16805587644165862,0.1274075463452266,10.27492582072324,-0.003923088746383799,-0.041104623095467696,-0.026242284783027967
1691765278.942344,0.15574258105788422,-0.17907290898203587,10.095579120658682,-0.01619159011976048,-0.04636558596806387,-0.02119897612774451
1691765278.944344,0.13206066280487805,-0.32499828670731706,10.094129272134145,-0.017765231402439026,-0.04274698201219512,-0.017524898353658537
1691765278.946344,0.03991818386996904,0.35393172194014444,10.275523617048503,-0.022175970990712075,-0.043255890330237357,-0.013623069339525284
1691765278.948344,-0.026735649190523195,-0.13581008566633768,10.069478139891412,-0.01748064561697927,-0.03686992984205331,-0.01278317
1691765278.950344,0.06372329661567878,0.1392482365200765,10.222755600172086,-0.02732821015296367,-0.02380448223709369,-0.01197251325047801
1691765278.952344,0.0920016284320923,0.27396096056633457,10.158453089150498,-0.021675645878342947,-0.016888381300471943,-0.010042086717357105
1691765278.954344,-0.01880190523573201,-0.15104502560794053,10.092399937235733,-0.016648261999999997,-0.012610300729528536,-0.01885121654094293
1691765278.956344,0.1645830047852761,0.37017591840490793,10.219583452116565,-0.018557168680981593,-0.002264504079754601,-0.020445885061349693
1691765278.958344,-0.09124981302773863,-0.11342909677480029,10.127819569995298,-0.02729821184767278,-0.008123451847672778,-0.022677061654913025
1691765278.960344,-0.02953501125638408,0.12017473354954039,10.191536662522983,-0.030640770097037796,-0.013906105117466802,-0.019368984785495404
1691765278.962344,0.11814697737196068,0.0710283969270564,10.215625981091568,-0.03936297919813761,-0.021689953719606827,-0.02403871598034144
1691765278.964344,-0.14999542941410127,-0.2506374775769613,10.183155245253229,-0.04748413194637537,-0.03446506417080437,-0.015385505551142006
1691765278.966344,0.19431998451677515,0.20530189911367047,10.243981785488232,-0.06342084052078117,-0.03134715063595393,-0.015327647716574862
1691765278.968344,0.01354434314285713,-0.27690653114285707,10.283711483714287,-0.08354716942857143,-0.03475805514285714,-0.01351363857142857
1691765278.970344,0.09076685067183463,0.1679974840361757,10.27515352792248,-0.10439976682687338,-0.0488370086873385,-0.009418371860465116
1691765278.972344,0.22206040486960885,0.10183642067703108,10.305554523159477,-0.11206111673019058,-0.06070831883650953,-0.0025648592276830496
1691765278.974344,-0.19526308225630873,0.06961546828797625,10.13237046465611,-0.10701822636318654,-0.0628506,-0.003593752924294903
1691765278.976344,0.19074559094695087,0.41002690930589986,9.964498765815568,-0.0746250180664353,-0.07785197396132872,0.0007394005949429841
1691765278.978344,-0.006973680516549674,-0.1382273262788365,10.04735484993982,-0.041028170977933806,-0.09453447342527582,0.014639635596790372
1691765278.980344,-0.013439433271075205,0.3354492765774861,9.924293455143868,-0.025662065815244828,-0.1039028075113579,0.003784618303886926
1691765278.982344,0.21969876441699604,0.07607031370553352,9.947051501007905,-0.009245273063241105,-0.09377485183794466,0.0008347343675889327
1691765278.984344,-0.07380844751999999,0.13267229376,9.968407060399999,0.00548931164,-0.09553930397999999,-0.008086419899999999
1691765278.986344,0.10747523955920044,0.3199713811840082,9.862113118493081,-0.006829481804202972,-0.08585179825730395,-0.01321124563813429
1691765278.988344,-0.08724742183308493,-0.27413073600596116,10.07297362304024,-0.02685069679582712,-0.07541786836065574,-0.025783845216095377
1691765278.990344,-0.09663224929980276,0.13501029912228796,9.977563887840237,-0.051877538234714,-0.06510929797830375,-0.006937872623274159
1691765278.992344,-0.004051729230769227,-0.1657524330769231,9.917520006923077,-0.06162144923076923,-0.0603923,-0.010898475384615384
1691765278.994344,-0.10960695330239374,0.030962042667318057,9.983528511543723,-0.06921616984855887,-0.061246202462139715,-0.01384844
1691765278.996344,0.10102763035294121,0.34857527751871653,9.715557921016043,-0.06461882596791445,-0.06516227909090909,-0.02060232610695187
1691765278.998344,0.1110591548046875,-0.12543373218750004,9.782277962832032,-0.04105013396484375,-0.07862358708984375,-0.004762480371093749
1691765279.000344,0.03363333213274769,0.5396009538701805,9.722330875724744,-0.011573380619814545,-0.07714666465592973,-0.016262310180575893
1691765279.002344,0.09867643748863063,0.25855926194037393,9.559763324588177,0.0291744694340576,-0.08378877997978777,-0.006626279691763515
1691765279.004344,-0.01184525393408857,0.23211181975283218,9.670839143810504,0.07311707399588054,-0.08797153538619978,-0.009713545283213183
1691765279.006344,-0.0708510758776329,0.4825097055165497,9.442933571905717,0.09054106118355065,-0.08075281573721163,-0.01001476816449348
1691765279.008344,-0.005640556289614823,-0.1398185776694295,9.528848321682107,0.1059743276450512,-0.06719527648464164,-0.01789758185275475
1691765279.010344,-0.0268624855836281,0.32174730341586655,9.624490184886305,0.11305744850934815,-0.06224826248610409,-0.014403405219807984
1691765279.012344,-0.06813973763888889,-0.015557567837301556,9.463790358065475,0.10319855257936508,-0.059296547341269844,-0.001168830218253968
1691765279.014344,-0.0199557283248731,-0.03815652442639593,9.606640932263959,0.0791269808426396,-0.04178324298477157,-0.005432306812182741
1691765279.016344,0.09812136570854271,0.3496785628140704,9.585791883055277,0.07604703460301507,-0.04406768826130653,0.0010224373165829146
1691765279.018344,-0.03373153288252716,-0.21499128051332672,9.627508266258637,0.03898363101678184,-0.04245388745310957,0.015767595616979265
1691765279.020344,0.08186103742964354,0.19899273973733578,9.763581522176361,-0.006493516285178233,-0.05251373476547842,0.01604092225140713
1691765279.022344,0.04154207145345673,-0.033630910440936246,9.83659524701143,-0.03666202717474143,-0.05229537607512248,0.015746431475231356
1691765279.024344,-0.11412755716683119,-0.1655757103899309,9.886528500844028,-0.06929003570088844,-0.0570179334106614,0.01681971567620928
1691765279.026344,0.18607152714071853,0.13309085041417162,9.972800906072854,-0.1118176778742515,-0.06778728858283434,0.007846489266467065
1691765279.028344,-0.1493588983687592,-0.37872886100346015,10.06767351851211,-0.14126891846762235,-0.07939563849728126,0.0078049211863568954
1691765279.030344,0.09188424670431211,0.03457089414784398,10.035962353921972,-0.155460802587269,-0.08287079502053388,0.004294960770020534
1691765279.032344,0.14604630681818181,0.023942014090909097,10.122031515454546,-0.17165283681818183,-0.09049905227272727,-9.683954545454529e-05
1691765279.034344,-0.14866740693698094,0.022585265051294573,9.993938076546165,-0.14710485359550562,-0.10700989941377625,0.0037120323302393746
1691765279.036344,0.2282206811902287,0.39262916646569646,9.889053424610186,-0.11196515927754677,-0.1036418136850312,0.015179459870062372
1691765279.038344,-0.08086797117047112,0.14268465263720248,9.85193413241865,-0.07858537403593978,-0.10523301600777077,0.013270017819329771
1691765279.040344,0.03781357608247424,0.3249203117525773,9.622815143814433,-0.015946021855670102,-0.10405546835051546,0.015836198659793816
1691765279.042344,0.0165375100487805,0.20774662887804876,9.692476049512196,0.009727680585365854,-0.10008809487804878,0.01785486687804878
1691765279.044344,-0.30031674852080126,0.15479306923472008,9.589991719548022,0.02434952957883924,-0.0817200645095018,-0.00832788781201849
1691765279.046344,0.1253079625178754,0.39118419716036773,9.433404508712972,0.04640483251787539,-0.06734505974974464,-0.011727154989785495
1691765279.048344,-0.16284742854791873,0.14135524875605032,9.653660124767667,0.07099425425459825,-0.045947135130687315,-0.023066118630203292
1691765279.050344,-0.08916149077722768,0.36276897084653464,9.466225825004951,0.08724990592079207,-0.029929184079207923,-0.005529885777227725
1691765279.052344,0.15310919658333333,0.27071613813235296,9.556414074735294,0.09530670059803921,-0.01869957070588235,-0.006866779294117647
1691765279.054344,-0.21430316441160954,0.1461056821899736,9.68612149169921,0.08862494149868073,-0.008496260226912928,0.008703690068601583
1691765279.056344,0.02088913893992933,0.2862672469914185,9.426592464285715,0.08287929277132762,-0.007243367809187279,0.01384844
1691765279.058344,-0.0505579799902629,-0.0406151688704966,9.659237885890944,0.07371173686465433,0.005013592507302823,0.021330703943524827
1691765279.060344,-0.16859316575846833,0.12580078446244475,9.569620899558174,0.05841174195876289,-0.0011986192341678931,0.02829618201276387
1691765279.062344,0.0915738481021898,-0.000699036277372278,9.563630186277372,0.03585353700729927,-0.003421285109489051,0.023949007299270072
1691765279.064344,-0.16674082627177705,-0.0612600981383773,9.736375822140369,0.024130968018914883,0.0018754785515181682,0.02237055
1691765279.066344,-0.04254348665009938,0.18294223258946324,9.562905909637177,0.018174616998011928,0.00319579,0.0030692518886679954
1691765279.068344,0.01436521,-0.1763573153923038,9.776002973448277,0.007832699550224887,-0.002666091584207895,0.0062435921639180415
1691765279.070344,-0.07445331554572271,0.14459848454277285,9.768328848112095,0.0012098130973451325,-0.0017911496755162242,-0.009590519646017702
1691765279.072344,0.13835576098867147,-0.05698742214212155,9.770946757044285,-0.0025309603604531414,0.0014657003604531405,-0.014070049186405767
1691765279.074344,0.02138241449289563,-0.1473964911611955,9.961394506815287,-0.0023627890396864283,-0.009531530362567368,-0.012182430259676628
1691765279.076344,0.07169688804431598,0.3752161516088631,9.861910497740848,-0.018886890910404627,-0.015974859932562622,-0.004536611396917149
1691765279.078344,0.01773190087113402,-0.12103307091237114,9.993965411164949,-0.0318102217628866,-0.02678974980927835,0.0003058480463917525
1691765279.080344,0.054800888633093535,0.22249097145940389,10.031923896711202,-0.03156105978931141,-0.03151233610996917,0.00359266811921891
1691765279.082344,0.09043982351390922,0.07460935140556368,10.038084759443631,-0.038346401742313324,-0.0435526298682284,0.013371177437774523
1691765279.084344,-0.10057728327378081,-0.23805139167069048,10.159088795625303,-0.061129003510381454,-0.05878449091260261,0.01280220677450507
1691765279.086344,0.1331870386940298,0.34568394954157783,10.124103639029851,-0.06817693,-0.05114064259061833,0.00084437475479744
1691765279.088344,-0.009885352797202762,-0.22194080817182815,10.183744935374625,-0.04778259386113886,-0.04708713965034965,0.004667584705294705
1691765279.090344,0.17045628334155977,0.22528421792694964,10.181468805903258,-0.05435162220138203,-0.05106486823297137,0.004714297132280355
1691765279.092344,0.11872284957924265,0.19723118018232821,10.213993129242636,-0.06846378224403926,-0.04438402458625526,0.007386634165497895
1691765279.094344,-0.17036502861996866,-0.2656575147569263,10.256664525326713,-0.07562319474124411,-0.03437858056978568,0.0021516905175117612
1691765279.096344,0.26668870531152644,0.28144176681723787,10.28142263480789,-0.08928475252336449,-0.03783127196261682,0.002517140929387331
1691765279.098344,-0.1769838452818991,-0.4096382257962414,10.349542134179032,-0.12369131893669633,-0.052825944312561816,0.00906317296241345
1691765279.100344,-0.003464101237263484,-0.13973496117903927,10.308567972590977,-0.15804368458515283,-0.05808094186317322,0.0163293977147016
1691765279.102344,0.0857595212909836,-0.11401895155737703,10.46044394659836,-0.1900471036680328,-0.06517322696721312,0.00905693200819672
1691765279.104344,-0.11289969811434306,-0.2727997143931795,10.409657959628888,-0.20788042583751254,-0.0770868919558676,0.011379202076228686
1691765279.106344,0.2544816107371632,0.29053218747330967,10.442098645592273,-0.22868687403152008,-0.07651111077275038,0.015320963390950685
1691765279.108344,-0.20774012163644823,-0.09083051246861923,10.376207879214318,-0.2222341691817759,-0.07721359117619711,0.01518905570432357
1691765279.110344,0.06300704516197553,0.2583906977376527,10.193513838189059,-0.17344915383430695,-0.06305991686670206,0.014096793234200744
1691765279.112344,0.017742614545903257,0.25166770557255674,10.294202539353405,-0.14009120605133268,-0.048740315730503456,0.024518437453109575
1691765279.114344,-0.2509779658629442,0.02948392769035532,10.15160953931472,-0.10766200505076143,-0.028375509974619288,0.01773638187817259
1691765279.116344,0.17764928285423037,0.389532468185525,10.052908577487258,-0.06359715915902141,-0.016638104505606523,0.023410844367991845
1691765279.118344,-0.20532924176784856,0.0383979212190384,10.15311952995629,-0.028618830165128704,0.005819894380767363,0.006491436318601263
1691765279.120344,-0.01332477542193028,0.31996647819605856,9.945837949600808,-0.003851965492673068,0.017535684835775642,0.006883042637695806
1691765279.122344,-0.016703956137965756,0.16406430123363547,10.116196267291038,0.008620269919436051,0.020014202044310172,0.0076826700755287
1691765279.124344,-0.27878885038099954,0.07227385625432954,9.99308733349332,0.003994346239485403,0.02190459539336962,0.02576717151410193
1691765279.126344,0.14519009962031804,0.2852207933658286,9.90627539197024,0.00213053,0.015558109066187788,0.013861555674704977
1691765279.128344,-0.18703294430024203,-0.14878600187409202,10.106566244101694,0.006280674736077482,0.009698295263922518,0.017887669472154963
1691765279.130344,0.019158552591447775,0.2345306219526016,9.868677321725915,-0.010338167619783616,4.82964039155067e-05,0.004987145481710456
1691765279.132344,0.06003757918839154,0.10441451267092966,10.033923634318741,-0.022473252454500738,-0.0046503781898671916,-0.007334239222823414
1691765279.134344,-0.06079792862412763,0.13845312757726821,9.997555935214356,-0.023667352083748754,-0.01116243889332004,-0.012088571575274178
1691765279.136344,0.19226780467473525,0.2997762701159859,9.924136166011095,-0.02343582,-0.006901922697932426,-0.018664417302067575
1691765279.138344,-0.05472426618163573,-0.014276317310587039,10.037346224510788,-0.01667542274962368,-0.011241663627696939,-0.01178953136979428
1691765279.140344,0.1280087193376174,0.3118782097281265,9.84824508764706,-0.011568883746910529,-0.011946969861591696,-0.017113212644587247
1691765279.142344,-0.04782789436736684,0.023469495393258377,9.996167362598925,-0.009023786165119688,-0.009274621602344895,-0.015102610122129946
1691765279.144344,-0.00804748525581396,0.16239739725581392,9.943984405085272,-0.009357812341085271,-0.006850727472868217,-0.015519832527131782
1691765279.146344,0.13038193177031093,0.23083033713139417,9.88158355498997,-0.003667523655967904,-0.008082978660982948,-0.009213415356068205
1691765279.148344,-0.13317330547713715,-0.09538252191351893,9.975793444537773,-0.015591405482107357,0.0007322333747514908,-0.0040916291550695824
1691765279.150344,0.10009428368936801,0.3138152102351789,9.85498225465948,-0.018351667991180792,0.009780495164135226,-0.006488142582067614
1691765279.152344,-0.09453298279426817,-0.06728270361310135,9.984585488474922,-0.015597343920163766,0.01088052273285568,-0.008294237267144318
1691765279.154344,0.030425472047595464,0.16488061871591475,9.873965507496282,-0.013242654655428855,0.006475030560237977,-0.012699729439762022
1691765279.156344,0.1554362917761807,0.29892616432238195,9.922918780662219,-0.018773914481519507,0.00019140074948665285,-0.01384844
1691765279.158344,-0.10060251480769225,-0.07997554240384619,10.034145142692308,-0.022606141153846154,-0.007374906538461538,-0.00832750298076923
1691765279.160344,0.22064941807036248,0.3734061266631129,9.911601858219617,-0.018553544696162046,-0.02016563933901919,-0.01046014893390192
1691765279.162344,-0.09793088636317393,-0.0740570758646999,10.019592645295015,-0.024637083845371312,-0.02427946690742625,-0.013405211734486267
1691765279.164344,0.06611919433066929,0.08784160606393607,9.915831392127872,-0.030864464705294706,-0.04312565023976024,-0.01300186429070929
1691765279.166344,0.19967307115384617,0.15718017919580418,10.110311660664335,-0.044640539055944055,-0.04709139643356643,-0.009401147797202797
1691765279.168344,-0.13797282831271648,-0.32054582482434435,10.03896450437902,-0.0579749459129144,-0.056073177506185054,-0.022742684388916377
1691765279.170344,0.3687916467222767,0.2600163983120706,10.01401273531894,-0.07790961708537782,-0.061863740176643776,-0.021720309735034346
1691765279.172344,-0.03422099097759679,-0.05122909124236247,10.14027769635438,-0.08143306120162933,-0.06948084407331975,-0.011952222688391039
1691765279.174344,0.031629858997493765,0.21557176572431083,9.856274291598998,-0.06676297603508773,-0.06886734879197995,-0.00958738
1691765279.176344,0.2081821130074813,0.472790933117207,9.891998293710724,-0.04201020294763093,-0.07151138758104739,-0.002918449187032419
1691765279.178344,-0.20393826542673907,0.02835953344844594,9.785963430148001,-0.011560774647261962,-0.07325992488406513,0.0038663784410458805
1691765279.180344,0.13824765308966858,0.4051404413547758,9.67625496905458,0.026059523260233912,-0.07110952230506823,0.011709603840155947
1691765279.182344,-0.06531043369022876,0.11372208249480242,9.823429463877337,0.059240657879417874,-0.05633001327442828,0.010559628097713096
1691765279.184344,-0.06323715000471032,0.1732238165473387,9.613147428412624,0.0918942338671691,-0.03966567406971267,0.00018816739048516107
1691765279.186344,0.17504564436205017,0.30428030648854965,9.737106108353327,0.11289363961832061,-0.033483227197382774,-0.00987780121046892
1691765279.188344,-0.1382732145781328,0.021728301163255137,9.927447857373938,0.11014238544682976,-0.02278644477284074,-0.01513016174238642
1691765279.190344,0.10314580930209855,0.31398980673011223,9.712943367867252,0.08701582559785262,-0.0010959355295265955,-0.01264956196681308
1691765279.192344,-0.11999119956947163,0.016651651448140903,9.960160043444226,0.07853354103718199,0.025291168727984346,-0.02465951712328767
1691765279.194344,-0.2276840279044684,0.004837592665639434,9.797115171309708,0.06456311929121726,0.04103374318952234,-0.023811694329738058
1691765279.196344,0.12684121089669637,0.3205191921552176,9.755735443550078,0.031072538070267438,0.07506734535920294,-0.03196239976927111
1691765279.198344,-0.2796170677969349,-0.22382574578544062,9.930451368706896,0.02028185908045977,0.09383918174329502,-0.01974310728927203
1691765279.200344,-0.19952765733980582,0.042821349485436866,9.777678028747573,0.01836494795145631,0.10422733042718446,-0.018408390941747572
1691765279.202344,0.044117057851739805,0.2826317051588502,9.784765513055977,0.03671697438729198,0.11623469470499244,-0.01917476
1691765279.204344,-0.24368772011287837,-0.03569314201128787,9.877744003170857,0.06175637006670087,0.13013115623396612,-0.016677485413032322
1691765279.206344,-0.051988721025641005,0.33201041826043237,9.681639010477626,0.10504664270487682,0.11967006702865762,-0.012606969778783308
1691765279.208344,-0.17323926789215688,0.019611326151960762,9.847914889019608,0.12166990526960783,0.1326672048284314,-0.0042688917156862745
1691765279.210344,-0.0636791620673813,0.16656018263399694,9.768489627932619,0.1294516466462481,0.14498037681470138,0.013832119770290962
1691765279.212344,0.1377998553076562,0.24298729439173322,9.783542592719586,0.1437246307468295,0.12875439631751995,0.030806608196336308
1691765279.214344,-0.04114376961355218,-0.01432465693488616,9.9052749535892,0.143963526776072,0.11511059122816306,0.03679702391741662
1691765279.216344,0.09191387286881303,0.4177462208601634,9.77357776344546,0.1315081995963479,0.0952595169005286,0.04290287643440654
1691765279.218344,0.011281490674909855,0.00824711103554876,9.89654179771252,0.11395804298299846,0.047045060978876875,0.04555720563111798
1691765279.220344,0.08136570709020369,0.03704394692531526,9.803106470320078,0.10333271396702232,0.009329067565470417,0.044208989117361784
1691765279.222344,0.12346391229265716,0.041529853988378246,9.844069491505547,0.07698210233491812,-0.00812088030639197,0.024468442894875857
1691765279.224344,0.020645616436221995,-0.2356901561635833,9.828100044990263,0.05545494828140214,-0.04118279135832523,0.020825039079844208
1691765279.226344,0.3382456795274007,0.1697848912518854,9.786625074112619,0.04619359575163399,-0.062415173348416286,0.01801255534942182
1691765279.228344,0.06692179413306448,-0.12214290042338705,9.904947495241935,0.04557227052419355,-0.07602036310483871,0.022031216552419353
1691765279.230344,0.3000311592791879,0.18916867688324873,9.754449325654823,0.04326920474111675,-0.10166408114720812,0.009904258720812183
1691765279.232344,0.21166342959724951,0.25668288026522595,9.897286362701376,0.03176853021611002,-0.10175368500000001,0.018067640000000003
1691765279.234344,-0.14594721119345527,-0.11839662369586146,9.846187862791144,0.022372600558229067,-0.10093354868142446,0.010123603474494706
1691765279.236344,0.24655998941114612,0.18534293251314407,9.792808620357519,0.011950899495268138,-0.09291099949526814,-0.007699924195583596
1691765279.238344,-0.07937645768115942,-0.20093251344927532,9.955409750927537,0.01121152315942029,-0.08567505052173913,-0.001973058666666666
1691765279.240344,0.07058116239508702,-0.12262135899692936,9.77864513837257,0.010895787604912999,-0.07593471235414535,-0.0071559176458546574
1691765279.242344,0.15107267761549228,0.07927566957536163,9.891442581236584,0.000610428044797013,-0.06809589561829212,-0.012677294717685488
1691765279.244344,-0.2114132001739131,-0.0396240426956522,9.886439460396739,-0.013815436108695652,-0.049708482347826086,-0.00894706310326087
1691765279.246344,0.18776725105953584,0.3265198180272451,9.78061112690212,-0.0136667702320888,-0.040519289253279515,-0.0142117695358224
1691765279.248344,-0.06832513333170964,0.02435951946419873,10.007079517335606,0.002057888762786165,-0.03034525322942036,-0.018452477213833415
1691765279.250344,-0.07975602439205953,0.06118700612406948,9.78757973942928,0.014511915081885856,-0.021200613836228288,-0.011054434918114144
1691765279.252344,0.09735411462062257,0.19160833042315176,9.919687579260701,0.02177263875,-0.0026253404717898818,0.00014662567607003942
1691765279.254344,-0.36248797551302503,-0.08181525837320575,9.904951072227538,0.03339187744284955,0.023107912674109516,0.008173822615629983
1691765279.256344,0.03971244388377726,0.2694978315738498,9.67645904696368,0.05991583710895884,0.04265339811138014,0.01530730755447942
1691765279.258344,-0.07926649292307697,0.11344832261538462,9.997744105846154,0.07353601984615385,0.06293255092307692,0.004998544923076921
1691765279.260344,-0.24933186410879069,0.0786144654832443,9.772915087323943,0.07252127888780961,0.08296128652258378,0.006512135881495871
1691765279.262344,0.2188173263130525,0.2085009757202288,9.776976034321374,0.06016611004160166,0.11002968650546022,0.01012305676547062
1691765279.264344,-0.25832733501801336,-0.11212454530622751,9.903534526206897,0.050617874796706125,0.1146757485795162,0.020666021348430264
1691765279.266344,0.04006345131268435,0.2279459000442478,9.614111335157325,0.040732485191740414,0.12059903829400197,0.017647046081612584
1691765279.268344,0.0379990662128713,0.057686042871287146,9.908688092326733,0.034275676237623766,0.12413494903465347,0.005386970099009901
1691765279.270344,-0.20504778540646423,0.07018693048971597,9.733679843658178,0.030636522722820764,0.11588480740940255,-0.002642817086190009
1691765279.272344,0.16971387504490232,0.2366402207078711,9.698039771299525,0.022316525969360804,0.10039990400422609,-0.005930143988378236
1691765279.274344,-0.1908435277174435,-0.10755614483421427,9.876649142907256,0.02024002,0.08798593121576165,-0.003135902638154733
1691765279.276344,0.15539357079381444,0.1809251399072165,9.81462260028866,0.02024002,0.07693515543814433,-0.014559525175257732
1691765279.278344,-0.06017997689367954,-0.019688522528172436,9.948354856849583,0.012869809701126899,0.06228482360607546,-0.007463636658500734
1691765279.280344,0.1585079217622951,0.2486633524590164,9.747050300122952,-0.00018772938524590221,0.05108466467213115,-0.0100981843852459
1691765279.282344,0.0325289350642928,-0.05725717966369931,9.972207512759644,0.0034465667556874383,0.035717438694362016,-0.009227027190900098
1691765279.284344,0.01022863366968111,-0.051963636925273685,9.935228127872442,-0.0025528815992384582,0.029594170999524036,-0.011673796201808662
1691765279.286344,0.09152750342147867,0.12183941037776579,9.937898281899622,-0.012008802655153805,0.02625621292498651,-0.009441936513761467
1691765279.288344,-0.11286883149481994,-0.15947721787370503,10.059913226068081,-0.017211873645781944,0.023043764898865317,-0.005999534898865318
1691765279.290344,0.17768782030984512,0.24890124788605694,9.900956012028987,-0.02899584488255872,0.027395023298350824,-0.017050083168415792
1691765279.292344,0.039477327838345844,0.09655113334586463,10.026610480112781,-0.031170999210526316,0.0311229397556391,-0.006075206691729321
1691765279.294344,0.08563091748936172,0.10187073978723406,9.91998239480851,-0.026801602936170215,0.027866862936170213,-0.00761097344680851
1691765279.296344,0.009171244937439843,0.2962542273147257,9.97701853452358,-0.0071256836092396525,0.02903691103946102,-0.007983843464870067
1691765279.298344,-0.21243053858798733,-0.02909371892518442,9.99755539345627,-0.0018992912012644886,0.039001696238145415,-0.00995892794520548
1691765279.300344,0.13373090495648188,0.16896943244159413,9.916765783861658,-0.005230192519468621,0.034571072968392125,0.0017460028034814497
1691765279.302344,-0.08982608067281606,-0.0934764963266414,10.06327247971785,-0.011264172691264243,0.031145835425935974,0.010452078117200217
1691765279.304344,0.09845566775491116,-0.09524398843779232,9.918489954527596,-0.0182310650888681,0.027001317408793267,0.01171791
1691765279.306344,0.1326982394989107,0.3075740583006536,10.056648391132898,-0.02850220605664488,0.02060903836601307,0.00428194642701525
1691765279.308344,-0.16787801337944663,0.02484102114624509,9.982647477332016,-0.029221088162055334,0.012488432648221344,0.0071452755138339905
1691765279.310344,0.2917733866666667,0.21595699466666665,9.94551373,-0.029578839333333332,0.004935721666666667,0.001171795333333333
1691765279.312344,-0.1636000736589147,-0.03296203345736437,10.13408012448062,-0.04073438840310077,-0.004355200759689922,-0.002743258821705426
1691765279.314344,0.027570469694694677,-0.1701968257157157,9.945017628128129,-0.055536635445445445,-0.008085990485485485,-0.002348593733733734
1691765279.316344,0.11587212510831234,0.006100693209068031,10.240195202790932,-0.07993508529974812,-0.0110835819093199,-0.00213053
1691765279.318344,-0.18044857478737994,-0.14424107053497942,10.170351960246913,-0.10712459136716963,-0.016411498239597623,-0.0005659981390032005
1691765279.320344,0.2968431312341772,0.04971757001582275,10.15252863011076,-0.12381845150316455,0.00022755246835443055,0.0007972594620253164
1691765279.322344,-0.09748353159916923,0.06313432792834892,10.404328105623053,-0.1217122687694704,0.00639159,0.006119461230529595
1691765279.324344,0.062023248662733566,0.02805712696656834,10.099006356366766,-0.11452011625860374,0.016428326720747295,0.0032748770206489667
1691765279.326344,0.14844051,0.1346787358673469,10.284574647846938,-0.10782106307653061,0.022572737948979592,0.003829518974489796
1691765279.328344,-0.27251550299901184,0.007317460306324103,10.175281359194663,-0.09302747720849802,0.031028987065217395,0.0025736886610671934
1691765279.330344,0.1621658200403429,0.09611820273827532,10.024525925975794,-0.06997277716086737,0.03132672654059506,0.002978762748361069
1691765279.332344,-0.12729230921713441,0.17444075540620385,10.2916867066322,-0.055772964387001474,0.04261215064992614,-0.0035010527178729683
1691765279.334344,-0.11888100671913429,0.1130256375750123,9.999385197570094,-0.03440232959173635,0.05646687595179538,-0.00532632
1691765279.336344,0.1540121023809524,0.2124841600621118,10.184219861946168,-0.018625589047619046,0.0630336550310559,-0.012084025921325053
1691765279.338344,-0.23362793246398414,0.16808889985593642,10.166398535777446,-0.0168256744212618,0.07492306516641828,-0.015541856790859412
1691765279.340344,0.12629074964689263,0.15201828344632767,9.945060582754238,-0.0027173259887005655,0.07617242094632769,-0.009611453785310736
1691765279.342344,-0.06296750885714286,0.0924674895,10.15011516425,0.014057682285714286,0.0772240584642857,-0.0003005556428571435
1691765279.344344,-0.1338561897840617,0.14953112681748074,9.787265147095114,0.009054475244215937,0.06788609716709511,-0.001162206853470437
1691765279.346344,0.07739740632103688,0.21329162344965105,9.906313785324029,0.011355738374875374,0.05505282548354935,-0.006267322901296113
1691765279.348344,-0.17588978476093586,0.11543315816887083,9.941231933794507,0.02287446977619532,0.04042478482197355,0.00431632517802645
1691765279.350344,0.2196999889599236,0.21662955239503817,9.695635157328244,0.02072996558206107,0.03244787558206107,0.0026204655820610693
1691765279.352344,0.031959635170962675,0.1197075648974224,9.95768497512362,0.02668932927932667,0.013358677627564437,0.0027351651551814835
1691765279.354344,0.08442589762409637,0.19140921513253012,9.7245066245253,0.030393663937349397,0.0019960242506024094,0.005643079734939759
1691765279.356344,0.1254753034595163,0.16025794105152472,9.826705040925342,0.027500848317560462,-0.0025438622818086225,0.016567047087276552
1691765279.358344,-0.010091302252591874,0.041800371687087653,9.991240447408106,0.03148704971724788,-0.01047894577756833,0.015128564033930255
1691765279.360344,0.18502968860071756,0.13391330815479244,9.71241859528447,0.038718077754997436,-0.023359374818042032,0.011407772649923115
1691765279.362344,-0.0368062390184995,-0.0321113378725591,9.940789299573485,0.03374030556012333,-0.030001482219938334,0.014864984229188076
1691765279.364344,0.1204847156844201,0.05429320564957692,9.780119718203087,0.028579207924340468,-0.03849480854654057,0.009221509990044799
1691765279.366344,0.05655881945891786,0.0757796028256513,9.886671119539079,0.007407752545090178,-0.03878928871743487,0.0015391894789579157
1691765279.368344,0.03880080489496825,-0.013611980600879328,9.901430983483147,-0.01605026245725452,-0.032564723810454325,0.0008263961309233023
1691765279.370344,0.1452654235846154,0.12062356792307691,9.805807896425641,-0.01962162501025641,-0.03341816353333334,-0.001460233533333333
1691765279.372344,-0.09798186451628585,-0.029782610179873603,9.971592687758873,-0.024942309027710257,-0.027496978711716094,-0.002954462260573651
1691765279.374344,0.15178385524173027,-0.015166935094147585,9.843748679633588,-0.040769000839694654,-0.04053534839185751,-0.009848681643765903
1691765279.376344,-0.05717271257879658,-0.0490296861747851,10.054199398796563,-0.07906307491404012,-0.04314473866762178,-0.004534242750716333
1691765279.378344,-0.08723935720464135,-0.16761684976265823,10.044984124324895,-0.10629327614978903,-0.03846695025316456,-0.012075242948312236
1691765279.380344,0.27474035778001005,-0.10138620142139627,10.01733971,-0.12345992271722751,-0.030525632435961826,-0.011534386217980913
1691765279.382344,-0.005719485595238105,-0.09547354115079365,10.292682888214287,-0.1343184340079365,-0.019531960892857143,-0.003939787480158731
1691765279.384344,0.21668165087019933,0.005565910359747198,10.172945430923676,-0.15263577313077298,-0.0015764072289742338,0.004382242309188137
1691765279.386344,-0.020764737589984372,0.17832493672926447,10.28340008140845,-0.12061660760563381,0.002353917856025039,0.00639159
1691765279.388344,-0.31930463369781314,0.12800649718687873,10.184067566192843,-0.07863685192842942,-0.008022305815109343,0.004699449373757455
1691765279.390344,0.03820525223620519,0.3663337313552759,9.933424527928363,-0.0048859886737657315,-0.026190242894482088,-0.0006455526524685373
1691765279.392344,-0.04493582536187568,0.4824182223547401,9.995028012589193,0.05452720091743119,-0.03089267,-0.001305244373088685
1691765279.394344,0.1349476633115249,0.42562326582284854,9.52108374532461,0.15792611935078005,-0.039245369104177155,0.008122705878208354
1691765279.396344,0.25487310531904034,0.45693442090862685,9.53024295639612,0.2165423241653905,-0.046670980183767224,0.007235534563552833
1691765279.398344,-0.1743806850751879,0.418481247593985,9.55997562156015,0.24575169206766917,-0.03421861334586466,-0.004098863609022557
1691765279.400344,0.17678267945945952,0.3913549254054054,9.405459997567569,0.2774581972972973,-0.0064491708108108114,-0.010681435945945946
1691765279.402344,0.0913349171891327,0.44120359789968655,9.558481512283178,0.2753190999320794,0.015475274890282132,-0.012565554190177639
1691765279.404344,-0.023152013309283313,0.013897658480038433,9.191560140885041,0.23148570044733047,0.044732397710437716,0.01030114293891294
1691765279.406344,0.2405336347028155,0.2632323701564129,9.237304106308654,0.1998998208342023,0.07684122647549531,0.019593530677789364
1691765279.408344,-0.26876612111531195,-0.16616393716446126,9.203320017032135,0.1787127159357278,0.07903295327032135,0.021863089168241964
1691765279.410344,-0.17031561949424134,-0.186915580891337,9.028710653004506,0.141717507776665,0.0849464409313971,0.017582466034051076
1691765279.412344,0.07010192697589099,0.2523799824109014,9.41840568303983,0.1193107373427673,0.07898254830712788,0.01848970857966457
1691765279.414344,0.005207651716674852,-0.06431958637973445,8.953914027953763,0.1202821326119036,0.03418225318740777,0.011671798081652729
1691765279.416344,0.29191882729838714,0.16022325195564516,8.885514785554435,0.11809401303427419,-0.016946514485887094,-0.004633689052419355
1691765279.418344,-0.029118674830466817,0.1611938957100737,9.274177648953316,0.12706642430958232,-0.048295481542997544,-0.0019305637936117932
1691765279.420344,-0.0011235989814373792,0.06392439103760114,8.924501516354116,0.15961423647310805,-0.057449744616849124,0.0015606309709662064
1691765279.422344,0.0745782427359491,0.19894977831389185,9.159595884803817,0.16963008398727467,-0.08945397599151643,0.015126077582184518
1691765279.424344,-0.12378695871485945,0.040076437791164654,9.120562052409639,0.17103697100401608,-0.1007295232128514,0.017514828995983937
1691765279.426344,0.17942779578553616,0.14850021244389022,8.8430347121197,0.19057075443890276,-0.09788478154613466,0.010413560872817954
1691765279.428344,-0.030921883715124776,0.07969656395986294,9.148894787807146,0.20168433149779735,-0.09369581560450317,0.002035631209006364
1691765279.430344,0.08476069966804978,0.13697615701244814,8.998939724315353,0.19761759904564316,-0.09434883058091287,0.005012491742738589
1691765279.432344,0.16646362144360904,0.22743835879699248,9.13088733449624,0.19770026672180452,-0.08296727646616542,0.011466408406015038
1691765279.434344,-0.022357549296160878,0.05990099741316271,9.392807943272395,0.18034567257769654,-0.08221572862888482,0.004273225306215723
1691765279.436344,0.10990106719063546,0.09512747946488294,9.273271440585285,0.14452147217391303,-0.06395683563545151,0.0068885938127090296
1691765279.438344,-0.04749403990361445,-0.11654858254939758,9.529183584168676,0.11572878333012049,-0.06931457280963856,0.016772140472289157
1691765279.440344,-0.008299081809768655,-0.11131499585089974,9.457722372570695,0.07783769463753212,-0.058173847002570694,0.010784094457583547
1691765279.442344,-0.04616899249283668,-0.06557643064469915,9.530130419942694,0.046636610343839535,-0.04302570017191977,0.009329458882521489
1691765279.444344,-0.19881804799795189,-0.12701160667178701,9.6624048571787,0.007654850030721964,-0.032899928166922686,0.007144310634920634
1691765279.446344,0.031088527738693444,-0.07062293251256281,9.562032769396986,-0.01779366105527638,-0.02264891070351759,0.012986589698492462
1691765279.448344,-0.2289440040101523,-0.322913394213198,9.885816738477157,-0.05170588147208122,-0.0009625205076142125,0.004017719289340102
1691765279.450344,-0.10057040437166423,-0.25794415569141194,9.763568513692382,-0.0645547112130034,0.03447714558951965,0.018214937244056283
1691765279.452344,0.0152504209770115,-0.09007151787356321,9.895077301719347,-0.05442184965517241,0.05297547373084291,0.038935214401341
1691765279.454344,-0.25274464042305655,-0.09020228084611318,10.056421752083555,-0.06296552261237441,0.08628585531464833,0.03506753486515071
1691765279.456344,-0.0052417259803414495,0.05869447799275737,9.85548538508536,-0.07814455301603725,0.12303171195033626,0.020076348003103983
1691765279.458344,-0.06218738793301437,0.004829640607655505,10.102662556028708,-0.08505550258851675,0.12259053041626794,0.025235047488038276
1691765279.460344,-0.09072916493963783,-0.05682736743963783,9.949697549416499,-0.09197658169517103,0.1122460721277666,0.023632472248490945
1691765279.462344,0.06958466971631207,-0.003985485390070917,9.929321954138805,-0.09951911784701115,0.08166811631205674,0.011643979853090172
1691765279.464344,-0.15779807939759036,0.06460306337349397,9.992163115493977,-0.08922552587951807,0.0351845278313253,0.011715340602409639
1691765279.466344,0.13065501634453783,0.07023662533613445,9.758383904957983,-0.08853332071428573,-0.02317173949579832,-0.003777664663865546
1691765279.468344,0.136245046796875,0.044928693984375004,9.985410811484375,-0.088662459140625,-0.051794317890625,-0.009341870859375
1691765279.470344,0.026468955236139624,0.12469514162217658,9.834416973285421,-0.06502050108829568,-0.07985545891170431,0.002946432197125256
1691765279.472344,0.40717764696437536,0.0990908787907677,9.867042129357753,-0.04761085490215755,-0.09895414333166082,0.002169010270948319
1691765279.474344,0.01909752027818451,0.30871530363103955,9.95588975964861,-0.042265885695461206,-0.09483972483162519,-0.01131083054172767
