# timestamp,accel_x,accel_y,accel_z,gyro_x,gyro_y,gyro_z
1640783791.860680,-0.058407820,0.377268490,9.730996130,0.003492830,-0.070928030,-0.004403290
1640783791.861240,-0.258904550,-0.071181840,9.895130160,-0.072151410,-0.041325390,-0.017274910
1640783791.865460,-0.057273440,-0.129606290,9.587219240,-0.009483100,-0.045676530,-0.008052590
1640783791.866130,-0.237106810,0.067428010,9.846630100,0.084969410,-0.047463180,-0.033906100
1640783791.870490,-0.089050100,0.126279430,9.883834840,0.051273410,-0.001165270,-0.037135190
1640783791.871130,-0.057603200,0.368421580,10.047636990,0.009748340,-0.013539200,-0.008228420
1640783791.875810,-0.293309600,0.233755500,10.256132130,0.026220080,-0.112396470,-0.017198920
1640783791.877140,-0.087193030,0.186668260,9.571476940,0.052344800,-0.099208950,-0.010828670
1640783791.880520,-0.046904180,0.429498970,9.347341540,0.079876180,0.000634790,-0.009606780
1640783791.881070,-0.338688550,0.350823460,10.391931530,0.072020300,-0.023670490,-0.038717690
1640783791.885480,-0.223402230,0.606428030,10.269443510,0.011989480,-0.081989150,-0.030805170
1640783791.887190,-0.036781490,0.672740640,9.463852880,0.005646050,-0.092408070,-0.016716120
1640783791.890480,-0.143767940,0.538247940,10.045646670,0.027239320,-0.034712260,-0.028876960
1640783791.891320,-0.225331230,0.741266010,10.035380360,0.051206350,-0.025747720,-0.018291180
1640783791.895630,-0.213259550,0.640306470,9.884429930,0.026260320,-0.104135270,-0.013971330
1640783791.896960,-0.167363480,0.453797670,10.002295490,-0.010611120,-0.065575550,-0.026465950
1640783791.900460,-0.104818450,0.448393140,9.766233440,-0.003542010,-0.032944980,-0.013649470
1640783791.901140,-0.017865740,0.381291090,9.941488270,-0.003078580,-0.072981420,-0.016807020
1640783791.905530,0.076071160,0.266194820,9.982618330,0.005495550,-0.032815350,-0.033815210
1640783791.906270,0.174554560,0.333221470,9.597335820,0.027522440,-0.033849480,-0.020505490
1640783791.910440,0.139652220,0.361256810,9.939382550,0.003068150,-0.064736600,-0.000835960
1640783791.911120,-0.128825140,0.183931950,10.096240040,-0.013855100,-0.056126720,-0.012303890
1640783791.915590,-0.045652380,0.053388000,9.437010770,0.014211240,-0.096020110,-0.011703370
1640783791.916380,-0.100231710,0.305349620,9.478409770,0.041072080,-0.057172790,-0.026446580
1640783791.921650,-0.188265130,0.301580700,9.891711240,0.007545950,0.029186900,-0.043913730
1640783791.922190,-0.081417230,0.346308830,10.124415400,-0.006377700,-0.028358400,-0.027306380
1640783791.925780,-0.285995360,0.437785420,10.193908690,0.033672150,-0.112292160,-0.022810690
1640783791.928380,-0.171308930,0.216759290,9.532854080,0.033256410,-0.090381490,-0.024788080
1640783791.930500,-0.049248640,0.260286270,9.321793560,0.033523140,-0.010977690,-0.013510880
1640783791.932200,-0.381411250,0.193955300,10.288437840,0.057877600,-0.025743250,-0.040352340
1640783791.935490,-0.076180910,0.238979100,10.022226330,0.018858910,-0.077025590,-0.038173800
1640783791.940420,0.109905050,0.510510740,9.535341260,0.000835960,-0.064352160,-0.025056300
1640783791.941300,-0.213435250,0.373437200,10.270111080,0.014242530,-0.044448670,-0.044466560
1640783791.941860,-0.077865290,0.510434090,10.022972110,0.032247610,-0.048395990,-0.028428440
1640783791.945440,-0.270168010,0.705039620,9.791378970,0.051172090,-0.123795880,-0.027374930
1640783791.946180,-0.294611660,0.591889440,9.927889820,-0.005075340,-0.089804830,-0.034593050
1640783791.950540,-0.016096730,0.792795960,9.359518050,-0.034853820,-0.014957790,-0.012929740
1640783791.951200,-0.206772940,0.687519010,10.241716380,-0.016409160,-0.070406500,-0.011046230
1640783791.955580,0.056871190,0.381533440,10.161597250,-0.007037820,-0.045286120,-0.028808420
1640783791.956990,0.276915130,0.518502410,9.312828060,0.030738120,-0.061099230,-0.027658050
1640783791.960720,0.045297120,0.404631020,10.031969070,-0.000838940,-0.058889390,-0.018826130
1640783791.961520,0.030795190,0.081576270,9.867893220,-0.064997380,-0.035816430,-0.019253790
1640783791.965460,-0.011907010,0.018155890,9.531656270,-0.001211460,-0.101673610,-0.018763540
1640783791.966130,-0.027584630,-0.035813200,9.666883470,0.037746140,-0.043264040,-0.042612850
1640783791.970600,0.031823070,0.137378320,9.527620320,0.015428660,0.024124980,-0.044633450
1640783791.971360,-0.138762220,0.342969390,10.148349760,-0.006623570,-0.025308130,-0.035873060
1640783791.976030,-0.255491730,0.323893610,10.334356310,-0.006115440,-0.097033390,-0.029364230
1640783791.977940,-0.157183450,0.274571420,9.209268570,0.044192380,-0.093244020,-0.018969180
1640783791.980430,-0.185321300,0.295375560,9.474511150,0.058186050,-0.031733520,-0.031238800
1640783791.981050,-0.444724350,0.360271840,10.337972640,0.043606760,0.007449090,-0.040189930
1640783791.985540,-0.290396900,0.472995700,10.004270550,0.011505190,-0.102762890,-0.038957600
1640783791.987540,0.071571550,0.585434320,9.606869700,-0.014528630,-0.080661480,-0.037880250
1640783791.990440,-0.130645560,0.492510770,9.946425440,0.016015770,-0.008073450,-0.040516260
1640783791.991130,0.035548670,0.420043050,10.065494540,0.053779780,-0.057062510,-0.033137200
1640783791.995850,-0.050422630,0.540617640,10.006225590,0.054849680,-0.081896770,-0.027514990
1640783791.996610,-0.242822530,0.468306390,9.925916670,0.009742380,-0.104334950,-0.036828220
1640783792.000460,-0.101324810,0.511624460,9.663196560,-0.044718380,-0.065036120,-0.009667870
1640783792.001090,-0.279041440,0.586462080,9.866446500,-0.027704240,-0.061993310,-0.020018220
1640783792.005850,-0.209305390,0.319867490,10.116477010,0.010536610,-0.064633790,-0.043736400
1640783792.007040,0.179315600,0.506524500,9.511289600,0.051364310,-0.031858690,-0.037366150
1640783792.010530,0.026901990,0.650419350,9.921144490,0.013218820,-0.052060190,-0.022841990
1640783792.011160,0.047307660,0.312484590,10.326104160,-0.071117280,-0.032427910,-0.011706350
1640783792.015550,0.069208650,0.229823920,9.767709730,-0.029610100,-0.100702030,-0.013223290
1640783792.016220,-0.133436400,0.102590260,9.621699330,0.057150430,-0.138634470,-0.032547120
1640783792.020940,0.066815160,0.210390210,9.210972790,0.030189750,0.013764200,-0.035193560
1640783792.022270,-0.040760770,0.347976860,9.654073720,-0.000143050,0.020849700,-0.034926830
1640783792.025590,-0.348283650,0.237958420,10.762821200,-0.017851600,-0.088654470,-0.045143080
1640783792.026240,-0.074717380,0.323677420,9.612290380,0.004918870,-0.107593830,-0.024169690
1640783792.030450,-0.154919210,0.258056850,9.373852730,0.048698480,-0.086911030,-0.026243930
1640783792.031090,-0.324246140,0.166261390,10.215563770,0.046022230,0.004857780,-0.052648780
1640783792.036040,-0.148463590,0.397289930,9.674172400,0.040154160,-0.040237610,-0.044038900
1640783792.038060,-0.049358220,0.544476030,9.841661450,-0.006589290,-0.118054470,-0.040505830
1640783792.040520,0.136891630,0.536444900,9.902242660,-0.039221350,-0.003375110,-0.041805220
1640783792.041150,0.080107410,0.596213220,9.830050470,0.022807710,-0.045329340,-0.028407580
1640783792.045450,-0.117644980,0.517671940,10.349636080,0.058668860,-0.112402440,-0.034554310
1640783792.046190,-0.133147110,0.401651590,9.678300860,0.047078730,-0.061850260,-0.038333240
1640783792.050650,-0.131941050,0.497257050,9.550240520,0.000929830,-0.068420170,-0.014868380
1640783792.051790,-0.290427740,0.588642360,10.318546300,-0.062318150,-0.043988230,-0.020490590
1640783792.055550,-0.100897740,0.362889410,9.842714310,-0.039187080,-0.035972890,-0.035046040
1640783792.056330,0.177952270,0.449744430,9.573910710,0.043526290,-0.068621330,-0.037784870
1640783792.060570,0.058232850,0.529675660,10.000157360,0.057636200,-0.010891260,-0.044305620
1640783792.061180,0.087936010,0.371550170,9.846149440,-0.014315550,-0.039958960,-0.024417040
1640783792.065400,0.158808250,0.434320150,9.741420750,-0.043438380,-0.086754560,-0.004725160
1640783792.066180,0.006769580,0.228314820,9.700969700,-0.017739830,-0.048579270,-0.019992890
1640783792.070500,0.230021980,0.116789670,9.429099080,0.005713100,0.015160440,-0.035835810
1640783792.071070,0.101661440,0.366695490,9.978590970,0.043833260,0.032356390,-0.043110560
1640783792.075560,-0.139183340,0.290735360,10.174705510,0.028143820,-0.045867260,-0.047874450
1640783792.076520,0.101647500,0.449749230,9.334328650,-0.040547550,-0.076048080,-0.027085850
1640783792.080510,-0.152157990,0.370203640,9.499733920,-0.030024350,-0.003208220,-0.023517010
1640783792.081140,-0.362955960,-0.019854550,10.070105550,0.039334600,0.005978350,-0.040596730
1640783792.085460,-0.253416420,0.286047850,9.766348840,0.097811220,-0.038369000,-0.045089420
1640783792.086120,-0.270096720,0.525476810,9.700157170,0.028413540,-0.030814120,-0.054845220
1640783792.090490,-0.097476530,0.460345980,10.018801690,-0.074119890,0.032539670,-0.031584510
1640783792.091170,-0.057279000,0.608454820,10.053910260,-0.023181740,-0.011177360,-0.019410250
1640783792.095440,-0.017970790,0.430663410,10.000185970,0.054256630,-0.081968310,-0.032186510
1640783792.096260,0.137982680,0.461329700,9.677330970,0.071318470,-0.006569920,-0.031147900
1640783792.100460,0.015429780,0.622873540,9.650432590,0.027364500,0.013892360,-0.011795760
1640783792.101080,-0.231329720,0.533185180,10.519049640,-0.065125530,-0.052061680,-0.010652840
1640783792.105620,-0.066707660,0.534188450,9.837523460,-0.070711980,-0.054670880,-0.010104480
1640783792.112050,0.044660490,0.539968790,9.507770540,0.005109610,-0.026340790,-0.018791860
1640783792.112520,-0.029068870,0.622720960,10.078915600,0.022597610,0.045794250,-0.024347010
1640783792.112860,-0.033875630,0.614471200,9.919900890,-0.009565050,0.025586780,-0.003598630
1640783792.115620,-0.021089470,0.458913950,9.987778660,-0.039407610,-0.071965160,0.006744270
1640783792.116250,-0.098488820,0.428810450,9.813629150,-0.054639570,-0.047557060,0.008712710
1640783792.120490,0.136330020,0.315621140,9.180344580,-0.051642960,0.025776030,0.012314320
1640783792.121250,0.107039740,0.180023250,9.952950480,-0.013227760,0.064642730,-0.024542220
1640783792.125530,-0.019591460,0.309235270,10.250994680,0.025673210,0.033690040,-0.038965050
1640783792.127140,0.259235980,0.473720850,9.576500890,-0.023514030,-0.031755860,-0.014954810
1640783792.130690,-0.021900270,0.434348730,9.901239400,-0.077141820,-0.014254450,-0.002473590
1640783792.131940,-0.237082410,0.067530940,9.764290810,-0.049470380,0.023111700,-0.005891920
1640783792.135440,-0.075235310,-0.042593830,9.527541160,0.047136840,-0.010351840,-0.013436380
1640783792.136140,-0.277218490,0.232738720,9.776056290,0.058707600,0.046251720,-0.040046870
1640783792.140550,-0.194627970,0.303019140,10.052198410,-0.040790450,0.051161650,-0.034941730
1640783792.141260,-0.169729840,0.576561750,10.147813800,-0.077493490,-0.026082990,-0.016340620
1640783792.145450,-0.230691750,0.539687570,9.912124630,-0.035746400,-0.045691430,-0.029197340
1640783792.146150,0.136422600,0.444215060,9.442933080,0.036905700,0.036525730,-0.012990830
1640783792.150460,-0.072732610,0.799701090,10.008384700,0.064498200,0.071366150,-0.005742910
1640783792.151150,-0.279318270,0.782471360,10.552033420,-0.045824050,-0.021231170,-0.002425910
1640783792.155930,0.127838550,0.595143020,9.712793350,-0.121362510,-0.054824350,0.021612650
1640783792.156900,0.049766770,0.460294370,9.348493580,-0.044755640,0.011475380,-0.002713500
1640783792.164140,0.075716460,0.314893190,9.968812940,0.007103380,0.065861650,-0.018960240
1640783792.164820,0.111174000,0.444506790,9.935564040,-0.000421700,0.061582030,0.008217990
1640783792.165430,-0.071402900,0.297351060,10.100526810,-0.046959510,-0.038912890,0.005829330
1640783792.166100,0.059098520,0.099184990,9.877594950,-0.080895430,-0.002522770,0.015109780
1640783792.170430,-0.056057510,0.210509700,9.369141580,-0.057666000,0.037899610,0.011803210
1640783792.171290,-0.187097560,0.132564490,10.000053410,-0.008434060,0.013603270,-0.012685360
1640783792.175520,-0.064788710,0.303212970,9.723797800,0.005200510,0.067009030,-0.019265710
1640783792.176250,0.078426360,0.677889470,9.238820080,-0.039099160,0.018836560,-0.014929470
1640783792.180500,-0.079956220,0.502641860,10.329977990,-0.091090810,0.047154720,-0.000570710
1640783792.181120,-0.121390770,0.359412760,10.007427220,-0.051935010,0.041769440,0.008825960
1640783792.185430,-0.204343070,0.310269650,9.725803380,0.026294590,-0.074131790,0.003968180
1640783792.186170,-0.282890020,0.284842370,9.762292860,0.014752150,0.035966940,-0.015069550
1640783792.190520,-0.179488790,0.311738460,9.372715950,-0.058795520,0.090760000,-0.010909140
1640783792.191170,-0.317943690,0.331306700,10.457410810,-0.073297320,0.006511810,-0.010995570
1640783792.195880,-0.242093090,0.271440240,10.182051660,-0.041949750,-0.000576670,-0.016985830
1640783792.197450,0.085332010,0.380447980,9.169541360,-0.005486610,-0.006596740,-0.019022820
1640783792.200430,-0.090174900,0.606832270,10.119587900,0.004968050,0.043414530,-0.014014540
1640783792.201120,-0.228306440,0.644631270,10.262619970,-0.069591410,0.041280690,-0.002868470
1640783792.205730,0.021945020,0.665528710,9.780401230,-0.105002540,-0.051730880,0.009132920
1640783792.206600,-0.036409110,0.678803320,9.967547420,-0.059500340,-0.000415740,0.002901260
1640783792.210580,0.101502570,0.638252970,9.517640110,-0.053040690,0.062100590,0.004509090
1640783792.211630,0.256510500,0.670976640,9.868698120,-0.048686570,0.056050730,0.011801720
1640783792.215550,-0.083047140,0.421836230,10.375778200,-0.069092210,0.040741260,0.001716610
1640783792.216900,0.124896030,0.223504260,9.556804660,-0.082220140,-0.038400300,0.012244280
1640783792.223580,0.128148900,0.234367790,9.548460960,-0.083941220,0.029957300,0.008031730
1640783792.224080,-0.202411790,-0.092574250,10.037117000,-0.075881180,0.107592370,-0.022920970
1640783792.226130,-0.048769280,0.039502430,9.824831960,-0.022573770,0.011323390,-0.027875600
1640783792.226910,-0.072942500,0.398881970,9.579021450,-0.035119050,0.025472050,-0.020185110
1640783792.230480,-0.052714020,0.269607450,9.722307210,-0.109887120,0.083021830,-0.012297930
1640783792.233680,-0.143656460,0.389239790,10.235021590,-0.065812470,0.049757960,0.018650300
1640783792.235440,-0.228168680,0.367367950,9.878110890,-0.007352230,-0.009104610,0.006020070
1640783792.236130,-0.000277730,0.343189540,9.526941300,-0.017605720,0.024130940,-0.022016470
1640783792.240530,-0.014870950,0.510436530,9.860935210,-0.056786840,0.109353660,-0.012357530
1640783792.241180,-0.151584370,0.465742500,10.258990290,-0.083948690,0.056001550,-0.034062570
1640783792.245690,-0.047959630,0.472457290,10.240455630,-0.065952540,-0.015138090,-0.026753540
1640783792.247380,0.081905460,0.551881610,9.506294250,-0.041234500,0.055512800,-0.022459030
1640783792.250400,-0.189840610,0.504358530,10.045775410,-0.034987920,0.051409010,-0.015854840
1640783792.251140,-0.369625030,0.532285990,10.420521740,-0.055967270,0.032104560,0.002387170
1640783792.255610,-0.237595570,0.485584970,9.621841430,-0.089676680,-0.008411710,0.005549190
1640783792.256330,-0.146914900,0.415950450,9.851443290,-0.065928700,0.010442730,0.005258620
1640783792.260870,-0.032564120,0.540981770,9.964344980,-0.067795810,0.118933640,0.003123280
1640783792.261570,0.090304190,0.618567530,9.987833020,-0.088991230,0.058962400,-0.005641580
1640783792.265540,-0.017301910,0.406014440,10.503818510,-0.060160460,0.000454490,-0.004553800
1640783792.266750,0.138874260,0.352614280,9.470623970,-0.051133340,0.024376810,0.000450020
1640783792.270400,0.048856430,0.504938300,9.538414000,-0.070510800,0.016872590,0.015319880
1640783792.271780,-0.204770800,0.203084290,10.329592700,-0.103308270,0.088015200,0.005657970
1640783792.275510,0.023643170,0.111984980,9.593165400,-0.071604540,0.064612910,-0.007490810
1640783792.276470,-0.082763660,0.252149760,10.032059670,-0.004802640,0.009788570,-0.002358850
1640783792.280460,-0.151371490,0.175417500,10.048860550,-0.043234230,0.096142300,-0.009538230
1640783792.281120,-0.138282340,0.326619830,9.821867940,-0.081925090,0.022679570,0.003662710
1640783792.285380,-0.386200490,0.261604100,10.253789900,-0.049057610,-0.024887920,0.011515620
1640783792.286190,-0.136050400,0.127578120,9.397119520,-0.042866170,0.059250000,-0.017450750
1640783792.291170,-0.061562760,0.503910600,9.803878780,-0.005017220,0.086039310,-0.008139010
1640783792.292710,-0.354445550,0.610687380,10.998238560,-0.041937830,0.070729860,-0.014889240
1640783792.295620,-0.024836300,0.610735890,9.972935680,-0.085017090,-0.026629870,0.010794400
1640783792.296500,0.149450530,0.586181340,9.497754100,-0.049495700,-0.008034710,0.014746190
1640783792.300390,-0.072718140,0.337290170,10.019695280,-0.026607520,0.123448680,-0.009034570
1640783792.301150,-0.112404140,0.464641900,10.136034010,0.000756980,0.051376220,0.016072390
1640783792.305970,-0.248784070,0.531037990,10.346105580,-0.051561000,-0.039295850,0.010915100
1640783792.306820,-0.125695870,0.244724930,9.693224910,-0.110539790,0.023892520,0.008425120
1640783792.311160,0.048994090,0.388036640,9.454354290,-0.061504550,0.066827240,0.017435850
1640783792.312220,-0.078404620,0.401031230,10.331015590,-0.029127300,0.099374350,0.002925100
1640783792.315580,-0.061685860,0.245794560,10.308201790,-0.028578940,0.065307330,0.001850720
1640783792.316720,-0.034132530,0.427196860,9.830080030,-0.011298060,-0.047928090,0.021776560
1640783792.320430,-0.052499000,0.313609240,9.621967320,-0.062590830,0.004176790,0.022639340
1640783792.322520,0.048540790,0.113772930,9.474487300,-0.083225990,0.111220790,0.016084320
1640783792.325510,-0.055157740,0.187357750,10.141963960,-0.014653800,0.087465350,-0.011034310
1640783792.326350,-0.143480810,0.284895660,10.280730250,0.022542480,0.015032290,-0.027358530
1640783792.330470,0.044919560,0.334135830,9.543479920,-0.019848350,0.028653450,-0.007522110
1640783792.331120,-0.152772640,0.301039670,9.920889850,-0.060804190,0.056035830,0.001396240
1640783792.335410,-0.452909800,0.005023690,10.258868220,-0.004680450,0.029438740,0.010408460
1640783792.336140,-0.197522100,-0.000940980,9.590925220,0.035513940,0.010369720,0.003230570
1640783792.341100,-0.188546290,0.381387920,9.845874790,0.019997360,0.078257930,-0.003983080
1640783792.342030,-0.318525640,0.435865010,10.474395750,-0.023685400,0.069303820,-0.006926060
1640783792.345440,0.004273330,0.619303170,10.076045990,-0.057774790,-0.006625060,-0.004048650
1640783792.346150,-0.007668270,0.681606110,9.745578770,-0.009891390,-0.000366570,-0.010561940
1640783792.350400,-0.094338240,0.586551430,9.826543810,0.028514860,0.038091840,-0.013551120
1640783792.351120,-0.095639870,0.797338960,9.984834670,0.006151200,0.045390430,0.013113020
1640783792.356090,-0.270766170,0.701093970,10.239238740,-0.053897510,-0.010854010,0.004608930
1640783792.358310,-0.038026320,0.403015460,9.970958710,-0.089778010,0.004585090,0.014258920
1640783792.361080,0.107534950,0.392474290,9.671751020,-0.027544800,0.063429780,0.022344290
1640783792.362510,-0.074614640,0.280293640,10.193922040,0.003187360,0.048103940,-0.004975500
1640783792.365460,0.043968070,0.263813790,10.003688810,-0.034856800,0.037473440,0.007668140
1640783792.366250,-0.056055360,0.346657780,9.495103840,-0.032874950,-0.015501680,0.018787380
1640783792.370530,-0.194022700,0.222803440,9.802240370,-0.057329250,-0.019504130,0.023530430
1640783792.371950,-0.055673450,0.158327180,9.677326200,-0.055281820,0.075700880,0.012177230
1640783792.375460,-0.120275840,0.145978810,9.872838020,0.013254580,0.056768950,-0.014072660
1640783792.376290,-0.111281990,0.233803240,10.323699950,0.022779400,0.027020270,-0.020621710
1640783792.380440,0.088771230,0.478620350,9.616286280,-0.030943750,0.050011280,0.000274180
1640783792.381110,-0.109614850,0.297434870,9.969526290,-0.051386650,0.009268520,0.003495810
1640783792.385410,-0.326811280,0.026859930,10.202643390,0.005744400,-0.010773540,0.005593900
1640783792.386200,-0.133515050,0.042102660,9.045278550,0.072923300,-0.002871450,-0.000113250
1640783792.390610,-0.155946140,0.137977850,9.752986910,0.041188300,0.047631550,-0.009913740
1640783792.391270,-0.243648560,0.249268930,10.389842030,-0.020402670,0.115364790,-0.006817280
1640783792.395460,-0.156916590,0.358717500,10.102447510,-0.037546460,-0.041836500,-0.016638640
1640783792.396300,-0.183118480,0.414776800,10.063632010,0.012129540,-0.056511170,-0.015616420
1640783792.400490,-0.156737520,0.440349820,9.417582510,0.067079070,0.054606800,-0.008095800
1640783792.401140,-0.225437130,0.739061300,9.845626830,0.053192680,0.014740230,0.002577900
1640783792.406180,-0.433214010,0.837854860,10.530494690,-0.035765770,-0.001658500,-0.001648070
1640783792.408670,-0.050337120,0.614736020,9.590748790,-0.071237980,-0.007459520,0.007072090
1640783792.410530,0.088984600,0.673990790,9.925128940,-0.003318490,0.010837610,0.007969140
1640783792.411140,-0.094588030,0.621133630,10.453052520,0.029066210,0.060409310,-0.012989340
1640783792.415380,0.214920700,0.433762940,9.776072500,-0.009892880,0.009875000,0.001120570
1640783792.416160,0.128584860,0.409594660,9.848896030,-0.030109280,-0.011523070,0.019545850
1640783792.420430,-0.039554880,0.152788450,9.794433590,-0.059024990,0.029626490,0.007769470
1640783792.421180,0.080281070,0.149117100,9.627922060,-0.044220680,0.016202030,0.021597740
1640783792.425500,-0.261861920,0.181355730,10.181858060,0.005561110,0.010754170,-0.002795460
1640783792.427620,-0.122527850,0.205349150,9.716775890,-0.009243190,0.026820600,-0.028458240
1640783792.430460,0.080175760,0.518872320,9.627593990,-0.038294490,0.059662760,0.000852350
1640783792.431120,-0.294028070,0.295883720,10.422272680,-0.039984290,0.062577430,-0.009423500
1640783792.435510,-0.192250070,0.156728210,10.008521080,-0.000777840,-0.026412310,-0.001326200
1640783792.436460,-0.183477010,0.333328160,9.325361250,0.039166210,-0.045987960,0.012812020
1640783792.440660,-0.208940030,0.030151400,9.391544340,0.001583990,0.059171020,-0.019171830
1640783792.441380,-0.182468410,0.147092800,10.027967450,-0.009211900,0.089672210,-0.015473370
1640783792.445390,-0.272876710,0.423444060,10.380711560,0.000414250,-0.003325940,-0.014652310
1640783792.446200,-0.051904370,0.260126140,10.105902670,-0.019998850,-0.042329720,-0.014019010
1640783792.450530,0.032748800,0.415055450,9.750207900,0.018779930,0.046540810,0.003832580
1640783792.452450,-0.343390320,0.336571070,10.094717030,0.052566830,0.014418360,-0.009140370
1640783792.456110,-0.290915550,0.402543780,10.121239660,0.024625660,-0.044362250,0.000827010
1640783792.457210,-0.142068670,0.690223100,9.411342620,-0.034230950,-0.005111100,0.005716090
1640783792.460500,-0.099661840,0.566579760,9.826566700,-0.048640370,0.032560530,-0.005392730
1640783792.461180,-0.040929720,0.491440770,10.506918910,-0.011990960,0.058053450,-0.005000830
1640783792.465420,0.075500470,0.519075630,9.948429110,0.039225820,-0.002187490,-0.024129450
1640783792.466260,0.054631780,0.387661730,9.998388290,0.036168100,-0.045034290,-0.007173420
1640783792.470430,-0.006903120,0.386943550,9.665246010,-0.044083610,0.038717690,0.023415690
1640783792.471370,0.040692010,0.116081990,9.593111990,-0.078606610,0.007985530,0.022736190
1640783792.476470,-0.052477640,-0.244086700,10.168658260,0.019474330,0.016260150,-0.000612440
1640783792.476970,0.046355480,0.003717830,9.471379280,0.085210790,0.042246280,-0.012299420
1640783792.480410,0.034402300,0.306548830,9.832230570,0.021883850,0.026020410,-0.007355210
1640783792.481150,-0.290105820,0.265715630,10.494748120,-0.055426350,0.038476280,-0.002799930
1640783792.485430,-0.163249970,0.302542090,9.563768390,-0.023858250,-0.030285120,-0.002253060
1640783792.486190,-0.115588750,0.324420060,9.541281700,0.072297460,-0.023314360,-0.013819340
1640783792.490510,-0.252470700,0.343766780,9.875287060,0.077372790,0.099588940,-0.028267500
1640783792.491320,-0.144741590,0.498772410,9.986952780,0.024233760,0.038740040,-0.006365780
1640783792.496240,-0.227400840,0.472321840,10.380697250,-0.009264050,-0.044751180,0.008207560
1640783792.497190,-0.104415980,0.190840660,9.670634270,-0.021041930,-0.010041890,0.002202390
1640783792.501020,0.122011710,0.241653490,9.487064360,0.059790910,0.044034420,0.003825130
1640783792.501660,-0.324536470,0.298104380,10.588401790,0.090137130,0.056415800,-0.005117060
1640783792.506630,-0.233324380,0.363714840,10.180868150,0.021906200,-0.026164950,-0.013516850
1640783792.507380,-0.024014960,0.627707120,9.537638660,-0.018061700,-0.044745210,0.003646310
1640783792.510570,-0.210768680,0.619535510,9.862028120,-0.046521430,0.038170830,-0.008548800
1640783792.511260,-0.002491030,0.692128780,9.848821640,-0.003163520,0.055779520,-0.001741950
1640783792.515780,-0.024546340,0.746162120,10.047112460,0.051794950,0.003397460,-0.002796950
1640783792.516760,-0.014465100,0.605753360,9.900226590,0.022052230,0.009292370,-0.004942720
1640783792.520430,0.021003750,0.565095840,9.802367210,-0.025872890,0.015421210,0.030563780
1640783792.521320,-0.201906090,0.251946540,9.944675450,-0.064906470,-0.019203120,0.015868240
1640783792.526030,-0.062150710,-0.108115350,9.602637290,-0.014026460,0.006355350,-0.009711090
1640783792.526690,0.111014770,0.031547500,9.320513730,0.067882230,0.054663420,-0.008964540
1640783792.530620,-0.095028040,0.189922170,10.077961920,0.013579430,0.061877070,-0.018914050
1640783792.531860,-0.192966820,0.095688060,10.357144360,-0.039593880,0.000773370,-0.002551080
1640783792.535450,-0.188694150,0.127839830,9.755913730,-0.005880000,-0.067782410,0.000306960
1640783792.536190,-0.331082700,0.115457630,9.519271850,0.040748710,-0.034882120,-0.015246870
1640783792.540500,-0.230399310,0.206918510,9.574884410,0.062957410,0.078457590,-0.017373270
1640783792.542090,-0.303093110,0.517439250,10.113186840,0.037005540,0.053596510,-0.024157760
1640783792.547100,-0.301679520,0.665779650,10.391332630,-0.009702150,-0.059179970,-0.019173320
1640783792.548020,0.051611580,0.565032060,9.556674960,-0.031811000,-0.022402410,-0.007638340
1640783792.550440,-0.036152430,0.559197310,9.649045940,0.022493310,0.034315900,-0.019155450
1640783792.551170,-0.370783030,0.478368340,10.550048830,0.080990800,-0.005294380,-0.022488830
1640783792.555550,-0.175414250,0.582778750,9.758543970,0.015585130,-0.065195560,-0.010128320
1640783792.556440,0.033704250,0.613581240,9.336489680,-0.052689030,-0.036498910,-0.012789670
1640783792.560460,-0.070226640,0.331092120,10.146657940,-0.058257590,0.085039440,-0.001181660
1640783792.561170,-0.010632620,0.364322070,10.238559720,-0.008124110,0.020413100,-0.001287460
1640783792.565450,-0.167635530,0.330097910,10.162385940,0.061722100,-0.101351750,-0.025933980
1640783792.566160,-0.055874870,0.348702850,9.447658540,0.012870130,-0.039881470,-0.015613440
1640783792.570860,0.068086770,0.607108950,9.262413980,-0.070971260,0.040821730,0.010402500
1640783792.571800,-0.218578100,0.357948960,10.479388240,-0.087104750,0.027500100,-0.002948940
1640783792.575480,0.119294680,0.134416910,9.973694800,-0.005421040,-0.000849370,-0.021778050
1640783792.576170,0.276123640,0.465063180,9.390796660,0.087764880,-0.023065510,-0.025662780
1640783792.580470,0.019626590,0.369331690,10.018028260,0.007714330,0.043846660,-0.019156930
1640783792.581150,0.003444460,0.230816410,9.829406740,-0.090093920,0.049759450,0.000305470
1640783792.585430,-0.281727160,0.000571720,10.018247600,-0.015240910,-0.075922910,-0.008776780
1640783792.586160,-0.193473820,-0.124669460,9.520822530,0.041235980,-0.009694700,-0.033630430
1640783792.590520,-0.003364780,0.246433820,9.155544280,0.051499910,0.094024860,-0.023752450
1640783792.592370,-0.458341570,0.338433740,10.714645390,0.011032820,0.058944530,-0.035563120
1640783792.598690,-0.325089840,0.408634870,10.443719860,-0.043793020,-0.043205920,-0.019147990
1640783792.600350,-0.034919100,0.472435120,9.180064200,0.000444050,-0.082509230,-0.015877190
1640783792.600770,-0.145467770,0.335529450,9.777198790,0.051441800,0.049932300,-0.040398540
1640783792.603990,-0.210302950,0.588997130,9.981862070,0.056774910,0.072674460,-0.027200580
1640783792.605700,-0.230341430,0.808954780,10.148692130,-0.004106760,-0.067573790,-0.025105470
1640783792.606410,-0.057673640,0.631055060,9.942417140,-0.078904630,-0.036987660,-0.019900500
1640783792.610410,0.121979830,0.617408450,9.396109580,-0.037357210,0.036613650,-0.003425780
1640783792.612240,-0.123918060,0.545572400,10.360895160,0.025725370,0.026197740,-0.018152590
1640783792.615490,-0.236171020,0.504765690,10.436593060,0.016434490,-0.011421740,-0.023266670
1640783792.616160,-0.141075280,0.587417660,9.525447850,-0.018119810,-0.075505660,-0.004737080
1640783792.620410,-0.112765320,0.510926720,9.656299590,-0.098636750,-0.020046530,-0.004993380
1640783792.621370,-0.033896830,0.283717240,9.687381740,-0.093026460,0.088484590,-0.011862820
1640783792.625450,0.081173570,0.229936060,10.004812240,0.011464950,0.029593710,-0.022301080
1640783792.627560,0.042651470,0.439605470,10.225987430,0.041481850,-0.016403200,-0.035981830
1640783792.630720,0.025053670,0.468465420,9.555127140,-0.043062860,-0.015185770,-0.002805890
1640783792.632250,0.030289670,0.266515080,9.641045570,-0.115770120,-0.007748610,0.003835560
1640783792.635410,-0.254653130,0.045155050,10.009839060,-0.041085480,0.022482870,-0.016352530
1640783792.636150,-0.061625580,0.149316030,9.440131190,0.040362780,0.011429190,-0.028881440
1640783792.640510,-0.048607110,0.456429120,9.968315120,0.006634000,0.049480800,-0.031556190
1640783792.644090,-0.330914830,0.392626910,10.276244160,-0.066509840,0.031407180,-0.017736850
1640783792.645550,-0.101704810,0.200688350,9.783686640,-0.061969460,-0.068072970,0.005009770
1640783792.646750,-0.130270240,0.148039820,9.584101680,0.014254450,-0.004892050,-0.006185470
1640783792.650510,-0.236198020,0.076507060,9.789407730,0.043848160,0.055137290,-0.033250450
1640783792.651350,-0.114836250,0.382374050,10.176255230,0.017477570,0.017428400,-0.018346310
1640783792.655540,-0.203464970,0.542546690,10.216176990,-0.057339670,-0.023977460,-0.024126470
1640783792.657090,0.095713040,0.438985170,9.687295910,-0.076696280,-0.013814870,-0.027897950
1640783792.660450,0.103473410,0.678344250,9.886014940,-0.000703330,0.041164450,-0.004766880
1640783792.661320,-0.297958820,0.716415230,10.359307290,0.017803910,0.010681150,-0.022602080
1640783792.665440,-0.151056070,0.712681170,9.947210310,-0.039659430,-0.064763430,-0.007371600
1640783792.666200,-0.235656740,0.722154200,9.591825490,-0.067549940,-0.018374620,0.011336800
1640783792.670740,-0.293514070,0.545362290,9.831486700,-0.082364680,0.017727910,-0.006051360
1640783792.671920,-0.080599430,0.592585680,10.118179320,-0.065010790,0.043426460,0.007854400
1640783792.676160,-0.100303510,0.479828000,9.992332460,-0.040428340,-0.000388920,-0.018699470
1640783792.678250,0.105221240,0.285084280,9.823511120,-0.046072900,-0.037869810,-0.023716690
1640783792.680420,0.152675380,0.399327840,9.596279140,-0.064750010,0.039277960,0.004580620
1640783792.681140,-0.060196190,0.119149020,9.939516070,-0.102405260,0.002364810,-0.007630890
1640783792.685450,-0.050123420,0.001560680,10.205605510,-0.066742300,-0.024461750,-0.022134180
1640783792.686210,0.042805300,0.190291700,9.326816560,-0.036257510,0.011068580,-0.027032200
1640783792.690550,0.038114400,0.106552860,9.699108120,-0.053577130,0.049878670,-0.034549830
1640783792.691470,-0.162544560,0.151205200,10.422745700,-0.043696160,0.078129750,-0.014095010
1640783792.695880,-0.248889250,0.262873230,9.831879620,-0.036981700,-0.045597550,-0.006495420
1640783792.696670,-0.311135890,0.085699120,9.750733380,-0.027544800,-0.080911820,0.004398820
1640783792.700690,-0.247197640,0.018797730,9.398637770,-0.017713010,0.081644950,-0.004248320
1640783792.701790,-0.316412240,0.097705390,9.918141370,0.004033740,0.044412920,-0.034247340
1640783792.705840,-0.363818470,0.263654950,10.658295630,-0.006517770,-0.009220840,-0.025546550
1640783792.707260,0.069003330,0.387038980,9.473784450,-0.046169760,-0.005914270,-0.028675800
1640783792.711580,0.057495640,0.494200500,9.793624880,-0.023718170,-0.014492870,-0.021050870
1640783792.712060,-0.108755290,0.502261880,10.310511590,-0.004377960,0.048045810,-0.011067090
1640783792.715400,0.003985090,0.555058360,9.619608880,-0.006610160,-0.023390350,-0.011973080
1640783792.716180,-0.129276310,0.652369560,10.057142260,-0.006276370,-0.067439680,-0.001607840
1640783792.720550,-0.098609920,0.547840420,9.746991160,-0.056479870,0.054922700,0.006669760
1640783792.721370,-0.030184950,0.545693930,9.674178120,-0.068704780,0.006870930,0.002990660
1640783792.725440,-0.223500190,0.344116180,10.423547740,-0.021061300,-0.011695920,-0.008577110
1640783792.726300,-0.044800930,0.238188070,9.413801190,0.000394880,0.010660290,-0.012582540
1640783792.730480,-0.049454040,0.312900480,9.610776900,-0.001037120,-0.030735140,0.008328260
1640783792.731140,-0.298268320,0.042114350,10.343453410,-0.053453440,0.035311290,0.004129110
1640783792.735440,0.009587490,-0.053802070,9.567630770,-0.039727990,-0.006945430,0.015988950
1640783792.736850,-0.045016220,0.130714880,9.832068440,0.025077160,-0.034628810,-0.005000830
1640783792.740640,0.000490600,0.172805860,9.718984600,-0.012509520,0.074243550,-0.014357270
1640783792.741440,0.056083510,0.421501790,9.719472890,-0.014890730,0.015203650,0.001309810
1640783792.745530,-0.270099010,0.475255580,10.266479490,-0.000610950,-0.057226430,0.002443790
1640783792.746210,-0.138246510,0.323459120,9.373991010,-0.018404420,-0.037446620,0.013655430
1640783792.750450,-0.131313100,0.400894970,9.378332140,0.015601520,0.007787350,0.011600550
1640783792.751260,-0.516960440,0.217343520,10.480157850,0.019703810,0.048618010,-0.020395220
1640783792.755650,-0.294924710,0.408122510,9.928748130,0.003589690,-0.048349790,-0.002945960
1640783792.757040,-0.133146630,0.552112040,9.664830210,-0.021657350,-0.063009560,-0.003102420
1640783792.762490,-0.078510370,0.383059080,9.881760600,-0.055044890,0.052076580,-0.006283820
1640783792.763100,-0.017736390,0.508490090,9.894392010,0.015972550,0.014296170,0.026531520
1640783792.765400,-0.139936570,0.464722870,10.285416600,0.031958510,-0.065198550,0.011658670
1640783792.766180,-0.009414950,0.429200950,9.640230180,-0.011399390,-0.034520030,0.015857820
1640783792.771230,-0.041713930,0.619139310,9.572565080,-0.036180020,-0.033074620,0.033740700
1640783792.772380,-0.158592310,0.506789030,10.122418400,-0.075073550,0.001184640,0.012466310
1640783792.776710,-0.013508100,0.397768050,9.708540920,-0.041154030,0.013232230,-0.002403560
1640783792.777210,-0.000081570,0.557733420,9.834448810,0.026702890,-0.028289860,0.002661350
1640783792.780420,-0.154245060,0.480496880,10.077659610,-0.014324490,-0.013312700,0.008447470
1640783792.781150,-0.017812680,0.417715670,9.580288890,-0.076696280,-0.034542390,0.032621630
1640783792.785870,-0.002756760,0.186103930,9.635338780,-0.058637560,-0.033541020,0.024785100
1640783792.787180,-0.019296220,0.004152380,9.687892910,0.000141560,0.024704640,0.009937580
1640783792.790710,0.117779480,0.185512240,9.572052000,0.018364190,0.027239320,0.019004940
1640783792.792980,-0.133245230,0.164253410,10.330587390,-0.012546780,-0.020892920,0.009177630
1640783792.795490,-0.254635040,0.077769500,9.902526860,-0.022591650,-0.061781720,0.022295120
1640783792.796470,-0.100964020,0.251279920,9.253651620,-0.026963650,-0.053718690,0.033631920
1640783792.800550,-0.361051320,0.229563330,9.945209500,-0.000214580,0.038717690,0.001552700
1640783792.801770,-0.419003040,0.363946710,10.056049350,0.031879540,0.012063980,-0.007620450
1640783792.805550,-0.214111190,0.865175780,9.910220150,-0.005038080,-0.079579660,0.003629920
1640783792.806560,-0.232429670,0.814610900,9.857144360,-0.062446300,-0.029510260,0.002241130
1640783792.810430,-0.019201560,0.700080570,9.650855060,-0.060047210,-0.004680450,0.012132530
1640783792.811180,-0.099200470,0.791621210,10.181544300,0.006823240,-0.023391840,0.021165610
1640783792.815430,-0.164987030,0.554694000,10.174174310,0.000983480,-0.064302970,0.014474990
1640783792.816180,0.127924840,0.626060430,9.539829250,-0.054568060,-0.047397610,0.040230160
1640783792.820760,-0.033197760,0.563781320,9.865382190,-0.086466980,-0.004923350,0.042077910
1640783792.821600,0.039373950,0.128038630,10.100976940,-0.093300630,-0.011926890,0.024396180
1640783792.825450,0.177847850,0.196253180,9.691810610,-0.011537970,-0.027209520,0.003755090
1640783792.826230,-0.123343680,0.325441810,9.866411210,0.023099780,-0.044880800,-0.010029970
1640783792.830440,-0.040764180,0.461556170,9.711655620,-0.078094010,-0.029815730,0.022961200
1640783792.831190,-0.141181800,0.518019140,9.766669270,-0.125804540,-0.015605990,0.026117270
1640783792.839930,-0.244222580,0.177187920,10.050657270,-0.063781450,-0.037527080,0.000734630
1640783792.841560,0.037823550,0.423647730,9.545138360,0.013579430,-0.003746150,0.004167850
1640783792.841980,-0.022828170,0.626216650,9.647824290,-0.004784760,0.012630230,0.008288020
1640783792.842380,-0.046895350,0.323808040,10.181437490,-0.093068180,-0.005248190,0.020936130
1640783792.845450,-0.085071600,0.306020530,9.781136510,-0.073030590,-0.054013730,0.036998090
1640783792.846780,-0.202330770,0.012191060,9.529630660,-0.014320020,-0.079685450,0.006550550
1640783792.850490,-0.226762560,0.069047530,9.852160450,-0.001508000,0.007814170,-0.005395710
1640783792.851500,-0.304561760,0.444418850,9.875866890,-0.018659230,0.016203520,-0.004659590
1640783792.855510,-0.308334950,0.492062030,10.357416150,-0.091341150,-0.064446030,-0.014449660
1640783792.856520,-0.140148860,0.647529300,9.928873060,-0.101198250,-0.022332370,0.014400480
1640783792.860450,-0.072752510,0.710972670,9.572927470,-0.028876970,-0.038723660,0.012311340
1640783792.861190,-0.193626720,0.713382840,10.231953620,-0.008703770,-0.041858850,0.013993680
1640783792.865460,-0.112365000,0.889208200,9.650409700,-0.057989360,-0.029803810,0.023165350
1640783792.866260,-0.022516020,0.699236510,9.649520870,-0.113876150,-0.069627150,0.032803410
1640783792.870580,-0.020811060,0.557396530,10.110898020,-0.129382340,-0.006897750,0.035101180
1640783792.871290,0.094889940,0.547637050,9.792284970,-0.102728610,0.001677870,0.020764770
1640783792.875430,0.056003620,0.325192570,10.186586380,-0.068496180,-0.032149260,0.003570320
1640783792.876180,-0.059324840,0.339711550,9.859247210,-0.073750320,-0.031022730,0.004594030
1640783792.880460,0.023996530,0.399341700,9.405686380,-0.113394870,-0.044658790,0.022441150
1640783792.881190,-0.184254390,0.245068570,10.100875850,-0.149503350,-0.033392020,0.026756530
1640783792.885760,-0.174552010,0.226958170,9.644541740,-0.108259920,-0.015445050,0.016269090
1640783792.886790,0.118650520,0.365811970,9.421917920,-0.064086910,-0.026610490,0.013615190
1640783792.890420,0.038321990,0.404709760,10.069698330,-0.087122620,0.067164010,0.000184770
1640783792.891210,-0.019177190,0.357892540,10.094933510,-0.106674440,-0.003543500,0.010600690
1640783792.895520,0.004729950,0.369526090,9.919103620,-0.094649200,-0.109611460,0.022713840
1640783792.896300,-0.141649130,0.230812940,9.358407970,-0.106501580,-0.029599670,0.000347200
1640783792.900580,-0.046433370,0.098106910,9.405069350,-0.090286140,0.035421550,-0.011953710
1640783792.901180,-0.335383890,0.213240060,10.324570660,-0.042496620,0.023245810,-0.015805660
1640783792.907760,-0.286491900,0.308361830,10.028904910,-0.091736030,-0.060483810,-0.021481520
1640783792.908420,0.086422270,0.427492020,9.628759380,-0.125084820,-0.038729620,0.015783310
1640783792.910430,-0.136869880,0.419314680,10.021625520,-0.104329010,0.029405960,0.015014410
1640783792.911200,-0.089645940,0.317220960,10.146697040,-0.061897930,-0.001160800,0.007246440
1640783792.915780,-0.055201560,0.689303520,9.934194560,-0.051917140,-0.052662200,0.011366610
1640783792.916460,-0.211535100,0.753674750,9.776014330,-0.112250450,-0.050403190,-0.001148880
1640783792.920510,0.130376650,0.754269720,9.579376220,-0.167150780,-0.003248450,0.017412010
1640783792.921190,-0.043375720,0.820260110,10.093635560,-0.144857170,0.037799790,0.005184110
1640783792.925460,-0.057286620,0.581365700,10.245011330,-0.102776290,-0.027392810,-0.015588110
1640783792.926200,0.179811920,0.590570630,9.803207400,-0.069321700,-0.011736160,0.008791690
1640783792.930650,-0.035607420,0.558071610,9.732874870,-0.140210990,0.017149750,0.017350910
1640783792.931380,-0.142298190,0.062390570,10.236885070,-0.183899750,-0.025482480,0.033494830
1640783792.935630,-0.063360130,-0.082387250,9.625041960,-0.117647650,-0.013567510,0.024759770
1640783792.936540,0.050572400,0.052582090,9.184087750,-0.077946480,-0.019913910,-0.003135200
1640783792.940540,0.061548870,0.092970330,10.010114670,-0.110740970,0.083872680,0.008301440
1640783792.941220,-0.033610480,0.205171570,10.058261870,-0.129412110,0.053602460,0.002656880
1640783792.945430,-0.207684810,0.170653190,10.290494920,-0.098180790,-0.110881050,-0.004352630
1640783792.946230,-0.130057040,0.275179830,9.539860730,-0.082612050,-0.027467310,0.001257660
1640783792.950480,-0.075795960,0.388914590,9.079568860,-0.093111400,0.042934710,-0.011895600
1640783792.951670,-0.272721710,0.386032850,10.377841000,-0.069823860,0.038951640,-0.021952390
1640783792.955500,-0.086426190,0.603177190,10.052676200,-0.100156670,0.030714270,-0.009500980
1640783792.956290,0.075731220,0.568967760,9.715705870,-0.115095080,-0.045977530,0.000964110
1640783792.960440,-0.142159130,0.344424810,10.318596840,-0.078865890,0.002281370,0.003673140
1640783792.961160,-0.121851240,0.338723660,9.556748390,-0.072099280,0.019799170,0.007854400
1640783792.965590,-0.224384040,0.329888310,9.871081350,-0.067177410,-0.056239970,0.012706220
1640783792.966440,-0.251059320,0.257360130,10.063479420,-0.104883310,0.026847420,-0.004090370
1640783792.970510,0.065227200,0.482891080,9.536936760,-0.128120200,0.020618740,-0.005990270
1640783792.971250,-0.112287770,0.593488570,10.457358360,-0.104016090,-0.013931100,-0.019498170
1640783792.975610,0.016900860,0.568364140,9.837307930,-0.114281480,0.020122530,-0.031298400
1640783792.976210,0.197214220,0.822476690,9.386708260,-0.089031460,-0.018547480,-0.002795460
1640783792.980420,-0.211604640,0.696868060,10.308777810,-0.112821180,0.024271010,-0.001439450
1640783792.981200,-0.049344830,0.428649510,9.654438970,-0.150100860,-0.010600690,0.013194980
1640783792.985520,0.092056010,0.334125430,9.472170830,-0.084334610,-0.038453940,0.026054680
1640783792.986570,-0.004609300,0.070028940,9.901487350,-0.103320200,0.094197690,-0.003720820
1640783792.990510,0.153188680,0.013207760,9.881174090,-0.111317630,0.067625950,0.011661650
1640783792.991240,-0.072090070,-0.053090320,10.350640300,-0.068496170,-0.024071340,0.009569530
1640783792.996530,-0.129424440,-0.140919540,9.647454260,-0.084576000,-0.041030340,-0.002650920
1640783792.997490,0.009286580,0.118595500,9.025425910,-0.082401930,0.004096330,0.010684130
1640783793.000440,-0.242281050,0.084008280,9.979179380,-0.078676650,0.082069640,-0.014247000
1640783793.001660,-0.284617010,0.223415550,10.221148490,-0.046922270,0.053299970,-0.024645040
1640783793.005420,-0.173021870,0.640092910,9.848012920,-0.029020010,-0.049406290,-0.004936750
1640783793.006240,-0.209108830,0.539102490,9.927397730,-0.082325920,-0.004193190,-0.009267030
1640783793.010650,-0.221702280,0.424740230,9.786209110,-0.076045100,0.043560570,0.018630920
1640783793.011950,-0.258086890,0.425887290,9.992808340,-0.022877750,-0.009314710,0.017707050
1640783793.015660,-0.238105000,0.355360480,10.023242000,-0.041666630,-0.017595290,-0.002382700
1640783793.016430,-0.000641040,0.388397750,9.538276670,-0.075155500,0.018104910,0.017647450
1640783793.020580,-0.014192350,0.408095870,10.124340060,-0.090174360,0.019429620,0.008299950
1640783793.021370,-0.090615620,0.323647830,10.212300300,-0.067906090,-0.010122360,-0.000992420
1640783793.025430,0.148699730,0.430751090,9.546135900,-0.053289540,-0.028683250,-0.006468600
1640783793.026320,-0.074096430,0.587759260,9.998135570,-0.054435430,0.022113320,-0.002369280
1640783793.030480,-0.287271680,0.552192330,10.205410000,-0.085562480,-0.005461280,0.006175040
1640783793.031190,-0.111164830,0.582060100,9.775099750,-0.103889420,-0.050821900,0.009265540
1640783793.035530,-0.091930800,0.554786320,9.583767890,-0.081989180,-0.006206330,0.006970760
1640783793.037320,0.133032690,0.385720730,9.594932560,-0.070899720,0.075827540,0.008302930
1640783793.040470,0.137840170,0.274450510,10.286567690,-0.058296330,0.066499410,0.005662440
1640783793.041200,-0.067972880,0.159503330,10.245195390,-0.035384300,-0.037099420,0.009256600
1640783793.048150,0.070963600,0.027610110,9.457382200,-0.075910990,-0.083303460,0.022998450
1640783793.048770,0.070766610,0.034928580,9.189550400,-0.101108860,0.038516530,0.008261200
1640783793.050400,-0.188376050,-0.167381820,9.921042440,-0.057134040,0.089944880,-0.028869510
1640783793.051380,-0.102594840,0.096559670,10.143312450,0.006149710,0.027143960,-0.026617950
1640783793.056060,-0.093100650,0.471322660,9.748125080,-0.007657710,-0.012885040,-0.022144620
1640783793.056630,-0.148315820,0.322308060,9.908391950,-0.091230860,0.001707670,-0.008614360
1640783793.060560,-0.187061320,0.270265940,9.791185380,-0.049994900,0.042438510,0.005248190
1640783793.061390,-0.346322090,0.265335860,9.833658220,0.017103550,-0.020308790,-0.017742810
1640783793.065420,-0.148523430,0.367784860,9.947556500,-0.001676380,0.005215410,-0.015151500
1640783793.066250,-0.062549300,0.555387850,9.636631970,-0.031246250,0.067885210,-0.002773110
1640783793.070520,-0.181525890,0.423695650,10.296662330,-0.071322930,-0.006601220,-0.008411710
1640783793.071260,0.024168360,0.402479770,10.043236730,-0.050114100,-0.005194540,-0.000615420
1640783793.075420,0.127705160,0.441401930,9.311842920,0.007985540,0.008705260,-0.014212730
1640783793.076460,-0.004721730,0.454796670,10.192762370,-0.008834900,0.023405260,-0.005833810
1640783793.080420,-0.072746420,0.592690830,10.083268170,-0.064791740,0.049676000,0.001071390
1640783793.081180,-0.065043680,0.470604000,9.796879770,-0.088086720,-0.049404800,0.007447600
1640783793.085860,-0.118038570,0.411745340,10.071748730,-0.057889520,-0.000847880,-0.000973050
1640783793.086670,-0.011833910,0.531205360,9.351744650,-0.029712920,0.070673230,0.003620980
1640783793.090500,-0.074871500,0.401681390,9.996199610,-0.038169320,0.012227890,-0.000508130
1640783793.091330,-0.144601170,0.314316540,10.109228130,-0.043380260,0.028571490,0.008307400
1640783793.095550,0.088567810,0.264552180,9.329663280,-0.060769920,0.000746550,0.019179290
1640783793.098500,-0.003341130,0.161401640,10.134729390,-0.067588690,0.011739140,0.005181130
1640783793.100430,-0.053833950,0.055614550,9.833272930,-0.044621530,0.070658330,-0.017626580
1640783793.101280,0.178318190,0.248178710,9.426886560,-0.013266500,-0.003826620,-0.012473760
1640783793.105520,-0.041669800,0.372202520,10.085253720,-0.029709940,0.053912410,-0.006270410
1640783793.107150,-0.035287800,0.220271860,9.779280660,-0.062757720,0.060869750,-0.006897750
1640783793.110470,-0.081317800,0.229585830,9.910619740,-0.003001090,-0.021046400,0.017136340
1640783793.111200,-0.336618660,0.107219000,9.891752240,0.007414820,0.021961330,-0.002816320
1640783793.115470,-0.101077530,0.070076900,9.438673970,-0.001113120,0.055962800,-0.015205140
1640783793.116240,-0.249247910,0.395785180,10.218675610,0.002992150,0.049959130,-0.010450180
1640783793.120580,-0.340725990,0.438622620,10.288972850,-0.049693880,0.020235780,-0.027200580
1640783793.121260,0.080798930,0.631272260,9.496779440,-0.045493260,-0.022248920,-0.003063680
1640783793.125460,-0.032155980,0.759711860,9.775166510,-0.004772840,0.055959820,0.004889070
1640783793.126230,-0.089043650,0.585006710,10.158605580,-0.007860360,0.073266030,0.008670990
1640783793.130480,-0.052571700,0.740532460,10.104507450,-0.017452240,-0.022207200,0.031587480
1640783793.131200,-0.149857010,0.460754250,9.830653190,-0.054670870,-0.021246080,0.018411880
1640783793.135620,0.185089250,0.311232540,9.400585170,-0.058975820,0.059869890,0.029660760
1640783793.136550,0.075097360,0.442444290,9.945481300,-0.046406690,0.106927760,0.017696620
1640783793.144210,-0.060418140,0.198435570,10.365256310,-0.038334730,0.031568110,-0.014847520
1640783793.144950,0.093402880,0.285678510,9.699395180,-0.015169380,-0.007177890,0.010018050
1640783793.145430,-0.079194840,0.408730000,9.428398130,-0.034859780,0.010773540,0.011152030
1640783793.146230,-0.212513490,0.138192730,9.929031370,-0.079154960,0.042070440,0.006054340
1640783793.150440,-0.024784090,0.212991280,9.671762470,-0.035499040,0.076223920,0.001473720
1640783793.151250,0.032753460,0.274324950,9.793072700,-0.002200900,0.055466590,-0.009126960
1640783793.155600,0.047094560,0.228852080,10.138901710,0.001898410,0.081866990,0.003132220
1640783793.156550,-0.016748390,0.315317120,9.815724370,-0.020562110,0.058463220,0.013451280
1640783793.160470,-0.249316080,0.126368360,9.966832160,-0.017948450,-0.048114360,0.010721390
1640783793.161200,-0.208269300,0.004732270,9.332880020,0.005383790,0.017832220,0.009958450
1640783793.165430,-0.133708570,0.143649640,9.162746430,0.010257960,0.098223970,-0.018122790
1640783793.166250,-0.386933420,0.207400250,10.600948330,0.027492640,0.089940440,-0.020115080
1640783793.171340,-0.339281410,0.406407390,10.453483580,0.002332030,0.000713770,-0.016698240
1640783793.172430,-0.082471880,0.547824260,9.465091710,-0.012576580,-0.053463880,-0.011888150
1640783793.175770,-0.240554790,0.455202070,9.871416090,0.011120740,0.049963600,-0.008028750
1640783793.176500,-0.186508490,0.564076840,9.771034240,0.027339160,0.077834730,0.004465880
1640783793.180420,-0.260213910,0.729456070,10.122041700,0.021439790,-0.030909480,0.003665690
1640783793.181190,-0.127484070,0.595884140,9.924425130,-0.035260620,-0.008684400,0.010290740
1640783793.185680,0.150848000,0.578478570,9.351255420,-0.043214860,0.043939050,0.014130770
1640783793.186560,-0.003752200,0.441702190,10.167593960,0.003592670,0.046429040,0.002628560
1640783793.191520,0.018516480,0.236882670,10.104152680,-0.000889600,0.047278400,-0.010916590
1640783793.192520,0.156759310,0.412566130,9.505562780,0.007028880,-0.016321240,-0.001278520
1640783793.195540,-0.130049740,0.261262390,9.892766000,-0.031109160,0.012049080,0.011594590
1640783793.196340,-0.105039430,0.039144620,9.617193220,-0.064694870,0.042347610,0.007766480
1640783793.200580,-0.045372350,0.096462840,9.547333720,0.025448200,0.013221800,-0.006720420
1640783793.203900,-0.146467340,0.181175170,9.835385320,0.037483880,0.054858640,-0.024233760
1640783793.205510,0.014714880,0.402251450,9.723756790,-0.001561640,0.064764920,0.005252660
1640783793.206260,-0.114710750,0.322889060,10.113305090,-0.030982500,0.024254630,0.004515050
1640783793.211990,-0.294065120,0.120618820,10.082780840,0.005333130,-0.026741620,-0.000590090
1640783793.212470,-0.154792010,0.211486730,9.161646840,0.066185000,-0.016880040,0.003916030
1640783793.215430,-0.229389520,0.246064810,9.505239490,0.038158900,0.046327710,-0.024032590
1640783793.216250,-0.292637940,0.260638770,10.092909810,0.001811980,0.077703600,-0.014242530
1640783793.222970,-0.080545850,0.379554600,9.913817410,0.008136030,0.003778930,-0.004017350
1640783793.224540,-0.110034580,0.338381320,10.116126060,0.016447900,-0.032238670,-0.017827750
1640783793.225420,-0.066803370,0.362067850,9.663954730,0.057980410,0.026433170,-0.003966690
1640783793.226250,-0.115791150,0.503316880,9.670132640,0.058870020,0.009764730,-0.004400310
1640783793.230460,-0.325128910,0.617947640,10.098281860,0.000089410,-0.010898710,-0.014443700
1640783793.231230,-0.156030730,0.690975490,9.645769120,-0.023171310,0.002105530,0.003129240
1640783793.235690,-0.071843780,0.695583700,9.801679610,-0.013451280,0.001001360,-0.004348160
1640783793.236980,-0.200928670,0.615229010,10.161911010,0.011387470,0.027321280,-0.014674670
1640783793.241050,0.038581110,0.548893870,9.708710670,0.024537750,0.005501510,-0.011995440
1640783793.241720,-0.023638280,0.551624240,9.833160400,0.006090100,-0.003083050,0.006221240
1640783793.246250,-0.139677180,0.403899880,9.896020890,-0.048348310,0.007793310,0.014191870
1640783793.246830,0.068221640,0.163710760,9.647549630,-0.060616430,-0.001783670,0.021371250
1640783793.250980,-0.096867140,-0.005716470,9.699337010,0.021223720,0.004826490,-0.010029970
1640783793.252750,0.047383710,0.105628000,9.538629530,0.046718130,0.027287010,-0.026381020
1640783793.256820,0.119486260,0.354438220,9.780418400,-0.011734660,0.061796610,-0.000217560
1640783793.258460,-0.316518250,0.157981380,10.398281100,-0.041706850,-0.009782610,-0.009217860
1640783793.260440,-0.143076990,0.108051290,9.777970310,0.002279880,-0.071425750,-0.005838280
1640783793.261240,-0.212387130,0.332280640,9.146865840,0.047053400,-0.000643730,-0.000835960
1640783793.265460,-0.365042300,0.251877310,9.776465420,0.028191510,0.053836410,-0.030095880
1640783793.266330,-0.251813530,0.473066990,10.090557100,0.009486080,0.043983760,-0.015890600
1640783793.270610,-0.250149910,0.607237220,9.917975430,0.004328790,-0.067797300,-0.004771350
1640783793.271450,-0.016915340,0.306148260,9.796161650,-0.008475780,-0.035141410,-0.002433360
1640783793.275440,0.033386360,0.392693880,9.618994710,0.039985780,0.069981810,0.016078350
1640783793.276250,-0.328527810,0.268501940,10.381882670,0.061172250,-0.019834940,-0.001640620
1640783793.280460,-0.196472140,0.276535150,10.102359770,0.013943020,-0.063884260,-0.002126400
1640783793.281220,-0.006946900,0.539013210,9.019705770,-0.019721690,-0.027893490,0.004324320
1640783793.285920,-0.105365080,0.450078130,10.017371180,-0.036159150,0.019799170,-0.011318920
1640783793.286920,0.075791230,0.648955700,10.079985620,-0.012154880,0.056189290,-0.002872940
1640783793.290520,0.096991070,0.691104410,9.796766280,0.035476680,-0.052928930,-0.007206200
1640783793.291280,0.115181460,0.643158670,10.036524770,0.026638810,-0.027820470,0.000482800
1640783793.296090,0.220891180,0.774980660,9.248325350,-0.049985950,0.044822700,0.031527880
1640783793.296900,-0.007525310,0.430155930,10.035093310,-0.079098340,-0.018140670,0.033776470
1640783793.300750,0.039596440,0.034955430,10.008618350,-0.006438790,0.026725230,0.025281310
1640783793.301260,0.274018880,0.151258660,9.006291390,0.053890060,0.013124950,0.005030630
1640783793.305520,0.109056290,0.299957480,9.956076620,-0.004822020,0.042951100,0.007690490
1640783793.307530,-0.036435690,0.013053320,10.015861510,-0.067204240,0.098076470,0.020793080
1640783793.310440,-0.151188850,-0.026010460,9.840425490,-0.008499620,-0.071173910,0.003908580
1640783793.311260,-0.339639040,0.067544900,9.789859770,0.054353480,-0.052124260,-0.000216070
1640783793.315890,-0.130406050,0.084090880,8.837507250,0.031721590,0.080448400,-0.008757410
1640783793.316620,-0.165570120,0.478352700,9.946516040,0.010307130,0.079324830,-0.010596210
1640783793.320660,-0.236744430,0.639313340,10.469062810,-0.023370980,0.059913110,-0.003911560
1640783793.321820,0.177066730,0.555855040,9.480784420,-0.011898580,-0.026836990,0.009205940
1640783793.325440,0.113212130,0.665940640,9.789630890,0.057724130,0.011038780,0.014951830
1640783793.326250,-0.137370690,0.491578190,9.855742450,0.039301810,0.064675510,0.011543930
1640783793.330460,0.023368570,0.533370380,9.639009480,-0.011156500,0.001651050,0.019085410
1640783793.331370,-0.179440080,0.485590430,10.065214160,-0.039604320,0.029869380,0.010056800
1640783793.335590,-0.173325940,0.276972920,9.866475110,-0.041651730,0.040064750,-0.004009900
1640783793.336580,-0.064696000,0.583501040,9.885033610,0.006051360,-0.000853840,0.005194550
1640783793.340560,-0.279996540,0.463976770,9.888349530,-0.004865230,0.019343200,-0.012323260
1640783793.341230,-0.048496330,0.489887270,9.464790340,-0.028184060,0.026887660,0.016559660
1640783793.345440,-0.106957810,0.672889050,9.925947190,-0.038364530,0.048218660,0.039671360
1640783793.347010,-0.222175330,0.415700170,10.180996890,-0.064739610,0.026060650,0.025445230
1640783793.350440,0.126796590,0.473814640,9.616096500,-0.021651390,-0.020658970,0.033260890
1640783793.351250,0.160697070,0.574861410,9.406964300,-0.011472400,0.059063740,0.014659760
1640783793.355510,0.191128020,0.407268460,9.795663830,-0.060527030,0.089855480,0.012484190
1640783793.356910,0.176327750,0.422744510,10.046876910,-0.056266800,0.071005530,0.028721990
1640783793.360480,-0.075935860,0.213518110,9.861711500,-0.018364190,-0.030481820,0.011092420
1640783793.361260,-0.090465670,0.066205450,9.396759990,-0.000147520,-0.021728870,0.026622410
1640783793.365480,-0.134146870,0.103731950,9.256122590,-0.034859770,0.105512130,0.011970100
1640783793.366260,-0.444775970,-0.119196450,10.149620060,-0.033497810,0.083880140,-0.001306830
1640783793.370500,-0.377920210,0.054689380,10.175018310,0.009383260,-0.006903710,0.001953540
1640783793.371940,-0.103028860,0.372793140,9.258179660,-0.014029440,0.011487310,-0.004912910
1640783793.375420,-0.240838660,0.342478330,9.890644070,-0.026384000,0.050896410,0.007754560
1640783793.376260,-0.242579120,0.249137820,10.180574420,0.010326510,0.059573360,0.022611030
1640783793.380480,-0.078824720,0.394186380,9.652950290,0.041551890,-0.033114850,0.008066000
1640783793.381210,-0.047900270,0.480171560,9.816307070,0.027261680,0.021140280,0.008489190
1640783793.385680,-0.040216020,0.548536960,9.750934600,-0.039607290,0.094452500,0.013743340
1640783793.386530,-0.063043050,0.625666620,10.020525930,-0.041830530,-0.013245640,0.009366870
1640783793.390500,-0.097945960,0.414334390,9.976760860,-0.007368630,-0.009763240,0.014607610
1640783793.391310,0.174761640,0.427587000,9.187447550,0.032745300,0.049896540,0.013469160
1640783793.397150,-0.115523400,0.478823540,10.053737640,0.030551850,0.052063170,0.029575830
1640783793.397980,-0.344456020,0.371794130,10.484130860,-0.054639590,0.022402410,0.034427650
1640783793.400530,-0.134000290,0.247126850,9.514682770,-0.049886120,-0.046518450,0.036950410
1640783793.401210,-0.265861030,0.155165450,9.524682040,0.023621320,-0.018347800,0.009644030
1640783793.405550,-0.053076810,0.269332110,9.369287490,0.009787080,0.105765450,-0.001549720
1640783793.406310,0.010592930,0.419769760,9.767067910,0.000905990,0.071340810,0.008253750
1640783793.410540,-0.161625150,0.320453200,10.409277920,-0.018452110,-0.023691360,0.010134280
1640783793.411730,0.152095360,0.304476230,9.439715390,-0.016313790,-0.023439530,0.043535240
1640783793.415420,0.035466750,0.167515470,9.488608360,0.016072390,0.027678900,0.035482640
1640783793.416270,-0.214946970,-0.079384480,10.112567900,0.040692090,0.054734950,-0.001114610
1640783793.420510,-0.140452100,0.196761460,9.582882880,0.061441960,0.000531970,0.002218780
1640783793.421370,-0.179252650,0.458553700,9.674493790,-0.014199320,-0.014173980,-0.011022390
1640783793.425470,-0.170142710,0.500792380,9.844799040,-0.065109140,0.051052870,-0.001908840
1640783793.427910,-0.155443980,0.560215060,9.804396630,0.014495850,0.010299690,0.013558570
1640783793.430490,-0.302891790,0.504367410,10.175946240,0.067113340,-0.029502810,-0.012940170
1640783793.431240,-0.209516470,0.607240080,9.733586310,0.053805110,0.004637240,0.003542010
1640783793.435890,-0.159836260,0.669178550,9.668051720,-0.021812320,0.005520880,0.029599670
1640783793.436630,-0.280002360,0.544158340,10.255577090,-0.080688300,0.001144410,0.014531610
1640783793.440480,0.004744970,0.459240470,9.576097490,-0.034165390,-0.008191170,0.011274220
1640783793.441290,0.273861800,0.475715190,9.282021520,0.035326190,0.006923080,0.006701050
1640783793.445590,0.144623850,0.373817030,9.943581580,0.035806000,0.077392150,0.004009900
1640783793.446580,0.175424260,0.341226730,9.875011440,-0.020761790,0.015191740,0.022567810
1640783793.450450,0.034909280,0.264056300,9.851659770,-0.047487030,-0.067767510,0.034095350
1640783793.451350,-0.159651940,-0.051185260,9.639475820,-0.015576180,0.001402200,0.022630390
1640783793.456920,-0.094620530,0.107047640,9.391309740,0.016677380,0.049658120,-0.001975890
1640783793.457410,-0.395439890,0.302153140,10.015317920,0.032328070,0.033044820,-0.023661560
1640783793.460690,-0.260777680,0.390289460,9.691366200,-0.011821090,0.003534560,-0.011390450
1640783793.461240,-0.030509700,0.599500720,9.400873180,-0.038938220,0.009351970,0.004756450
1640783793.465450,-0.225734340,0.435695620,10.042918210,-0.011608000,0.031545760,0.005184110
1640783793.466260,-0.077072170,0.197783770,9.956521990,0.042864680,0.004097820,0.018720330
1640783793.470560,-0.039693370,0.440634880,9.687787060,0.076527880,-0.006216760,0.017876920
1640783793.471250,-0.112990080,0.386774960,10.014431000,-0.007614490,0.009232760,0.001169740
1640783793.480060,0.071038540,0.441104260,9.785082820,-0.071534520,0.042186680,0.013111530
1640783793.480840,-0.055806700,0.507856730,9.880605700,-0.021232660,-0.005106630,0.009515880
1640783793.481280,-0.012831910,0.341443780,9.895284650,0.019708270,-0.014510750,-0.007426740
1640783793.481620,0.107691150,0.645243170,9.304110530,0.044691570,0.040698060,0.012564660
1640783793.485610,-0.226373520,0.528618510,10.073883060,-0.004187230,0.019697850,0.022777920
1640783793.488470,-0.330811890,0.350553450,10.365442280,-0.063680120,-0.001543760,0.035753850
1640783793.490550,-0.195582030,0.343346180,9.399389270,-0.002859530,-0.053755950,0.026741630
1640783793.491360,-0.030201410,0.165735890,9.447021480,0.023172800,0.016963480,0.003747640
1640783793.495560,0.150714780,0.227283870,9.671114920,0.016091760,0.150576220,0.005668400
1640783793.496300,0.078879990,0.218710840,10.110825540,0.015772880,0.045971570,0.008969010
1640783793.500460,0.056928600,0.111565600,10.121772770,-0.004959110,-0.060854860,0.014594200
1640783793.501250,0.116289660,0.119230790,9.071016310,0.003674630,0.005319710,0.028124450
1640783793.506060,-0.040631560,-0.035407190,9.438121800,0.026144090,0.021143260,0.009737910
1640783793.506900,-0.376433970,-0.083367210,10.096465110,0.068986420,0.062051420,-0.018021470
1640783793.510430,-0.188764600,0.273653300,9.471676830,0.061908370,0.028246640,-0.019475820
1640783793.511230,-0.209565330,0.518030050,10.094706540,0.008922810,0.014014540,-0.008690360
1640783793.515440,-0.409075620,0.511837480,10.147133830,-0.005742910,0.022061170,-0.002832710
1640783793.516220,-0.145261080,0.494349180,9.398169520,0.048878790,-0.038214030,0.022207200
1640783793.520560,-0.238055710,0.456510390,9.740221980,0.094781820,0.017896300,0.005215410
1640783793.521390,-0.266492550,0.418978100,9.851855280,0.062718980,0.053130080,-0.002744790
1640783793.525550,0.003679310,0.490766290,9.950074200,0.007654730,-0.012008850,0.025112930
1640783793.526450,-0.034544210,0.516825260,10.061925890,-0.027324260,-0.001531840,0.013729930
1640783793.530510,0.155176790,0.359461640,9.713300700,-0.008863210,0.016987320,0.003641840
1640783793.531310,0.217983050,0.630845960,9.669115070,0.064408790,0.023651120,0.009103120
1640783793.535920,-0.133448150,0.663663630,10.071070670,0.037093460,0.025533140,0.010673700
1640783793.536790,-0.044929880,0.553380250,9.898860930,-0.034376980,-0.015033780,0.028406090
1640783793.540630,-0.129610330,0.627975290,9.550621030,-0.031706690,-0.018306080,0.032874940
1640783793.543310,-0.094310420,0.359576820,9.673857690,-0.023327770,0.038470330,0.016112630
1640783793.545570,0.203358380,0.382778940,9.728528980,-0.000029800,0.107415020,0.025962300
1640783793.546400,0.039518040,0.380959000,9.934240340,0.029142200,0.038893510,0.006799400
1640783793.550470,0.173827310,0.251144410,9.832893370,-0.004078450,-0.009633600,0.015671550
1640783793.551240,0.137992290,0.385242970,9.345167160,-0.048567350,0.034683940,0.044588740
1640783793.555490,-0.213674220,0.069167260,9.748853680,-0.039272010,-0.000438090,0.021471080
1640783793.557500,-0.140396370,-0.025116750,9.739918710,0.029079620,0.033913550,0.005328650
1640783793.562280,-0.054417390,0.325608790,9.202001570,0.054213400,0.078712410,-0.006771090
1640783793.562920,-0.190999540,0.205624030,10.332314490,-0.002263490,0.069481130,-0.015048680
1640783793.565450,-0.169473020,0.245176210,10.250032420,-0.012943150,0.046153370,0.005495550
1640783793.566260,-0.125606060,0.289364520,9.315226550,0.031422070,-0.066690130,0.010210280
1640783793.570900,-0.165229590,0.064391110,9.560293200,0.044681130,0.024753810,0.012584030
1640783793.572500,-0.109115800,0.163193820,9.233853340,0.066600730,0.126843120,0.009748340
1640783793.575540,-0.266488310,0.268012140,10.240719800,0.059555470,0.004538890,0.001546740
1640783793.576250,-0.126610460,0.387487500,10.223764420,0.000095370,0.000765920,-0.014919040
1640783793.580440,0.138568610,0.501002670,9.187817570,-0.012713670,0.021536650,-0.004988910
1640783793.581240,-0.124056860,0.544584330,10.325996400,0.049057600,0.037311020,-0.007408860
1640783793.585460,-0.219954220,0.642967400,10.040641780,0.055354830,0.064331290,-0.001008810
1640783793.586360,-0.108291910,0.697755580,9.496295930,0.029160080,-0.053577130,0.017894800
1640783793.590560,-0.178234520,0.577101410,9.864549640,0.004920360,0.012543800,0.029376150
1640783793.591540,-0.144770070,0.488984530,9.505620960,-0.030109290,0.076231370,0.017258530
1640783793.595920,-0.093054010,0.508303170,10.094216350,-0.002385680,0.002022090,0.031366940
1640783793.597380,-0.131213430,0.370478480,10.187429430,0.022481380,0.028488040,-0.001521410
1640783793.602200,0.121322230,0.419542010,9.359239580,0.015109780,0.011964140,-0.003078580
1640783793.602780,0.003446930,0.574732780,9.851253510,0.000289080,0.025072690,0.020314750
1640783793.605700,-0.214633390,0.218385590,9.950180050,-0.041699420,0.040875390,0.011749570
1640783793.607220,0.016548020,0.176670060,9.425946240,0.005179640,-0.019115210,0.023289020
1640783793.610470,-0.037910010,0.320677940,9.574436190,0.042249260,0.027798120,0.010339920
1640783793.611290,0.067296240,0.180768830,9.519248010,-0.011250380,0.104904170,0.003696980
1640783793.615440,0.139960480,0.270192150,10.128870960,-0.006161630,0.063000620,0.018706920
1640783793.616250,-0.152839630,0.143544120,10.237123490,0.029404460,-0.017081200,0.007039310
1640783793.620590,0.070452970,0.048333870,9.302584650,0.040364270,-0.018905110,0.014105440
1640783793.621450,-0.050585520,0.204882000,9.391391750,0.038425630,0.080074370,0.006686150
1640783793.626860,-0.324221520,0.070877470,9.955760960,0.022816660,0.064823030,-0.022195280
1640783793.627620,-0.145557080,0.319788550,9.869263650,0.031709670,0.001454350,-0.010496380
1640783793.630490,-0.129647460,0.534261880,9.534950260,0.023067000,0.049306460,-0.018067660
1640783793.631270,-0.303238990,0.532275500,10.053256990,0.016210980,0.029684600,-0.026407840
1640783793.635910,-0.236397160,0.715527590,10.024191860,0.040593750,0.015865270,0.009472670
1640783793.636550,-0.207943980,0.638637660,9.598337170,0.028879940,0.006042420,0.004164880
1640783793.640580,-0.156382920,0.437084320,9.928226470,0.034780800,0.026609010,0.011482830
1640783793.641230,-0.157646400,0.627288640,9.874350550,0.014604630,0.062300260,0.016522400
1640783793.645540,-0.079108600,0.531556900,9.890558240,-0.028641530,-0.027242310,0.007921460
1640783793.646260,0.038404840,0.252360910,9.903207780,-0.012710690,0.018586220,0.004383920
1640783793.650470,0.215051790,0.375346060,9.209447860,0.030121210,0.052060190,-0.014013050
1640783793.651220,0.124058930,0.406114400,9.894913670,0.033563380,0.032609700,0.011585660
1640783793.655560,-0.098666790,0.271271970,10.284704210,-0.022462010,0.062060360,0.019058590
1640783793.656280,-0.115169700,0.210991590,9.656785010,-0.013495980,-0.048780440,0.024284420
1640783793.660550,-0.269417200,0.095215850,9.722667690,0.037808720,-0.040170550,0.012241300
1640783793.661290,-0.163862760,0.116647260,9.088871000,0.018759070,0.112628940,-0.005126000
1640783793.665500,-0.190977990,0.270532550,9.913936610,0.021569430,0.063146660,-0.010704990
1640783793.666270,-0.317473950,0.304359700,10.465659140,0.022417310,0.007058680,-0.002387170
1640783793.670380,0.103080210,0.294284280,9.190146450,0.008136030,-0.030906500,0.015036760
1640783793.671240,0.015874420,0.280578490,9.614571570,0.041247910,0.032487510,0.011031330
1640783793.675490,-0.216293200,0.057008780,10.178526880,0.059361750,0.077703590,-0.010420380
1640783793.676340,-0.015798810,0.247896180,9.664831160,0.073531270,-0.028951470,0.000357630
1640783793.680500,-0.166560260,0.473792580,9.780493740,0.029677150,-0.006434320,-0.007912520
1640783793.681270,-0.025825500,0.396782250,9.571857450,-0.035595890,0.076088290,-0.007967650
1640783793.685480,-0.122180480,0.531418620,10.112498280,0.033010550,0.018033390,0.004518030
1640783793.686250,-0.311681810,0.460977260,10.286073680,0.075247880,-0.017185510,-0.019045180
1640783793.690780,-0.118708660,0.429523680,9.467633250,0.066266950,-0.004555290,-0.000549850
1640783793.691590,-0.304795710,0.700620470,9.721701620,0.027437510,0.008393830,0.013585390
1640783793.696050,-0.357829930,0.577852130,10.123429300,-0.056144600,0.013507900,0.005976860
1640783793.697150,0.031048720,0.431090500,9.617757800,-0.021760170,0.003992020,0.017762180
1640783793.701050,0.055656160,0.474120110,9.711195950,0.061810020,0.017462670,-0.016708670
1640783793.701600,0.205200940,0.485547240,9.873871800,0.059710440,0.034904480,-0.012017790
1640783793.705460,0.338249420,0.632039900,9.717561720,-0.017464160,0.047343970,0.021876390
1640783793.706280,0.008249330,0.299003330,10.253662110,-0.063137710,-0.000451510,0.008475780
1640783793.710440,0.070475720,0.010653590,9.687529560,0.013735890,-0.043511390,0.014889240
1640783793.712110,0.156299200,0.239533900,8.913522720,0.057764360,0.041486320,-0.002436340
1640783793.715860,-0.090860140,0.143594120,9.812722210,0.017493970,0.111123920,-0.024034080
1640783793.716500,-0.249285490,0.148715900,10.247292520,0.005123020,0.051370270,-0.006054340
1640783793.720360,-0.187928470,0.346759020,9.607238770,-0.010237100,-0.035557150,-0.003060700
1640783793.721280,-0.297116970,0.222658780,9.753814700,0.007390980,-0.002814830,0.005677340
1640783793.725630,-0.284706320,0.189863410,9.630854610,0.040400030,0.080750890,0.005032120
1640783793.726980,-0.294851510,0.283989790,9.812553410,0.072468820,0.009538230,-0.013594330
1640783793.730520,-0.150317030,0.359166150,9.835905080,0.043381750,0.007002060,-0.014130770
1640783793.731620,0.115300680,0.555445370,9.349922180,-0.022254880,0.070153180,-0.011335310
1640783793.735470,-0.039565740,0.535615090,10.179178240,-0.003153090,-0.001667440,-0.014016030
1640783793.736250,-0.111003100,0.429048000,10.165184970,0.040341920,-0.003378090,-0.014649330
1640783793.740530,0.019603890,0.505397440,9.390546800,0.060574720,-0.000211600,-0.003997980
1640783793.741250,-0.296247840,0.431415530,10.080846790,0.053624810,0.006471570,-0.009836260
1640783793.748210,-0.377795160,0.487673760,10.066040040,-0.026689480,0.019873680,-0.007815660
1640783793.749320,-0.179806560,0.466648310,9.560147290,-0.039802500,-0.036159160,0.002415480
1640783793.750410,-0.254196760,0.237744580,9.925268170,0.014582280,0.016689300,-0.016704200
1640783793.751260,-0.012240670,0.474516690,9.630562780,0.043261050,0.051480540,-0.013552610
1640783793.755370,0.051006410,0.643897710,9.940544130,0.020682810,0.008443000,0.006137790
1640783793.756590,-0.060085720,0.434815050,10.262703900,-0.050011280,0.007577240,0.004956130
1640783793.763160,0.160514790,0.443615290,9.431715010,-0.025182960,-0.038400300,0.016115600
1640783793.765030,0.165421900,0.425749360,9.346504210,0.024424500,-0.006374720,0.012314320
1640783793.765960,0.158484070,0.301666350,9.611301420,-0.001831350,0.095914310,-0.008924310
1640783793.766420,0.174144630,0.397018430,9.838903430,0.009861590,0.063376130,0.000935790
1640783793.770450,-0.017166350,0.312271030,10.048702240,-0.002750750,-0.020481650,-0.002746280
1640783793.771260,-0.076136280,0.203404860,9.556142810,-0.014820690,-0.017775600,0.002425910
1640783793.776100,-0.178092630,0.164034710,9.461573600,0.011676550,0.035300850,0.001552700
1640783793.776820,-0.439034820,-0.032565720,9.932240490,0.033995510,0.026677550,-0.023058050
1640783793.780630,-0.248718130,0.172770130,9.537218090,0.049205130,0.026178360,-0.017416480
1640783793.781490,-0.028148760,0.352686290,9.545206070,0.002525750,0.067289170,-0.014764070
1640783793.785450,-0.290074050,0.266213890,10.508686070,-0.009651480,0.032956900,-0.009711090
1640783793.786300,-0.106536720,0.256021080,9.778234480,0.044828650,-0.052486370,0.007875260
1640783793.790540,-0.000527290,0.284528550,9.226780890,0.066399570,-0.025637450,-0.005726520
1640783793.791250,-0.106738470,0.258677600,9.793579100,0.059142710,0.080244250,-0.001120570
1640783793.800160,-0.113071200,0.419252370,10.149828910,0.028666860,0.049459940,-0.003650790
1640783793.800830,-0.176814940,0.533969400,10.209068300,-0.011786820,-0.062216820,-0.018009550
1640783793.801260,-0.053704330,0.455049160,9.626521110,0.016115610,-0.014615060,-0.021496420
1640783793.801590,0.028359890,0.652596060,9.337913510,0.038349630,0.048670170,-0.019660590
1640783793.805400,-0.236169290,0.714984060,10.170682910,0.039890400,0.036650890,-0.007617470
1640783793.806450,-0.230759200,0.535001810,10.217621800,-0.000739100,-0.003664200,0.005902350
1640783793.810560,-0.068758460,0.574831900,9.505579950,-0.017704070,-0.051718950,0.012627240
1640783793.811540,-0.145608800,0.376789960,9.722946170,0.007408860,-0.000047680,0.010791420
1640783793.815530,0.136933510,0.283788620,9.632263180,-0.010149180,0.092504910,0.002977250
1640783793.816250,0.097577200,0.326038900,9.932467460,0.021140270,0.034244360,-0.004406270
1640783793.820480,0.066282350,0.186461640,10.052189830,0.021018090,-0.024576490,-0.016459820
1640783793.821240,0.345728070,0.335263310,9.221406940,-0.022654240,0.028440360,-0.003241000
1640783793.831500,-0.089711250,0.266041190,9.820063590,-0.019241870,0.027129060,-0.011725720
1640783793.832200,-0.266303270,-0.074718290,10.125358580,0.018408890,0.011856850,-0.034290550
1640783793.832580,-0.102265880,0.243191560,9.084784510,0.064523530,-0.009241700,-0.025382640
1640783793.832920,-0.243955110,0.245389510,9.614120480,0.029902170,0.050543260,-0.020071860
1640783793.835360,-0.239835840,0.169007380,10.138491630,-0.027161830,0.103996690,-0.007641320
1640783793.836290,-0.304388020,0.334135350,10.052724840,0.036619600,-0.050501520,0.001603360
1640783793.840650,-0.225852550,0.011045820,9.738998410,0.069426010,-0.064456460,-0.014856460
1640783793.841610,0.041960030,0.081405240,9.087932590,0.074329990,0.081297770,-0.011442600
1640783793.845960,-0.170310170,0.295542870,9.990639690,0.073494010,0.065781180,-0.029583270
1640783793.847280,-0.205686810,0.361541660,10.491888050,-0.003342330,-0.003445150,-0.030878180
1640783793.850370,0.100170820,0.681023180,9.327988620,-0.006341930,-0.051026050,-0.013163690
1640783793.851280,-0.064539790,0.666602430,9.819661140,0.029323990,0.000819560,-0.016479190
1640783793.855420,-0.177166750,0.724321900,10.007220270,0.049324330,0.067096940,-0.013232230
1640783793.856960,-0.280391370,0.836969730,9.871262550,0.046354540,-0.035569080,0.002467630
1640783793.860650,-0.292571370,0.660260920,10.035492900,-0.014464560,-0.041939320,-0.013938550
1640783793.861530,-0.117724280,0.649883150,9.384621620,-0.043483080,0.032615670,0.009255110
1640783793.865490,-0.118091260,0.571680610,9.897807120,-0.042127080,0.012137000,-0.000165400
1640783793.866290,-0.027803920,0.392664370,10.129899020,-0.021091110,0.033470980,-0.021316110
1640783793.870380,0.152156290,0.469234410,9.536439900,0.010508300,-0.013482570,-0.006815790
1640783793.871350,0.104767250,0.471352960,9.877079010,-0.032122440,-0.010615590,0.000263750
1640783793.876160,-0.126970400,0.277832750,10.037922860,-0.069986290,0.022010510,0.004880130
1640783793.877150,0.013022620,0.198851230,9.536242490,-0.038558250,-0.046917790,0.014017520
1640783793.880480,0.066823940,0.275031210,9.601800920,-0.013816360,0.011642280,-0.007933380
1640783793.881280,0.143129330,0.242135810,9.498190880,-0.023628770,0.111258040,0.003471970
1640783793.885460,0.063085160,0.212363290,10.219696040,-0.022234020,0.055342920,0.001768770
1640783793.886280,-0.306323020,0.132030920,10.283793450,0.010652840,-0.060251360,-0.006496910
1640783793.892270,-0.182002740,0.039602260,9.005028720,0.005769730,-0.079675020,0.004762410
1640783793.893250,-0.171486970,0.037618630,9.194700240,-0.014433270,0.063404450,-0.013670330
1640783793.898380,-0.539942740,-0.027824640,10.207451820,0.017669800,0.102016340,-0.034745040
1640783793.899120,-0.185387340,0.171842630,10.050390240,0.031407180,-0.026805700,-0.025489930
1640783793.900480,-0.007680300,0.438849360,9.751854900,0.022915010,-0.017684700,-0.010192390
1640783793.901270,-0.062909810,0.266900810,9.722289090,-0.000061090,0.021474060,-0.008469820
1640783793.905540,-0.049908250,0.230431840,9.934173580,0.042903430,0.004203620,0.013479590
1640783793.906280,-0.234750170,0.303966490,9.728667260,0.088252130,-0.036944450,-0.010165570
1640783793.912160,-0.078573040,0.301321860,9.543856620,0.041221070,-0.017452240,-0.017675760
1640783793.912810,-0.106541790,0.576376200,9.830772400,0.003920490,0.048047300,-0.006757680
1640783793.915350,-0.415202320,0.436995600,10.339489940,-0.008389350,-0.028084220,-0.028300290
1640783793.916270,-0.157787740,0.439524830,10.011948590,0.027589500,-0.049217050,-0.027519460
1640783793.920380,-0.202845360,0.677026690,9.531443600,0.064022840,-0.012737510,-0.020194050
1640783793.921260,-0.335805920,0.533499480,9.971107480,0.020131470,-0.026546420,-0.012984870
1640783793.925940,-0.214948640,0.589465080,9.938721660,-0.028848650,0.004415210,0.012145940
1640783793.926870,-0.216106040,0.474619780,9.662137990,-0.012661520,-0.056697430,0.003242490
1640783793.930950,0.025160290,0.363586780,9.752895360,0.014621020,-0.058694180,0.007200240
1640783793.931410,0.280081720,0.511605620,9.333751680,0.013895330,0.049586590,0.018821650
1640783793.935350,0.188817870,0.264515130,9.976572990,0.000464920,0.015331810,-0.004148480
1640783793.936280,0.130460990,0.261263880,10.402306560,-0.002795460,-0.031337150,-0.000043210
1640783793.940570,0.165284400,0.445424020,9.296354290,-0.017610190,-0.053232900,0.008325280
1640783793.942230,-0.012339630,0.222506750,9.681506160,-0.031657520,-0.047507890,-0.001740460
1640783793.946130,-0.152022440,0.207021800,9.588548660,0.002855060,0.066085170,-0.015623870
1640783793.946830,-0.117339980,0.367599310,9.327972410,0.029695040,-0.012657050,-0.025326010
1640783793.951530,-0.241999420,0.291933630,10.197456360,-0.000050660,-0.002050400,-0.004419680
1640783793.952320,-0.223718720,0.197609690,9.707401280,-0.015111270,0.026699900,-0.000789760
1640783793.955710,-0.278017520,0.126798380,9.897206310,0.023111700,-0.084990260,0.011055170
1640783793.956570,-0.312642480,0.047297480,9.831517220,0.045827030,0.001147390,0.001722570
1640783793.960570,-0.024647760,0.135381860,9.215322490,0.038391340,0.033827120,-0.008127090
1640783793.962570,-0.129095580,0.425297620,10.334090230,0.031252210,-0.002892320,-0.006626550
1640783793.965540,-0.067672390,0.537195620,10.020247460,-0.001569090,-0.009033080,0.002180040
1640783793.966330,0.235731240,0.598549660,9.426242830,0.002346930,-0.064077980,0.003170970
1640783793.970480,-0.061994860,0.682080510,10.063849450,0.035066900,0.007142130,0.003977120
1640783793.971390,-0.097305290,0.625410440,9.862936020,0.029741230,0.027529890,0.010560450
1640783793.975630,-0.139180080,0.788728540,10.018499370,0.006586310,-0.059458610,0.016956030
1640783793.976420,-0.288744750,0.742624100,9.929699900,-0.044815240,-0.026497240,0.010629000
1640783793.980400,0.016501890,0.486824180,9.299905780,-0.054681300,0.010776520,0.022463500
1640783793.981260,-0.058554210,0.473110470,9.851202010,0.004734100,0.022135680,0.008550290
1640783793.985400,-0.167868580,0.146429370,10.062791820,0.026141110,0.015681980,-0.007948280
1640783793.986370,0.080827640,0.288733240,9.555743220,0.004994870,-0.053744020,0.018356740
1640783793.990670,-0.081118160,0.392724720,9.712998390,-0.058364870,-0.030587610,0.030425190
1640783793.991410,0.070841480,-0.032222160,9.619060520,-0.089240070,0.027354060,0.031451880
1640783793.995560,0.177530540,0.114664700,9.599493980,0.018237530,0.036729870,0.011855360
1640783793.997850,0.031784540,0.341094850,9.871384620,0.067619980,0.009362400,-0.018748640
1640783794.000500,0.215872620,0.424671320,9.660235400,0.002603230,0.022847950,0.016795100
1640783794.001330,-0.071665300,0.535606500,9.815217020,-0.060594080,0.019136070,0.010389090
1640783794.005440,-0.259651930,0.169519630,9.888860700,-0.043086720,-0.059799860,-0.005622210
1640783794.006330,-0.150380370,0.205930230,9.203453060,0.050023200,-0.006218260,0.004129110
1640783794.012090,-0.284061790,0.414664890,9.377555850,0.052054230,0.068382930,-0.021253530
1640783794.012570,-0.403080050,0.308348480,10.425554280,-0.012002890,0.040119890,-0.001363460
1640783794.015480,-0.251074110,0.398943990,9.910417560,-0.036308170,-0.038775800,0.015354160
1640783794.016290,-0.088333270,0.195707140,9.486417770,-0.007507210,-0.061063470,0.002090630
1640783794.020480,-0.137443930,0.117927450,9.810050960,0.046674910,0.039865080,0.015544890
1640783794.021320,-0.131155040,0.393555130,9.735454560,0.054216390,0.031286480,0.003577770
1640783794.025580,-0.163587360,0.427440640,10.175223350,-0.012116130,-0.056542460,-0.009590390
1640783794.027300,-0.024773070,0.630922440,9.723222730,-0.056114790,-0.014482440,0.006438790
1640783794.031030,0.049079900,0.724630180,9.413437840,-0.036275390,-0.009366870,0.000847880
1640783794.031630,-0.040251850,0.746228930,10.171411510,0.001063940,0.004568700,-0.005267560
1640783794.035730,0.035517910,0.826486230,9.723494530,-0.006268920,0.034157930,0.003530090
1640783794.036610,-0.027702210,0.632225750,9.878068920,-0.012589990,-0.052739680,0.003135200
1640783794.040820,-0.209521620,0.529822050,9.983191490,-0.047796960,-0.033493340,0.017379220
1640783794.041440,-0.022901120,0.365120650,9.077915190,-0.093290220,-0.006119910,0.029483440
1640783794.045480,-0.088032480,-0.030706540,9.731326100,-0.034259260,-0.003097950,0.003528590
1640783794.046360,-0.083169400,-0.026012690,9.732704160,0.016674400,0.039096180,-0.007912520
1640783794.050570,0.119140350,0.191780420,9.537184720,-0.013722480,0.001920760,0.013874470
1640783794.051440,-0.136920880,0.129817840,10.362603190,-0.059817740,-0.015349690,0.014133750
1640783794.055400,-0.143541560,0.033436970,9.653606410,-0.061112630,-0.039432950,0.003954770
1640783794.056420,-0.045537400,0.160833310,9.179220200,0.023257730,-0.058895350,-0.009770690
1640783794.060500,-0.182484030,0.320685650,9.474569320,0.026197730,0.060202190,-0.026059150
1640783794.061860,-0.136822700,0.438220860,9.795646670,-0.018280740,0.043810910,-0.011077520
1640783794.065490,-0.174748080,0.509708580,10.235500340,-0.012478230,-0.071452560,0.006482010
1640783794.066310,-0.089054750,0.305776720,9.598353390,-0.028440360,-0.045956670,0.008408730
1640783794.070390,0.007875120,0.183423300,9.465059280,0.022007530,0.026652220,0.013448300
1640783794.071280,-0.421480570,0.222040100,10.317959790,0.066483030,0.002513830,-0.008879600
1640783794.075530,-0.357633800,0.291584370,9.893812180,0.006102030,-0.085902230,-0.003862380
1640783794.077640,0.013426220,0.541172560,9.139637950,-0.048337870,-0.061009830,0.002944470
1640783794.080400,-0.141675700,0.478776690,9.717647550,-0.060057650,0.037404890,-0.013822320
1640783794.081290,-0.002029820,0.533748390,10.047872540,0.003825130,0.013443830,0.000494720
1640783794.085380,0.040761610,0.704793510,10.016067500,0.039917230,-0.057721140,-0.002798440
1640783794.086300,-0.114990520,0.477635500,9.864023210,-0.004856290,-0.070983170,0.000575180
1640783794.090730,0.021731330,0.492075980,9.361282350,-0.038993350,-0.045150520,0.027266140
1640783794.091480,-0.030107530,0.435738270,9.435273170,-0.082491340,0.007641320,0.016567110
1640783794.095420,0.027777180,0.054863140,9.912468910,-0.041975080,0.029034910,-0.002017620
1640783794.096340,0.115641650,0.135599640,9.756062510,0.056655700,-0.001333650,-0.000149010
1640783794.101000,-0.002437310,0.310960050,9.637081150,0.023120640,-0.061257190,-0.011667610
1640783794.101950,-0.157510030,0.144425850,9.815834050,-0.070247050,-0.022448600,0.012828410
1640783794.105480,-0.259104850,0.007168320,9.475430490,-0.064785790,-0.028781600,0.010310120
1640783794.106290,-0.304605010,-0.016667190,9.545324330,0.033001610,-0.065347560,-0.018864870
1640783794.110570,-0.056353340,0.141409310,9.428921700,0.051583360,0.057239840,-0.019492210
1640783794.111300,-0.105971170,0.394127580,9.879075050,0.007319450,0.044745210,-0.015757980
1640783794.116000,-0.279639780,0.368799900,10.488073350,-0.016437470,-0.105856360,-0.002816320
1640783794.116820,0.014863860,0.298687130,9.170990940,-0.019632280,-0.083857790,0.017350920
1640783794.120370,-0.015053620,0.237351660,8.999311450,0.031790140,-0.017829240,0.001248720
1640783794.121250,-0.322672070,0.135635410,10.261491780,0.085128850,0.033861400,-0.011450050
1640783794.125640,-0.192452800,0.417760580,9.907407760,0.039145350,-0.050082800,-0.013358890
1640783794.126540,-0.168365270,0.612001720,9.761440280,-0.024807460,-0.105541950,-0.008241830
1640783794.130580,-0.143811520,0.492192720,9.727483750,-0.060471890,-0.006277860,-0.000889600
1640783794.131490,-0.049577060,0.663068350,9.518281940,0.005353990,-0.013738870,0.001795590
1640783794.135440,-0.264329520,0.592193960,10.269530300,0.065878030,-0.067119310,-0.000971560
1640783794.136310,-0.052760580,0.533225000,9.622548100,0.019370020,-0.043073300,0.006259980
1640783794.140470,-0.008764280,0.719765720,9.424858090,-0.024655460,-0.074072170,0.029090050
1640783794.142120,-0.183048280,0.399798990,10.101302150,-0.092473630,-0.034549830,0.025068230
1640783794.145690,0.214732020,0.163102390,9.434896470,-0.059784940,-0.002276900,0.015281140
1640783794.146350,0.117052990,0.223428310,9.823261260,0.072173770,-0.049886110,-0.014004110
1640783794.150450,0.069753510,0.245310780,9.790051460,0.032916670,-0.014670190,-0.005301830
1640783794.151330,0.075950840,0.380217670,9.355181690,-0.057868650,-0.042921300,0.031425060
1640783794.155380,-0.274394210,0.103835520,10.008741380,-0.079065560,-0.076770790,0.022745130
1640783794.156290,-0.224007170,-0.086175030,9.396892550,-0.016012790,-0.058443860,0.014215710
1640783794.160510,-0.090863890,0.199189070,9.044154170,0.082549460,-0.028219820,0.006242100
1640783794.161450,-0.283956110,0.266527830,10.118005750,0.032044950,0.049000980,-0.008767840
1640783794.165610,-0.291767540,0.405294450,10.246865270,-0.042854260,-0.052663690,0.018773970
1640783794.166320,-0.163609680,0.300983940,9.660079000,-0.017538660,-0.163038050,0.025829670
1640783794.170410,-0.166718130,0.011054480,9.306241040,0.032600760,-0.047732890,0.005468730
1640783794.171250,-0.090592850,0.268559580,9.354059220,0.093145680,0.021681190,0.009866060
1640783794.175510,-0.222924070,0.420507880,10.326096530,0.040945410,-0.049896540,-0.008860230
1640783794.176400,-0.047137260,0.445220800,9.920889850,-0.038300450,-0.090704860,0.001323220
1640783794.180870,0.188006740,0.561571300,9.370534900,-0.025197870,-0.065258150,0.011934340
1640783794.181620,-0.038471040,0.552644670,10.089905740,0.025831160,-0.019757450,0.004386900
1640783794.185340,-0.223577740,0.594273750,10.021020890,0.057783730,-0.060270730,0.018277770
1640783794.186430,-0.117589990,0.668947820,9.606477740,0.016580520,-0.107948490,0.020387770
1640783794.190400,-0.221379130,0.492854980,9.718042370,-0.035057960,-0.050486630,0.024005770
1640783794.191440,-0.113025950,0.374217000,9.587493900,-0.037129220,-0.034178800,0.031496590
1640783794.195740,0.143969800,0.346732290,9.763538360,-0.028255580,-0.034694380,0.020930170
1640783794.197200,0.017051070,0.159122210,10.013240810,0.025075670,-0.033421810,0.004921850
1640783794.200610,0.241441940,0.242434020,9.507484440,0.036442280,-0.078888240,0.016272070
1640783794.201310,0.186599580,0.364932600,9.570900920,-0.034098330,-0.032667820,0.033104420
1640783794.205450,-0.097812410,0.079063870,9.892118450,-0.058877470,-0.027714670,0.024308270
1640783794.206370,0.049845960,0.006669270,9.587161060,0.006535650,-0.063841050,0.017616150
1640783794.210620,-0.055824030,0.229963330,9.240829470,0.074194380,-0.038647650,-0.005346540
1640783794.211640,-0.120829090,0.294860040,9.620768550,0.009499490,0.013551120,-0.000593070
1640783794.215490,-0.227569010,0.464382950,10.144898410,-0.044704970,-0.008618830,0.018377600
1640783794.216320,-0.453231660,0.276796580,10.071391110,-0.009389220,-0.131349250,0.012721120
1640783794.220370,-0.172297550,0.129427400,9.423793790,0.037574760,-0.086696430,0.010928510
1640783794.221280,-0.186806740,0.297031610,9.354517940,0.069737440,0.034299490,0.012950600
1640783794.225770,-0.448008720,0.247768970,10.463261600,0.033298130,-0.029583280,-0.002105530
1640783794.226680,-0.083431010,0.423339930,9.937713620,-0.029610100,-0.097940850,0.030188260
1640783794.230730,0.158494790,0.354471060,9.058949470,-0.013229250,-0.083154450,0.020572540
1640783794.233190,0.094918550,0.214617240,9.869376180,0.039808450,-0.000169870,-0.000149010
1640783794.235360,0.084354660,0.620444890,9.966811180,0.067007540,-0.000695880,0.020989780
1640783794.236330,-0.145179840,0.564516190,10.126710890,0.011521580,-0.130982700,0.019103290
1640783794.240480,-0.039588450,0.454033490,9.757643700,-0.040602690,-0.091880550,0.021639470
1640783794.241970,0.060758110,0.603271070,9.008437160,-0.014083090,-0.024765730,0.027437510
1640783794.245540,-0.089500780,0.526233380,9.995196340,-0.006324050,-0.003917520,0.021912160
1640783794.248490,0.040520440,0.357428340,10.019297600,0.002114470,0.026400390,0.020995740
1640783794.250400,0.058889170,0.327015460,9.554539680,0.044025480,-0.091837330,0.014078620
1640783794.251330,-0.046756600,0.257135240,9.829643250,0.002330540,-0.090160950,0.026199220
1640783794.255390,0.068309670,0.009897400,9.190887450,-0.043930110,0.027422610,0.039762260
1640783794.256420,-0.054174830,-0.170677650,9.896815300,0.008668010,-0.026059150,0.002780560
1640783794.260680,-0.115514670,-0.055029020,10.077385900,0.070655350,-0.042440000,-0.020127000
1640783794.261660,0.232912530,0.161632970,8.960446360,0.050134960,-0.010640920,-0.011178850
1640783794.265650,-0.020915420,0.422636090,10.067174910,-0.003866850,-0.008530920,-0.011546910
1640783794.267240,-0.251281440,0.363773880,10.091675760,-0.008399780,-0.027769810,0.015933810
1640783794.270390,-0.011705440,0.226423980,9.168081280,0.057604920,-0.101897120,0.024500490
1640783794.271290,-0.149681930,0.364342750,9.707537650,0.095702710,0.012822450,-0.001673400
1640783794.275630,-0.311945230,0.411265430,10.043165210,0.065481660,0.047430400,0.000387430
1640783794.276870,-0.159345540,0.557493930,10.083504680,0.004528460,-0.094684960,0.011986490
1640783794.280790,-0.099701760,0.524039690,9.749695780,-0.018709900,-0.059160590,-0.005032120
1640783794.281510,0.125334500,0.263622310,9.286226270,0.029198830,0.010493400,0.004640220
1640783794.285390,0.071767170,0.494229700,9.920434950,0.103864080,0.008842350,0.006410480
1640783794.286290,-0.180112970,0.428125530,10.238025670,0.055597730,-0.035288930,-0.002668800
1640783794.290480,0.106099760,0.415362330,9.634152410,-0.021323560,-0.071340810,0.036183000
1640783794.291790,-0.073780020,0.469023590,9.676896100,-0.023180250,-0.036793950,0.037744650
1640783794.296200,-0.050335060,0.236016540,9.671926500,-0.012198090,0.012847780,0.023199620
1640783794.298640,0.213786080,0.308432730,9.583131790,0.059701510,0.038637220,0.028321150
1640783794.300410,-0.097945090,0.393801660,9.969713210,0.091519940,-0.007545950,0.005988780
1640783794.301320,0.101222900,0.373705830,9.666114810,0.007888680,-0.064775350,0.036805870
1640783794.305410,0.110060580,0.451091860,9.302218440,-0.062088670,0.008834900,0.045220560
1640783794.306290,-0.091064360,-0.018240570,9.771815300,-0.011664630,0.010968750,0.014388560
1640783794.310790,0.005693380,0.029930460,9.728299140,0.107467170,0.010253490,0.002419950
1640783794.311480,0.005003460,0.411351770,9.302452090,0.096197430,0.008778270,-0.013412540
1640783794.315360,-0.096825470,0.254591700,9.976315500,-0.015459960,0.016453870,0.002171100
1640783794.316300,-0.224477840,0.226076690,10.035374640,-0.036647920,0.001138450,0.027970980
1640783794.320420,-0.226612630,0.054824320,9.439156530,0.041104860,-0.069817900,0.013178590
1640783794.321290,-0.240914520,-0.052010490,9.726302150,0.120094440,-0.010120870,0.001601880
1640783794.325450,-0.252472010,0.316664520,9.472023010,0.108669680,0.072614840,-0.002211330
1640783794.326330,-0.231562140,0.494445770,10.182670590,0.006495420,-0.040097530,0.005167720
1640783794.330600,-0.027456270,0.528891380,10.052178380,-0.043165680,-0.018240510,0.021153690
1640783794.332690,0.264902590,0.509501340,9.241698270,0.030606990,0.002776090,-0.004515050
1640783794.335420,0.063060410,0.685285570,10.177700040,0.112608080,0.000450020,-0.004522500
1640783794.336340,-0.107148710,0.793855070,10.028050420,0.066193940,0.004340710,0.008082390
1640783794.340420,0.083210940,0.653412820,9.400549890,-0.020056960,-0.060346730,0.012905900
1640783794.341280,-0.069531390,0.586054440,9.713506700,-0.048404940,0.000585620,0.028266010
1640783794.345500,0.075204220,0.372697530,9.469530110,-0.020581490,0.068657100,0.031112130
1640783794.346440,0.061716910,0.163863540,10.038174630,0.048747660,0.018988550,0.019380450
1640783794.350430,-0.247337220,0.117729050,10.136983870,0.081299250,-0.016988820,0.009557600
1640783794.351380,-0.012515160,0.109434360,9.169160840,0.007249410,-0.050695240,0.029192870
1640783794.355590,-0.052019590,0.187205020,9.484869000,-0.056770450,0.018538540,0.029322510
1640783794.357060,-0.179649060,-0.070947850,9.886429790,-0.026328860,0.072604420,0.001394750
1640783794.360870,0.157965670,0.217385130,9.672389980,0.076065960,0.010097030,-0.008758900
1640783794.361540,0.060939820,0.631888510,9.729752540,0.071562830,0.022402410,-0.009720030
1640783794.365900,0.035715090,0.426532890,9.790732380,-0.015926360,0.036273900,0.016528370
1640783794.366420,-0.070419620,0.480818570,9.834558490,-0.012418630,-0.020959970,0.040109460
1640783794.370530,-0.331796650,0.235255460,9.587976460,0.018633900,-0.045277180,0.017079710
1640783794.372160,-0.102279480,0.019991910,9.278077130,0.057934230,0.035916260,0.014863910
1640783794.375490,-0.286284360,0.356684240,9.908943180,0.074720380,0.075781350,0.009486080
1640783794.376550,-0.449164570,0.212224440,10.467349050,0.003510710,-0.026933850,0.004969540
1640783794.380460,-0.040154220,0.246692420,9.634267810,-0.020356470,-0.050222870,0.022146100
1640783794.382170,-0.012722240,0.413134040,9.366717340,0.020459290,0.020360940,0.003197790
1640783794.385390,-0.033357260,0.363851700,10.107487680,0.053519010,0.054171670,0.021243090
1640783794.386430,-0.016469640,0.653975370,10.071969030,0.040143740,-0.004146990,0.037699950
1640783794.390420,0.022221830,0.551582750,9.548362730,0.000350180,-0.072781740,0.020408630
1640783794.391340,0.231718230,0.374531660,9.383771900,-0.003990530,0.010697540,0.044371190
1640783794.395590,0.222923860,0.531511430,9.268478390,0.004448000,0.091438000,0.026373570
1640783794.397120,-0.029631540,0.188610840,10.444619180,0.031605370,0.026150050,0.015328820
1640783794.400380,-0.110253860,0.070344900,10.070708270,0.060811650,-0.029075150,0.022616990
1640783794.401360,-0.155479370,0.160187070,9.087584500,0.047227740,-0.073447820,0.014008580
1640783794.405490,-0.237139640,-0.011316480,9.557582860,-0.009553130,0.026279690,0.017166140
1640783794.406320,-0.245116230,-0.074180710,9.447187420,0.003597140,0.118686270,0.012598930
1640783794.410590,-0.243238900,0.064234850,10.040556910,0.088679780,-0.021478530,-0.006273390
1640783794.411420,-0.086480810,0.237298640,9.999913220,0.102879130,-0.008173290,0.016638640
1640783794.415400,0.104539820,0.368739490,9.212662700,0.037649280,0.022140150,0.028631100
1640783794.416360,-0.134823260,0.395897780,10.221020700,0.023370980,-0.008906420,0.025470550
1640783794.420430,-0.161714230,0.398241640,9.876513480,0.039236250,0.022067130,0.019608440
1640783794.421320,0.091234290,0.552336340,9.282970430,0.062865030,-0.014095010,0.003001090
1640783794.425960,-0.053481340,0.776689110,10.107312200,0.057019290,0.039657950,0.004436080
1640783794.427170,-0.063267070,0.750966190,9.808775900,-0.004920360,0.035266580,0.017891820
1640783794.431060,0.092287260,0.565249680,9.707169530,-0.000028310,-0.034819550,0.018830600
1640783794.431900,-0.190695610,0.346472290,9.993663790,0.042289500,0.027073920,0.014269350
1640783794.435660,-0.216699630,0.369548620,9.763648030,0.046907370,0.004728140,0.020644070
1640783794.436360,-0.235102370,0.478845240,9.964985850,0.000649690,-0.033710900,0.032192470
1640783794.440440,-0.181368990,0.191013620,9.658379550,-0.054723030,0.017330050,0.019086900
1640783794.441420,0.234115170,0.179045720,9.344167710,0.000223520,0.053142000,0.030343230
1640783794.445520,0.128094880,0.283682200,9.997768400,0.065685810,0.072368990,0.027152900
1640783794.446360,0.043633000,0.201091350,10.049535750,0.033415860,0.005947050,0.017458200
1640783794.450380,0.145029630,0.340587650,9.626781460,0.006847080,-0.048042840,0.041671100
1640783794.451330,-0.161402330,0.169415300,9.430829050,-0.012831390,-0.007385020,0.013639030
1640783794.455580,-0.144345890,0.071019570,9.487676620,0.002786520,0.048054750,0.000318880
1640783794.456440,-0.246127250,0.324609910,9.937997820,0.063166040,0.078269850,-0.007709860
1640783794.460920,-0.513695720,0.381695960,10.233686450,0.053673990,-0.015194710,-0.006644430
1640783794.461700,-0.186029750,0.460187200,9.588032720,0.004191700,-0.049141050,0.035066900
1640783794.465410,-0.198801320,0.396087680,9.354872700,-0.009080770,0.040405990,0.037373610
1640783794.466330,-0.347626300,0.066648990,10.063298230,0.044250490,0.017482040,0.027927760
1640783794.471990,-0.239636930,0.257286280,10.025709150,0.101393470,-0.017441810,0.020971900
1640783794.472440,-0.116620520,0.533098640,9.487481120,0.034438070,-0.041480370,0.001147390
1640783794.475670,-0.039541880,0.554675040,9.940693860,-0.037445130,0.004589560,0.009059910
1640783794.477110,-0.005364760,0.630903720,9.936562540,-0.028544670,0.044149160,0.022441150
1640783794.480410,-0.037216380,0.546030220,10.031290050,0.028212370,-0.047193470,-0.001904370
1640783794.481350,-0.123192620,0.471002520,10.158367160,0.068137060,-0.033253420,0.015336280
1640783794.485400,-0.090047060,0.597576020,9.190382000,0.031007830,-0.027608880,0.028681760
1640783794.486420,-0.159527260,0.518289510,9.808582310,-0.068663060,-0.045919420,0.045266750
1640783794.490390,0.012029810,0.235917240,9.664729120,-0.081017610,0.070339430,0.044286250
1640783794.491340,0.112079340,0.142219830,9.703084950,0.030860310,0.007753070,0.022645300
1640783794.495540,-0.155949320,0.251011970,10.584821700,0.085507340,-0.020749870,0.018362700
1640783794.498780,-0.109871850,0.292115210,9.560723300,-0.009642540,-0.021612640,0.031776720
1640783794.501340,-0.092089350,0.172154800,9.413864140,-0.053790220,-0.083273650,0.029952820
1640783794.501960,-0.132907110,0.112365580,9.614706040,-0.032469630,0.043582920,0.013642010
1640783794.505440,0.206605910,0.214445500,9.209052090,0.015598540,0.079633300,0.014550980
1640783794.506380,0.033653180,0.343161550,10.520115850,0.062362860,0.028808420,0.015200680
1640783794.510480,-0.136643410,0.297533570,10.180284500,0.030383470,-0.034809120,0.019311900
1640783794.511350,0.027871450,0.220671210,9.103737830,-0.000798700,-0.113436580,0.042238830
1640783794.515530,-0.209645970,0.055590760,9.468366620,-0.006161630,0.034321840,0.023387370
1640783794.516820,-0.335194680,-0.031211840,9.827162740,0.037351250,0.094686470,0.004045670
1640783794.520380,-0.296458070,0.339495000,10.252204900,0.082379580,-0.042979420,0.012557210
1640783794.521330,-0.293855100,0.435634610,9.906485560,0.022168460,-0.044508290,0.001986330
1640783794.525780,-0.043914310,0.406627000,9.340362550,-0.033664700,-0.004604460,0.031411640
1640783794.527030,-0.186186300,0.605167330,10.011137960,0.013683740,0.017601250,0.035579510
1640783794.530540,-0.296679380,0.527038990,10.110428810,0.030305990,-0.033195320,0.007672610
1640783794.533610,0.065470320,0.739829660,9.555665970,0.034357610,-0.057627270,0.032658870
1640783794.535430,-0.060704130,0.797108170,9.747513770,-0.004442040,-0.000038740,0.028046960
1640783794.536360,-0.000510880,0.448408630,9.922090530,-0.050345060,0.004005430,0.031630700
1640783794.540400,0.124591340,0.396309610,9.865601540,-0.014686580,-0.005349520,0.028990210
1640783794.541340,-0.090655150,0.188389720,9.870061870,0.034676500,-0.035654010,-0.000147520
1640783794.545490,-0.007655300,0.167606910,9.691086770,0.022073090,-0.047139820,0.014846030
1640783794.547130,-0.063530840,0.276155830,9.529807090,-0.046920770,0.005057450,0.030237440
1640783794.550500,-0.134027930,-0.064029560,9.810930250,-0.052291170,-0.007101890,0.014221670
1640783794.552320,-0.012144700,0.103973340,9.852772710,0.024855140,0.000372530,0.022913520
1640783794.555530,-0.001566280,0.349389580,9.528326990,0.040492420,0.009503960,0.021892790
1640783794.556480,-0.198122620,0.158807410,10.201090810,0.006310640,-0.029066210,0.017574430
1640783794.560490,-0.269781380,0.185046910,9.795467380,0.009842220,-0.048103920,0.020121040
1640783794.561310,-0.015029770,0.247985360,8.925431250,0.005361440,-0.064350670,-0.004614890
1640783794.565520,-0.086701140,0.223286940,9.842239380,0.019535420,0.068363550,-0.008806590
1640783794.567580,-0.106058130,0.313070680,10.050444600,0.028491030,0.077796000,-0.012613830
1640783794.570330,-0.157491590,0.370228560,10.264327050,0.053942200,-0.130935030,-0.002616640
1640783794.571330,-0.192795930,0.251070470,9.690700530,0.028383730,-0.070822240,0.003314020
1640783794.575400,-0.103314730,0.128214570,9.004961010,0.012023750,0.014258920,0.009694700
1640783794.576530,-0.471155260,0.206176430,10.436722760,0.056475410,-0.006313620,0.007329880
1640783794.580580,-0.420638500,0.358286320,10.153722760,0.036118920,-0.030563770,0.009323650
1640783794.581380,0.110472860,0.487008930,9.299488070,0.010645390,-0.076389300,0.021126860
1640783794.585510,0.002393670,0.641935530,10.057915690,0.013731420,0.027735530,0.017075240
1640783794.586360,0.104750460,0.570187750,9.968024250,0.006306170,0.036528720,0.016455360
1640783794.590370,0.073896240,0.599641860,10.054698940,0.038628280,-0.082303600,0.022432210
1640783794.591350,-0.193848670,0.590944170,9.843729970,0.036491460,-0.084199010,0.003854930
1640783794.596240,0.116291500,0.489008340,8.945125580,-0.024512410,-0.020810960,0.021441280
1640783794.597430,0.032657330,0.565543000,9.729756360,-0.035849220,0.046758360,0.024466220
1640783794.602020,-0.079165150,0.135428860,10.372122760,-0.001631680,0.049468880,0.008849800
1640783794.602630,0.149064420,0.205582250,9.922130580,0.066004690,-0.048658260,0.027488170
1640783794.605510,-0.087699230,0.392440620,9.692067150,0.031140450,-0.056333850,0.027386850
1640783794.606360,-0.123164180,-0.034922250,9.558448790,-0.048591200,-0.006981190,0.035323210
1640783794.610820,-0.078033260,0.047427830,9.444098470,-0.002974270,0.008161370,0.026050210
1640783794.612360,-0.130353150,0.150941830,9.620388980,0.036703050,0.005741420,-0.023126600
1640783794.615620,0.050768060,0.192254630,9.880654340,0.037364660,0.039587920,-0.005850200
1640783794.617140,-0.065846350,0.472695770,10.050729750,0.034652650,0.021582840,0.004039710
1640783794.620360,-0.217478350,0.330585900,10.057967190,0.008025770,-0.096906730,0.002683700
1640783794.621410,-0.119955380,0.271710600,9.276091580,0.016811490,-0.055304170,0.040899210
1640783794.625350,-0.145121860,0.220008970,9.079294200,0.058878970,0.043635070,0.019133090
1640783794.626860,-0.369801100,0.149400400,10.406823160,0.078523170,0.013269490,0.009526310
1640783794.632240,-0.261911750,0.439816030,10.024948120,0.044058270,-0.037837030,0.023898480
1640783794.632830,-0.098151830,0.407136890,9.569387440,-0.004945690,-0.069889420,0.001983340
1640783794.635540,-0.210371150,0.370995790,10.136153220,0.010548530,-0.000457470,0.010477000
1640783794.636400,-0.196462080,0.518544140,9.730482100,0.052839520,0.006733840,0.007440150
1640783794.640360,-0.187768430,0.608249130,10.002795220,0.060376530,-0.087910890,-0.000545380
1640783794.641320,-0.125359880,0.769330380,9.818848610,0.008505580,-0.023263700,0.022611030
1640783794.645490,0.208283050,0.770677800,9.344601630,-0.044216220,-0.003601610,0.027763840
1640783794.646320,0.153067800,0.615155160,10.272116660,-0.039240720,-0.001238290,0.031682850
1640783794.650480,0.011596200,0.310072690,10.143427850,0.032591820,0.008717180,0.020070370
1640783794.651360,0.059712660,0.309447440,9.649333000,0.068460400,-0.099568070,0.016599890
1640783794.655500,-0.180218440,0.486701040,9.682977680,-0.013068320,-0.057633220,0.025923550
1640783794.656470,-0.121623900,0.194618450,9.317764280,-0.106714690,0.023466350,0.031717120
1640783794.664180,-0.040154100,0.136680710,9.844614980,-0.045052170,0.013460220,0.014591220
1640783794.664730,-0.145128030,0.250713880,10.160641670,0.052294140,0.011818110,-0.000736120
1640783794.665350,0.143920660,0.292157320,9.734066960,0.048843030,-0.009249150,0.009131430
1640783794.666450,-0.042455070,0.336264340,9.962387080,-0.007118280,-0.019146500,0.029897690
1640783794.670360,-0.173262950,0.054823150,9.743077280,-0.030116740,-0.046744940,0.011946260
1640783794.671340,0.158137540,0.068330410,9.090229990,0.001023710,-0.008566680,0.014510750
1640783794.675850,-0.089784840,0.176708090,9.729101180,0.043210390,0.070367780,-0.016891960
1640783794.677770,-0.197281550,0.109073010,10.385086060,0.055752690,0.013779100,-0.029437240
1640783794.680370,-0.009008050,0.399659990,9.827081680,0.044579820,-0.066682700,0.017012660
1640783794.681320,-0.159074440,0.316270770,9.600049020,0.009921190,-0.034464890,0.007273260
1640783794.685390,-0.140633820,0.182114790,9.888388630,0.013889370,0.046047570,0.020195540
1640783794.686420,-0.289045010,0.494178560,10.015394210,0.079798700,0.002653900,0.026325880
1640783794.690590,-0.287689210,0.491043240,10.067062380,0.055783990,-0.076742480,-0.001358990
1640783794.692320,0.058571730,0.642545820,9.485685350,0.014548010,0.001154840,0.023381410
1640783794.695420,-0.002883490,0.795232060,9.655186650,-0.004500150,0.030635300,0.015871230
1640783794.696470,-0.081862600,0.559855700,10.503098490,-0.014755130,0.000143050,0.005812940
1640783794.700480,0.055396430,0.586553690,9.809197430,0.025704510,-0.022383030,0.015819070
1640783794.701490,-0.069176340,0.495676700,9.731322290,0.068499150,-0.077678270,0.005216900
1640783794.705560,0.049429480,0.509530600,9.606744770,-0.013533240,0.016497080,0.020411610
1640783794.706470,0.206706840,0.404889730,9.265439030,-0.064474350,0.054968900,0.036866960
1640783794.710420,0.143419040,0.049997840,10.280291560,-0.015801190,0.024698680,0.010317560
1640783794.711350,0.136375530,0.166178630,9.933242800,0.049704310,0.018990040,0.016343590
1640783794.715360,-0.007578530,0.194001200,9.548857690,0.044922530,-0.039093200,0.024171170
1640783794.716440,-0.274513510,0.047698540,10.014136310,-0.015348200,-0.016692280,0.008264180
1640783794.720410,-0.316712920,0.041287320,9.326451300,-0.007140640,0.000947710,0.005991760
1640783794.721420,-0.081494910,0.177730160,9.302168850,0.024220350,0.004065040,-0.009623170
1640783794.725390,-0.068467070,0.368678930,10.067172050,0.028577450,0.109317910,-0.021207330
1640783794.726450,-0.131492850,0.524321080,10.176712040,0.031831860,0.017398600,-0.007171930
1640783794.730400,-0.022830730,0.562116380,10.025720600,0.021944940,-0.093004110,0.019298500
1640783794.731680,-0.150826590,0.369407740,9.473210330,0.012193620,-0.014933940,0.013963880
1640783794.735550,-0.147312340,0.264223130,9.518924710,0.029020010,0.035680830,0.023008880
1640783794.736470,-0.253599520,0.432853130,10.157407760,0.043238710,0.018651790,0.013929610
1640783794.740420,-0.218527790,0.472120370,10.090437890,0.010846560,-0.018347800,-0.002664330
1640783794.741350,0.196600750,0.543493090,9.561607360,-0.021468100,0.006321070,0.010895730
1640783794.745710,-0.044868260,0.616173920,9.898987770,0.007857380,0.025887790,0.010989600
1640783794.746360,-0.108577450,0.526380000,10.011995320,0.024186070,-0.005012750,0.007593630
1640783794.750470,0.104262190,0.615816950,9.506370540,0.000208620,-0.015558300,0.020352010
1640783794.751340,-0.142559170,0.535683630,9.809882160,-0.001293420,-0.014416870,0.018768010
1640783794.755650,-0.008402090,0.366344360,9.833990100,-0.044298180,0.027389820,0.028187040
1640783794.757210,0.152746420,0.368863400,9.586387630,-0.022520130,0.039014220,0.022386010
1640783794.760540,-0.061988270,0.141845610,10.140471460,0.015994910,0.012050570,-0.010989610
1640783794.761360,0.119584520,0.218891430,9.693511960,0.023491680,0.031280510,0.012375410
1640783794.765420,-0.057537340,0.203994500,9.476550100,-0.000229480,-0.014346840,0.021161140
1640783794.766390,-0.195977840,-0.064489140,9.922805790,-0.017265980,-0.011654200,0.004582110
1640783794.770390,-0.052667470,0.082235840,9.223655700,0.016741460,0.039371850,0.005282460
1640783794.771470,-0.199514750,0.267460260,9.710279460,0.048023450,0.012868640,-0.014366210
1640783794.775360,-0.118309940,0.243513380,10.150760650,0.004202130,0.073230270,-0.022836040
1640783794.776440,-0.080964840,0.486820430,9.745298390,0.031806530,-0.006841120,-0.002989170
1640783794.780400,-0.247267720,0.515758340,9.973488810,0.028251110,-0.074312100,0.006933510
1640783794.781410,-0.065122780,0.457982660,9.383820530,0.000351670,0.040724880,0.012999770
1640783794.785590,-0.135722250,0.504264830,9.638123510,0.031040610,0.048629940,0.019752980
1640783794.786440,-0.336038170,0.422794280,10.572091100,0.030596550,0.014524160,0.003151600
1640783794.790410,-0.089627570,0.532567680,9.685487750,0.018432740,-0.034470860,0.004276630
1640783794.791310,0.050344280,0.679896240,9.495615960,-0.023163860,-0.028891870,0.004556780
1640783794.795790,0.078683980,0.614072920,9.863660810,-0.056014970,0.093895200,-0.002193450
1640783794.796450,-0.029335280,0.542572620,10.155437470,-0.000347200,0.033533570,0.005242230
1640783794.800470,0.023758380,0.645216820,10.018755910,0.030094380,-0.062760700,0.004671510
1640783794.801440,0.006782370,0.604221400,9.430006030,-0.002382700,-0.013819340,0.016705700
1640783794.805590,0.063516720,0.585211520,9.383741380,-0.074598200,0.042347610,0.044780970
1640783794.807300,0.091573050,0.351630840,9.981436730,-0.087240350,0.081458700,0.023218990
1640783794.810400,0.014881970,0.089982270,10.123274800,0.014258920,0.021280350,0.003646310
1640783794.811430,0.169498440,0.253961240,9.549687390,0.054059920,-0.006431340,0.012789670
1640783794.815380,-0.085998240,0.268735560,9.702878000,-0.028663880,0.014279780,0.000035760
1640783794.816400,-0.244464160,0.008821890,9.786481860,-0.079748040,0.019317870,0.004027780
1640783794.821150,-0.082862310,0.026036290,9.322669030,-0.019976500,0.028918690,0.008000430
1640783794.821910,-0.213330150,0.129458890,9.775507930,0.047057870,0.048936910,-0.003896650
1640783794.825330,-0.173466350,0.223299520,10.035124780,0.028251110,0.066643950,0.007300080
1640783794.826450,-0.164807050,0.363643470,9.958773610,0.012767320,-0.000892580,0.027813020
1640783794.831590,-0.343166950,0.167826640,9.876648900,-0.000190730,-0.053337220,0.016823410
1640783794.832420,-0.105297360,0.178742480,9.243675230,0.002212820,0.031648580,0.009872020
1640783794.836990,-0.167459740,0.390998360,9.629549030,0.068193670,0.050403180,0.003023450
1640783794.838620,-0.281254170,0.476283970,10.464583400,0.037652270,0.023877630,-0.009107590
1640783794.840350,0.037970780,0.649180170,9.767653470,-0.019398330,-0.007686020,0.010833150
1640783794.841420,-0.035881600,0.550393820,9.794141770,0.000846390,-0.030167400,0.017930570
1640783794.845680,-0.170172830,0.371776910,10.099699970,0.027051570,0.046727060,0.017200410
1640783794.846570,-0.183690240,0.534345390,9.811416630,0.049997870,-0.008367000,0.019921360
1640783794.850570,-0.327838840,0.494538490,9.973783490,0.020222370,-0.067760060,0.030431150
1640783794.851510,0.023445900,0.457297350,9.290022850,-0.041292600,0.031590460,0.034695860
1640783794.855430,0.134065080,0.604729890,9.615056990,-0.027301910,0.051528230,0.036223240
1640783794.856410,-0.079152100,0.428943510,10.607329370,-0.003081560,0.033521660,0.014561410
1640783794.861160,0.050799650,0.452445810,9.927426340,0.027403240,-0.044940420,0.013929610
1640783794.862030,-0.020876290,0.563712000,9.423013690,0.013385710,-0.066116460,0.030575690
1640783794.865470,-0.134503190,0.257696780,9.566322330,-0.063230080,0.022156530,0.018559390
1640783794.868640,-0.027005790,0.125586270,9.544569970,-0.032053890,0.051900740,0.018054250
1640783794.870400,-0.137709650,0.245625240,9.954123500,0.027830900,0.007577240,-0.002023580
1640783794.872410,-0.061776020,0.217341070,10.023506160,0.010608140,-0.008344650,0.006820260
1640783794.875370,-0.074600130,0.155639140,9.816886900,-0.004301970,-0.002153220,0.020049510
1640783794.876440,-0.291317880,0.034937810,9.869079590,0.013755260,-0.049468870,0.013494490
1640783794.880380,-0.273416880,-0.001780430,9.598222730,0.038036710,-0.030368570,0.001443920
1640783794.881320,-0.167742340,0.346327010,9.427159310,0.011411310,0.033970180,-0.001204010
1640783794.885530,-0.234691190,0.454088210,10.149042130,-0.004893540,0.012001400,-0.008210540
1640783794.886770,-0.185247510,0.491305440,10.148945810,0.013360380,-0.028727950,0.006489460
1640783794.890380,-0.042610780,0.683567760,9.493182180,0.014688080,-0.047364830,0.008732080
1640783794.891410,-0.207479160,0.588878930,9.991660120,0.030861800,-0.033056740,0.013150280
1640783794.895540,-0.262100190,0.555539250,10.042005540,0.011859830,0.001332160,0.027865170
1640783794.896440,-0.108417890,0.688225980,9.743246080,-0.031225390,-0.052037840,0.016759340
1640783794.900700,-0.195165160,0.409981880,10.115310670,-0.017222760,-0.054056950,0.019620360
1640783794.907500,0.092374730,0.448991360,9.331544880,-0.000895560,0.007484850,0.006386640
1640783794.908300,0.122033520,0.593653440,9.742018700,-0.002431870,-0.019857290,0.010792910
1640783794.909320,-0.157564830,0.286616060,10.377081870,-0.029592220,-0.012682380,0.015030800
1640783794.910370,0.090123210,0.247326540,9.420259480,-0.017875430,-0.067770480,0.023068490
1640783794.911440,0.013039330,0.340136230,9.786385540,-0.001563130,-0.050261620,0.037340820
1640783794.915640,-0.045227780,0.181209220,9.816852570,-0.043366850,0.037325920,0.022631880
1640783794.916740,0.147947510,0.113648360,9.647057530,-0.014477970,0.000944730,0.006213780
1640783794.920520,-0.113936560,0.266107170,9.968053820,0.033073130,-0.037163500,0.002151730
1640783794.922130,-0.054465620,0.328018520,9.492238040,-0.012700260,-0.018730760,-0.002826750
1640783794.925480,-0.092034470,0.366072980,9.668311120,-0.029551980,-0.024518370,0.017903750
1640783794.926370,-0.419847670,0.216757790,10.001254080,-0.003327430,-0.037741670,-0.000651180
1640783794.930500,-0.121379830,0.192916480,9.501873970,0.032128400,-0.027823450,-0.000552830
1640783794.931480,-0.146135430,0.582962100,9.839311600,0.018391010,0.033466510,-0.001402200
1640783794.935520,-0.382650140,0.524215700,10.488899230,-0.031743940,-0.001525880,-0.003392990
1640783794.936410,-0.038473830,0.542792920,9.875095370,-0.033722820,-0.100933020,0.013631580
1640783794.940360,-0.059502850,0.524524330,9.343531610,0.003662710,-0.053387890,0.008426610
1640783794.941350,-0.109231100,0.302917780,9.799307820,0.023375450,0.022917980,0.002045930
1640783794.945510,-0.199563550,0.565028790,10.248272900,0.023658570,0.006756190,0.028856100
1640783794.946810,-0.314387920,0.510460850,10.206818580,-0.053429610,-0.102330750,0.006440280
1640783794.953710,0.008041810,0.271986690,9.709501270,-0.081321600,-0.067053740,0.009766220
1640783794.954300,0.092024360,0.426347730,9.258924480,0.000655650,0.022426250,0.006802380
1640783794.955350,-0.036126630,0.414819000,10.090918540,0.027167800,0.003553930,0.005748870
1640783794.956370,0.004982000,0.421955380,10.307049750,-0.017255550,-0.021149220,0.019261240
1640783794.960490,0.016796330,0.432254230,9.539703370,-0.040636960,-0.102034210,0.025866930
1640783794.961500,0.056905290,0.185212510,9.700658800,-0.042471290,-0.074180970,0.029507280
1640783794.965820,0.068973150,0.174157840,9.475962640,-0.019079450,0.078512730,0.011269750
1640783794.967210,-0.027679410,0.201975140,9.973092080,0.021487470,-0.009021160,-0.006742780
1640783794.970580,-0.087076240,0.256847560,10.346007350,0.018681590,-0.051531200,-0.005429980
1640783794.971400,0.024586080,0.352347790,9.200417520,-0.034664580,-0.034371020,0.008270140
1640783794.975360,-0.050452410,0.216473400,9.744429590,-0.036911670,-0.029648850,0.003427270
1640783794.976420,-0.350148470,0.094590400,10.123382570,0.025612120,0.015747550,-0.007598100
1640783794.980550,-0.189504030,0.298022420,9.428509710,0.054666400,-0.063976650,-0.004038210
1640783794.981680,-0.168333410,0.431468610,9.848761560,0.014884770,-0.025059280,-0.000981990
1640783794.986010,-0.308780310,0.388732970,10.009656910,-0.031308830,0.017569960,0.000144540
1640783794.986950,-0.106732380,0.393756150,9.966997150,-0.006818770,-0.076140470,0.018027420
1640783794.990350,-0.186316300,0.425811020,10.031579020,0.035919250,-0.052069130,0.001296400
1640783794.991410,-0.178336860,0.410349100,9.799890520,0.039638580,-0.020635120,-0.010338420
1640783794.995880,-0.001292200,0.676021460,9.799955370,0.007921460,-0.035551190,0.014372170
1640783794.996820,-0.163459610,0.728452210,10.040778160,-0.055626040,-0.042943660,0.003840030
1640783795.000490,0.127707750,0.399174810,9.659137730,-0.059336420,-0.029675660,0.003436210
1640783795.001730,0.136954260,0.585003020,9.718174930,0.026954710,-0.005227330,0.011444090
1640783795.005460,-0.213249210,0.585403080,10.209314350,0.024093690,-0.042091310,0.001932680
1640783795.006440,-0.134229360,0.419775070,9.975593570,-0.050687800,-0.068815060,0.029073660
1640783795.010440,-0.219943990,0.269502760,9.481641770,-0.042378890,-0.093126300,0.028017160
1640783795.011700,-0.143282490,-0.003670480,9.628385540,-0.013272460,-0.034470860,0.013202430
1640783795.015410,0.144332570,0.221976350,9.562289240,0.001956520,0.066857050,0.022909040
1640783795.016480,-0.070781340,0.185335410,10.351312640,0.004364550,-0.013452770,0.005839770
1640783795.020480,-0.015122690,0.075278190,10.332630160,-0.000330810,-0.087393830,0.002689660
1640783795.021420,0.030353040,0.326260450,9.031497000,0.000660120,-0.099393730,0.006456670
1640783795.025360,-0.238518180,0.276831510,9.403561590,-0.003625450,-0.053887070,-0.010794400
1640783795.026570,-0.198383290,0.292487530,9.715935710,-0.001071390,0.033040340,-0.004425650
1640783795.030920,-0.172139140,0.487355050,9.777763370,0.040802360,-0.039267540,0.003948810
1640783795.032500,-0.151802880,0.434344650,10.367700580,0.014969710,-0.050202020,0.013175610
1640783795.036190,-0.016278010,0.357247860,9.849321370,0.000503660,-0.009284910,0.024336580
1640783795.036750,-0.227979230,0.383482520,9.985615730,0.023598970,-0.097490870,0.019334260
1640783795.040330,-0.297676150,0.327553090,9.903428080,0.012275580,-0.074821720,0.010412930
1640783795.041430,-0.063617970,0.348551720,9.034718510,0.019052620,-0.041493780,0.002989170
1640783795.045420,-0.048561470,0.637748300,9.873970990,0.007785860,-0.019498170,0.007428230
1640783795.046600,0.016934590,0.687807080,10.321723940,-0.034664580,0.006343420,0.005593900
1640783795.050530,0.106145580,0.483246980,10.112862590,-0.012114640,-0.062544640,0.004829470
1640783795.051380,-0.032686100,0.617434260,10.109604840,0.034739080,-0.083622340,-0.001543760
1640783795.055490,-0.183838380,0.577579140,9.691583630,0.019893050,-0.075353670,0.023657080
1640783795.056460,0.002799780,0.431389960,9.271901130,-0.049050160,-0.052961710,0.031808020
1640783795.060830,0.087735410,0.326327560,9.539097790,-0.047472120,0.014714900,0.010453170
1640783795.061590,0.101780660,0.083155760,9.984779360,0.021468100,0.019483270,0.015993420
