# timestamp,accel_x,accel_y,accel_z,gyro_x,gyro_y,gyro_z
1640843366.737150,-0.084673410,0.273093070,9.112321850,-0.062102080,0.177842390,0.051103530
1640843366.737600,-0.185657290,0.190934600,10.263660430,-0.007136170,0.115561490,0.041836500
1640843366.742100,-0.243694570,0.313650010,10.261483190,0.040708490,0.091055040,0.074073660
1640843366.742720,-0.120953590,0.335836830,9.190809250,-0.041608510,-0.021462140,0.068208580
1640843366.747120,-0.166964160,0.040116910,9.326899530,-0.092419980,0.033535070,0.072255720
1640843366.747590,0.111152850,-0.115439120,8.896955490,-0.030209130,0.188885630,0.057747960
1640843366.752380,0.110813650,-0.152381110,9.810821530,0.046280030,0.127954800,0.015966590
1640843366.753490,-0.032797700,-0.088699810,10.622316360,0.065101680,0.092892350,0.044637920
1640843366.757190,-0.023010570,-0.017551660,9.557777400,-0.012503570,0.003291670,0.046184660
1640843366.757920,-0.325484250,-0.262091040,9.480179790,-0.028555100,-0.018057220,0.036333500
1640843366.762640,-0.267214510,-0.115712050,8.852391240,0.033688550,0.122730440,0.050678860
1640843366.765560,-0.195861850,0.128703560,9.205781940,0.074775520,0.133529320,0.026445090
1640843366.767160,-0.384427010,0.169999870,10.593739510,0.074791910,0.099323700,0.030635300
1640843366.768150,-0.128080640,0.480951520,9.774477960,0.040344890,0.013205410,0.053462390
1640843366.772110,-0.226280880,0.412652400,9.589136120,0.016032160,-0.029766560,0.032658870
1640843366.772800,-0.184980450,0.479559540,9.495637890,0.015500190,0.103558600,0.039173670
1640843366.777180,-0.119087020,0.708653570,9.486215590,0.037351250,0.097008030,0.035308310
1640843366.777920,-0.225764630,0.397657420,10.313269620,0.055827200,0.023558730,0.035375350
1640843366.782290,0.050193980,0.445410040,9.555984500,0.036771600,0.041040780,0.046332180
1640843366.783060,-0.071970210,0.439865560,9.483921050,-0.004996360,0.030709800,0.035551190
1640843366.787590,-0.439541100,0.146067460,10.359498980,-0.022205710,0.053304430,0.046387310
1640843366.788430,-0.262442590,0.412384600,9.512527470,-0.006911160,-0.008577110,0.047500430
1640843366.794750,-0.067789470,0.304260280,9.402565960,0.026428700,-0.004950170,0.041508670
1640843366.795940,-0.010984320,0.437988010,9.878589630,-0.006012620,0.150874270,0.028659400
1640843366.797160,-0.250149250,0.845775370,10.249132160,-0.040981170,0.043897330,0.035575030
1640843366.798200,-0.457200410,0.537986640,10.444547650,-0.057260700,-0.112321970,0.041753050
1640843366.802670,-0.082301930,0.652175370,8.712954520,-0.050291430,-0.042966010,0.047518310
1640843366.805160,0.089103350,0.666921200,8.869968410,-0.044290730,0.093071160,0.036856520
1640843366.807280,-0.021615440,0.402051120,10.435305600,-0.048983100,0.157061230,0.047174100
1640843366.808310,-0.018725810,0.391419710,10.362709050,-0.049282620,-0.002583860,0.067500780
1640843366.812630,-0.077605030,-0.162788530,9.997167590,-0.041790310,-0.132791710,0.055484470
1640843366.813690,0.040556190,-0.290447320,8.801813130,-0.047437850,-0.005754830,0.049711770
1640843366.817120,0.056361330,-0.031452750,8.905749320,-0.046901400,0.105682020,0.029160080
1640843366.817540,-0.126264510,-0.207747180,10.385115620,-0.062175110,0.117535900,0.031153860
1640843366.822340,-0.067635980,-0.122464140,10.240019800,-0.014618040,-0.000198190,0.025039910
1640843366.823480,-0.168074910,-0.050915290,9.727166180,0.055293750,-0.094951690,0.031548740
1640843366.827280,-0.203600360,0.108215330,8.914186480,0.005854670,-0.004707280,0.042486190
1640843366.828050,-0.225734950,0.411997380,9.086775780,-0.046058000,0.073939570,0.044873360
1640843366.832130,-0.195481180,0.150840060,10.041735650,-0.032624610,0.088980790,0.038924820
1640843366.832560,-0.051598620,0.013921250,10.158000950,0.060498720,-0.001871590,0.038726640
1640843366.837600,-0.029454170,0.158716800,9.823409080,0.118371840,-0.040914120,0.042945150
1640843366.838540,-0.127133520,0.091513580,9.413390160,0.021460650,-0.009451810,0.031843790
1640843366.842930,-0.214023220,0.116264160,9.588250160,-0.048930950,0.000531970,0.040888790
1640843366.844060,-0.181795360,-0.005105400,9.594728470,0.007149580,0.037054710,0.035277010
1640843366.847140,-0.063751790,-0.111319590,9.702810290,0.101563340,0.006429850,0.012859700
1640843366.847610,-0.125155790,0.486290870,10.045166020,0.114843230,0.008624790,0.023026760
1640843366.852150,-0.285584240,0.708990160,9.888850210,-0.021407010,-0.003965200,0.021734840
1640843366.853610,-0.381595220,0.500594740,10.003159520,-0.075612970,-0.087217990,0.038081410
1640843366.860180,-0.258438530,0.552158470,9.444502830,0.020059940,-0.021404030,0.049327310
1640843366.860620,-0.060470890,0.419979160,9.300976750,0.074121350,0.037400420,0.026005500
1640843366.862140,-0.094605040,0.691452030,10.333097460,0.052824620,0.040327010,0.036883360
1640843366.862650,-0.097779440,0.677354450,10.114089970,-0.059369210,-0.019337240,0.050282480
1640843366.867200,-0.010294650,0.086382310,9.774336810,-0.086997440,-0.125209990,0.041653210
1640843366.867730,0.054362200,0.163574080,9.403080940,0.005847220,-0.011104350,0.038895010
1640843366.872490,0.086785500,0.272636090,9.242791180,0.036439300,0.061757860,0.014086070
1640843366.873520,0.031877110,0.286537230,10.409630780,-0.026936830,0.008629260,0.031319260
1640843366.877190,0.000305250,0.400494960,10.058459280,-0.061652070,-0.005765260,0.040933490
1640843366.877880,-0.088664120,-0.009210720,9.627843860,-0.047604740,-0.088088210,0.024870040
1640843366.882230,-0.309240460,0.162077290,9.630640980,0.020165750,-0.044724350,0.035408150
1640843366.882850,-0.233410870,0.429248450,8.881710050,-0.007694960,0.028894850,0.026653710
1640843366.887520,-0.103595570,0.081648120,9.792823790,-0.058735920,0.020858650,0.035378340
1640843366.888720,-0.080116220,0.131127770,10.249156950,-0.019301480,0.057889520,0.046913330
1640843366.892120,0.011448830,-0.002299140,9.758625980,0.023549790,-0.065189590,0.027360020
1640843366.893650,-0.058300400,-0.010397550,9.874714850,0.022602080,-0.084020200,0.038897990
1640843366.897190,0.016051870,0.153273340,8.970631600,-0.016692280,0.034490230,0.028413540
1640843366.897660,0.060087940,-0.167568790,9.446773530,-0.022728740,0.007326900,0.012613830
1640843366.902260,-0.086910300,-0.040457100,10.093795780,0.052337350,0.025445220,0.023324790
1640843366.903720,-0.054626890,0.137164460,9.505317690,0.065524880,-0.022518640,0.006137790
1640843366.907220,-0.309990350,0.098319440,10.124463080,0.012792650,-0.080688300,0.014881790
1640843366.907880,-0.431307410,0.204256970,9.491703990,-0.000990930,-0.014816220,0.030829010
1640843366.912170,-0.118741860,0.140552460,8.978117940,0.035987790,-0.025521220,0.005401670
1640843366.912670,-0.213455040,0.190281820,10.230305670,0.074648860,0.051341960,0.018821660
1640843366.917170,-0.088853830,0.499733450,10.017167090,0.059404970,0.019402800,0.020658970
1640843366.917600,-0.100561500,0.255980160,10.082180020,0.021706520,-0.129629660,0.013083220
1640843366.922680,-0.197559970,0.217367920,9.608006480,0.031819940,-0.071166460,0.012658540
1640843366.924730,0.086244720,0.383015220,8.901214600,0.041717290,-0.008685890,0.012688340
1640843366.927170,-0.119652790,0.391913030,10.191437720,0.032484540,0.025773050,0.004646180
1640843366.928050,-0.089575490,0.611809020,10.299387930,0.021469590,0.002187490,0.020182130
1640843366.932100,0.092123010,0.599979460,9.764191630,-0.008913880,-0.094366070,0.016726560
1640843366.932470,-0.247541640,0.499950440,10.075094220,0.000955160,-0.051566960,0.016662480
1640843366.937550,-0.194278520,0.684517320,9.448839190,-0.002820790,-0.016650560,0.026066600
1640843366.938790,-0.276046100,0.729663430,9.738211630,-0.036792460,-0.065268580,0.021418930
1640843366.942120,-0.118420390,0.426938650,9.906916620,-0.042818480,-0.000363590,0.027015810
1640843366.942590,0.151866330,0.465553250,9.714740750,-0.030975050,0.030142070,0.014118850
1640843366.947070,-0.206762050,0.386479140,10.602084160,-0.019161400,-0.063356760,-0.004014370
1640843366.947450,-0.137309630,0.387364600,9.904119490,-0.059081610,-0.103332090,0.024674830
1640843366.952240,0.150439560,0.446794030,8.873310090,-0.104284290,-0.063885740,0.020271540
1640843366.954390,0.136585940,0.073369950,9.749959950,-0.071375070,0.063346330,0.011838970
1640843366.957160,0.196558730,0.230210450,10.069732670,-0.021563470,0.081712010,0.012363500
1640843366.957740,-0.045125380,0.276737870,10.355519290,-0.017054380,-0.096078220,-0.000767410
1640843366.962090,-0.088247500,0.001617730,9.891623500,-0.071462990,-0.112441190,0.023885070
1640843366.962590,0.032745680,0.068190980,8.774980550,-0.091876100,-0.013358890,0.022274260
1640843366.967420,-0.089697320,-0.088565030,9.553645130,-0.039084260,0.049872700,-0.003543500
1640843366.968000,-0.035235140,0.068438180,10.183215140,-0.006115440,0.088912250,0.009821360
1640843366.972160,-0.163711320,0.243594450,10.237276080,-0.013728440,-0.051081190,0.004538890
1640843366.972890,-0.273980620,-0.102537460,10.009317400,-0.031979380,-0.115713490,0.002767150
1640843366.977080,-0.100477250,0.028187140,8.799128530,-0.038483740,-0.032976270,0.001090760
1640843366.977460,-0.150067180,0.199415560,9.268641470,-0.012309850,0.049920380,-0.012266640
1640843366.982330,-0.156461690,0.000441050,10.398408890,-0.013798480,0.070370740,0.002707540
1640843366.985070,-0.076352060,0.035639930,10.310281750,0.027564170,-0.054380300,0.005811450
1640843366.987180,-0.089294000,-0.124406730,9.736390110,0.057047610,-0.107994680,0.001311300
1640843366.987620,-0.039329150,-0.031448260,9.192212100,-0.000052150,-0.015227500,0.003577770
1640843366.992260,-0.212578300,0.240581880,9.696020130,-0.022175910,0.043736390,0.001449880
1640843366.992880,-0.300494100,0.127748620,10.310069080,-0.002969800,-0.033453110,-0.003911560
1640843366.997090,-0.065946970,0.271137210,9.784810070,0.057587030,-0.082655250,-0.002515320
1640843366.997580,-0.080114330,0.584642290,9.646189690,0.071702900,-0.019019840,-0.011871760
1640843367.002120,-0.273530300,0.570675370,10.128426550,-0.028690700,-0.000628830,-0.006017090
1640843367.002610,-0.379909520,0.598614690,10.290872570,-0.047044450,-0.070592750,0.012169780
1640843367.007180,-0.133702870,0.375948070,9.562142370,-0.000236930,-0.093944370,0.010161100
1640843367.007780,0.136573790,0.264393960,9.403035160,0.029352310,-0.020952520,-0.003197790
1640843367.012100,0.115900280,0.534665470,10.054157260,0.008505580,0.056838990,-0.002093610
1640843367.012500,-0.032349730,0.272401030,10.367991450,-0.058551140,-0.032243140,-0.005215410
1640843367.018110,-0.152367320,0.082646990,10.234014510,-0.050896410,-0.156046470,0.005190080
1640843367.018560,-0.050407250,0.196951840,9.174767490,0.005403160,-0.086563830,0.011536480
1640843367.022450,0.037580650,0.108646660,9.100196840,-0.007651750,0.018535550,-0.005798040
1640843367.023230,-0.064444510,0.378955690,10.348905560,-0.030627850,0.064493720,0.005964930
1640843367.027080,-0.063779970,0.274911520,10.432311060,-0.043588880,-0.013831260,0.008448960
1640843367.027420,-0.039357350,-0.059947570,10.178697590,-0.010900200,-0.145208850,0.000065570
1640843367.032140,0.057669850,0.235520790,9.286059380,0.024294850,-0.056807700,-0.008732080
1640843367.032650,0.118516240,0.358278420,8.817331310,-0.037002560,0.024415550,-0.019812590
1640843367.037100,0.083033410,0.179585560,10.125873570,-0.067020960,0.045228000,-0.002875920
1640843367.037470,0.064675230,0.147772760,10.234661100,-0.003035370,0.036777560,-0.006759170
1640843367.042320,-0.011711200,-0.212127630,10.028849600,0.059185930,-0.119808320,-0.013725460
1640843367.042900,-0.190873500,-0.114751980,9.710307120,0.061279540,-0.077559060,0.002919140
1640843367.047440,-0.144753950,0.008772950,8.845270160,-0.028328600,0.031164290,-0.017239160
1640843367.048290,-0.269090470,-0.332219630,10.078358650,-0.042672460,0.026291610,-0.016190110
1640843367.052200,-0.276712980,-0.138172480,10.236647610,0.069271030,0.012971460,-0.016477700
1640843367.052680,-0.080150000,0.012223770,9.461834910,0.121955560,-0.093790890,-0.034645200
1640843367.057220,-0.203816430,0.206712100,10.014061930,0.055281830,-0.052605580,-0.019381950
1640843367.057880,-0.232109670,0.485140090,9.544712070,-0.027787680,0.028221310,-0.007677080
1640843367.062220,-0.164531100,0.192420970,9.900844570,0.003421310,-0.077010700,-0.019067530
1640843367.063640,-0.046995360,0.344299580,9.981658940,0.103983290,-0.023357570,-0.022946290
1640843367.067130,0.126728500,0.653889950,9.376212120,0.096705550,-0.002749260,-0.022995470
1640843367.067500,-0.179784070,0.397988800,10.568493840,0.015068060,-0.046706200,-0.004768370
1640843367.072200,-0.323523580,0.299411950,10.077627180,-0.002017620,-0.058719520,-0.003524120
1640843367.073240,-0.094721440,0.140090550,9.197120670,0.030568240,-0.117504600,-0.015379490
1640843367.077270,-0.171836670,0.165787890,9.900767330,0.060108310,-0.004230440,-0.014114380
1640843367.078790,-0.099947960,0.537164390,9.936409000,0.024482600,0.068184740,-0.019156930
1640843367.082200,-0.201483310,0.448452950,10.653882030,-0.027166310,-0.079321860,-0.019867720
1640843367.082960,-0.310068610,0.379754930,10.295524600,-0.011771920,-0.119347880,-0.014179940
1640843367.087200,-0.039222520,0.606654290,8.987489700,0.012233850,-0.088560570,-0.024719530
1640843367.087740,-0.162989360,0.614820060,9.777853010,-0.010615590,-0.024832790,-0.011326370
1640843367.093080,-0.016578610,0.669110000,10.050928120,-0.043882430,0.033596150,0.004272160
1640843367.093650,0.260356220,0.400616140,10.057380680,-0.049486760,-0.043390690,-0.009013710
1640843367.097130,0.020528350,0.080182660,10.538854600,0.002998110,-0.071434680,-0.020182130
1640843367.097590,0.063122030,0.221191140,9.551114080,0.012311340,-0.069776180,-0.015147030
1640843367.102080,-0.071899930,0.166462720,9.449691770,-0.065512960,-0.094461440,-0.017152730
1640843367.102550,-0.050175120,-0.133468730,9.627332690,-0.078536570,0.015486780,-0.009833280
1640843367.107200,0.100524840,-0.052698270,9.647885320,-0.007936360,0.039082770,-0.019197170
1640843367.107800,-0.145416780,0.042716490,10.501758580,0.044998530,-0.039631130,-0.025637450
1640843367.112210,-0.267151800,0.107792500,10.251264570,0.010727350,-0.082792340,-0.013746320
1640843367.112830,-0.197480620,0.195663500,9.277266500,-0.055421900,-0.105282690,-0.017385180
1640843367.117170,-0.175553470,-0.130555540,9.365515710,-0.027818980,-0.016115610,-0.031299890
1640843367.117600,0.115687710,0.080919440,9.436088560,0.048753630,0.076580060,-0.021958360
1640843367.122180,0.039108840,0.308404180,10.342653270,0.062744330,0.019161400,-0.027151410
1640843367.122900,-0.039771270,0.013199550,10.643562320,0.016522410,-0.086143620,-0.014159080
1640843367.127300,0.006685370,-0.023273660,9.423683170,0.009445850,-0.120086990,0.003477930
1640843367.127830,-0.080870800,-0.141595970,9.097192760,0.042717160,-0.038169320,-0.025010110
1640843367.132140,-0.092903060,-0.001649680,9.699028970,0.048783430,0.078311560,-0.031743950
1640843367.132590,-0.222219350,0.331190530,10.354942320,0.043420490,0.009830300,-0.032603740
1640843367.137420,-0.233784230,0.159588220,10.395013810,0.040154160,-0.109851360,-0.036571920
1640843367.138770,-0.131727080,0.284640340,9.507436750,0.047701600,-0.088286410,-0.026847430
1640843367.142180,-0.226252570,0.571392600,9.427684780,0.045177340,-0.007303060,-0.040760630
1640843367.142650,-0.242595140,0.518586160,10.223007200,0.005735460,0.017422440,-0.032213330
1640843367.147100,-0.045986590,0.712544380,10.113924030,0.009484590,-0.031998760,-0.006729370
1640843367.147530,0.185659590,0.409815700,9.851150510,0.052733730,-0.055041920,-0.022831560
1640843367.152110,0.140168490,0.346470240,10.010239600,0.037765510,-0.017403070,-0.025494400
1640843367.153580,-0.070223730,0.600369630,9.983940120,-0.001476710,-0.027619300,-0.016857690
1640843367.157210,-0.190908060,0.307185110,10.008743290,-0.044336920,-0.087842350,-0.021830200
1640843367.157870,0.019440960,0.283840810,9.484519960,-0.039070850,-0.045222040,-0.002050400
1640843367.162120,0.084249590,0.339999620,9.657420160,0.012442470,0.054062900,-0.029999020
1640843367.162660,-0.194906230,0.336651650,10.677200320,-0.007988510,0.026094910,-0.042308870
1640843367.167130,-0.305185440,0.596272710,10.399408340,-0.041608520,-0.100274400,-0.011989480
1640843367.167520,-0.220453500,0.464645300,9.539089200,-0.062583390,-0.124302510,-0.022017960
1640843367.172260,0.014631440,0.277764170,9.160791400,-0.066128370,-0.000284610,-0.028634070
1640843367.173180,0.153549360,0.503527580,9.672986030,-0.018000600,0.093801320,-0.014786430
1640843367.177220,0.214527640,0.283139110,10.432600980,-0.032052400,0.047712020,-0.012294950
1640843367.178050,0.223839460,0.064062390,10.468196870,-0.045883650,-0.066469600,0.006976720
1640843367.182270,0.126371980,-0.097660410,9.741126060,-0.024253130,-0.080566110,0.011536480
1640843367.182950,0.074747670,-0.283981590,9.080775260,-0.033302610,-0.024983290,-0.020366910
1640843367.187460,0.057598820,-0.061580650,9.546170230,-0.035178660,0.063905130,-0.013695660
1640843367.188170,-0.016636810,-0.075777580,10.150631900,-0.020016730,0.112962720,-0.023451450
1640843367.192300,-0.183998080,-0.198255780,10.524959560,0.018787390,-0.046733020,-0.035360460
1640843367.194010,-0.198088540,0.156099270,9.889717100,0.059521200,-0.082898140,-0.009387730
1640843367.197100,-0.168334070,0.269038710,8.945192340,-0.009500980,-0.003747640,-0.016228860
1640843367.197570,-0.138859760,0.116778370,9.737244610,-0.038270660,0.058114540,-0.009304290
1640843367.202140,-0.016515130,0.226026330,10.155653000,0.038023290,0.102643680,-0.005903840
1640843367.202680,0.138004960,0.019315470,10.058177950,0.102192170,-0.018596650,-0.008302930
1640843367.207260,0.148791750,0.127973590,10.121206280,0.086179380,-0.029148160,0.007031860
1640843367.207990,0.040053820,0.263002160,9.390872000,-0.010548530,0.040920080,0.000840430
1640843367.212120,-0.195610060,-0.195672270,9.895667080,-0.017723440,-0.023438040,-0.009685750
1640843367.212590,-0.196560100,0.017609100,9.907426830,0.088872020,0.025102500,0.000140070
1640843367.217090,-0.075940750,0.224201620,9.413530350,0.114093720,0.035886470,-0.021952390
1640843367.217550,-0.263040510,0.302957530,10.625746730,0.052146610,0.027200580,-0.005143880
1640843367.222230,-0.370678630,0.629108670,10.274081230,0.001099710,0.026121740,0.007610020
1640843367.223400,-0.256637540,0.393261430,9.647831920,0.000195210,-0.098259750,-0.013628600
1640843367.227410,-0.081549500,0.608726020,9.683941840,0.058209890,0.009255110,-0.004488230
1640843367.227870,0.123802610,0.949004650,9.361737250,0.046184660,0.122870510,-0.004777310
1640843367.232100,0.114857690,0.691953600,10.630928040,-0.014327470,0.012885040,0.011619930
1640843367.232540,0.121114380,0.619295240,10.551157950,-0.029921540,-0.004738570,0.040985650
1640843367.237520,0.184308620,0.337220460,9.514668460,-0.004531440,-0.041776890,0.022147590
1640843367.238190,-0.047166050,0.235864480,10.086059570,-0.001144410,0.001378360,0.016993280
1640843367.242750,-0.060452120,0.544554950,9.613972660,-0.035320230,0.079736110,0.023381410
1640843367.243810,0.095122410,0.116096360,9.761409760,-0.067111840,0.038520990,0.012354550
1640843367.247140,-0.173582780,0.083213850,10.612211230,-0.017116970,0.053791700,0.002169610
1640843367.247610,-0.233790890,0.259466320,9.793851850,0.007420780,-0.005008280,0.007598100
1640843367.252120,-0.234708940,0.265681950,9.699022290,-0.038614870,-0.068609440,0.011348730
1640843367.252680,-0.129199040,0.397677240,9.514776230,-0.091123580,0.081871450,0.034233930
1640843367.257270,0.192628440,0.149011730,9.564382550,-0.058887900,0.131033360,0.021409990
1640843367.258000,0.054484140,0.070707140,10.788461690,0.021660330,0.050495580,0.014005600
1640843367.266620,0.146483290,0.358584050,9.992113110,0.035347040,0.010590260,0.027959050
1640843367.267180,0.111782240,0.192468390,9.454589840,-0.073748810,-0.040780000,0.015190240
1640843367.267580,-0.151909840,-0.184850340,9.728058820,-0.090618420,0.039708610,0.015832480
1640843367.267970,-0.031298350,-0.151025460,9.219752310,0.016346580,0.107164680,-0.006592270
1640843367.272670,-0.128708080,-0.007410300,10.169417380,0.048162040,0.056660190,-0.012490160
1640843367.273470,-0.298493120,0.099494000,10.637879370,0.002950430,0.063925990,0.009293850
1640843367.277120,-0.286365210,0.113682300,9.864826200,-0.041399900,-0.035886470,0.008486210
1640843367.277600,-0.457718130,-0.136952920,9.746241570,-0.008684400,-0.049056110,-0.002019110
1640843367.282180,-0.199830460,0.107204150,9.024386410,0.047221790,0.074517730,0.001588460
1640843367.282980,-0.077864460,0.382871210,9.713993070,0.027082860,0.097051250,-0.006657840
1640843367.287450,-0.275306760,0.279671430,10.931326870,-0.011403860,0.051295760,0.003175440
1640843367.288090,-0.021886920,0.347030130,10.066732410,-0.006188450,-0.060406340,0.013266500
1640843367.292240,-0.067158620,0.286085280,9.604880330,0.022687020,-0.074395540,-0.008799140
1640843367.293350,-0.169527950,0.336860270,9.820309640,0.010791420,0.071308020,-0.009596350
1640843367.297100,-0.158049820,0.652015090,9.959323880,-0.030763450,0.048437720,0.007222590
1640843367.297480,-0.082641530,0.357557270,10.287503240,-0.029627980,-0.033383070,0.000046190
1640843367.302480,0.130106580,0.281584740,9.874762540,-0.002619620,0.017358370,0.001309810
1640843367.303460,-0.087990470,0.502001050,9.902792930,-0.000762940,0.005093220,-0.000940260
1640843367.307270,-0.423453660,0.341314140,10.440987590,-0.040428340,-0.052389500,0.005921720
1640843367.307980,-0.233713820,0.454750840,9.536327360,-0.085707020,-0.041434170,0.024025140
1640843367.312100,-0.063069220,0.366517070,9.461359980,-0.066943450,0.016722080,0.000642240
1640843367.312540,-0.172841760,0.287429180,10.455114360,-0.026905530,0.085142240,-0.005520880
1640843367.317200,-0.153240110,0.534996390,10.260410310,-0.031621760,-0.018022950,0.008955600
1640843367.317710,-0.196336540,0.228271130,10.071344380,-0.063338880,-0.113610940,0.013282900
1640843367.322410,0.047603280,0.123408600,9.341626170,-0.084185620,-0.028297310,0.031279040
1640843367.323390,0.209399820,0.184962080,9.221143720,-0.065243250,0.058582430,0.013332070
1640843367.327080,0.128342330,-0.012167240,10.432098390,-0.047360360,0.072613360,0.001780690
1640843367.327450,0.068720640,0.055961800,10.488358500,-0.035822380,-0.007031860,0.020164250
1640843367.332080,-0.148627910,-0.081997650,9.965593340,-0.010471050,-0.120885670,-0.002478060
1640843367.332510,-0.269774080,-0.109998450,9.318523410,-0.036121900,-0.074508790,-0.004394350
1640843367.337140,-0.225821350,0.225937370,8.936943050,-0.067187850,0.044924020,0.008997320
1640843367.337670,-0.304255720,0.015419670,10.184121130,-0.048162040,0.080198060,-0.010080640
1640843367.342850,-0.261153100,0.024781980,10.655671120,0.018607080,-0.011594590,-0.003965200
1640843367.343360,-0.171083930,0.246497210,9.983346940,0.058713550,-0.107739870,0.007180870
1640843367.347100,-0.218348530,0.174878690,9.518672940,-0.020088260,-0.073443360,-0.000277160
1640843367.347450,-0.201402370,0.167685610,9.515804290,-0.074632470,0.002612170,0.010082130
1640843367.352250,-0.136292700,0.027787190,9.964429860,-0.001870100,0.018678610,-0.004704300
1640843367.352850,0.018514930,-0.034977570,10.066883090,0.067891170,-0.036267930,-0.010240080
1640843367.357210,0.043614100,0.248168900,10.113617900,0.063206260,-0.051063290,0.015647710
1640843367.357840,-0.153383960,0.353376390,10.075675010,-0.026357180,-0.044298170,0.001583990
1640843367.362100,-0.355542510,0.102615710,10.063271520,-0.068011880,-0.100511330,0.014236570
1640843367.362570,-0.275508110,0.260778870,9.718689920,0.014875830,-0.070078670,0.006827710
1640843367.367320,-0.159462910,0.489591720,9.531829830,0.051029030,-0.002780560,-0.017338990
1640843367.368070,-0.147808300,0.721145690,10.343243600,-0.011870260,-0.010943410,-0.005264580
1640843367.372420,-0.133162890,0.854164540,10.427340510,-0.072684880,-0.041867800,0.016349550
1640843367.373530,-0.102319500,0.468631570,9.923748020,-0.075434150,-0.133137400,0.007502740
1640843367.377130,0.040719380,0.386330280,9.689837460,-0.016494100,-0.087048110,0.029587750
1640843367.377720,0.068356540,0.484744940,9.416493420,-0.003553930,0.023695830,0.009398160
1640843367.382420,0.114393250,0.220515820,10.043527600,-0.065207480,-0.034956640,0.018794830
1640843367.383640,0.190310670,-0.007504540,10.275587080,-0.079494710,-0.015997890,0.043137380
1640843367.387120,0.057346000,-0.289082260,9.913891790,-0.029553470,-0.059734280,0.002683700
1640843367.387550,-0.125424530,-0.269657080,10.104500770,0.005851690,-0.119809810,0.004583600
1640843367.392120,-0.239651830,0.193539830,9.436492920,-0.039587920,-0.045445560,0.002801420
1640843367.393800,-0.158017840,0.042528970,9.453834530,-0.099202990,-0.021469590,-0.006935000
1640843367.397100,-0.188691880,0.050937760,10.422428130,-0.047372290,0.008521970,0.000327830
1640843367.397510,-0.220904040,0.324353720,9.968395230,0.042010850,-0.032918160,-0.001326200
1640843367.402080,-0.237791820,0.268156860,10.019980430,0.018163030,-0.139224530,0.009208920
1640843367.402610,-0.224795100,0.242722330,9.725438120,-0.044843550,-0.054755810,0.041967630
1640843367.407550,-0.055076390,-0.076538820,9.261915210,-0.039954480,-0.029318040,0.005553660
1640843367.408090,0.037732230,-0.232780440,10.200210570,0.028979780,-0.027765340,0.003792350
1640843367.412070,0.118537740,0.065308180,10.115593910,0.051225720,0.009877980,0.008942190
1640843367.412500,0.041311170,0.025810440,10.217668530,-0.002785030,-0.102202610,-0.012443960
1640843367.417230,-0.162755160,-0.011631680,10.243544580,-0.024829810,-0.115497430,0.003010040
1640843367.417810,-0.116489760,0.156141370,9.084216120,0.013583900,-0.071921940,-0.011822580
1640843367.422350,-0.084494090,0.385440860,9.705694200,0.013968350,-0.039313730,-0.017312170
1640843367.423090,-0.179397730,0.741011980,10.455046650,-0.001965460,0.037232050,0.010696050
1640843367.427090,-0.084220980,0.743326660,10.415597920,-0.024732950,-0.074191400,0.015871220
1640843367.427630,-0.098464430,0.527280270,10.406695370,-0.019669530,-0.156733390,0.019371510
1640843367.432180,-0.011687940,0.531137760,9.456013680,0.006298720,-0.055359300,0.029301650
1640843367.432720,-0.012620920,0.494008660,9.553617480,-0.028248140,-0.029778480,0.015607480
1640843367.437070,-0.080662560,0.340450850,10.340514180,-0.078047810,-0.033713880,0.019882620
1640843367.437510,0.254175660,0.047837180,9.768940930,-0.041039280,-0.032995630,0.019724660
1640843367.443350,0.224689110,-0.116171300,10.057440760,-0.003887710,-0.055587300,-0.022226570
1640843367.443950,-0.107619840,0.087032950,10.444511410,-0.002539160,-0.047600270,-0.003768500
1640843367.447210,-0.115643860,0.238442470,9.618920330,-0.072322790,-0.096559520,0.016081340
1640843367.447860,-0.060121470,0.136269910,9.570954320,-0.097897650,-0.090831530,0.011497740
1640843367.452140,0.041169770,0.150142920,9.675222400,-0.030283630,0.058142840,0.017263000
1640843367.452740,0.003938090,0.416439680,10.087750430,0.023871660,0.015306470,0.008392330
1640843367.457140,-0.263322620,0.292534890,10.741606710,0.001566110,-0.106406210,0.019475820
1640843367.457720,-0.154270890,0.200223040,9.697119710,-0.054523340,-0.112988050,0.024771690
1640843367.462240,0.008833520,0.028302560,9.023342130,-0.069652510,-0.057071450,0.001885000
1640843367.464080,0.053588760,-0.216979580,9.782958030,-0.003461540,0.059118860,-0.003081560
1640843367.467100,0.115918930,0.017779230,10.164310460,0.030614440,0.051130350,-0.007013980
1640843367.467520,-0.048516700,-0.057016120,10.609928130,0.014513730,-0.111433850,-0.014662740
1640843367.472390,-0.041417760,-0.181895230,9.836471560,-0.013136860,-0.128042710,0.013315680
1640843367.473300,-0.086546330,0.048467230,8.902382850,-0.024269520,-0.043357910,0.001963970
1640843367.477150,-0.253009320,0.060220200,9.976150510,-0.002446770,0.025947400,-0.014050300
1640843367.477610,-0.284217720,0.304416150,10.494669910,0.028420990,0.016638640,-0.004562740
1640843367.482250,-0.212649670,0.556864020,10.241161350,0.029288240,-0.106321290,-0.005951520
1640843367.483070,-0.149380670,0.401111220,10.000464440,-0.007916990,-0.097928940,0.007835030
1640843367.487090,-0.106829460,0.552789810,9.464872360,-0.023186200,-0.012823940,0.017592310
1640843367.487580,-0.210899200,0.487967580,10.093034740,-0.019364060,-0.026740130,0.003814700
1640843367.492810,-0.119092280,0.248079140,10.352923390,0.000394880,-0.066193950,0.021085150
1640843367.493520,0.257119800,0.239392160,9.575490950,0.023937230,-0.062695150,0.007435680
1640843367.497170,0.179741780,0.104489690,10.122439380,0.000278650,0.006164610,-0.003689530
1640843367.497590,-0.102400410,0.129442660,10.579975130,-0.041244920,-0.024095180,0.020940600
1640843367.502070,-0.124921710,0.234732870,10.083621980,-0.041405860,-0.136946160,0.014358760
1640843367.502540,-0.022631730,0.172901020,9.481580730,-0.030414760,-0.094170880,-0.006587800
1640843367.507150,0.110753560,0.431238590,9.353401180,-0.007496780,0.040200360,-0.005120040
1640843367.507730,-0.012316390,0.641564490,10.336867330,-0.028672820,0.047874450,-0.006623570
1640843367.512320,-0.122227100,0.456672550,10.714979170,-0.061085830,-0.065408650,0.009062890
1640843367.513310,0.045751320,0.320621820,9.926864620,-0.038667030,-0.136545320,0.031745430
1640843367.518040,0.095642450,0.054911590,9.250516890,-0.008177760,-0.027777250,0.015886130
1640843367.518780,0.150148870,-0.158808510,9.531566620,-0.008179250,0.048826630,0.015005470
1640843367.522120,0.186516850,-0.140360950,10.269636150,-0.012035670,0.060896580,0.023132560
1640843367.523130,-0.004406930,-0.423575670,10.470540050,-0.016212470,-0.034621360,0.002281370
1640843367.527360,-0.105401210,-0.503817320,10.035388950,0.025953350,-0.145322080,0.005054470
1640843367.528080,-0.195519390,-0.124084850,9.132596970,0.036515300,-0.055897240,-0.022526090
1640843367.532180,-0.238840330,0.049859870,9.336943630,-0.007218120,0.050355510,-0.026367610
1640843367.532660,-0.301610860,0.316715990,10.681756970,-0.010474030,0.063826150,0.000411270
1640843367.537110,-0.221776100,0.493495910,10.362379070,0.050862140,-0.045453020,-0.001986320
1640843367.537580,-0.089399870,0.285688070,9.931467060,0.085981210,-0.134460640,0.009086730
1640843367.542350,-0.117410470,0.485488920,9.613987920,0.050050020,-0.014087560,0.034342710
1640843367.543820,-0.115034960,0.166684700,9.622861860,0.013118980,0.014436250,0.022926930
1640843367.547100,-0.026578060,-0.096499040,10.447838780,0.026027860,-0.037711860,0.007820130
1640843367.547520,0.220323730,0.207545700,9.936956410,0.071392950,-0.001926720,0.001783670
1640843367.552080,0.165012340,0.047330420,10.027447700,0.057256230,-0.033053760,-0.027780240
1640843367.552600,-0.184277820,0.321067720,10.592020030,0.020353500,-0.049158930,-0.015467400
1640843367.557220,-0.323601570,0.538292530,9.679219250,0.009353460,-0.091741980,-0.003474950
1640843367.557930,-0.275205550,0.374097170,9.719018940,0.013369320,-0.093397500,-0.003528590
1640843367.562180,-0.204419170,0.757600310,9.899766920,0.023366510,0.051134830,0.014127790
1640843367.563210,-0.095780510,0.733199720,10.284405710,0.009058420,0.030264260,0.010554490
1640843367.567080,-0.107426530,0.485251750,10.938237190,-0.007151070,-0.070488460,0.011944770
1640843367.567580,0.017946170,0.553081270,9.903886800,0.008602440,-0.077469650,0.013187530
1640843367.572550,0.143713440,0.416454760,9.389495850,-0.024144350,-0.069312750,0.006558000
1640843367.573540,0.168764010,0.413189650,9.888984680,-0.074209260,0.018258390,0.020913780
1640843367.577920,0.383729370,0.197014290,9.941909790,-0.045625870,0.061525400,0.020040570
1640843367.578780,0.213101600,-0.108043070,10.565432550,0.010393560,-0.023658570,-0.014834110
1640843367.582160,-0.018401270,0.058720830,10.384059910,0.024510920,-0.073674330,-0.004096330
1640843367.582990,-0.129118230,0.199985640,9.399771690,-0.051018600,-0.067546960,0.002983210
1640843367.587160,-0.204324860,0.102219400,9.553298000,-0.121827420,-0.024735930,-0.003230570
1640843367.587600,-0.061045120,0.013685700,9.821750640,-0.036619610,0.082692500,-0.002585350
1640843367.592380,0.028187060,0.138995890,10.137101170,0.058171160,0.056096910,-0.025559960
1640843367.593160,-0.096220270,0.328342080,10.746555330,0.038175290,-0.046215960,-0.010173020
1640843367.597180,0.053264290,0.364986000,9.808383940,-0.071732700,-0.054794550,0.018535550
1640843367.597650,0.109400350,-0.013097980,9.152581210,-0.091339650,-0.027433040,-0.003589690
1640843367.602100,0.207595500,-0.241754860,9.690194130,0.026389960,0.090853870,-0.000058110
1640843367.602640,0.232815560,0.082162390,10.045431140,0.095243760,0.123164050,-0.002725420
1640843367.607340,-0.026341710,0.011882720,10.743970870,0.035882000,-0.037866830,-0.009571020
1640843367.608780,-0.154221500,-0.130379230,10.236179350,-0.023017830,-0.066058340,0.012600420
1640843367.612140,-0.223339110,-0.044795440,9.035226820,-0.011229520,-0.029750170,-0.009299810
1640843367.612880,-0.300963820,-0.075397840,9.779196740,0.048701470,0.059784960,-0.027139490
1640843367.617160,-0.300957710,0.423666180,10.373607640,0.058771680,0.117687900,-0.018408890
1640843367.617580,-0.210955490,0.535992260,10.504792210,0.032238660,-0.022301080,-0.016549230
1640843367.622400,-0.097040900,0.403238090,10.435596470,0.003910060,-0.056701900,0.000314410
1640843367.624200,-0.035655710,0.675244510,9.481646540,0.002773110,-0.000755490,0.013980270
1640843367.627320,-0.045052950,0.517654600,9.791019440,-0.004619360,0.020596390,-0.000222030
1640843367.628870,0.044489260,0.423925610,10.324825290,0.003758070,0.052508710,0.019405780
1640843367.632110,0.305830690,0.342988160,9.903528210,0.028887390,0.027082860,0.016541780
1640843367.632550,0.203472840,0.180921730,10.404432300,0.008209050,0.019983950,-0.009423500
1640843367.637140,-0.153602570,0.365481200,10.460864070,-0.040979690,0.007548930,0.005775690
1640843367.637640,-0.299009170,0.331996080,9.851580620,-0.063362730,-0.073601290,-0.003857910
1640843367.642230,-0.255588680,0.206603900,9.620766640,-0.036010150,-0.024631620,-0.012147430
1640843367.642950,-0.030243270,0.393405560,9.426401140,0.006450710,0.104698520,-0.000183280
1640843367.647100,-0.020359620,0.564487220,10.381316180,-0.020821390,0.104552520,-0.010690090
1640843367.647600,-0.171059360,0.463541120,10.927297590,-0.064368550,-0.011007490,0.018240510
1640843367.652100,-0.004920570,0.244465380,9.904538150,-0.052627920,-0.087791690,0.046256180
1640843367.652570,0.137418730,-0.025830070,9.250113490,-0.021877880,-0.023239850,0.011901560
1640843367.657440,0.219161060,0.046149870,9.372817990,-0.006219750,0.116318460,0.020384790
1640843367.658400,0.280715230,0.135796010,10.182171820,-0.042806570,0.141061860,0.028625140
1640843367.662130,0.080765170,-0.168163550,10.907670970,-0.061161820,0.021013620,0.010196860
1640843367.666640,-0.055482580,-0.393405560,10.264329910,0.009770690,-0.093282750,0.018361210
1640843367.667120,-0.180995630,-0.118217650,9.069764140,0.045989460,-0.047209860,-0.007608530
1640843367.667520,-0.330114310,0.033001170,9.183743480,-0.016236310,0.099147860,-0.005662440
1640843367.672130,-0.403755810,0.148755220,10.357928280,-0.053177790,0.130739840,0.000098350
1640843367.673470,-0.308748660,0.162278120,10.545994760,0.010795890,0.023156400,-0.000029800
1640843367.677440,-0.146556900,-0.002701340,10.109519000,0.096277900,-0.076138970,0.008869170
1640843367.678050,-0.043915700,0.431233910,9.521436690,0.059540570,0.013387200,0.014565890
1640843367.682150,-0.110106690,0.354753320,9.704319000,-0.035150340,0.059561430,0.017428390
1640843367.682810,-0.021889170,0.013654170,10.416042330,-0.032378730,0.024847680,0.027252730
1640843367.687720,0.169058680,0.228825080,9.914890290,0.067374120,0.027318300,0.009900330
1640843367.689170,0.170379160,0.142400500,9.985836980,0.093157600,0.000812110,0.004766880
1640843367.692350,-0.118253890,0.359893740,10.422992710,0.016604370,0.030064580,0.011421740
1640843367.693250,-0.313517780,0.514016750,9.910748480,-0.046971440,-0.018821660,0.014840070
1640843367.697090,-0.279687700,0.182889630,9.897108080,-0.018507240,-0.057931240,0.022199750
1640843367.697540,-0.061818620,0.548123360,9.644625660,0.039678800,0.091804560,0.012758370
1640843367.702240,-0.064022720,0.839355410,10.136647220,0.026883180,0.090618440,0.005814430
1640843367.702880,-0.277858820,0.669035490,11.026005740,-0.041361160,-0.009696180,0.032681220
1640843367.707110,-0.091937810,0.654373110,9.744213100,-0.054508450,-0.071385500,0.035098200
1640843367.707570,0.142775920,0.345512300,9.156272890,-0.036039960,-0.026504700,0.020925710
1640843367.712070,0.206054120,0.405314650,9.651590350,-0.034655640,0.131192850,0.024914750
1640843367.712490,0.352398100,0.483441830,10.128477100,-0.050716110,0.123849510,0.023266670
1640843367.717170,0.179404010,-0.043952060,10.823905940,-0.054980820,-0.011743610,0.017620630
1640843367.719030,0.113704940,-0.101412130,10.041176800,-0.024771690,-0.044696030,0.016942620
1640843367.722650,0.031722160,0.016725130,9.069253920,-0.020994250,0.003673140,0.009664890
1640843367.723750,-0.280179560,-0.018681460,9.734601970,-0.076812510,0.087510060,0.003385540
1640843367.727090,-0.189514320,0.197523090,10.018156050,-0.072054560,0.114926700,0.008212030
1640843367.727580,-0.206729070,0.189421730,10.256804470,-0.015006960,0.035262100,-0.008666510
1640843367.732120,-0.231194500,0.247586190,10.223603250,0.024862590,-0.015743080,0.004754960
1640843367.732570,-0.143343340,0.530392470,9.568218230,-0.022268300,0.022278730,0.024215880
1640843367.737140,-0.217184560,0.260113120,9.717041020,-0.081843130,0.055474040,0.014330450
1640843367.737820,-0.040955290,0.089756490,10.123314860,-0.042319300,0.072750450,0.019621850
1640843367.743600,0.139239370,0.274030210,9.862141610,0.030596560,0.053492200,0.032764680
1640843367.744170,0.118164440,0.084879000,10.147750850,0.002367790,0.022280210,0.015003980
1640843367.747110,0.049179090,0.211170290,10.294938090,-0.055567920,0.049443540,0.026768450
1640843367.747530,-0.235364330,0.267375260,10.053441050,-0.057181720,0.000506640,0.022685520
1640843367.752140,-0.146744640,0.084243110,9.846031190,-0.030431160,-0.015394390,0.021426390
1640843367.753050,0.056366410,0.554257270,9.546537400,-0.011365120,0.110521930,0.022612510
1640843367.757220,-0.173096150,0.724887730,10.284733770,-0.050266090,0.102488700,0.011150540
1640843367.757730,-0.198302460,0.648399000,10.795413020,-0.085379180,0.007310510,0.034743550
1640843367.762080,-0.187225970,0.743498500,9.838361740,-0.063706940,-0.039708610,0.041130190
1640843367.762680,-0.161098350,0.528700830,9.536197660,-0.064435620,-0.002649430,0.029654810
1640843367.767210,-0.004732660,0.606012640,9.736788750,-0.099906330,0.117395830,0.044843550
1640843367.767680,0.032060730,0.518935140,10.124270440,-0.098314890,0.105723740,0.045117730
1640843367.772500,0.156420410,0.020882250,10.543726920,-0.100028520,0.029242040,0.033123790
1640843367.774010,0.161557940,0.059437430,9.953559880,-0.058487060,0.011533500,0.042459370
1640843367.777170,0.007492830,0.081942940,9.560725210,-0.072850270,0.009043510,0.038971000
1640843367.777630,-0.060559700,0.047711700,9.655811310,-0.142011060,0.060722230,0.033216180
1640843367.782580,0.001343960,0.112012940,9.697607040,-0.116612020,0.098548840,0.027801100
1640843367.784740,-0.017232550,0.010148620,10.188546180,-0.057202580,0.097630930,0.015752020
1640843367.787240,-0.143420070,0.222927910,10.368289950,-0.028392670,0.038482250,0.026221570
1640843367.787940,-0.307177840,0.455481830,9.971970560,-0.069040050,-0.006401540,0.038333230
1640843367.792130,-0.263356120,0.269168700,9.411694530,-0.151988910,0.017206370,0.027206550
1640843367.792860,-0.222881180,0.098066150,9.656586650,-0.099289440,0.092233740,0.031404200
1640843367.798590,-0.096953800,0.179441620,9.922819140,-0.009518860,0.121551750,0.023142990
1640843367.799170,-0.064478110,0.092983030,10.353639600,-0.017166140,0.046601890,0.019027290
1640843367.802210,-0.137328100,0.122382330,10.425215720,-0.068482760,-0.009527800,0.048513710
1640843367.802810,-0.089920160,-0.048638580,9.537016870,-0.095702720,0.008310380,0.043049460
1640843367.809510,-0.150483280,-0.187178090,9.729437830,-0.056052220,0.014723840,0.023254750
1640843367.809930,-0.114432950,0.195245710,9.970390320,-0.002242620,0.110402700,0.024743380
1640843367.812110,-0.074136140,0.443230840,10.021182060,-0.041034810,0.075094390,0.008893010
1640843367.812750,-0.294610500,0.466536730,10.814810750,-0.070773070,-0.017939510,0.031559170
1640843367.817910,-0.273283390,0.691265230,9.830189700,-0.083711750,-0.007277730,0.036679210
1640843367.818430,-0.215717120,0.640066270,9.490720750,-0.078566380,-0.017233190,0.033733250
1640843367.822470,-0.235221210,0.710656460,10.257063870,-0.067946320,0.077591840,0.057747970
1640843367.823400,0.022555540,0.781898740,9.805532460,-0.084033600,0.097468490,0.054968890
1640843367.827090,0.121757640,0.241891970,10.524985310,-0.088897350,-0.009718540,0.055338440
1640843367.827480,0.065477520,0.235517780,10.278207780,-0.081431870,0.038859260,0.058710580
1640843367.832120,-0.034352130,0.199770930,9.611482620,-0.105066600,-0.017222760,0.038404760
1640843367.832630,-0.210188420,0.044856090,10.140638350,-0.126133870,-0.027585030,0.046284490
1640843367.837090,-0.036419310,0.215019610,9.448276520,-0.125762840,0.097502770,0.046744950
1640843367.837600,0.065368510,0.012223420,9.995647430,-0.091953560,0.075642760,0.026513630
1640843367.842290,-0.228630240,0.156684310,10.960113530,-0.055296720,0.048549480,0.036235160
1640843367.842870,-0.187481540,0.439653310,9.734237670,-0.089989610,-0.044190890,0.050805510
1640843367.847440,-0.152796120,0.308975220,9.490934370,-0.150977100,-0.063829130,0.053499650
1640843367.848150,-0.056810900,0.177094670,9.398033140,-0.137168150,0.115254510,0.053673980
1640843367.852070,0.164496320,0.202047240,9.741855620,-0.062108040,0.115987640,0.033313030
1640843367.852610,-0.017375390,0.206253070,10.931480410,-0.039193030,0.048397480,0.032229710
1640843367.857160,0.023551380,0.060894200,10.237402920,-0.088778140,-0.012129550,0.045481320
1640843367.857720,-0.005699610,-0.215308530,9.463625910,-0.110815470,-0.052538510,0.030963130
1640843367.862280,-0.225653680,-0.402817460,9.373274800,-0.063145160,0.051534180,0.028489530
1640843367.863420,-0.114454990,-0.219245660,9.420808790,-0.024396180,0.107377770,0.022579730
1640843367.867070,-0.281116630,0.042993840,10.481336590,-0.041700900,0.071112800,0.004212560
1640843367.867490,-0.326435690,-0.069936680,10.597064970,-0.053890050,0.000037250,0.022645300
1640843367.872150,-0.289140700,0.055736960,9.917715070,-0.023357570,-0.064812610,0.026905540
1640843367.872920,-0.344027100,0.326524670,9.498648640,-0.003613530,0.004822020,0.014887750
1640843367.877110,-0.245772590,0.442138820,9.841856000,-0.036293260,0.070719430,0.033049280
1640843367.877840,-0.178756180,0.688272600,10.301407810,-0.057604910,0.069075820,0.038576130
1640843367.882170,-0.017101370,0.338196280,10.281589510,-0.022588670,-0.025373700,0.045394890
1640843367.883040,0.037071700,0.234060780,10.156871800,0.011610980,-0.041058660,0.037561350
1640843367.887500,-0.093360770,0.527763250,9.704759600,-0.026720760,0.012919310,0.019185250
1640843367.888400,-0.296541570,0.286138680,10.113769530,-0.097052760,-0.019773840,0.030593570
1640843367.892130,-0.236449570,0.268242990,10.040932660,-0.098235910,-0.008383390,0.044618540
1640843367.892650,-0.090553880,0.220378670,9.709424020,-0.019426640,0.019815560,0.013813380
1640843367.897100,-0.236821680,0.228727560,10.541710850,-0.000967090,0.014798340,0.014029440
1640843367.897500,-0.347635000,0.590437530,10.324187280,-0.062529740,-0.011721250,0.039400160
1640843367.902110,-0.240415780,0.383056010,9.865478520,-0.120008000,-0.092175620,0.046579540
1640843367.902720,-0.049085460,0.105038060,9.729895590,-0.098380450,-0.007538500,0.046278540
1640843367.908380,0.160269350,0.351296990,9.615309720,-0.019247830,0.080977380,0.022476910
1640843367.908850,-0.004637360,0.383400020,10.499353410,-0.020933150,0.017149740,0.021772080
1640843367.912220,-0.075368640,0.304746630,10.474355700,-0.091855250,-0.056685510,0.048357250
1640843367.913060,0.072714360,0.071622890,9.518579480,-0.102803120,-0.077694660,0.041197240
1640843367.917110,-0.026271280,-0.243083150,9.527829170,-0.043478610,-0.003986060,0.014930960
1640843367.917600,0.044493170,-0.033694840,9.779331210,-0.009197000,0.087289530,0.017404560
1640843367.922190,-0.107168290,0.031476940,10.447128300,-0.026647750,0.044974690,0.016108160
1640843367.923040,-0.398564340,-0.196582690,10.740748410,-0.053064530,-0.078451630,0.017587840
1640843367.927440,-0.248422310,-0.176269430,9.509449960,-0.021179020,-0.121676920,0.022597610
1640843367.928130,-0.298298090,-0.000519810,8.933790210,0.010819730,-0.009308760,0.001978870
1640843367.932120,-0.249714490,0.029097500,9.943939210,-0.009977820,0.102932760,0.013117490
1640843367.932590,-0.203341420,0.124491440,10.778491020,0.000247360,0.038112710,0.024448340
1640843367.937440,-0.245558810,0.008307780,10.479764940,0.049734120,-0.113986430,0.011654200
1640843367.937960,0.000938610,-0.051710820,9.582698820,0.053830460,-0.118148340,0.018095970
1640843367.942300,-0.150493490,0.207319650,9.440310480,0.025194890,0.025151670,0.011204180
1640843367.944240,-0.288214620,-0.001509030,10.231481550,0.000630320,0.026655200,0.001007320
1640843367.947200,-0.125841620,0.009479480,10.449939730,0.054037580,-0.059375180,0.010257960
1640843367.947660,-0.137681050,0.204675810,9.872834210,0.108298640,-0.068898490,0.007578730
1640843367.952080,-0.205605390,0.181300460,9.981894490,0.049161910,-0.042925780,-0.007633860
1640843367.952640,-0.524495360,0.435455470,10.401195530,0.002802910,-0.043302770,0.018475950
1640843367.957150,-0.511224930,0.291719880,9.923502920,0.018295640,-0.110745420,0.006170570
1640843367.959350,-0.084040400,0.224146220,9.668946270,0.061737000,-0.074724860,0.003385540
1640843367.962080,-0.024567020,0.625822900,10.063302040,0.074982640,0.048024960,0.015437600
1640843367.962590,-0.023053090,0.537213150,10.637992860,0.013743340,-0.007033350,0.008662050
1640843367.967090,-0.130958180,0.393578320,10.744150160,-0.017187000,-0.155341630,0.017112500
1640843367.970740,-0.041998800,0.290783640,9.521049500,0.030529500,-0.154635310,0.026649240
1640843367.972080,0.125885830,0.206110950,9.042898180,0.034624340,-0.030243400,-0.006651880
1640843367.972730,0.040978770,0.377245190,10.079114910,0.013351440,0.050097710,0.011907520
1640843367.977400,0.005298920,0.162095710,10.671699520,0.001606350,0.016142430,0.018613040
1640843367.977990,-0.102171390,-0.140821130,10.559690480,0.021608180,-0.160013150,-0.013081730
1640843367.982160,-0.227363200,-0.030230980,9.839085580,0.069707640,-0.144898890,0.014697020
1640843367.982910,-0.183478790,0.166555150,8.937991140,0.012274090,-0.025366250,0.003926460
1640843367.987600,-0.178320450,0.086328690,9.893592830,-0.031216440,0.010786950,-0.012215970
1640843367.989000,-0.062696060,0.039416160,10.518136980,0.026974080,0.035953520,-0.002482530
1640843367.993100,-0.008600020,0.048838240,10.132825850,0.108189870,-0.101338310,-0.026839970
1640843367.994470,-0.116695310,0.144444840,10.126561160,0.100609670,-0.145354880,-0.010114910
1640843367.997140,-0.067752060,0.242166970,9.209852220,-0.007651750,-0.037164990,0.015017390
1640843367.997550,-0.116887940,-0.102347400,9.687702180,-0.014282770,-0.027213990,-0.020536780
1640843368.002040,-0.047496860,-0.250497160,10.369370460,0.108231630,-0.017350910,-0.008386370
1640843368.002540,0.091855840,-0.008098230,9.779212000,0.169354690,-0.028470160,-0.018227100
1640843368.007360,-0.103420740,0.064291660,10.331412320,0.091086330,-0.089237100,-0.030879680
1640843368.008280,-0.314061940,0.071414950,10.118802070,0.017586350,-0.073741380,0.006072220
1640843368.012110,-0.328377990,0.084765340,9.414215090,0.054141880,-0.112244470,-0.025428830
1640843368.012720,-0.221257980,0.251694440,9.691898350,0.108057280,-0.045356160,-0.031553210
1640843368.017060,-0.182226910,0.651897370,10.029079440,0.119602670,0.038021800,-0.024433440
1640843368.017630,-0.133691070,0.833765630,10.556942940,0.051696600,-0.056253380,-0.022108850
1640843368.022320,-0.106624740,0.596407830,10.412467960,0.014683610,-0.113102790,-0.010477010
1640843368.024000,-0.075874360,0.540025060,9.651644710,0.052708390,-0.108867880,-0.005857650
1640843368.027330,0.020560880,0.587286170,9.493689540,0.048771500,-0.037269300,-0.007562340
1640843368.027920,-0.005517780,0.419060320,10.020812030,0.027275090,-0.013011700,0.009006260
1640843368.032090,0.145183980,0.203050510,10.146562580,0.027987360,-0.029979650,0.014629960
1640843368.032620,0.098930900,0.027332690,10.059750560,0.028418000,-0.062108040,-0.018410390
1640843368.037500,-0.170531470,0.040244390,10.282770160,0.041843950,-0.087343160,-0.008066000
1640843368.039450,-0.370145440,0.315992800,9.777860640,-0.002390150,-0.080208470,-0.015418230
1640843368.042160,-0.272977290,0.271685150,9.424306870,-0.032845140,-0.092826780,-0.034458930
1640843368.042910,-0.073430380,0.216657040,9.783297540,0.013816360,0.021828710,-0.022047760
1640843368.047110,0.138523730,0.606196170,9.868648530,0.040787460,0.065670910,-0.034435090
1640843368.049890,-0.106208960,0.470771640,10.851669310,0.013393160,-0.082968180,-0.012864170
1640843368.052080,-0.063207340,0.312790930,9.998449330,-0.022105870,-0.130204860,0.011679530
1640843368.052770,0.096135830,-0.020774110,8.816323280,-0.005646050,-0.084859130,-0.014039880
1640843368.057240,-0.037797780,-0.256175610,9.674391750,0.046828390,0.025251510,-0.009739400
1640843368.057980,0.022871690,-0.017434300,9.888310430,0.039036570,0.087969010,-0.010629000
1640843368.062080,-0.161907370,-0.184059160,10.776095390,0.016276540,-0.081540640,-0.037553900
1640843368.062570,-0.408956890,-0.289381920,10.485208510,0.025796890,-0.139412300,-0.027187170
1640843368.067060,-0.237566530,-0.012713390,8.817722320,0.052475940,-0.102114680,-0.050245230
1640843368.067530,-0.433603850,0.186843350,9.601882930,0.046186150,-0.001001360,-0.059902670
1640843368.072260,-0.358868450,0.483588400,10.273592000,0.015181300,0.067618500,-0.038276610
1640843368.074520,-0.173825430,0.606654470,10.486717220,0.031147900,-0.086785850,-0.030639770
1640843368.077870,-0.154415160,0.408260760,10.262800220,0.074389580,-0.138255970,-0.021637980
1640843368.078340,0.054976030,0.474789500,9.293688770,0.062362850,-0.057116150,-0.016069410
1640843368.082060,-0.218420100,0.520778950,10.001058580,0.011332330,-0.030356650,-0.014404950
1640843368.082870,-0.224314450,0.186353300,10.262491230,-0.016736990,-0.063461070,-0.011259320
1640843368.087500,0.177399100,0.044372970,9.605959890,0.034210090,-0.079624350,-0.009655950
1640843368.088190,0.042123180,0.139450820,9.983551030,0.065740950,-0.014410910,-0.038638710
1640843368.092210,-0.116014360,0.216672940,10.485382080,0.012560190,-0.028403110,-0.031869110
1640843368.093880,-0.336241870,0.414100860,10.311103820,-0.038088860,-0.131855910,-0.018851460
1640843368.097090,-0.294080560,0.162211360,9.537123680,-0.014021990,-0.130185500,-0.019021330
1640843368.097490,0.052994190,0.195349870,9.249674800,0.035244230,-0.008484720,-0.024084750
1640843368.102680,-0.010805230,0.677345930,9.886209490,0.039049990,0.047913190,-0.032198430
1640843368.104430,-0.061160060,0.404229820,10.554075240,-0.027810040,-0.048014520,-0.014728310
1640843368.107150,-0.017277590,0.137968900,10.327088360,-0.034543870,-0.139105330,-0.004011390
1640843368.107730,0.038089240,-0.057435470,9.357875820,0.039885940,-0.116617990,-0.024372340
1640843368.112110,0.168116410,-0.207282100,9.312276840,0.043614220,-0.012847780,-0.035251690
1640843368.112700,0.151753340,0.128907640,9.916109090,-0.000916420,0.076311830,-0.030036270
1640843368.117160,-0.043445770,-0.186564590,10.567651750,-0.018864870,-0.011709330,-0.039793550
1640843368.117720,-0.099559570,-0.398786370,10.268716810,0.042603910,-0.158052190,-0.041449070
1640843368.122650,-0.199828160,-0.051666550,9.130038260,0.120084000,-0.104276840,-0.048142670
1640843368.123390,-0.326595370,0.111725700,9.276099210,0.039099160,0.000770390,-0.055925550
1640843368.127090,-0.363545210,0.312777700,10.287119870,-0.031748420,0.038915870,-0.036942960
1640843368.127510,-0.267172400,0.272520690,10.469396590,0.030636780,-0.024625660,-0.036983200
1640843368.132110,-0.191383970,0.214236770,10.191249850,0.108739740,-0.134830180,-0.047457210
1640843368.132590,-0.132010580,0.536963940,9.675561900,0.100189450,-0.079180310,-0.035746400
1640843368.137100,-0.149971080,0.593044220,9.435846330,-0.008904930,-0.000171360,-0.038796670
1640843368.137550,-0.197259660,0.289163890,10.174765590,-0.042630740,-0.050346560,-0.029139230
1640843368.142450,0.121072120,0.133417890,10.073895450,0.067158040,-0.037790840,-0.020660460
1640843368.143980,0.225968910,0.286721020,9.812955860,0.105121740,-0.038401790,-0.064857300
1640843368.147120,0.009541330,0.400100500,10.465839390,0.019714240,-0.037714840,-0.046437980
1640843368.147520,-0.234079110,0.440990870,10.229786870,-0.048416860,-0.046218930,-0.023055080
1640843368.152210,-0.338930040,0.239563080,9.664528850,-0.025781990,-0.164428350,-0.045271230
1640843368.152840,-0.089511350,0.352709680,9.402791020,0.035060940,-0.045640770,-0.037297610
1640843368.157210,-0.038032160,0.805019140,9.495954510,0.028517840,0.095918770,-0.049489740
1640843368.157930,-0.191664190,0.591994110,10.878902440,-0.044336920,-0.024978820,-0.031742450
1640843368.162070,-0.052229640,0.426991520,10.573663710,-0.045453020,-0.095239270,-0.005882980
1640843368.162570,-0.036191710,0.255985200,9.352087970,0.006292760,-0.127312540,-0.031223900
1640843368.167270,0.029251510,0.121142890,9.449119570,0.003288690,-0.041921440,-0.030629340
1640843368.167940,0.156054820,0.285218480,9.457471850,-0.031673910,0.084926190,-0.020590420
1640843368.172200,0.206850470,-0.116128000,10.277988430,-0.047011680,0.029522180,-0.041641300
1640843368.172930,0.057170470,-0.346473720,10.788658140,0.017310680,-0.045378510,-0.043126940
1640843368.177070,-0.073629680,0.015071520,9.597153660,0.062011190,-0.118297340,-0.032845140
1640843368.177570,-0.257353900,0.009077870,9.279743190,-0.024352970,-0.088219350,-0.047986210
1640843368.182300,-0.329813960,0.080114920,9.517427440,-0.072987380,0.073455280,-0.040508810
1640843368.183820,-0.384352830,0.147985220,10.145784380,0.021824240,0.016120080,-0.050102180
1640843368.187110,-0.239340830,0.227755030,10.336605070,0.083361570,-0.067664680,-0.064064570
1640843368.187530,-0.190603120,0.555424570,9.847537040,0.043395160,-0.055715450,-0.043064360
1640843368.192810,-0.210887280,0.472252130,9.784631730,-0.047650930,-0.036606200,-0.041565300
1640843368.193610,-0.252226320,0.073334140,9.967845920,-0.034955150,-0.046171250,-0.051242110
1640843368.197100,0.011935190,0.144398080,9.643199920,0.072142480,-0.031575560,-0.038519500
1640843368.197570,0.172601550,0.188753200,9.733385090,0.071227550,0.021357840,-0.051702560
1640843368.202080,-0.086393520,0.190552370,10.621939660,-0.000450020,-0.017310680,-0.044406950
1640843368.202720,-0.261137130,0.260987880,10.367527010,-0.037896630,-0.094321360,-0.033664710
1640843368.207160,-0.246351120,0.147829460,9.501976970,-0.019299980,-0.125950590,-0.061665480
1640843368.207720,-0.221166010,0.347742440,9.687994000,0.029896200,-0.022228060,-0.053694850
1640843368.212130,-0.216849480,0.825052800,9.821874620,0.004671510,0.070352840,-0.059178470
1640843368.212540,-0.208680960,0.676358640,10.580613140,-0.044734780,-0.052988530,-0.049346690
1640843368.217180,-0.144420520,0.668182130,10.403118130,-0.045345720,-0.099784160,-0.029015540
1640843368.217640,0.018071860,0.632631660,9.327836040,-0.039975350,-0.068588560,-0.050419570
1640843368.222190,-0.019573880,0.417114730,9.888346670,-0.040370230,-0.035116080,-0.037653740
1640843368.222940,0.053774250,0.517771840,9.888337140,-0.049638760,0.044052310,-0.025174030
1640843368.227050,0.361550120,0.029254860,9.916366580,-0.061437490,-0.016973910,-0.044101480
1640843368.227590,0.191625180,-0.137330920,10.545894620,-0.032168630,-0.020399690,-0.037187340
1640843368.232110,0.030641930,0.079665000,9.708538060,-0.024546680,-0.033214680,-0.041399890
1640843368.232560,-0.075670500,-0.044768420,9.627697940,-0.073626630,-0.102446980,-0.048965220
1640843368.237060,-0.167548360,0.094905060,9.588001250,-0.079579660,0.020264090,-0.036233670
1640843368.237830,0.064967760,0.190091770,9.417085650,-0.047205400,0.078155100,-0.056527550
1640843368.242100,-0.199485480,0.142563570,10.686443330,0.015503170,0.016964970,-0.051358340
1640843368.242560,-0.338648320,0.415977270,10.318025590,0.005558130,-0.053182250,-0.039640070
1640843368.247500,-0.126792800,0.258121460,9.324602130,-0.066356360,-0.104957830,-0.034964080
1640843368.248140,-0.229251340,-0.091173410,9.450962070,-0.052055720,0.017200410,-0.031326710
1640843368.252060,0.037804470,0.024494620,9.406956670,0.014159080,0.099873540,-0.039699680
1640843368.252560,0.055292110,-0.064506200,10.394570350,0.033637890,0.024013220,-0.042979420
1640843368.257190,-0.054721630,-0.204353530,10.680675510,0.016295910,-0.025925040,-0.036090620
1640843368.257940,0.009472270,-0.117095520,9.603413580,-0.004348160,-0.087676940,-0.041209160
1640843368.262250,-0.220958470,-0.171387910,9.443737980,0.011390450,-0.049549340,-0.056360660
1640843368.265020,-0.136325150,0.123910500,9.452579500,0.025932490,0.070559990,-0.054278970
1640843368.267140,-0.202959690,0.546380580,10.119641300,0.016188620,0.060962150,-0.062114000
1640843368.267780,-0.418254580,0.531557980,10.779176710,0.016903880,-0.048808750,-0.050033630
1640843368.272370,-0.169776250,0.624751330,9.730436330,0.014720860,-0.072608890,-0.030773880
1640843368.273170,-0.231543320,0.738015230,9.520302770,0.010037420,-0.019070510,-0.037720800
1640843368.277130,-0.315480860,0.571490350,10.263938900,-0.014983120,0.032909220,-0.017654900
1640843368.277660,0.015028270,0.579738260,9.863540650,-0.030723220,0.008626280,-0.008170310
1640843368.282940,0.193467570,0.168842230,9.925806050,0.006635490,-0.020073360,-0.029626490
1640843368.286400,0.271477550,0.012717340,10.015766140,0.011873250,0.041528050,-0.032755740
1640843368.287220,0.055920890,0.204937090,9.866483690,-0.016716120,-0.009749830,-0.039267540
1640843368.287620,-0.178914680,-0.049327930,10.073250770,-0.046011810,-0.080102690,-0.032496460
1640843368.292100,0.074358370,-0.032231670,9.282450680,-0.042681400,0.007702410,-0.019070510
1640843368.292560,-0.068792970,0.023998750,9.648777010,0.014032430,0.060793760,-0.051382180
1640843368.297120,-0.354029060,-0.066437070,10.632057190,0.031679870,0.044952340,-0.044277310
1640843368.297590,-0.611043450,-0.138131870,10.260379790,0.044812270,-0.068031250,-0.037135180
1640843368.302340,-1.006686330,-0.691305220,9.971790310,0.077690180,-0.156795990,-0.056032840
1640843368.303700,-1.046208980,-1.087841390,9.359630580,0.119480510,-0.104384130,-0.051361330
1640843368.307350,-0.966428520,-0.930209100,9.405729290,0.161534560,-0.023494660,-0.065213450
1640843368.307920,-0.586299300,-0.959757150,10.263654710,0.154232990,0.014601650,-0.054900350
1640843368.312230,-0.246631010,-0.710904540,10.869972230,0.168487430,-0.062365830,-0.049620870
1640843368.312980,0.043431180,-0.292535480,10.363388060,0.238962470,-0.157691540,-0.057320300
1640843368.317250,0.315062140,0.082436140,9.336159710,0.222460930,-0.174170750,-0.071229030
1640843368.317860,0.351837010,0.623698770,9.277427670,0.197529840,-0.049535940,-0.058688220
1640843368.322120,0.159621510,0.833553790,9.945780750,0.191518660,-0.016091770,-0.077681240
1640843368.324050,-0.114454680,0.723968450,10.638715740,0.214898570,-0.152257070,-0.065208960
1640843368.327400,-0.290912030,0.684554460,10.219306950,0.257547230,-0.179344390,-0.054875020
1640843368.328860,-0.554727970,0.420935390,9.692315100,0.211299970,-0.127524140,-0.076012310
1640843368.332130,-0.855202620,0.142893660,10.301260950,0.162380920,-0.112581240,-0.061248250
1640843368.332800,-0.719694850,-0.081645220,10.167534830,0.185936660,-0.098581600,-0.052011010
1640843368.337210,-0.233595890,-0.320638570,9.705877300,0.231581960,-0.148075830,-0.090786830
1640843368.337700,0.198272110,-0.076823350,9.930663110,0.244164510,-0.076739490,-0.086781380
1640843368.342160,0.366342960,0.395388390,9.901940350,0.189448940,-0.030678510,-0.080420080
1640843368.343400,0.314114300,0.361852440,10.468563080,0.140759350,-0.177605450,-0.074201830
1640843368.347180,0.432395040,0.543247820,9.860071180,0.176854450,-0.174091760,-0.057864190
1640843368.347780,0.510957000,0.795470480,8.871177670,0.204655540,-0.084638600,-0.094893570
1640843368.352140,0.265903860,0.759863380,9.957727430,0.170771820,-0.021006170,-0.095851740
1640843368.352770,-0.064369860,0.719951390,10.346907620,0.136408220,-0.008499620,-0.080867110
1640843368.357170,-0.420086890,0.192246510,10.227046010,0.158536400,-0.187635440,-0.109654660
1640843368.357810,-0.554559170,-0.277162190,9.705891610,0.194302200,-0.195495800,-0.098805140
1640843368.362180,-0.522760690,-0.283953910,8.802817340,0.208474700,-0.048488380,-0.110593440
1640843368.362930,-0.553595480,-0.482075600,9.968987460,0.164017080,-0.018899140,-0.123414420
1640843368.367120,-0.266880210,-0.493027210,10.570595740,0.170587020,-0.040784480,-0.120854390
1640843368.367650,0.037418690,-0.247382130,10.103989600,0.235567990,-0.154024380,-0.124521560
1640843368.372330,0.301692400,0.022326520,9.620728490,0.236444150,-0.137937080,-0.124411270
1640843368.373500,0.436636570,0.410755040,9.462121010,0.193437930,-0.034432110,-0.117808600
1640843368.377130,0.278827250,0.602206830,10.007479670,0.177161400,-0.040881340,-0.127750640
1640843368.377650,0.307150190,0.589220350,10.017052650,0.198888760,-0.103819370,-0.125773250
1640843368.382140,0.157346200,0.619190810,9.963299750,0.232787470,-0.096556540,-0.124563300
1640843368.382870,-0.258173110,0.601415690,9.853386880,0.196039680,-0.057993830,-0.151005400
1640843368.387160,-0.647841690,0.284276750,10.196108820,0.161020460,-0.111530730,-0.150151550
1640843368.387700,-0.814999820,0.125386400,10.021998410,0.173972550,-0.132660580,-0.134125370
1640843368.392210,-0.309013250,-0.051530110,9.032816890,0.191573770,-0.069865580,-0.154834960
1640843368.392970,-0.133189650,-0.055410560,10.078604700,0.200383380,-0.010603670,-0.150623920
1640843368.397160,-0.028055310,0.251074490,10.404108050,0.184459950,-0.005407630,-0.139002500
1640843368.398580,0.216052890,0.104388800,10.099923130,0.161615010,-0.168381680,-0.154818610
1640843368.402070,0.182123350,0.230365370,9.842216490,0.180658700,-0.157767550,-0.146967170
1640843368.402640,0.384835360,0.591699000,8.749781610,0.177384930,-0.044418880,-0.171266470
1640843368.407130,0.382138310,0.668531000,9.553790090,0.126752270,-0.009670850,-0.180800270
1640843368.408110,0.159570710,0.639766400,10.447633740,0.143162880,0.022381540,-0.173422680
1640843368.412130,0.141960500,0.398369460,10.060516360,0.177189720,-0.085471570,-0.196504640
1640843368.412920,-0.261854530,0.129916500,10.001551630,0.200066020,-0.169420290,-0.179678230
1640843368.417350,-0.328473630,0.092385410,8.928583150,0.165048240,-0.073426970,-0.176611540
1640843368.418120,-0.349609380,-0.135660380,9.082925800,0.092975800,-0.000384450,-0.206229110
1640843368.422480,-0.507364510,-0.418110460,10.319184300,0.139017400,0.006669760,-0.211444530
1640843368.423590,-0.270950230,-0.193749070,10.021628380,0.224953870,-0.070142740,-0.221568350
1640843368.427120,-0.202407610,0.131444840,9.687355040,0.217550990,-0.146034370,-0.235448780
1640843368.427650,-0.104237780,0.280028460,9.565888400,0.121271600,-0.068847840,-0.217655270
1640843368.432140,0.129494830,0.478926990,9.266848560,0.095506010,-0.009186570,-0.209964840
1640843368.432750,0.213615220,0.381924390,9.929041860,0.181744990,-0.036494430,-0.227944600
1640843368.437110,0.351464390,0.587183240,10.034991260,0.229206670,-0.030232960,-0.225695950
1640843368.437580,0.218893300,0.846295060,9.700016980,0.157815220,-0.067101430,-0.236631970
1640843368.442100,-0.085623660,0.483447880,10.068751340,0.070208320,-0.094369050,-0.231219870
1640843368.442720,-0.283850190,0.319843110,9.572324750,0.082096460,-0.072737050,-0.233165920
1640843368.447160,-0.237759410,0.181872800,9.236865040,0.162056100,-0.060646240,-0.256477330
1640843368.450710,-0.297810440,0.285671590,9.905763630,0.158046190,0.011533500,-0.263667080
1640843368.452160,-0.222964300,0.506585480,10.017716410,0.083445020,0.003986060,-0.242641580
1640843368.456020,-0.216656010,0.220992250,10.183004380,0.034041700,-0.086747090,-0.252324310
1640843368.457400,-0.258526920,0.170950030,9.823027610,0.091251720,-0.120198720,-0.250452700
1640843368.458320,0.035618010,0.493775400,9.004935260,0.124672080,-0.056679550,-0.263260300
1640843368.462080,0.199468400,0.685350360,9.278371810,0.049714750,0.033459070,-0.276972380
1640843368.462620,0.341894000,0.439852710,10.172948840,0.028391180,0.034597520,-0.250008730
1640843368.467180,0.446761250,0.332606550,10.068932530,0.072871160,-0.001114610,-0.284768670
1640843368.467730,0.221990470,0.306587580,9.912076950,0.101926930,-0.110144910,-0.281998520
1640843368.472510,-0.013601700,0.294154230,9.409276960,0.052808230,-0.055620080,-0.255808230
1640843368.473280,-0.025808900,0.150838940,8.772647860,-0.004161890,0.011329350,-0.289599630
1640843368.477060,-0.286008980,-0.216155960,9.919701580,0.042139000,0.031989820,-0.294455890
1640843368.477590,-0.248983950,-0.036393720,9.781881330,0.114731510,0.040756170,-0.293371080
1640843368.482200,-0.310435590,0.092141130,9.825810430,0.107206400,-0.067347280,-0.314883830
1640843368.483160,-0.511281250,0.092211260,10.133635520,0.021685660,-0.058940050,-0.291927160
1640843368.487620,-0.191372660,0.118058530,8.918343540,0.019639730,-0.022049250,-0.292816760
1640843368.488430,-0.115040320,0.102817620,9.640808110,0.089082130,-0.005182620,-0.316666070
1640843368.492090,0.065497570,0.364817650,9.824976920,0.118696690,0.072318320,-0.290778280
1640843368.492640,0.195373850,0.640748620,9.876852040,0.073012700,-0.028730930,-0.297115680
1640843368.497100,-0.039615720,0.431838720,10.171691890,0.023749470,-0.078015040,-0.283160810
1640843368.497530,0.067494730,0.223031070,9.124083520,0.047616660,-0.045959640,-0.290952620
1640843368.502050,-0.125827950,0.360994340,9.409918790,0.083473320,-0.003071130,-0.334720310
1640843368.502940,-0.408741830,0.374570130,10.126961710,0.062000750,0.033988060,-0.332425560
1640843368.507180,-0.240457010,0.502981780,9.943896290,0.004127620,-0.050008300,-0.315479960
1640843368.508430,-0.322996020,0.379747990,9.819694520,-0.000149010,-0.063413390,-0.325904820
1640843368.512080,-0.275001820,0.246127230,9.664194110,0.031417600,-0.029000640,-0.312305930
1640843368.512660,-0.330777650,0.658268630,9.753489490,0.036907190,-0.018061700,-0.308655200
1640843368.517220,-0.193126560,0.470188530,9.717561720,-0.013761220,-0.060084470,-0.299818810
1640843368.517930,0.328298720,0.229469360,9.384023670,-0.022348760,-0.015181300,-0.294451450
1640843368.522390,0.389566090,0.370576980,9.527922630,0.013375280,0.069415580,-0.329984720
1640843368.523120,0.142281740,0.211541970,10.410330770,0.016303360,-0.026147070,-0.330123310
1640843368.527190,-0.001327970,0.288150850,9.851603510,-0.015971070,-0.091256200,-0.321410630
1640843368.527690,-0.052447200,0.126995980,8.916428570,-0.027562680,-0.084176660,-0.336755810
1640843368.532090,-0.110506970,-0.065953460,9.210534100,-0.013911730,0.031888490,-0.333513320
1640843368.532620,-0.230877060,0.226037870,9.694645880,0.017893310,0.096248090,-0.331147040
1640843368.537150,-0.383660850,0.137297760,10.376035690,0.008973480,-0.041462490,-0.330872890
1640843368.537790,-0.429653760,-0.042801930,9.923630710,0.004878640,-0.111092630,-0.316813590
1640843368.542600,-0.216503530,0.007647810,8.736745830,0.024321670,-0.062701110,-0.329720940
1640843368.543450,-0.288530590,-0.006952120,9.253277780,0.016266110,0.013765690,-0.351402160
1640843368.547100,-0.145128830,0.221075580,9.773829460,0.007434190,0.058834250,-0.349366640
1640843368.547590,0.025968380,0.281716020,9.954719540,0.003670160,-0.045387450,-0.353285760
1640843368.552120,-0.010523780,0.005370870,9.889902110,0.043092680,-0.098861770,-0.339244400
1640843368.553740,0.063444450,0.129699360,9.196409230,0.060686480,-0.048835590,-0.335688950
1640843368.557180,-0.284320320,0.130459260,9.453214650,0.038298960,-0.036661330,-0.355294350
1640843368.557910,-0.328054130,0.034177830,9.800590520,0.001291930,-0.031764810,-0.342805680
1640843368.562200,-0.217519880,0.264818610,9.397506710,0.020177660,-0.038385390,-0.343021750
1640843368.562930,-0.375162600,0.155636390,9.872304920,0.050590940,-0.065134470,-0.361719730
1640843368.567140,-0.399006160,0.381650390,9.956745150,0.039419530,-0.053992880,-0.353974160
1640843368.567560,-0.501568380,0.659142370,9.638457300,0.008399780,-0.095349570,-0.356866510
1640843368.572080,-0.440721210,0.431079420,9.761778830,-0.023034220,-0.122924150,-0.342823590
1640843368.572740,-0.001074600,0.629302080,9.117181780,-0.004303460,-0.036774580,-0.333049920
1640843368.577450,0.115135460,0.615666330,9.669233320,0.014661250,-0.019137570,-0.356744290
1640843368.578600,0.119968110,0.463867370,10.218589780,-0.018462540,-0.051778550,-0.342240930
1640843368.583270,0.080794000,0.342338170,9.630936620,-0.011262300,-0.131402950,-0.339894060
1640843368.586260,-0.086800020,0.000778470,9.556712150,-0.016000870,-0.146324960,-0.356948470
1640843368.587090,-0.043229460,0.087207520,9.122795100,-0.030213600,-0.049419710,-0.348484520
1640843368.587540,-0.058696430,0.117179010,9.464809420,-0.031703710,-0.006781520,-0.355823340
1640843368.592440,-0.172587010,-0.183812250,10.089576720,-0.015561280,-0.033654270,-0.354380940
1640843368.593760,-0.176826210,-0.078594910,9.791282650,0.038479280,-0.114186130,-0.348599310
1640843368.597190,-0.413003830,0.109092700,9.357475280,0.028717520,-0.149749220,-0.356404510
1640843368.599370,-0.392905620,0.178241610,8.975230220,-0.047849120,-0.122106100,-0.350152050
1640843368.602070,-0.233659710,0.296558800,9.256751060,-0.060029340,-0.025677680,-0.363130960
1640843368.602650,-0.156565350,0.235949800,9.833921430,0.009278950,-0.019645690,-0.387488280
1640843368.607320,-0.047171820,0.312079340,10.229977610,0.074934970,-0.120183840,-0.358615850
1640843368.607940,-0.040121060,0.507574800,9.599800110,0.027573110,-0.122319180,-0.351142880
1640843368.612170,-0.104381580,0.087118860,9.265387540,-0.064940760,-0.148354470,-0.348624620
1640843368.612800,-0.148342790,-0.246451910,9.432075500,-0.014992060,-0.087426610,-0.342220070
1640843368.617390,-0.092391100,-0.212668460,9.051003460,0.078742210,-0.059138240,-0.377897920
1640843368.618350,-0.149706200,-0.216349450,10.040574070,0.073741380,-0.099021200,-0.378212360
1640843368.622060,-0.341727230,0.252810930,10.122244830,-0.007265810,-0.084781640,-0.379332900
1640843368.622690,-0.514227330,0.226173370,9.743423460,-0.048154600,-0.224804910,-0.385683860
1640843368.627090,-0.536804020,0.166347370,9.540996550,-0.011162460,-0.180971620,-0.371086630
1640843368.628580,-0.345875800,0.661106230,8.843744280,0.065270070,-0.068546820,-0.384746430
1640843368.632200,-0.374321010,0.725872990,9.979995730,0.029981140,-0.112029920,-0.363360350
1640843368.632960,-0.020273030,0.862397130,9.930121420,-0.038857760,-0.111751260,-0.327947770
1640843368.637070,0.293233340,0.513419390,9.451944350,-0.051239130,-0.169895590,-0.348691610
1640843368.637590,0.190951760,0.167455090,9.900667190,-0.008355080,-0.139440600,-0.365242300
1640843368.642060,0.200667840,0.366381440,9.337441440,0.022691490,-0.117681940,-0.367447820
1640843368.642620,0.025888260,0.116279790,9.562163350,-0.031727550,-0.173719230,-0.376054670
1640843368.647810,0.017659980,-0.110711570,9.508497240,-0.064662100,-0.110964500,-0.375333430
1640843368.649130,-0.023380030,-0.095092570,9.321733470,-0.017383690,-0.097790370,-0.380420710
1640843368.652250,-0.465440690,-0.162295120,10.089517590,0.011160970,-0.144864620,-0.381763310
1640843368.652930,-0.514243960,0.028414380,9.656317710,0.000280140,-0.190985230,-0.359998670
1640843368.657420,-0.447468190,0.046855010,9.123044970,-0.014068190,-0.190427900,-0.372263820
1640843368.658440,-0.239246380,-0.049652380,9.180438040,-0.011976060,-0.099745400,-0.388470320
1640843368.662140,0.031175580,0.280259400,9.582115170,0.016877060,-0.061771280,-0.381973450
1640843368.663150,-0.006483050,0.270612570,10.042731290,0.023889540,-0.141459700,-0.401625130
1640843368.667180,0.199454490,0.154656720,9.721960070,0.015856330,-0.227965410,-0.380921390
1640843368.667880,0.171457950,0.147472380,8.905763630,0.028648980,-0.180190800,-0.376155970
1640843368.672110,0.112419260,-0.174473780,8.939997670,0.024753810,-0.105607510,-0.393213360
1640843368.672700,-0.091836510,-0.145951820,10.023763660,0.038592520,-0.081799930,-0.382454690
1640843368.677070,-0.278409060,-0.056849070,9.964838030,0.054264070,-0.154370070,-0.395357640
1640843368.677580,-0.284459710,-0.273615900,9.706139560,0.054059930,-0.245782760,-0.391393960
1640843368.682220,-0.499839400,0.047659110,9.399519920,0.065432490,-0.148001330,-0.385466220
1640843368.683110,-0.563022970,0.152432290,9.344246860,0.047315660,-0.141604240,-0.416135880
1640843368.687160,-0.565365550,0.274271250,10.036806110,0.037252910,-0.184494290,-0.393797490
1640843368.687670,-0.220953000,0.606911000,9.377564430,0.070579350,-0.174099220,-0.383619990
1640843368.692400,0.225229560,0.441207560,9.386374470,0.049573180,-0.164738310,-0.385963920
1640843368.693130,0.140307490,0.637822090,10.108711240,0.045648220,-0.109663620,-0.363983300
1640843368.697240,0.192267730,0.523440480,9.749533650,0.036863980,-0.182086240,-0.375814740
1640843368.697950,0.171119960,0.131643220,9.653658870,0.019994380,-0.266625050,-0.370597900
1640843368.702090,0.218566130,0.220873740,8.985292430,0.052756070,-0.147648160,-0.369617370
1640843368.702760,0.160003600,0.111258180,9.225272180,0.013916190,-0.098578630,-0.392712740
1640843368.707390,-0.156206370,0.060040440,10.266050340,0.001125040,-0.142295660,-0.388251270
1640843368.707920,-0.224458170,0.069739220,9.698430060,0.029759110,-0.193330650,-0.386427340
1640843368.712120,-0.316893040,-0.102962720,9.366279600,0.046251720,-0.238354550,-0.387613530
1640843368.712610,-0.429375800,0.151986990,9.442785260,0.054569540,-0.155083850,-0.370171670
1640843368.717230,-0.191045150,0.276513550,9.098830220,-0.002780560,-0.111703580,-0.373639170
1640843368.717900,-0.062160640,0.032438070,9.897189140,-0.003609060,-0.141446290,-0.366176660
1640843368.722570,0.172937240,0.124143250,9.798726080,0.080725550,-0.127917540,-0.361712280
1640843368.723600,0.229577510,0.167835970,9.329772000,0.089286270,-0.196249780,-0.375494390
1640843368.728800,0.018576770,0.035549080,9.701478960,0.040970750,-0.213559000,-0.362357590
1640843368.729320,0.088227820,0.014467950,8.840152740,0.015904010,-0.124159470,-0.366421040
1640843368.732080,-0.067775210,-0.289464060,9.449787140,0.055366750,-0.156821330,-0.391571220
1640843368.732590,-0.229375530,-0.158117290,9.979679110,0.129646060,-0.131173430,-0.375010100
1640843368.737140,-0.256797550,0.081862180,9.369285580,0.107041010,-0.173996390,-0.391078030
1640843368.737720,-0.566382880,-0.063364760,10.101470950,0.042842320,-0.232161570,-0.378380750
1640843368.743110,-0.492329720,0.079188650,9.306080820,0.054554640,-0.164717440,-0.368018480
1640843368.744960,-0.330279410,0.072886910,9.044483180,0.123010590,-0.209510360,-0.381666510
1640843368.747220,-0.193231850,0.260928720,9.884375570,0.141517830,-0.127568840,-0.356797900
1640843368.747660,0.030959560,0.630541440,9.615143780,0.086256860,-0.122806450,-0.356458160
1640843368.752140,-0.028780960,0.218693080,10.307834630,0.055843590,-0.264401760,-0.358350570
1640843368.752790,0.033542860,0.313866790,9.491443630,0.092051930,-0.219133540,-0.356882810
1640843368.757680,0.124528980,0.446192350,8.890030860,0.102205580,-0.197790560,-0.380519060
1640843368.758520,-0.082633610,0.360692020,9.987484930,0.060975550,-0.146891190,-0.377245280
1640843368.762420,-0.048265130,0.525324580,9.615208630,0.039774180,-0.149351370,-0.362789630
1640843368.763420,0.010164880,0.214082180,9.724369050,0.053918360,-0.244255360,-0.367091570
1640843368.767040,-0.209833150,0.151018340,9.829740520,0.090695920,-0.165097430,-0.363093610
1640843368.767590,-0.288376690,0.395712080,9.396789550,0.078828630,-0.188399820,-0.362940070
1640843368.772110,-0.376472890,0.218521430,9.811222080,0.010873380,-0.238281530,-0.351531800
1640843368.772960,0.043756330,0.131932560,9.154647830,0.026164950,-0.149045930,-0.347864690
1640843368.777260,0.256274550,0.155911620,9.335230830,0.071588160,-0.127862380,-0.367908120
1640843368.777960,0.169487210,0.163217280,10.249573710,0.094780350,-0.131009520,-0.352987650
1640843368.782110,0.160442190,0.363690350,9.779908180,0.052128740,-0.221908060,-0.351646510
1640843368.782810,0.165859160,0.043631390,9.261335370,0.010481480,-0.271351670,-0.357726280
1640843368.787170,0.207292660,-0.187871740,8.931191440,0.068619850,-0.130864960,-0.362737420
1640843368.787720,0.126337590,0.161905330,9.217171670,0.102792680,-0.067839030,-0.375999540
1640843368.792460,-0.204724640,0.007780510,10.334476470,0.078706450,-0.134490430,-0.367292790
1640843368.793700,-0.373574610,-0.051563890,10.138312340,0.066024070,-0.234596480,-0.365559760
1640843368.797630,-0.311157320,-0.032479380,8.982725140,0.083191720,-0.257782640,-0.376273780
1640843368.798440,-0.351862550,-0.177318450,9.013150220,0.106246770,-0.138913110,-0.362518460
1640843368.802050,-0.319609460,0.215533870,9.640566830,0.111299770,-0.051575910,-0.368390980
1640843368.802610,-0.211979210,0.309019600,10.269780160,0.082631400,-0.166308890,-0.368206140
1640843368.807160,0.000399530,0.182159750,10.119200710,0.094178320,-0.248360650,-0.343722110
1640843368.810340,0.202233170,0.368699520,8.935511590,0.108709940,-0.203095410,-0.370378790
1640843368.812470,0.140636060,0.290924580,9.430958750,0.104194880,-0.136862710,-0.375081600
1640843368.813830,-0.074656940,0.416107800,10.136869430,0.088542700,-0.124532000,-0.349472490
1640843368.817240,0.126445870,0.440222440,9.476080890,0.072045620,-0.211684420,-0.359582900
1640843368.817910,0.154331730,0.094372730,9.716405870,0.087915360,-0.188682990,-0.342233510
1640843368.822350,-0.061507820,0.295169470,9.631329540,0.108541550,-0.094614930,-0.353017450
1640843368.823190,-0.339012980,0.251471430,10.108302120,0.081235180,-0.198267440,-0.366677340
1640843368.828470,-0.560550270,0.271910370,10.010305400,0.052997470,-0.252491270,-0.332167800
1640843368.829000,-0.113791180,0.322492540,8.618606570,0.051550570,-0.187158600,-0.352095100
1640843368.832250,0.034365490,0.182834670,9.432521820,0.069870070,-0.078983630,-0.365641770
1640843368.833910,-0.031539210,0.490339580,10.333645820,0.095045590,-0.059546540,-0.343605940
1640843368.837090,0.143666000,0.471908120,10.183571820,0.056371100,-0.220982730,-0.342774420
1640843368.837640,0.188455330,0.173876360,9.641156200,0.039783120,-0.275641680,-0.331325830
1640843368.842460,0.482483690,0.233187710,8.515366550,0.060606010,-0.122389200,-0.336579980
1640843368.843530,0.430846450,0.094035190,9.312034610,0.062240660,-0.030148030,-0.351038580
1640843368.847180,0.116952550,0.010606870,10.528456690,0.079147540,-0.076037660,-0.350056680
1640843368.847630,0.007524300,0.008585830,9.959586140,0.081561510,-0.208869590,-0.363750790
1640843368.852090,-0.280416040,-0.281755750,9.361466410,0.087131570,-0.260861310,-0.360532160
1640843368.852630,-0.452116370,-0.125432890,8.828070640,0.082485380,-0.115889330,-0.365787770
1640843368.857100,-0.468702520,0.005456460,9.238731380,0.069239740,-0.045043230,-0.380386410
1640843368.857640,-0.618458090,-0.138152760,10.489345550,0.111494970,-0.121754410,-0.364123280
1640843368.862340,-0.224539240,0.146317990,9.849321370,0.149148720,-0.189691780,-0.347512990
1640843368.863140,-0.042063910,0.116877300,9.315463070,0.133131440,-0.207947190,-0.344030590
1640843368.867230,-0.061973270,0.142352330,9.656043050,0.102388880,-0.126038490,-0.335305960
1640843368.867890,0.151099380,0.399052020,9.367018700,0.081166640,-0.104470570,-0.348471190
1640843368.872110,0.168062750,0.160733830,9.886792180,0.124970080,-0.173787760,-0.350947680
1640843368.872730,0.277188570,0.321981460,9.733188630,0.164029000,-0.128586590,-0.353495810
1640843368.877190,0.100714180,0.606208260,9.479430200,0.106988850,-0.150503230,-0.371928510
1640843368.877890,-0.329593870,0.370698030,10.319295880,0.055742270,-0.189076330,-0.348107460
1640843368.882060,-0.270227250,0.444548900,9.371702190,0.064703820,-0.155118120,-0.345568420
1640843368.882860,-0.213771390,0.323990880,9.403272630,0.115038480,-0.177502650,-0.354337690
1640843368.887270,-0.222697080,0.431468760,9.972864150,0.108195860,-0.071603070,-0.342936870
1640843368.888380,-0.028405110,0.672709700,9.614144330,0.047685210,-0.110398240,-0.350332290
1640843368.892060,-0.166101800,0.258435370,10.382523540,0.026078520,-0.227539240,-0.342913000
1640843368.893480,-0.021018690,0.446870090,9.384612080,0.052768000,-0.163936630,-0.350680950
1640843368.897250,0.278757360,0.580618620,8.933067320,0.049698360,-0.146850960,-0.347392260
1640843368.898130,0.152669550,0.456510570,10.168181420,0.014445180,-0.051613140,-0.331383880
1640843368.902640,0.441200670,0.492056850,9.716360090,0.010813770,-0.058320160,-0.332048570
1640843368.905230,0.240468030,0.106876390,10.240763660,0.050827860,-0.186537210,-0.346031810
1640843368.907060,0.029075680,0.244042020,9.639186860,0.056304050,-0.170269640,-0.336104660
1640843368.910410,0.108972270,0.335811670,8.709834100,-0.012969970,-0.135236980,-0.337365330
1640843368.912040,-0.257818250,-0.050878010,9.901947980,-0.031492130,-0.064975040,-0.351400760
1640843368.912620,-0.182603900,-0.040377890,9.738367080,0.044268380,-0.041836500,-0.365872770
1640843368.917230,-0.182908970,0.080998760,9.882506370,0.088916730,-0.162406310,-0.363987740
1640843368.917980,-0.377264110,0.121072490,9.992255210,0.035600370,-0.139896570,-0.349871870
1640843368.922160,-0.165889230,0.142577200,9.198823930,-0.023631760,-0.116466010,-0.332865180
1640843368.922850,-0.227642090,-0.074994670,9.705031390,0.015395880,-0.132976500,-0.339908990
1640843368.927060,0.105917250,-0.006384970,9.433068280,0.095793630,-0.064931810,-0.334896180
1640843368.927640,0.324131700,0.379862100,9.565812110,0.083313870,-0.063094490,-0.339086320
1640843368.932080,0.058678360,0.240184550,10.473552700,0.024633110,-0.112764560,-0.335709750
1640843368.933850,0.112049860,0.214406710,9.775531770,0.008168820,-0.172194850,-0.324712690
1640843368.937250,-0.034367010,0.245796320,9.311592100,0.055080660,-0.161935420,-0.352791040
1640843368.938080,-0.272979290,0.265292700,9.734017370,0.075995940,-0.067558910,-0.361923960
1640843368.942170,-0.366549670,0.696375670,9.919844630,0.025229160,-0.086158540,-0.353795350
1640843368.943120,-0.437103540,0.567804690,10.097087860,-0.014171000,-0.173138080,-0.348472630
1640843368.947040,-0.172955600,0.337008390,9.758960720,-0.000281630,-0.137458740,-0.330881800
1640843368.947600,-0.161427770,0.543087540,9.610156060,0.040066230,-0.086155530,-0.331106750
1640843368.952260,-0.351926300,0.375496540,10.383586880,0.036315620,-0.139328850,-0.325630660
1640843368.954700,-0.006376330,0.380204800,9.713754650,-0.020413100,-0.160774600,-0.305846330
1640843368.957080,0.269791690,0.266882630,9.257374760,-0.032702100,-0.133618730,-0.323836570
1640843368.957600,0.315350650,-0.009648150,10.014089580,0.000482800,-0.056588650,-0.335538390
1640843368.962140,0.202351140,0.385728900,10.081254960,0.011564790,-0.083900990,-0.339379940
1640843368.962910,-0.049167300,0.231134770,10.257722850,-0.018051260,-0.209876890,-0.338755580
1640843368.967700,0.009537480,0.031478020,9.460107800,-0.036770110,-0.159639120,-0.321373370
1640843368.968570,0.070851490,0.240283590,8.967864990,-0.008805100,-0.068116200,-0.340296360
1640843368.972060,-0.126797530,0.178280670,10.133666040,-0.009787080,-0.028231740,-0.335182280
1640843368.973140,-0.164878460,0.239672880,10.200987820,-0.010417400,-0.085258470,-0.316116240
1640843368.977590,-0.245649070,0.052197420,10.013877870,0.017783050,-0.207887600,-0.330562890
1640843368.978810,-0.271480590,-0.171812270,9.437007900,0.024852160,-0.171241180,-0.337123960
1640843368.982200,-0.035231040,0.149033550,8.887118340,0.004509090,-0.074158620,-0.339478250
1640843368.983280,-0.050716730,0.005161660,10.000301360,-0.023490190,-0.011193750,-0.351090730
1640843368.987110,0.037166540,-0.121567790,10.443307880,0.016205020,-0.092330590,-0.353910120
1640843368.988550,0.114605950,-0.022641190,9.960462570,0.095067920,-0.202077640,-0.346103280
1640843368.993060,0.034063360,-0.043537670,9.267230030,0.070986160,-0.162965090,-0.346274700
1640843368.993870,-0.011602920,0.179054960,9.304323200,0.000555810,-0.070573380,-0.333689090
1640843368.997100,-0.183362250,0.198315460,10.027911190,-0.009405620,-0.049847370,-0.345166060
1640843368.997590,-0.112053280,0.039240990,10.077416420,0.062046950,-0.146739200,-0.349871840
1640843369.002090,0.002745130,0.321141150,9.786028860,0.123862930,-0.152154270,-0.335465400
1640843369.002700,-0.205800030,0.524832190,9.731686590,0.059013070,-0.083601470,-0.353655250
1640843369.007260,-0.341667920,0.456212100,10.187049870,-0.032711040,-0.133696200,-0.337259560
1640843369.007830,-0.211781430,0.455180700,9.808321950,-0.002047420,-0.156734910,-0.334177970
1640843369.012450,0.107977290,0.406820890,9.268166540,0.062583410,-0.110134500,-0.355537330
1640843369.013310,0.213143390,0.579772590,9.979863170,0.065384810,-0.042320790,-0.336171690
1640843369.017150,0.118946690,0.747082170,10.335218430,0.000005960,-0.057300930,-0.333358440
1640843369.017800,0.002662300,0.286330520,10.360919950,-0.049407780,-0.216501970,-0.325576990
1640843369.022120,0.104513830,0.306466370,9.534443860,-0.014311080,-0.173704340,-0.319916010
1640843369.023260,0.124030990,0.373472780,9.004296300,0.022143130,-0.045116250,-0.341449680
1640843369.027270,-0.035356400,0.298577670,10.309462550,-0.017094610,-0.044713910,-0.336450370
1640843369.028590,0.007628240,0.484011980,10.189838410,-0.042642650,-0.075091430,-0.340136920
1640843369.032160,0.028458760,0.098151260,9.831406590,-0.031980880,-0.159849230,-0.352431860
1640843369.033040,-0.082565200,0.228131860,9.825253490,-0.009679800,-0.121161360,-0.338895680
1640843369.037060,-0.050950350,0.509269060,9.227305410,-0.034572190,-0.070659820,-0.325186580
1640843369.037650,0.048728590,0.035741690,9.861845970,-0.063867870,-0.074067710,-0.331100820
1640843369.042110,0.214188010,0.066123360,10.002168660,-0.009068850,-0.017155710,-0.330920520
1640843369.042900,0.256366460,0.064721870,9.869428630,0.034426150,-0.069440900,-0.345392610
1640843369.047300,0.051930350,-0.006615120,10.202175140,-0.010517240,-0.137303770,-0.340749350
1640843369.051080,0.042487890,0.149383010,9.317980770,-0.052092980,-0.095352550,-0.339818090
1640843369.052460,0.034733740,-0.211900550,9.301630970,-0.026714810,-0.066836190,-0.367301700
1640843369.053100,-0.035961720,-0.018017220,9.888531680,0.032733380,-0.008870660,-0.366844240
1640843369.057160,-0.044218800,0.286765130,9.995486260,0.047643490,-0.012782220,-0.352171060
1640843369.057730,-0.354521070,0.054315870,10.615724560,-0.006872420,-0.133025650,-0.352738800
1640843369.062660,-0.372028020,0.086086300,9.844223020,-0.009229780,-0.155502600,-0.331608950
1640843369.065660,-0.137181920,0.078535200,8.848267560,0.039175150,-0.092057900,-0.334201840
1640843369.067120,-0.151285290,0.086320420,9.794415470,0.037127740,0.002862510,-0.352543620
1640843369.067640,-0.011512890,0.488150030,10.385222430,0.027455390,-0.000686940,-0.339859660
1640843369.072140,0.004378400,0.424842540,10.333391190,0.002159180,-0.150746120,-0.357958670
1640843369.072670,0.064688210,0.317512930,9.843018530,0.002540650,-0.158907470,-0.354217020
1640843369.077110,0.031465900,0.538738370,9.384688380,0.020012260,-0.062237690,-0.349240060
1640843369.080180,-0.274088500,0.419793670,10.107066150,-0.004249810,-0.075410310,-0.358220930
1640843369.083200,-0.147211950,0.434101550,10.234964370,-0.011186300,-0.101543960,-0.334776880
1640843369.083650,0.042536670,0.430994480,9.689955710,-0.008828940,-0.089120880,-0.330409500
1640843369.087280,-0.068329580,0.131693270,10.124925610,-0.005739930,-0.088655960,-0.349050850
1640843369.088020,-0.101142420,0.394417910,10.130002020,-0.007370110,-0.078046320,-0.335304440
1640843369.092060,-0.259761630,0.308498260,9.815101620,-0.024767230,-0.151695310,-0.333844160
1640843369.092650,0.006108990,0.047081040,9.669483180,-0.026810170,-0.134491940,-0.328768790
1640843369.097550,0.312019440,0.301140580,9.328471180,-0.007498270,-0.002035500,-0.338728760
1640843369.098470,0.160120700,0.252315130,10.282012940,-0.010713930,-0.021593270,-0.352586780
1640843369.102120,0.085794910,0.240586880,10.719041820,-0.024470690,-0.102007400,-0.332734020
1640843369.103070,0.007349410,0.205414490,9.621093750,-0.003936890,-0.175692140,-0.324426620
1640843369.107140,0.065634070,-0.099161100,9.244611740,0.000861290,-0.134453180,-0.342012970
1640843369.107630,0.161136340,0.161971720,9.285442350,-0.007666650,0.032234180,-0.327672000
1640843369.112140,-0.094945390,0.006894310,10.289332390,0.002406540,0.007691980,-0.344723460
1640843369.112830,-0.155790490,-0.212614540,10.922505380,0.019100310,-0.129930690,-0.352341000
1640843369.118770,-0.172907560,-0.067133230,9.661560060,0.063820210,-0.177021350,-0.336486190
1640843369.119570,-0.316094280,-0.101422290,9.249000550,0.037552420,-0.128281130,-0.364160570
1640843369.122040,-0.192200870,0.108781620,9.553253170,-0.023184720,-0.014539060,-0.354221550
1640843369.122600,-0.162894030,0.180974680,10.136602400,0.019155440,-0.003640350,-0.350253220
1640843369.127400,0.035393030,0.134191800,10.545909880,0.078567860,-0.113499170,-0.359486040
1640843369.130110,0.261944440,0.413313980,9.894052510,0.086407360,-0.131556410,-0.329536230
1640843369.132390,0.100590560,0.514217200,9.695516590,0.025811790,-0.081937020,-0.342918930
1640843369.133640,-0.004563240,0.377811490,10.048629760,-0.039385250,-0.062796460,-0.341914620
1640843369.137140,-0.102428810,0.260182320,10.080777170,0.034080450,-0.105783370,-0.339290560
1640843369.137700,0.018544200,0.270112750,9.710497860,0.097154100,-0.096160180,-0.367471610
1640843369.142320,0.047155210,0.429401070,9.904805180,0.036709010,-0.042589020,-0.359077840
1640843369.143230,-0.219568890,0.502376380,10.567578320,-0.020878020,-0.044199820,-0.343586440
1640843369.147450,-0.236742290,0.281795260,10.269813540,-0.037859380,-0.144891440,-0.345112410
1640843369.148910,0.041301250,0.315415650,9.587771420,0.017046930,-0.147269670,-0.325499530
1640843369.152150,0.203118940,0.585070310,9.470624920,0.044628990,0.005587940,-0.330840080
1640843369.152780,0.240078810,0.608148690,10.118071560,-0.037579240,0.004146990,-0.336405690
1640843369.159620,0.181813570,0.459821580,10.756967540,-0.039467220,-0.075040740,-0.307238070
1640843369.160480,0.132938300,0.359527290,10.020073890,-0.015316910,-0.120019930,-0.345139270
1640843369.162070,0.199350340,0.288561340,9.501912120,-0.014452640,-0.113143040,-0.350886670
1640843369.162710,0.100210580,0.435336440,9.663236620,-0.029601160,0.017145280,-0.339101250
1640843369.167160,0.196967350,0.300936970,9.718280790,-0.068433590,0.040695080,-0.359477130
1640843369.167720,0.149291720,-0.061145050,10.681645390,-0.033424800,-0.036895270,-0.341543560
1640843369.172190,-0.040027360,0.049998370,10.173412320,0.030279160,-0.071628400,-0.341954890
1640843369.173680,-0.075923520,-0.012104280,9.341724400,-0.010268390,-0.128214060,-0.354954630
1640843369.177110,-0.259270790,-0.025192690,9.747115140,-0.055560470,-0.029434260,-0.316695840
1640843369.177640,-0.178654180,-0.086677760,9.577722550,-0.035668910,0.044481460,-0.345626500
1640843369.182060,-0.083485270,-0.226061490,10.343066220,0.048598650,-0.030736630,-0.359253640
1640843369.182820,-0.115956300,0.224223360,10.457471850,0.074614590,-0.036266450,-0.344970820
1640843369.187360,-0.026829640,0.333272610,9.609029770,-0.005902350,-0.082902630,-0.374698700
1640843369.188320,-0.106909540,0.104069200,9.977120400,-0.049646200,-0.086839500,-0.360700520
1640843369.192710,0.079674120,0.254942420,9.295776370,0.029201810,0.013974310,-0.369149480
1640843369.194780,0.300737980,0.230945720,9.709254260,0.080811990,0.004053120,-0.373737600
1640843369.197640,0.074029860,0.270638020,10.896367070,0.062930580,0.008356570,-0.350520010
1640843369.199100,0.026177690,0.325988620,10.084612850,0.012797120,-0.071682040,-0.346213580
1640843369.202190,-0.157970290,-0.059075420,9.964318280,-0.002573430,-0.153453650,-0.349687070
1640843369.203180,-0.280925840,0.122075570,9.596897130,0.039207940,-0.019675500,-0.347217920
1640843369.208380,-0.108622270,0.419700150,9.546780590,0.044807800,0.024507940,-0.362028270
1640843369.210250,-0.141648810,0.539409040,10.723621370,-0.001186130,-0.000406800,-0.351585450
1640843369.212170,0.042881480,0.660035070,10.361783030,0.002168120,-0.029073660,-0.339703290
1640843369.212950,0.123627880,0.550418320,9.942492490,0.023934250,-0.114479680,-0.351467820
1640843369.217500,-0.071409810,0.625885010,10.037034990,0.005546210,-0.055278850,-0.340166690
1640843369.218030,0.073677140,0.678659920,9.495188710,-0.027108190,-0.009003280,-0.329670310
1640843369.222190,0.226661940,0.373880770,9.889993670,-0.041772430,-0.017486510,-0.337435330
1640843369.222910,0.301404210,0.170099600,10.342617030,0.006896260,0.045998410,-0.339895550
1640843369.227190,0.196273600,0.297704100,10.247096060,0.019320850,-0.013224780,-0.357490810
1640843369.227840,-0.149694260,0.225373760,10.343256950,-0.040961810,-0.121970490,-0.344723460
1640843369.232090,-0.056498060,0.160233660,9.328201290,-0.074772540,-0.064893070,-0.321060420
1640843369.233710,0.083997230,0.095425650,9.112526890,-0.041790310,0.041189790,-0.352437820
1640843369.237120,-0.009713350,0.087129470,10.431533810,0.015124680,0.090867300,-0.358121160
1640843369.237680,-0.026493620,0.330601570,10.701611520,0.029715900,0.018472970,-0.331944290
1640843369.242590,-0.092923470,0.215776440,10.225757600,-0.029857460,-0.125275550,-0.344918760
1640843369.243520,-0.005465780,-0.045927570,9.528316500,-0.035402180,-0.062690680,-0.338128240
1640843369.247140,0.115590770,0.159731640,9.021876340,-0.007237490,0.067356240,-0.346347690
1640843369.247640,0.194755020,0.171579520,9.914671900,0.005370380,0.090259320,-0.364251520
1640843369.252130,0.190187720,0.143542500,10.756016730,0.015589600,0.052469980,-0.350883690
1640843369.252720,0.046853670,0.010274280,10.235727310,0.031864650,-0.083209590,-0.361247450
1640843369.257200,-0.135040950,-0.235528220,9.617644310,0.045609480,-0.116632890,-0.367747280
1640843369.257910,-0.203453140,0.019952810,9.155323980,0.026658180,0.038509070,-0.350475310
1640843369.262100,-0.305251870,0.039841900,9.819987300,-0.000807640,0.097279260,-0.363165140
1640843369.262730,-0.385300220,-0.126978640,10.982284550,0.054176160,0.001490120,-0.359055490
1640843369.267720,-0.270943310,0.148581040,10.185784340,0.120526570,-0.074093070,-0.360980690
1640843369.268370,-0.124830920,0.216188120,9.475124360,0.081081700,-0.064657630,-0.377765300
1640843369.272090,-0.219219270,0.382902620,9.990887640,0.008185210,0.019882620,-0.358451930
1640843369.273020,-0.096538540,0.496912060,9.888830180,0.013755260,0.017054380,-0.373110200
1640843369.277140,0.298243610,0.424297000,10.040480610,0.075036290,-0.035250190,-0.385785130
1640843369.278730,0.323912800,0.647862080,10.313093190,0.091260680,0.027956070,-0.363291800
1640843369.282700,0.146904470,0.661938130,10.219009400,0.036546600,0.008764860,-0.374712140
1640843369.284470,-0.202471390,0.373266790,10.530873300,-0.008252260,-0.107167680,-0.360137310
1640843369.287850,-0.210744840,0.377922800,9.559659000,0.023463370,-0.073756290,-0.339926870
1640843369.288850,0.071556530,0.388866900,9.132935520,0.029197340,0.035896900,-0.370053950
1640843369.292150,-0.117745380,0.471130280,10.709330560,0.015725200,0.089529180,-0.370796080
1640843369.292850,-0.211160230,0.582855460,10.955659870,0.004570190,0.012467800,-0.374342500
1640843369.297100,-0.027572120,0.448705350,10.268018720,-0.013665850,-0.162389890,-0.394098460
1640843369.297670,0.008429790,0.612968270,9.578999520,-0.014491380,-0.060735650,-0.368373160
1640843369.302350,0.182242570,0.780419950,9.196476940,-0.048705940,0.088422020,-0.371572430
1640843369.303980,0.184522200,0.540003480,10.501853940,-0.065746900,0.062958900,-0.361476930
1640843369.307070,0.171246170,0.318739410,10.792866710,0.006619100,0.010389090,-0.356441830
1640843369.307640,0.320876000,0.282573970,9.848841670,0.016878550,-0.063522160,-0.374606310
1640843369.312290,0.000761490,0.216913460,9.983966830,-0.052537030,-0.049048670,-0.357657670
1640843369.313050,-0.100873130,0.111366950,9.646386150,-0.104038420,0.042781240,-0.351502000
1640843369.317320,0.084470020,-0.169690070,9.745281220,-0.045293570,0.033259400,-0.389873920
1640843369.317940,-0.144250140,-0.159562890,10.498378750,0.058925150,0.036685170,-0.392471280
1640843369.322270,-0.110578950,0.231877390,10.066754340,0.045508160,0.004792210,-0.379583330
1640843369.323040,-0.273432550,0.232556020,10.102381710,-0.060798240,-0.082643330,-0.373284550
1640843369.327060,-0.234622390,0.074852880,9.790555000,-0.071735700,-0.004528460,-0.367724980
1640843369.328050,0.167215880,0.173522560,9.260322570,0.012645130,0.058141360,-0.385275570
1640843369.332080,0.036793970,0.131792650,10.457975390,0.102341190,0.059823700,-0.394538100
1640843369.334060,0.062368850,0.330513920,10.713798520,0.061623760,0.028762220,-0.383269790
1640843369.337720,0.000343310,0.229221370,10.110986710,-0.023323300,-0.096562500,-0.373019310
1640843369.338750,-0.238179180,-0.245832620,9.858037950,-0.002487000,-0.078012050,-0.374592840
1640843369.342020,-0.123591940,0.002474510,9.212169650,0.069953490,0.027693810,-0.389474630
1640843369.342660,-0.253268210,0.248100520,10.135725980,0.080336640,0.047536200,-0.398065150
1640843369.354190,-0.336594430,0.189094980,10.992733000,0.047609210,0.004239380,-0.387196240
1640843369.355010,-0.105763990,0.454217790,10.172034260,0.030219560,-0.090098400,-0.376381040
1640843369.355980,-0.220851530,0.410346630,10.032842640,0.043067340,-0.087624790,-0.392426580
1640843369.356560,-0.195258480,0.529748200,9.914428710,0.042460860,0.015418230,-0.386561480
1640843369.357230,-0.185921010,0.795126910,10.058878900,0.025781990,-0.019122660,-0.393065810
1640843369.358140,-0.056052790,0.534938570,10.451130870,0.034843390,-0.068464880,-0.375641970
1640843369.362040,0.292326450,0.521023450,9.950098990,0.028502940,-0.016734010,-0.369182230
1640843369.362680,0.044632250,0.555175660,10.258209230,0.014592710,-0.020939120,-0.386835720
1640843369.367860,-0.179070170,0.314942390,10.811059950,0.005763770,-0.074595210,-0.365191790
1640843369.368680,0.003352040,0.402172980,9.715157510,-0.001698730,-0.099045060,-0.356943990
1640843369.372070,0.152276400,0.283958320,9.631869320,0.005029140,-0.012485680,-0.375477970
1640843369.372760,0.172262550,0.361587760,10.407872200,0.004334750,0.068034230,-0.363726940
1640843369.377120,-0.051595790,0.663485830,10.627318380,-0.008825960,-0.032514330,-0.378188460
1640843369.377680,-0.199540630,0.431144600,10.539408680,-0.024992230,-0.166940700,-0.371998580
1640843369.382190,-0.029304580,0.346167770,9.371857640,-0.009723010,-0.089211780,-0.352287290
1640843369.383590,0.103289650,0.410080370,9.227762220,0.000953670,0.040885810,-0.375798340
1640843369.387180,0.126195240,0.249686700,10.584954260,-0.012202560,0.084114070,-0.367613140
1640843369.388040,0.131430600,0.228820280,10.822076800,-0.010266900,-0.011672080,-0.349813670
1640843369.392060,0.074660700,-0.026443050,10.324820520,0.014179940,-0.149838640,-0.366742910
1640843369.392750,0.055845440,-0.153678220,9.458000180,0.023879110,-0.096243630,-0.364077030
1640843369.397060,0.141224940,0.185826410,8.953476910,0.005204980,0.041709840,-0.369156990
1640843369.399000,0.018570430,0.076569250,10.329527850,-0.013606250,0.087523470,-0.379087060
1640843369.402190,-0.071977720,0.024341430,11.020474430,0.030483310,-0.010779500,-0.366607310
1640843369.403680,-0.008357110,0.154161770,10.021461490,0.098173330,-0.131212190,-0.383751090
1640843369.407210,-0.062106460,0.103478220,9.436874390,0.071500240,-0.076292460,-0.387999420
1640843369.407930,-0.206065040,0.195345310,9.560511590,0.008685890,0.040212280,-0.375023510
1640843369.412100,-0.187000920,0.085274590,10.100154880,0.033131250,0.023038690,-0.391492280
1640843369.413680,-0.079937190,-0.114404180,10.361521720,0.117161860,-0.065374360,-0.383770440
1640843369.417200,0.055737010,0.138044690,9.894147870,0.146819680,-0.045238450,-0.378374810
1640843369.417890,-0.052295610,0.178873610,10.060778620,0.078330930,-0.024680790,-0.387223010
1640843369.422180,-0.340823350,0.052780540,10.516543390,0.043581430,-0.064073500,-0.377748940
1640843369.422770,-0.087578930,0.185322240,9.688368800,0.095616280,-0.081719470,-0.367367360
1640843369.427070,0.097306950,0.210957840,9.626285550,0.145036000,-0.037728250,-0.375367730
1640843369.427760,-0.005622570,0.507113220,10.327981950,0.122635090,0.031229850,-0.367988650
1640843369.432090,-0.092017820,0.711759810,10.525684360,0.083085920,-0.047867010,-0.370197090
1640843369.432690,-0.288908900,0.594863180,10.467660900,0.053045150,-0.185614820,-0.388336210
1640843369.437120,-0.015389950,0.715830330,9.356016160,0.075924400,-0.091478230,-0.376780360
1640843369.437700,0.147145640,0.810225490,9.535637860,0.083227460,0.033901640,-0.393252160
1640843369.445100,-0.148605330,0.786548500,11.001966480,0.061400240,0.015285610,-0.377158880
1640843369.445930,0.108195510,0.701482180,10.463434220,0.051814330,-0.102631760,-0.351206960
1640843369.447420,0.123695490,0.305083990,9.895759580,0.049212580,-0.149239600,-0.358508560
1640843369.448020,0.065086890,0.209058030,9.714319230,0.047503420,-0.047028080,-0.352822330
1640843369.452400,0.218913990,0.427834930,9.618061070,0.017850100,0.013741850,-0.356315110
1640843369.452980,0.142592160,0.168272390,10.445113180,0.011341280,-0.017265980,-0.363816410
1640843369.457040,0.274851650,0.087931960,10.416400910,0.052307560,-0.033140180,-0.364905630
1640843369.457770,0.165224480,0.264875950,10.069890020,0.080294920,-0.083646200,-0.372578290
1640843369.462100,-0.169911410,0.287800460,10.061599730,0.040139250,-0.101205710,-0.369246330
1640843369.463090,0.130565810,0.430110280,9.368649480,-0.005796550,-0.026714810,-0.352931020
1640843369.467080,0.052165780,0.252836850,9.883351330,0.021624570,0.027018790,-0.377917350
1640843369.467630,0.067503150,0.124202960,10.417355540,0.093632940,0.006279350,-0.376477870
1640843369.472080,0.171111900,0.335434820,10.106316570,0.120797760,-0.047852100,-0.357288150
1640843369.474230,-0.130376830,0.166690540,10.090406420,0.044180460,-0.097018470,-0.361567740
1640843369.477120,0.042074460,-0.110052300,9.646552090,0.002250080,-0.051528220,-0.355966390
1640843369.477770,0.068164840,-0.123097430,9.502689360,0.085316600,0.013841690,-0.371271400
1640843369.484000,0.091983470,-0.203234610,10.070338250,0.152160240,0.031609830,-0.392501090
1640843369.484910,0.125667900,0.107198720,10.521715160,0.138041380,0.002236660,-0.374743370
1640843369.487500,-0.200814470,0.161395190,10.482786180,0.084133450,-0.098654640,-0.369308890
1640843369.488090,-0.214635540,-0.163052310,9.728427890,0.087580080,-0.126239630,-0.363850530
1640843369.492080,-0.141764420,0.167362390,9.361990930,0.153626490,-0.018073620,-0.361166860
1640843369.492910,-0.231909570,0.391598640,10.052286150,0.173239420,0.050087280,-0.372087960
1640843369.497530,-0.143866610,0.578391190,10.847848890,0.115492940,-0.032421940,-0.356785890
1640843369.498480,-0.055269340,0.757337510,10.381929400,0.100870450,-0.121864700,-0.341582390
1640843369.502040,0.021616840,0.364751760,9.737224580,0.110419110,-0.097587730,-0.373013380
1640843369.503240,0.028147830,0.549505590,9.898139950,0.145115000,-0.028616200,-0.362971480
1640843369.507140,-0.139008880,0.729083120,10.206326480,0.139170900,-0.034005940,-0.358571140
1640843369.507780,0.170495500,0.430976120,10.064726830,0.080475230,-0.103290390,-0.352962370
1640843369.513070,0.381434230,0.405075070,9.956346510,0.083038220,-0.031094250,-0.341223210
1640843369.514200,0.084847590,0.234314750,10.329690930,0.118327140,0.008270140,-0.359587400
1640843369.517360,-0.136649710,0.198434700,10.733758930,0.127993520,-0.114187620,-0.352540610
1640843369.519860,-0.245167400,0.397799220,9.854308130,0.108042370,-0.161093470,-0.337214770
1640843369.522260,-0.033269830,0.173670930,9.100651740,0.068452950,-0.066396600,-0.361165400
1640843369.522880,0.135147750,0.300100300,9.904053690,0.078348820,0.044755640,-0.351194980
1640843369.527200,-0.061444490,0.418012020,10.766114230,0.136393320,0.032156710,-0.357839550
1640843369.530160,-0.027020240,0.265697750,10.820009230,0.139084470,-0.159478190,-0.370492040
1640843369.532090,0.079369170,0.370224480,9.840260510,0.119328510,-0.169993910,-0.334185390
1640843369.532680,0.116065580,0.296065420,8.909210210,0.088676830,-0.032731890,-0.353461560
1640843369.537080,0.193850070,0.039241120,9.841695790,0.089162600,0.026106840,-0.350083470
1640843369.537690,0.083098580,0.047676530,10.644513130,0.168786960,0.010462110,-0.349992510
1640843369.542320,0.130685990,-0.078488310,10.285396580,0.208938140,-0.129014250,-0.378647480
1640843369.543940,0.005429920,-0.093283990,9.985837940,0.170724110,-0.156015140,-0.338390470
1640843369.551140,-0.269725350,0.039854190,9.440335270,0.124469420,-0.049841410,-0.356523780
1640843369.551800,-0.264845460,-0.114624000,9.809696200,0.129583480,-0.059789430,-0.375929500
1640843369.552170,-0.295771180,0.121969820,10.378362660,0.214949290,-0.040470060,-0.366443430
1640843369.552650,-0.065647480,0.497291150,9.864881520,0.247438280,-0.066798930,-0.367626580
1640843369.557140,-0.039922840,0.472215150,10.401976590,0.176621970,-0.118866570,-0.347782670
1640843369.557800,-0.154535820,0.584487920,10.239476200,0.146766040,-0.077068810,-0.330634500
1640843369.562180,-0.078373040,0.410634850,9.686132430,0.176653280,-0.140646100,-0.345599620
1640843369.563180,0.030027710,0.361292720,9.945049290,0.214037300,-0.109875200,-0.335784290
1640843369.567250,0.139290120,0.682501440,9.797553060,0.204758360,0.002475080,-0.346539940
1640843369.567700,0.063800070,0.569352920,10.633458140,0.130288320,-0.099685790,-0.360095500
1640843369.572480,-0.069103140,0.466382500,10.732801440,0.128909950,-0.148844730,-0.347016750
1640843369.573830,0.030428940,0.502627970,9.480764390,0.175431370,-0.146816670,-0.360566410
1640843369.577080,-0.093888620,0.492230860,9.798044200,0.172030940,-0.108788910,-0.359848170
1640843369.577670,-0.151700690,0.835680310,10.055971150,0.128720700,-0.033777960,-0.330497350
1640843369.582160,0.066523460,0.675836500,10.035134320,0.087869190,-0.104457150,-0.317619770
1640843369.582870,0.100291650,0.321671810,10.487517360,0.115433350,-0.118637110,-0.333027630
1640843369.587400,0.096646910,0.546200870,10.062497140,0.181847830,-0.088129940,-0.343239340
1640843369.588030,-0.054551360,0.570988770,10.068835260,0.131173430,-0.155426580,-0.337502390
1640843369.592460,-0.057812610,0.447133180,10.025289540,0.055509810,-0.126855120,-0.319142700
1640843369.593850,0.291730700,0.350605430,9.367706300,0.080695760,-0.056305530,-0.333838160
1640843369.597180,0.296667490,0.230649160,10.090168950,0.138121840,-0.049975520,-0.353880230
1640843369.597710,0.149764600,0.424826410,10.613140110,0.168088080,-0.059136750,-0.332436000
1640843369.602040,0.038888290,0.399052110,10.026117320,0.113371030,-0.177192700,-0.328432020
1640843369.602730,0.020114020,0.048483790,9.633141520,0.071457030,-0.175528230,-0.332409170
1640843369.607190,0.112606050,0.093323960,9.169583320,0.129061970,-0.024455790,-0.335022870
1640843369.609300,0.037876640,0.119257200,9.931868550,0.156605240,-0.013497470,-0.357362720
1640843369.612100,-0.168600630,0.173651560,10.913838390,0.162605960,-0.085029020,-0.357566860
1640843369.612720,-0.064187650,0.324191210,10.022136690,0.145295280,-0.185376390,-0.341299120
1640843369.617290,-0.047139300,0.190984550,9.363101010,0.123028460,-0.171978740,-0.352844630
1640843369.619040,-0.055648300,0.311791540,9.597851750,0.141079770,-0.032810870,-0.340734480
1640843369.622230,-0.027037060,0.532568810,10.092273710,0.164195900,-0.019860270,-0.337670740
1640843369.625070,-0.038010050,0.435040470,10.646080970,0.160877380,-0.131967660,-0.343138010
1640843369.628580,0.160828110,0.484791340,9.979707720,0.172048820,-0.163209440,-0.319594170
1640843369.629100,0.057658190,0.539855720,9.607772830,0.139676030,-0.108534120,-0.331986040
1640843369.632040,-0.223495980,0.401032330,10.265827180,0.110505540,-0.091947620,-0.347799090
1640843369.632660,-0.189612730,0.542630490,10.112564090,0.137521340,-0.137387230,-0.337028500
1640843369.637230,0.049031980,0.490026320,9.588150020,0.148160760,-0.146365180,-0.348766150
1640843369.637860,0.203459250,0.482139890,9.978190420,0.143471360,-0.075970610,-0.343297510
1640843369.642460,0.060193150,0.777454440,10.447048190,0.115944450,-0.048500300,-0.325052440
1640843369.643430,-0.059206550,0.494943650,10.534731860,0.085997600,-0.181937250,-0.319212700
1640843369.647160,0.092040670,0.409451540,9.905903820,0.119179490,-0.204500560,-0.302816960
1640843369.647700,0.221711220,0.674979510,9.103724480,0.122989740,-0.071950260,-0.314238670
1640843369.652110,0.234667290,0.565416510,9.946249010,0.073848670,-0.025023520,-0.315755640
1640843369.652970,0.170955000,0.666525600,10.718433380,0.068819520,-0.052630900,-0.308501750
1640843369.657300,0.153187450,0.541275020,10.235321040,0.087003410,-0.158219050,-0.320699810
1640843369.657960,0.198648170,0.343138250,9.832712170,0.112375610,-0.174541740,-0.322456600
1640843369.662080,0.128534050,0.660588320,9.358071330,0.085270410,-0.047139820,-0.309407740
1640843369.664200,0.161855940,0.451594590,9.660199170,0.024184580,-0.026252870,-0.324675440
1640843369.667040,0.164932790,0.113419630,10.571806910,0.060494240,-0.045284630,-0.310626570
1640843369.667720,0.145805360,0.280454700,10.014168740,0.130479080,-0.096070780,-0.320255820
1640843369.672180,0.130789430,0.191646130,9.729336740,0.121012350,-0.137209920,-0.314794510
1640843369.673830,-0.016769060,0.275242750,9.840432170,0.050218400,-0.060413790,-0.301523540
1640843369.677800,0.137594760,0.159386310,9.422256470,0.037255890,-0.017912690,-0.318375260
1640843369.679100,0.313353600,0.018852710,10.028144840,0.125138460,-0.026236480,-0.324553340
1640843369.682300,0.213888420,0.346841370,10.274986270,0.167819860,-0.011083480,-0.313001870
1640843369.683260,0.155991260,0.459599580,9.974175450,0.102606440,-0.092586900,-0.334769490
1640843369.687270,-0.070971450,0.295728500,10.073770520,0.051967800,-0.131086980,-0.314344500
1640843369.688500,-0.027865130,0.214324310,9.208159450,0.096942490,-0.039975350,-0.317397710
1640843369.692230,0.144052300,0.361555670,9.513465880,0.144690290,-0.003367660,-0.341105490
1640843369.692860,-0.064139140,0.554143310,10.699523930,0.129942610,0.014141200,-0.312024350
1640843369.697150,-0.006557820,0.675467910,10.267083170,0.071676080,-0.065486140,-0.315365200
1640843369.697720,0.020832140,0.414521520,10.038830760,0.064773870,-0.149838630,-0.304622950
1640843369.702180,-0.078832300,0.342315020,9.638500210,0.113353140,-0.047869980,-0.310389730
1640843369.703620,0.167671440,0.670625210,9.429107670,0.112301120,0.005902350,-0.327955190
1640843369.707090,0.092565250,0.729123290,10.603157040,0.051611670,-0.011870270,-0.310680270
1640843369.707900,0.247481390,0.580392300,10.329982760,0.038009890,-0.030882660,-0.289140640
1640843369.712150,0.384593430,0.477141410,9.783508300,0.068993870,-0.085787480,-0.310225810
1640843369.712760,0.029792060,0.448203770,10.221644400,0.100634990,-0.051128860,-0.298358530
1640843369.717260,0.074425710,0.581858340,9.666481970,0.052447630,-0.024145840,-0.288532700
1640843369.717880,0.115607430,0.501783550,9.740095140,-0.002275410,-0.050516430,-0.302511450
1640843369.722040,0.121472920,0.277387020,10.060354230,0.028981270,0.018937890,-0.303979220
1640843369.722920,0.249276340,0.495849460,9.828783990,0.069648030,0.019830470,-0.320945680
1640843369.727240,-0.152988170,0.542236800,10.480851170,0.061781700,-0.067234050,-0.315794350
1640843369.727930,-0.161141020,0.322973160,10.018402100,0.019285080,-0.085458170,-0.296017500
1640843369.732200,0.093981300,0.285016950,9.107444760,0.015696890,-0.040525200,-0.304356250
1640843369.732930,0.017346480,0.144998010,9.841320990,0.059415390,0.053730610,-0.313293960
1640843369.737090,0.211215690,0.216132980,10.238431930,0.068122160,0.069381300,-0.298464330
1640843369.737690,0.155711320,0.293076780,10.464917180,0.058792540,-0.058287390,-0.308491290
1640843369.742160,0.082563120,-0.039812650,10.056824680,0.065484650,-0.112755600,-0.303316150
1640843369.742950,0.272079290,0.087852900,9.047528270,0.072208050,-0.025901200,-0.300474490
1640843369.747550,0.070596900,0.326831910,9.661610600,0.059856480,0.057090820,-0.325021180
1640843369.748240,0.020419960,0.329066750,10.570237160,0.042261180,0.047691170,-0.324133070
1640843369.754460,0.050731130,0.606914640,10.360153200,0.063726310,-0.057409700,-0.307607680
1640843369.755310,-0.030176590,0.579313400,9.919467930,0.092698650,-0.092302280,-0.308528630
1640843369.757870,-0.026267210,0.641582790,9.674035070,0.052030380,-0.006482000,-0.309510470
1640843369.758400,-0.188731370,0.858666360,9.978130340,0.020836290,0.022692980,-0.302441450
1640843369.762200,-0.175134440,0.493358080,10.459859850,0.034831470,-0.024472180,-0.300084080
1640843369.762970,0.263302390,0.472419620,9.973780630,0.060409310,-0.044335420,-0.291496550
1640843369.767420,0.351138230,0.553435390,9.809019090,0.068236890,0.021772090,-0.307260450
1640843369.769360,0.269263300,0.411316250,10.382487300,0.013375280,0.025378170,-0.310872500
1640843369.772420,0.229473500,0.460624750,10.286517140,-0.020191070,-0.039358440,-0.282213090
1640843369.773750,0.178646220,0.280007780,9.824305530,0.026793780,-0.059843060,-0.296086040
1640843369.777100,0.279980210,0.341267200,9.598019600,0.045040250,0.010079150,-0.304733250
1640843369.777740,0.257259400,0.833804430,9.787928580,0.008133050,0.082208220,-0.293266770
1640843369.782300,0.049262470,0.702388290,10.509819980,-0.036528710,0.036884850,-0.296930970
1640843369.783980,0.048771740,0.380700890,10.331670760,-0.011956690,-0.059902660,-0.288245080
1640843369.787180,0.076919380,0.536574180,9.511458400,0.058086220,-0.023575130,-0.294181700
1640843369.787850,0.062461410,0.534527180,9.519906040,0.017555060,0.042736530,-0.290362570
1640843369.792100,0.186933820,0.430945780,9.950358390,-0.060170890,0.079452980,-0.276826290
1640843369.792740,0.220003800,0.198873160,10.301162720,-0.020642580,0.063101940,-0.297601460
1640843369.797260,0.265740600,-0.094947240,10.166168210,0.049491240,-0.025050350,-0.300630960
1640843369.799070,0.219893170,0.040681080,9.743918420,0.076021280,-0.012457370,-0.297941330
1640843369.802110,0.153143480,0.226089820,9.511712070,0.000987950,0.043092680,-0.304487380
1640843369.802860,0.110685200,-0.000137550,9.934041020,-0.054053950,0.060731170,-0.302635100
1640843369.807520,0.158820230,0.067307590,10.093119620,0.039650500,0.071060660,-0.305736090
1640843369.808180,0.145363150,0.372279380,9.888860700,0.109218080,0.029778490,-0.312422250
1640843369.812060,-0.057484040,0.453580170,10.167622570,0.062872470,0.002808870,-0.290882590
1640843369.812770,-0.116277490,0.562500120,9.880754470,0.000868740,0.024466220,-0.282834470
1640843369.817650,-0.080315110,0.377749260,9.577252390,0.008665030,0.003130730,-0.297114250
1640843369.818430,0.129323290,0.286736550,9.839859010,0.075446090,0.066138820,-0.293569330
1640843369.822420,0.307859360,0.624131440,10.039637570,0.088234240,0.129336120,-0.302910830
1640843369.824070,0.125946820,0.503841100,10.642859460,0.034561750,0.020162760,-0.306113090
1640843369.827140,0.228590850,0.376348470,10.180206300,0.012333690,-0.039234760,-0.293830070
1640843369.828060,0.267217460,0.482215730,9.263566970,0.027558210,0.010699030,-0.305707780
1640843369.832210,0.142204940,0.425617040,9.771861080,0.033640860,0.091545270,-0.312681470
1640843369.832970,0.182619180,0.707678620,10.256708150,0.017210840,0.108858940,-0.294151930
1640843369.837090,0.166371880,0.764259640,10.251340870,0.006984180,0.026933850,-0.292119380
1640843369.837690,0.325882520,0.484058860,10.104797360,-0.006690620,0.032024090,-0.291885440
1640843369.842090,0.217826690,0.728968560,9.960820200,-0.000938770,0.101354700,-0.288820300
1640843369.842770,-0.064884770,0.753504220,10.260630610,-0.011618440,0.049993400,-0.296425820
1640843369.847040,0.254941340,0.626464960,9.859929080,-0.055646900,0.029747190,-0.284838710
1640843369.847760,0.435927660,0.658119560,9.414197920,-0.038126110,0.120086950,-0.287151280
1640843369.852340,0.382045570,0.515189770,10.233096120,-0.028641520,0.159154830,-0.306645070
1640843369.853330,0.298667640,0.520735860,10.640893940,-0.044123830,0.097252430,-0.301133130
1640843369.857440,0.237633150,0.528672100,9.997853280,-0.047962370,0.006431340,-0.296461580
1640843369.858160,0.445555750,0.256018520,9.326473240,-0.075179340,0.082795310,-0.308933880
1640843369.862120,0.472040530,0.258503940,9.472964290,-0.064682960,0.215473820,-0.300168990
1640843369.863060,0.285308810,0.253163430,10.429472920,-0.015254320,0.205294830,-0.302052560
1640843369.867040,0.211593180,0.141352120,10.492211340,-0.026427210,0.087125610,-0.305353110
1640843369.867730,0.086290860,0.110545080,9.842358590,-0.034679470,0.032289330,-0.290107760
1640843369.872110,0.063848410,0.032948670,9.207324980,-0.032015150,0.121361020,-0.310780140
1640843369.872740,0.066408360,0.057617420,9.462744710,-0.041522090,0.213308650,-0.324940680
1640843369.877230,-0.030074640,0.086819360,10.481832500,0.018306080,0.206817690,-0.314776630
1640843369.878130,0.074705650,0.017308030,10.309614180,0.043335560,0.113359090,-0.326020990
1640843369.882100,0.067355630,-0.002240660,9.952342990,0.049132110,0.040242080,-0.315752660
1640843369.882690,0.065214910,0.146029400,9.458804130,0.024418530,0.133992750,-0.313559170
1640843369.887240,0.151785390,0.125180480,9.409576420,-0.015525520,0.190208870,-0.341553990
1640843369.888000,0.076878750,-0.023406420,10.461574550,0.060653690,0.164140760,-0.329263510
1640843369.892110,0.192640130,0.256635400,10.039073940,0.139454020,0.136050580,-0.332009820
1640843369.892840,0.142154130,0.407325240,9.696433070,0.083948690,0.067752610,-0.340065420
1640843369.897750,-0.073377550,0.351919890,10.075317380,0.013938550,0.132706780,-0.317893920
1640843369.898260,-0.085025850,0.257948100,9.578305240,0.030602520,0.158678030,-0.328455870
1640843369.902460,-0.108834520,0.119591830,10.099903110,0.125783710,0.088103140,-0.346943800
1640843369.903080,0.041601230,0.429095690,10.040113450,0.146801780,0.156451780,-0.332751870
1640843369.907830,0.045088740,0.667317210,9.918026920,0.060716280,0.142543050,-0.337641030
1640843369.909140,-0.154647280,0.365561720,10.699437140,0.015299020,0.073570020,-0.335051150
1640843369.912440,-0.070572750,0.530554470,9.771556850,0.070093590,0.066332540,-0.343309400
1640843369.913270,0.283404080,0.726595880,9.116253850,0.097078090,0.101293650,-0.346349240
1640843369.917120,0.292147520,0.833638790,10.235692980,0.060039760,0.213477020,-0.344386730
1640843369.917660,0.166471760,1.037274120,10.617730140,0.016674400,0.153508830,-0.331157540
1640843369.924300,0.156046960,0.589561050,10.469945910,0.012102730,-0.006741290,-0.332811500
1640843369.925960,0.151105360,0.498860270,9.705029490,0.046756860,0.058007240,-0.337842140
