timestamp,accel_x,accel_y,accel_z,gyro_x,gyro_y,gyro_z
1640790072935289856,-0.178943140,0.402254050,10.136227610,0.015585120,0.007034840,-0.016416610
1640790072937719808,0.118961490,0.506559550,8.994131090,-0.030010940,0.112685560,-0.016343600
1640790072940249856,-0.173876460,0.190935480,10.849987030,-0.000764430,-0.076319280,-0.011731680
1640790072941509888,-0.513115410,-0.113136450,10.632857320,0.067867350,-0.029501320,0.000844900
1640790072947160064,-0.080070640,-0.090328860,8.803459170,0.078080580,-0.133895860,0.000707810
1640790072947969792,-0.704724070,-0.085890760,10.358880040,-0.006552040,-0.026950240,0.004701320
1640790072950299904,-0.284938370,0.112829460,9.206642150,-0.071549420,0.100867470,0.016282500
1640790072951660032,-0.013598760,0.231480810,10.405776980,-0.011461970,-0.096142290,0.009197000
1640790072955399936,-0.113166350,0.557666540,10.496327400,0.048701460,0.002910200,-0.010058280
1640790072956979968,0.470076500,0.962502600,8.961866380,0.007335840,-0.041522090,-0.018143660
1640790072961419776,-0.328935030,0.854536890,11.024186130,-0.069974380,-0.038342190,-0.006768110
1640790072962889984,-0.438287620,0.493857180,9.924140930,-0.079262240,-0.026836990,0.018514690
1640790072965449728,-0.329603110,0.070082440,9.817942620,0.031404200,-0.204528900,0.018405910
1640790072967719936,-0.540946540,-0.155596840,9.742693900,0.069187580,0.012490150,0.010834630
1640790072970520064,0.044399890,0.063044620,8.969386100,-0.012645130,0.048205260,0.015695390
1640790072971449856,-0.173658480,0.197635050,11.109491350,-0.129038100,0.016158820,0.026701390
1640790072975489792,0.141279880,0.212568910,9.893065450,-0.152280940,-0.007432700,0.033259390
1640790072976509696,0.364613980,0.377209070,9.782324790,-0.027522450,-0.180411310,-0.007306040
1640790072980219904,0.071969140,0.460553650,9.620537760,0.033074620,0.026944280,-0.019989910
1640790072981539840,0.238923120,0.471324560,8.941900250,-0.017087160,0.013844670,-0.002188980
1640790072985400064,-0.404170660,0.112492220,11.217645650,-0.058412560,-0.016860660,0.022959710
1640790072988590080,-0.201977010,-0.390937980,9.624803540,-0.068734590,0.021642450,0.035163760
1640790072990259968,-0.237474770,-0.410103860,9.934753420,0.024516880,-0.149312590,0.028112530
1640790072991439872,-0.468858900,-0.273227690,9.945772170,0.038313880,0.023740530,0.021235650
1640790072995369984,0.199526460,0.007964720,8.353355410,-0.053648650,0.026260320,-0.002670290
1640790072996729856,-0.141905590,0.253998220,10.685390470,-0.079886620,0.007708370,-0.002427400
1640790073000339968,0.214746430,0.259607670,9.823153500,-0.041416290,0.094370540,-0.006459650
1640790073001519872,0.253305940,0.321099850,10.058864590,0.070583820,-0.120647270,-0.017300250
1640790073005229824,-0.450026070,0.303152050,10.596073150,0.069655490,-0.041899090,-0.000493230
1640790073006479872,-0.179014920,-0.039823920,8.799779890,-0.021097060,-0.016905370,0.006951390
1640790073010200064,-0.625394280,-0.515048330,10.354563710,0.011374060,-0.038237870,0.022269790
1640790073011430144,-0.427224310,-0.479737010,9.823644640,0.073167670,0.059509270,0.005665420
1640790073015339776,0.081645530,-0.130985950,9.501667020,0.102205580,-0.047932570,0.003249940
1640790073016529920,-0.175107390,0.370028790,10.395630840,-0.010629000,0.031623250,-0.001657010
1640790073020779776,0.078811090,0.720567880,9.649263380,-0.107969350,0.001700220,-0.005990270
1640790073021709824,-0.188256790,0.607211410,10.611250880,-0.012062490,-0.109727680,-0.014178460
1640790073025289984,-0.160609900,0.603761730,9.574361800,0.101655720,-0.031366940,-0.027047100
1640790073026489856,-0.182824720,0.568071840,9.684608460,0.130456670,-0.051455200,-0.016479190
1640790073032009728,-0.646999660,0.336547290,10.641614910,0.007937850,0.041341780,0.014145670
1640790073032979968,-0.392659280,0.132241280,9.833608630,-0.101861370,-0.056447100,0.033532080
1640790073036739840,-0.459002440,-0.175375800,10.455317500,-0.026001030,-0.111225230,0.035411110
1640790073039729920,-0.052483180,0.094770070,9.233546260,0.035654010,0.023670500,-0.013788050
1640790073040239872,0.175511460,0.529972430,9.591044430,0.022689990,-0.050456820,-0.018171960
1640790073041410048,0.135468360,0.692018930,10.529276850,-0.066326560,0.055022550,-0.007513170
1640790073045239808,0.612160920,0.688092350,9.607975010,-0.120134660,0.008213520,-0.015045700
1640790073046609920,0.024836030,0.386887790,10.923643110,-0.014176970,-0.108699500,0.004710260
1640790073050390016,-0.223967480,0.378858920,9.793112750,0.027477740,-0.041627890,-0.009404120
1640790073051749888,-0.287288250,0.202842430,8.990721700,-0.010208780,-0.115291770,0.014990570
1640790073055219968,-0.671501760,-0.095945750,10.012652400,-0.072912880,0.020854180,0.043265520
1640790073056449792,-0.071910620,-0.241773980,9.294035910,-0.088898850,0.109423700,0.020246210
1640790073060259840,-0.118932750,-0.275034670,10.692150120,0.006191430,-0.028067830,0.021475560
1640790073061489920,0.022515000,0.159588280,10.275625230,0.013770160,-0.015373530,-0.012990830
1640790073065349888,0.427958550,0.377328690,9.152918820,-0.080065430,-0.059930980,-0.003486870
1640790073068069888,0.060058460,0.144868300,9.895977020,-0.098524990,0.014291710,0.007469950
1640790073070409984,0.105357380,0.011477830,9.529855730,-0.005026160,0.057762870,-0.016868110
1640790073072189696,-0.209844680,-0.155707400,10.219907760,0.113818060,-0.040292740,-0.002831220
1640790073075199744,-0.332121880,-0.031307470,9.866348270,0.067172940,-0.011993940,0.032296780
1640790073076459776,-0.341084960,-0.107781900,9.601079940,-0.063584770,-0.019313400,0.029705470
1640790073080359936,-0.502299670,-0.321020130,10.086627960,-0.064314910,0.024296350,0.023047630
1640790073081479936,-0.128796030,-0.082172800,9.520758630,0.041370100,0.023467840,-0.009462240
1640790073085839872,-0.167986720,0.218760830,10.086814880,0.107400120,-0.008182230,-0.034128130
1640790073087249920,0.069726270,0.523475170,9.703048710,0.037193300,0.052203240,-0.006467100
1640790073090249984,-0.143277510,0.460844310,10.250706670,-0.043305760,-0.046272580,0.000402330
1640790073091449856,-0.369491820,0.048907890,10.374600410,0.004930790,-0.052925950,0.012418630
1640790073095299840,-0.114462110,-0.022947150,9.338118550,0.095331650,-0.047077230,-0.005765260
1640790073096869888,-0.582512320,0.019952490,10.199596410,0.111024100,-0.026349730,-0.010183450
1640790073100440064,-0.260474890,0.187862460,9.724362370,0.011670590,0.044500830,0.013644990
1640790073101509888,-0.048996240,0.306000920,9.975008010,-0.045889610,-0.034220520,0.020405650
1640790073105209856,-0.185222580,0.360467140,10.452842710,-0.023140020,-0.019900500,0.010281800
1640790073106439936,0.157123100,0.701397780,9.588783260,0.009188060,-0.021535160,-0.016072390
1640790073110199808,-0.295847180,0.766167640,10.340078350,0.006826220,-0.075231490,-0.016164780
1640790073112640000,-0.226384820,0.579839770,10.030910490,-0.018735230,-0.030875210,0.008337200
1640790073115379712,-0.049595620,0.292244370,9.804737090,-0.008912390,-0.040984160,0.005653500
1640790073116519936,-0.309188430,-0.082525250,10.286063190,0.021438300,-0.008887050,0.015966600
1640790073120239872,0.050731980,0.171887030,9.693766590,-0.006043910,-0.015366080,0.026848910
1640790073121399808,-0.069479620,0.213360620,10.052948000,-0.077299800,-0.028567020,0.031146410
1640790073125280000,0.101128450,0.224898760,9.803967480,-0.114774710,-0.005751850,0.030393900
1640790073126489856,0.187079440,0.505768600,9.931353570,-0.043988230,-0.034411250,0.011229520
1640790073130429952,0.033356390,0.384264110,10.009749410,-0.012470780,0.015400350,-0.012832880
1640790073131609856,0.222939910,0.476754370,9.790218350,-0.026741630,-0.001934170,0.000804660
1640790073135680000,-0.281991120,0.216964390,10.574225430,-0.050853200,0.008770820,0.017991660
1640790073137129984,-0.222944380,-0.336304160,9.789682390,-0.061555200,-0.019620360,0.024317200
1640790073140249856,-0.183486540,-0.282009930,9.641849520,0.013192000,-0.084440420,0.028879940
1640790073141440000,-0.316424310,-0.338448350,9.533342360,0.000818070,0.050158800,0.011439620
1640790073145390080,0.209390460,-0.156730290,9.326664920,-0.054690240,0.093904150,0.011751050
1640790073147079936,-0.103612560,0.120929430,10.828516960,-0.045079000,0.034719710,0.007635360
1640790073151739904,0.180874060,0.129271840,9.981919290,-0.024536250,-0.002051890,0.000765920
1640790073152649984,0.177199800,0.332731070,9.755077360,0.031216440,-0.058372320,0.009727480
1640790073155239936,-0.442752150,0.210009560,9.941413880,0.012442470,0.029487910,-0.006072220
1640790073156499968,-0.199345320,-0.098563780,9.561469080,0.002370770,0.009720030,0.014768540
1640790073160419840,-0.475163670,-0.242398650,10.177470210,0.069700180,0.010386110,0.018686060
1640790073161419776,-0.264410500,-0.226043030,9.784598350,0.055460640,0.036585330,0.006020070
1640790073165730048,-0.115036980,0.101753060,10.114177700,0.019311900,0.013022130,0.029124320
1640790073166960128,-0.292635320,0.314070490,10.109928130,-0.055117910,0.029985610,0.008198620
1640790073171030016,0.016733930,0.297511790,9.935633660,-0.040519240,-0.039713080,-0.008073450
1640790073171520000,-0.176331560,0.495284530,10.097342490,0.085864980,0.015291570,-0.022988030
1640790073175239936,-0.122514460,0.548542740,9.539200780,0.090560310,0.000977520,-0.041826060
1640790073177440000,-0.195824270,0.551162000,10.332054140,0.028055910,-0.017343460,0.012926760
1640790073180270080,-0.319259110,0.467738840,10.039325710,-0.071495780,0.042182210,0.019481780
1640790073181689856,-0.128773230,0.107770960,10.027771000,-0.068578120,-0.049792230,0.044271340
1640790073185319936,-0.347434970,0.297489610,10.467262270,0.034606460,0.010465080,0.024332100
1640790073186560000,-0.094738690,0.393154000,9.351754190,0.007581710,0.018024450,-0.011016430
1640790073190150144,-0.046681010,0.463214580,10.120582580,-0.046871600,-0.040186930,0.023844840
1640790073191459840,-0.108905070,0.469994870,9.981295590,-0.078831620,0.067016470,0.001645090
1640790073195360000,0.239461240,0.085806910,9.620213510,-0.058896840,-0.002272430,-0.006578860
1640790073196519936,-0.267610940,0.325266540,10.813046460,0.017192960,-0.021450220,0.015057630
1640790073200320000,-0.172043680,0.243984490,9.659983630,-0.027590990,-0.006666780,0.008255240
1640790073201439744,-0.033895270,-0.098441050,9.676604270,-0.074970720,-0.051999100,0.042276080
1640790073205240064,-0.221820470,-0.083707780,9.892237660,-0.038249790,0.092361870,0.030989950
1640790073206429952,0.174471150,-0.218950300,9.541487690,-0.005172190,0.061097750,0.000923870
1640790073210539776,-0.008020180,0.162450730,10.532471660,0.020736460,0.008991360,0.031729040
1640790073211489792,0.001926680,0.323562800,9.645584110,-0.062081220,0.019125640,0.019249320
1640790073215389952,-0.001063660,0.025358300,9.937726970,-0.087232890,-0.036998100,0.029984120
1640790073218089728,-0.274579050,0.012367240,9.870397570,0.021792950,0.061060500,0.014428800
1640790073220199936,-0.142906490,-0.162974570,9.556887630,0.084455320,0.015723710,-0.018866360
1640790073221459968,-0.481406270,-0.102246350,10.622932430,0.080348540,0.050838280,0.024341040
1640790073225319936,-0.343939390,-0.038153890,9.595678330,-0.012503560,0.034561760,0.021950900
1640790073228179968,-0.443464990,-0.314221350,10.362752910,-0.028507420,-0.087121140,0.028507420
1640790073230370048,-0.370844930,-0.030895980,9.654424670,0.050412120,0.057622790,0.008867680
1640790073231500032,-0.063190240,0.210884660,9.281352040,0.072047120,0.008884070,-0.033801800
1640790073235329792,-0.427503140,0.381310880,11.085880280,0.058420000,0.042341650,-0.001612310
1640790073236499968,0.093648670,0.627967180,9.520500180,0.002455710,0.038836900,0.010339920
1640790073240310016,-0.068620470,0.332005140,10.538816450,0.012128060,-0.100551550,0.021016600
1640790073241439744,-0.349469660,0.373698620,10.295866010,0.055095550,0.046066940,0.036177040
1640790073247190016,-0.030496980,0.414028410,9.029268260,0.042876590,-0.025781990,0.004701320
1640790073247840000,-0.553444330,0.218273880,10.830698970,0.016571580,-0.031457840,0.038729600
1640790073250429952,-0.036767730,0.289770810,9.340091710,-0.004842880,0.076869120,0.029085580
1640790073251709952,0.118810770,0.151295930,10.130125050,-0.000156460,-0.040957320,0.001837310
1640790073255269888,-0.278739690,0.408407390,10.870517730,0.004230440,0.061276560,0.009493530
1640790073256480000,0.105975920,0.639952180,9.415859220,-0.044332440,-0.020821390,-0.005289910
1640790073260759808,-0.403952540,0.189815390,10.749116900,-0.033323470,-0.087761890,0.029273340
1640790073261430016,-0.258787720,0.139293580,9.401917460,0.021521740,0.035206970,0.025041400
1640790073265240064,-0.028409770,0.001575190,9.386672020,0.060789290,-0.030386450,-0.004722180
1640790073266739968,-0.185977640,-0.003432630,10.352728840,0.020802020,0.081712000,0.035737450
1640790073270999808,0.297809210,0.172778130,9.595153810,-0.054526330,0.070053350,0.041522090
1640790073271520000,-0.055801170,-0.089953530,11.053756710,-0.056384520,-0.027015810,0.030383470
1640790073275249920,0.030337980,0.045236890,9.752079960,0.018507240,-0.014315550,0.016577540
1640790073276429824,0.148791510,0.141828250,9.157532690,0.075602540,-0.073535740,-0.023292010
1640790073280289792,-0.302593950,0.012500530,10.121650700,0.029672680,0.122189530,-0.021617110
1640790073281410048,-0.131957810,0.055711680,9.659275050,0.007590650,0.097718830,0.002102550
1640790073285339904,-0.599565630,-0.230720070,11.266380310,0.044977670,-0.081600270,0.000202660
1640790073287639808,-0.353663560,-0.112675920,9.531360630,0.071260320,-0.010131300,0.008340180
1640790073290550016,-0.100664170,0.209535570,9.030387880,0.056235500,-0.037191810,0.005578990
1640790073291999744,-0.564655130,0.241442350,10.654917720,-0.015857810,0.119276340,-0.003516670
1640790073295259904,0.085864890,0.409105990,9.539441110,-0.006474550,0.070385640,0.013741850
1640790073296449792,-0.142597590,0.315166890,11.023187640,0.098799180,-0.085894770,0.007279220
1640790073300629760,-0.083524410,0.342099310,10.120281220,0.097753110,0.041992950,-0.005735460
1640790073301459968,-0.022106930,0.477418150,9.403339390,0.034852330,-0.047814850,0.002439320
1640790073305270016,-0.767966570,0.204830170,10.902708050,-0.030289590,-0.013494490,0.010274350
1640790073306680064,-0.181211530,0.064679200,9.232592580,0.001978870,0.040414930,0.009320680
1640790073310240000,-0.176331970,0.041697740,10.199408530,0.103247190,-0.045494740,-0.013010200
1640790073311429888,-0.169115440,0.356446270,10.350884440,0.069446860,0.088748340,-0.010500850
1640790073315179776,0.307974960,0.823620320,9.486779210,-0.042609870,0.013026600,0.007110830
1640790073319789824,-0.292867690,0.603626670,10.970288280,-0.113198160,-0.025981670,0.029194360
1640790073320580096,-0.139424990,0.380128830,9.848605160,-0.042201570,-0.016133490,0.023309880
1640790073321899776,-0.174661490,0.205502240,9.637580870,0.118611770,-0.095376390,0.001408160
1640790073325270016,-0.323409320,-0.011785480,9.890058520,0.106471780,0.058369340,-0.006958840
1640790073326459904,0.071999250,0.133139770,9.491285320,-0.020429490,0.075231500,0.017191470
1640790073330230016,-0.186769780,-0.149453450,10.903412820,-0.102341180,0.032900280,0.037157540
1640790073331480064,0.153059410,-0.261593580,9.993462560,-0.066064300,0.014513730,0.018797810
1640790073335279872,0.122649920,0.006404550,9.879964830,0.104837120,-0.088381770,-0.001266600
1640790073336570112,-0.059911650,0.191157610,9.624489780,0.085413460,0.057648130,-0.035044550
1640790073340399872,0.044835820,0.337140320,9.363618850,-0.015926360,0.062522280,-0.015896560
1640790073341469952,-0.494634540,0.045458800,11.007081030,-0.025619570,0.046589960,0.009647010
1640790073345239808,-0.258277180,-0.273734000,10.052328110,0.054374330,0.013029570,-0.001895430
1640790073346459904,-0.452011760,-0.063530160,9.926841740,0.170753910,-0.116811710,0.012919310
1640790073350349824,-0.552572190,0.055372550,9.534024240,0.072532900,0.040617590,0.008295480
1640790073351619840,-0.087203550,0.148404340,9.162680630,-0.062739850,0.088140380,0.006459650
1640790073356950016,-0.265047610,0.156387460,10.910187720,0.002051890,0.036109980,0.009670850
1640790073357740032,0.231332840,0.218460630,10.227499960,0.096915670,0.039649010,-0.029611590
1640790073360219904,0.156346720,0.531232480,10.137932780,0.149379670,-0.058294830,-0.028155750
1640790073361479936,-0.377035860,0.595553040,10.335688590,0.030390920,-0.001357500,-0.016048550
1640790073365190144,-0.315938030,0.278698800,9.611884120,-0.057409710,-0.028491020,-0.012496110
1640790073366789888,-0.594575820,-0.084014940,10.022174840,0.049808630,-0.044600670,-0.006990140
1640790073370499840,-0.330609530,-0.014806600,9.788244250,0.148805980,0.035619740,-0.022073090
1640790073373390080,-0.131997180,0.325572520,10.021357540,0.108101960,0.042477250,-0.006711480
1640790073375219712,-0.182931960,0.670994520,10.594680790,-0.059622530,0.030474370,0.001865630
1640790073376499968,0.036003710,0.763608630,10.355535510,-0.137586860,-0.033326440,0.008322300
1640790073380239872,-0.084928750,0.501562300,10.201694490,-0.005066400,-0.058923670,-0.003845990
1640790073381449984,0.022799060,0.559928480,9.523267750,0.111931570,-0.026082990,-0.034736100
1640790073385360128,-0.131241020,0.513405920,9.878187180,0.086024410,0.013011690,-0.021775070
1640790073389250048,-0.171115950,0.196388830,10.156540870,-0.031003360,0.052404400,0.009071830
1640790073390240000,0.027340600,-0.014451200,10.198380470,-0.104099500,-0.005166230,0.019456440
1640790073393349888,-0.189199330,-0.160876290,10.549044610,-0.023338200,-0.018580260,0.008797650
1640790073395219968,0.110359610,0.253183870,9.508186340,0.016449390,-0.007936360,-0.013023620
1640790073396459776,0.109655060,0.539358790,9.677855490,-0.024387240,0.004450980,-0.008252260
1640790073400349952,0.104362500,0.515261650,9.878759380,-0.089371200,0.103899850,0.002878900
1640790073403899904,0.303099360,0.305035710,10.078233720,-0.074338920,0.074432790,0.002072750
1640790073405819904,-0.281332370,-0.025658790,10.936290740,0.044517220,-0.039099160,0.008198620
1640790073407399936,-0.240261640,-0.087661840,9.724901200,0.080011790,-0.056618460,0.004176800
1640790073410230016,-0.308763800,-0.193977770,9.345382690,-0.018750130,-0.003902610,0.003288690
1640790073411459840,-0.394625690,-0.436605780,9.787224770,-0.066411490,0.126829710,0.014032420
1640790073415239936,0.076296270,-0.298311650,10.080179210,-0.008933250,0.104558450,-0.011642280
1640790073418319872,0.066018420,0.065677750,10.515154840,0.074921560,0.045005980,-0.016692280
1640790073420329728,0.211710300,0.497661440,9.765176770,0.035852200,0.003859400,-0.010080640
1640790073421489920,0.006831270,0.571021080,9.930908200,-0.062562530,0.001852210,-0.013291840
1640790073425299968,-0.337519680,0.119296650,9.840266230,-0.020369890,0.051440300,-0.001899900
1640790073426499840,-0.297233520,-0.093496200,9.924631120,0.115428870,-0.002084670,-0.020477180
1640790073430240000,-0.586587190,-0.107474480,10.151782990,0.162164880,0.059948870,-0.027365980
1640790073431479808,-0.307304260,-0.030668730,9.587181090,0.043536720,0.042286510,0.004452470
1640790073435329792,-0.459400710,0.066117000,10.669369700,-0.065992780,0.029738250,0.015142560
1640790073436879872,-0.275516510,0.087093490,9.851085660,-0.057129570,0.044524670,-0.000746550
1640790073440320000,0.095777570,0.335617960,9.668891910,0.072610380,-0.047563020,-0.021944940
1640790073441449984,-0.191990390,0.613530760,10.383710860,0.131768000,0.091892470,-0.056217610
1640790073445230080,0.065970010,0.690893110,9.640768050,0.031095740,0.050146880,-0.032088160
1640790073446539776,-0.320789490,0.490775700,11.063534740,-0.016295910,-0.065137450,0.000929830
1640790073450700032,-0.455039830,0.100432770,10.001141550,-0.001217420,0.015205150,-0.005620720
1640790073451840000,-0.158805560,0.074191350,9.423679350,0.049142540,-0.052195800,-0.014902650
1640790073455379968,-0.656568530,0.354644300,10.654236790,0.049395860,0.038196150,-0.008326770
1640790073457870080,-0.140997680,0.391700030,9.466377260,-0.044207290,0.045628850,-0.001913310
1640790073460399872,0.183777720,0.577173470,10.263657570,-0.057505070,-0.026103850,-0.002425910
1640790073461439744,0.072238410,0.645478130,10.285216330,-0.040666760,0.101567810,-0.023067000
1640790073465230080,0.380746280,0.727931200,9.843317990,-0.027754900,-0.010548530,-0.032491970
1640790073466729984,-0.202911630,0.714052680,10.826473240,-0.020633640,-0.030736630,-0.001634660
1640790073470510080,-0.215213370,0.248976330,9.524867060,-0.061114130,-0.011472400,-0.006169080
1640790073471439872,-0.141440090,-0.053473440,9.886450770,-0.030525030,-0.032886870,0.003755090
1640790073475229952,-0.310903130,-0.202010290,9.994086270,-0.004076960,0.118714570,0.003023450
1640790073476549888,0.156838790,-0.142054840,9.748252870,-0.034372510,0.053448980,0.004674490
1640790073480229888,0.013918630,0.114786270,10.853134160,-0.066770610,0.067813690,0.017613170
1640790073481429760,0.204620630,0.141380980,9.691686630,-0.115291780,0.037157540,-0.005218390
1640790073485809920,0.181495470,0.232697990,10.067309380,-0.029782960,-0.075352190,-0.013224780
1640790073487049728,-0.027902840,0.303170530,9.533998490,0.016251210,0.112214690,-0.036124890
1640790073490299904,0.009148920,0.114041860,9.490076070,-0.006808340,0.068923830,-0.035938620
1640790073491479808,-0.531910900,-0.058301810,11.298537250,-0.003124770,0.062792000,0.010725860
1640790073495179776,-0.354344550,-0.288405750,9.787552830,-0.021377200,0.044508280,-0.004696850
1640790073496499968,-0.328841950,-0.241194950,9.876983640,0.009034570,-0.107364360,0.012791160
1640790073500279808,-0.366415170,-0.023286150,9.569310190,-0.008952620,0.124886640,0.001080330
1640790073501890048,0.247268040,0.050130110,8.989498140,-0.042399770,0.141529740,-0.031656030
1640790073506309888,-0.136412920,0.269623340,11.412246700,0.022464990,0.058038540,-0.004251300
1640790073506909952,0.176285790,0.373095450,9.958908080,0.042495130,0.056460500,-0.033991040
1640790073510219776,0.098738760,0.324582010,9.913049700,0.027659540,-0.083534430,-0.019915400
1640790073511459840,-0.653069080,0.419244440,10.459100720,-0.016403200,0.069640580,-0.001810490
1640790073515290112,-0.482741090,0.046033990,9.363471980,-0.038683410,0.033137210,-0.019054120
1640790073516539904,-0.758615910,-0.071163850,10.592140200,0.053343180,-0.036561490,0.002206860
1640790073520390144,-0.364889890,0.248758320,9.625857350,0.071306530,0.102926800,-0.007732210
1640790073522599936,-0.019128820,0.364382300,10.005726810,-0.017324090,0.043006230,-0.011767450
1640790073525260032,-0.238108590,0.747190240,10.969079020,-0.104832650,0.075949740,0.020457810
1640790073526579968,0.124999990,0.716837580,9.775991440,-0.106279540,-0.034761430,-0.003369150
1640790073530390016,-0.064036740,0.427247910,10.325574870,0.011023880,-0.072807090,-0.016178190
1640790073531459840,-0.021826770,0.599619510,9.379909520,0.061933700,0.074556470,-0.022295120
1640790073538769920,-0.112562270,0.306840510,10.012904170,-0.013118980,0.024557110,-0.013053420
1640790073539470080,-0.362406520,0.140445370,10.864535330,-0.091670450,0.059142720,0.030036270
1640790073540219904,0.073486330,0.072905680,9.530167580,-0.121285030,0.002926590,0.021119420
1640790073541499904,-0.284556360,-0.015146320,10.551266670,-0.050634150,-0.042812530,0.016312300
1640790073545359872,-0.072594580,0.387385160,9.447942730,-0.024697180,0.077731900,0.010359290
1640790073546939904,0.180781220,0.407765980,9.477705960,-0.074757640,0.006233160,-0.012652580
1640790073550659840,-0.038775870,0.214359210,10.744857790,-0.089307140,0.117717710,0.000080470
1640790073552120064,0.332466130,0.163712840,9.728933330,-0.041715800,0.094375010,-0.004863740
1640790073555330048,-0.201580670,-0.073637970,10.804703710,0.018048280,-0.081711990,-0.002262000
1640790073556499968,-0.262775180,0.025605440,9.707180020,-0.020626190,0.032824270,0.025974210
1640790073560259840,-0.054497600,-0.143827900,8.974740980,-0.094755010,0.027418140,0.016200540
1640790073561619968,-0.485414000,-0.422868370,10.425275800,-0.050582000,0.102835910,0.012966990
1640790073565270016,0.043109880,-0.109115180,9.589772220,0.038084390,0.120867790,-0.017337500
1640790073566550016,-0.139689370,0.098596780,10.370983120,0.047683720,-0.004403290,-0.027693810
1640790073570360064,-0.246760580,0.309878200,10.239516260,-0.048153110,0.044585770,0.007154050
1640790073571509760,-0.140332330,0.343393180,9.692255970,-0.088155270,0.018279260,0.003127750
1640790073575259904,-0.561824920,-0.136300760,10.317629810,0.008057060,0.010086600,-0.001436470
1640790073576499968,-0.303003580,0.059317540,9.733903880,0.120188280,0.046347080,-0.014671680
1640790073580289792,-0.403690010,0.155500290,10.038737300,0.087696310,0.039353970,-0.003743170
1640790073581489920,-0.309460430,0.066702800,10.124637600,-0.039725010,0.044600670,0.019814080
1640790073585379840,-0.118870100,0.266726880,10.202589990,-0.067937380,0.001747910,0.021268430
1640790073587469824,-0.231087450,0.090045250,10.173215870,0.003845990,0.014744700,-0.003354250
1640790073590390016,0.031340890,0.466869950,9.743460660,0.073769690,-0.005546210,-0.023214520
1640790073591519744,-0.305045310,0.754262800,10.349771500,0.039477650,0.023493170,-0.016216930
1640790073597750016,-0.125314250,0.417443750,9.915645600,-0.053310400,0.040574360,0.002878900
1640790073599079936,-0.157318800,0.302681210,10.459545140,-0.014726820,-0.025591250,0.031614310
1640790073600179968,-0.544813450,0.145965680,10.402073860,0.032195450,0.002796950,0.010980670
1640790073601509888,-0.180844320,0.223201440,9.414423940,0.010477010,-0.042638180,0.021320580
1640790073605299968,-0.479384780,0.395674440,10.235129360,-0.032077730,-0.012558700,0.034125150
1640790073606530048,-0.205392320,0.157623770,9.814755440,-0.085560980,0.057266660,0.024490060
1640790073610479872,0.219466780,0.149738420,10.055753710,-0.003878770,-0.008195640,0.029386580
1640790073611609856,-0.060207240,0.358562320,10.420218470,0.037966660,0.034803140,-0.006586310
1640790073615160064,0.294419320,0.357739360,9.626356120,-0.028681760,0.001703200,0.028261540
1640790073616529920,-0.088397390,0.203221690,10.345986370,-0.054137410,-0.020992760,0.050082800
1640790073620399872,-0.309365900,-0.146532490,9.847787860,-0.039415060,-0.015810130,0.021021070
1640790073621459968,-0.040866860,-0.275951470,9.585445400,0.053109240,-0.038811560,0.028964880
1640790073625259776,-0.343518080,-0.131084610,9.845152850,0.058387220,0.087948140,0.010800360
1640790073626700032,-0.155748050,-0.054065780,10.027385710,-0.024093690,0.051745780,0.024591390
1640790073630259968,-0.323837580,0.040528980,10.826418880,-0.036476560,-0.007107850,0.046165280
1640790073631490048,-0.197705970,-0.018870530,9.676093100,0.007878240,-0.047220290,0.024974350
1640790073635670016,-0.173516540,0.022201660,9.773780820,0.083610420,-0.081109990,0.028234720
1640790073637069824,-0.386753170,0.151604610,9.639613150,0.092484060,0.083655130,0.012998280
1640790073640630016,-0.202967440,-0.011590730,9.893758770,0.027026240,0.010894240,0.014640390
1640790073641499904,-0.379772450,0.040679520,11.030359270,0.058697180,-0.031964490,0.052236030
1640790073645299968,-0.056387680,0.078076700,9.483257290,0.061944140,-0.018289690,0.029860440
1640790073646519808,0.002160100,0.207619230,10.030306820,0.055797400,-0.076107680,0.037087500
1640790073650179840,-0.273742940,0.506633640,10.216407780,0.025443740,0.091917820,0.034935770
1640790073651799808,-0.004572580,0.309687580,9.617630960,0.010393560,-0.036944450,0.013990700
1640790073655819776,-0.353775260,0.358903770,10.916761400,0.092297780,-0.098468350,0.029903650
1640790073657139968,-0.133425610,0.439532460,9.360381130,0.081962350,0.028991700,0.009362400
1640790073660199936,-0.278655920,0.231246690,10.049680710,0.020514430,-0.073403130,0.019507110
1640790073661499904,-0.724075380,0.371366380,11.002036090,-0.002047420,-0.006805360,0.057227910
1640790073665169920,-0.182244760,0.072379170,9.391670230,0.003035370,-0.061564150,0.029358270
1640790073666509824,-0.218835960,0.086169000,10.365741730,0.075140610,-0.095415140,0.044120850
1640790073670299904,-0.048607060,0.482155110,9.774541850,0.066740810,0.075559320,0.029046840
1640790073673639936,0.299608830,0.378865930,9.830088620,-0.022417310,-0.034785270,0.035190590
1640790073675399936,-0.038661240,0.527281640,11.006641390,-0.038503110,-0.033180420,0.056652720
1640790073677069824,0.172789800,0.397562560,9.672965050,-0.010024010,-0.034777820,0.019307430
1640790073680249856,-0.093401680,0.119669010,10.306708340,0.054954000,-0.118456790,0.014321510
1640790073681479936,-0.260472830,0.374609920,9.737430570,0.048014530,0.015665590,0.018447640
1640790073685250048,-0.044665970,0.128150030,9.486144070,-0.030301510,-0.008459390,0.030344720
1640790073687140096,-0.356551260,-0.183538710,10.786830900,-0.023916370,0.035248700,0.063763570
1640790073694129920,-0.070960390,0.032092400,9.778965000,0.023448470,-0.006914140,0.034722690
1640790073694609920,-0.213160230,-0.033019640,10.372373580,0.044301140,-0.122098620,0.038760900
1640790073695259904,-0.067538810,0.095920060,9.516839980,0.007116800,0.032065810,0.046405200
1640790073696600064,0.130905090,0.027762940,9.448880200,-0.012634700,0.014382600,0.019608440
1640790073700239872,-0.312493060,-0.302856860,11.108637810,0.061942630,0.029464060,0.026312470
1640790073701540096,0.070564670,-0.108039180,9.592442510,0.116007050,-0.022837520,0.023886570
1640790073705329920,-0.268321630,-0.114607750,10.117091180,0.093728300,-0.132088380,0.028973820
1640790073708669952,-0.417255700,-0.119881290,9.708787920,0.015631320,0.042654570,0.043500960
1640790073710189824,-0.029398190,0.008900690,9.043473240,0.024233750,0.000080470,0.029815730
1640790073711479808,-0.480332700,-0.094077330,10.953676220,0.113593050,-0.007757550,0.027596950
1640790073715219968,0.068473530,0.281055780,9.529320720,0.148625670,0.046758360,0.024259100
1640790073716549888,-0.210738970,0.341549040,10.349674220,0.093412410,-0.097621980,0.021643940
1640790073720919808,-0.545012830,0.145353760,10.506738660,0.025519730,-0.020907820,0.047460210
1640790073721859840,-0.039035620,0.016807790,8.855191230,0.081442300,-0.077205920,0.023393340
1640790073725900032,-0.524406910,-0.194708500,10.363468170,0.175230210,-0.045721230,0.007499750
1640790073727959808,-0.137464960,0.120944810,9.642730710,0.175879910,0.076529380,0.014545030
1640790073730190080,-0.137860460,0.218120050,10.280658720,0.084331640,-0.066454720,0.014291700
1640790073731449856,-0.429269400,0.162940870,10.887223240,0.019688900,-0.067809230,0.027915840
1640790073735440128,0.117328140,0.482645300,9.309246060,0.080296400,-0.070910160,0.022366640
1640790073738060032,-0.333800200,0.519648730,10.215283390,0.133833290,-0.067189340,-0.005838270
1640790073741550080,-0.155353550,0.728119310,9.878855710,0.106008350,0.025075670,0.029209260
1640790073742309888,-0.034401170,0.720097010,10.115581510,0.058630110,-0.047269460,0.032769150
1640790073745240064,-0.355532970,0.361228080,10.752126690,0.026261810,-0.062718990,0.023911890
1640790073746500096,-0.037207570,0.385360150,9.606793400,0.056371090,-0.091566150,0.035013260
1640790073750249984,-0.326270010,0.343916030,9.983207700,0.063467030,-0.076471280,-0.001569090
1640790073751600128,-0.147932470,0.302585150,9.654472350,0.012338160,-0.004254280,0.006486480
1640790073755399936,0.067852640,0.391599030,9.987309460,0.016966460,-0.026002530,0.023515520
1640790073756589824,-0.079160990,0.208936350,10.668219570,0.014859440,0.013311210,0.006316600
1640790073760800000,0.172182860,0.364397050,9.951898570,0.025703020,-0.063024480,0.022363670
1640790073761519872,-0.253063620,0.421234880,10.400316240,0.027205050,-0.116750600,0.026470420
1640790073765250048,-0.065525200,0.100427180,9.257341380,-0.028601290,-0.031487640,0.033976140
1640790073766530048,0.098158520,0.009431210,9.313615800,0.036720930,-0.009745360,0.052353750
1640790073770459904,-0.204943190,-0.193305050,10.546239850,0.078119340,0.070449710,0.026185810
1640790073771790080,0.203938220,-0.019800700,9.967446330,0.050610300,0.005401670,0.030267240
1640790073775660032,-0.183589800,0.194593610,10.480320930,0.015395880,-0.110307360,0.035020710
1640790073776579840,-0.186212940,0.006452130,9.550553320,-0.054316230,-0.023877620,0.000852350
1640790073780199936,-0.014433030,0.107352830,9.130190850,0.028158730,-0.021064280,-0.002808870
1640790073781479936,-0.429992650,0.040908200,10.232474330,0.132000450,0.035515430,-0.023671980
1640790073785869824,-0.091944030,0.126584770,9.916024210,0.098767890,0.027199100,-0.009979310
1640790073786840064,-0.292582810,0.126817350,10.334051130,0.049608950,-0.061336160,0.035712120
1640790073792039936,-0.384095310,-0.273487630,10.157474520,-0.015057620,-0.044600670,0.021946430
1640790073792749824,-0.113447840,-0.315195410,9.499150280,0.077310210,-0.038722160,0.020122530
1640790073795290112,-0.348190220,-0.119862380,9.740653990,0.171400590,-0.019685920,0.001144410
1640790073796529920,0.036291250,0.183968530,9.650583270,0.105628380,0.021035970,-0.015532970
1640790073800320000,0.019436430,0.530532480,10.275294300,0.022888190,0.025947390,0.007733700
1640790073802240000,-0.206109050,0.465362010,10.585768700,-0.014138220,-0.038878620,-0.005005300
1640790073806499840,-0.248915450,0.484267380,10.308338170,0.073336060,-0.115127880,-0.014121830
1640790073807559936,-0.494994820,0.587261140,9.592434880,0.144520420,-0.073568520,-0.025895240
1640790073810249984,-0.438806350,0.452222290,9.480243680,0.081799930,-0.018997490,-0.016011300
1640790073811499776,-0.514318410,0.351088290,10.355082510,0.026422740,0.021435320,0.018934910
1640790073815229952,-0.188725350,0.179868800,10.036565780,0.008778270,-0.012630230,0.012907390
1640790073816679936,-0.044009370,0.148975940,10.468422890,0.030063090,-0.091192110,0.000789760
1640790073820519936,-0.086342570,0.531973900,10.032955170,0.038649140,-0.031019750,-0.006338950
1640790073821740032,0.057766540,0.417901160,9.620489120,-0.014647840,-0.056937350,-0.012166800
1640790073827030016,-0.098744990,0.323922660,10.337996480,0.000219050,-0.049242370,0.006029010
1640790073827980032,0.076458140,0.251594280,9.649215700,0.046800080,0.021520260,-0.003401940
1640790073830200064,0.093504510,0.085540030,10.125844000,0.054639580,-0.034286080,-0.004552310
1640790073831549952,-0.390718880,0.387957840,10.646318440,0.031434000,-0.035855180,0.013153260
1640790073835849984,-0.099272010,0.309706480,9.383661270,-0.072333220,-0.086487830,0.019375980
1640790073837539840,-0.153698770,0.086740230,9.824144360,-0.056374070,-0.060321390,0.029139220
1640790073840950016,-0.091441480,0.171795830,9.616191860,0.046540800,0.063231590,-0.004188720
1640790073841519872,0.178233920,0.076642010,9.907822610,0.083091860,0.004433100,-0.028027600
1640790073845149952,-0.267137440,0.186760340,10.673127170,0.047037010,-0.020472710,0.014439220
1640790073846530048,-0.142299520,-0.006056380,9.762401580,-0.052119800,-0.071340800,0.005327170
1640790073850569984,-0.301997660,-0.396630530,9.996398930,-0.024539230,-0.104926540,0.010450190
1640790073852130048,-0.370151700,-0.380145070,9.275399210,0.101804760,-0.008992850,-0.011670590
1640790073855269888,-0.018924610,-0.088533980,9.553810120,0.123459110,0.015287100,-0.032697620
1640790073857299968,-0.177075160,0.170377400,10.590353970,0.049062070,0.083053100,0.008888540
1640790073860260096,0.075631380,0.236693860,10.165423390,-0.031448900,-0.037521120,0.008657580
1640790073861529856,-0.043593020,0.212303220,10.542547230,0.010751190,-0.120563820,0.002102550
1640790073865280000,-0.139624890,0.214922290,9.195138930,0.113321850,-0.023199620,-0.018371640
1640790073868389888,-0.189429150,0.321760710,9.480265620,0.130972270,-0.054727510,-0.041358170
1640790073870210048,-0.607971250,0.208438070,10.542004590,0.064831970,0.053395330,-0.017890340
1640790073871529728,-0.210360150,0.082365860,9.615037920,0.027851760,-0.030815600,0.004266200
1640790073875249920,-0.392817050,0.016674390,10.925774570,0.061146920,-0.106099250,0.001741950
1640790073876549888,-0.336193140,0.253896060,9.740185740,0.061218440,0.024974350,-0.017115470
1640790073880209920,-0.112346020,0.647401990,9.561880110,0.017367310,-0.109446060,-0.012809040
1640790073881539840,-0.393646870,0.546954690,10.663531300,-0.005252660,-0.008727610,-0.004445020
1640790073885629952,0.206099320,0.405365140,9.096654890,0.033415860,0.013723970,-0.017172090
1640790073886560000,-0.049218620,0.359538730,10.848520280,0.102712220,-0.105908510,-0.036098070
1640790073890240000,-0.246902880,0.391926350,10.312253000,0.047282870,0.022879240,-0.021131340
1640790073891520000,0.001563190,0.378299770,9.394638060,-0.043606760,-0.119987130,-0.003375110
1640790073895170048,-0.556680500,0.130912540,10.965849880,-0.043092660,-0.081770120,0.007203220
1640790073896549888,-0.060639780,0.192422000,8.919948580,0.006440280,0.019121170,-0.001589950
1640790073900709888,0.087406010,0.337363150,9.825243000,0.051359840,-0.071631370,-0.013446810
1640790073903589888,-0.172663360,0.553169490,10.551015850,-0.016763810,0.086292620,-0.005264580
1640790073905210112,0.152741300,0.501381810,9.697129250,-0.081025050,-0.042520460,0.008521970
1640790073906540032,-0.381629740,0.144597710,11.060079570,-0.039231780,-0.156199950,0.009097160
1640790073910230016,-0.283369420,-0.038473210,9.206204410,0.029055780,-0.035612300,0.000599030
1640790073911480064,-0.070914720,-0.124046650,9.256760600,0.067460540,-0.080004340,-0.016449390
1640790073915350016,-0.248079960,-0.153789740,10.303707120,0.006467100,0.115992120,-0.005687770
1640790073916770048,0.269029260,-0.170541290,9.682152750,-0.050844240,0.047278400,0.005333120
1640790073920320000,0.048384980,-0.160902130,11.025236130,0.003725290,-0.080893940,0.006338950
1640790073922070016,0.148851600,0.065147620,9.388899800,0.032307210,-0.034908950,-0.011721250
1640790073925259776,0.139208380,0.193745700,9.160503390,0.038665530,-0.104914600,-0.009958450
1640790073927589888,-0.358214880,-0.006826540,10.102282520,0.018109380,0.101134180,-0.013609230
1640790073930759936,-0.256890890,-0.220245090,9.686909680,0.055371220,0.022108850,-0.018240510
1640790073933359872,-0.649603130,-0.310457560,11.139470100,0.152532770,-0.106436030,-0.002920630
1640790073935299840,-0.406088020,-0.210673320,9.292730330,0.106959070,0.000324850,-0.000038740
1640790073936630016,-0.311997000,-0.042414610,9.369599340,0.025442240,-0.079323360,0.007811190
1640790073940160000,-0.456501720,0.131784140,10.323527340,0.000554320,0.076000400,-0.003606080
1640790073941489920,0.264824870,0.283316020,9.121190070,0.052598120,0.018878280,-0.029799350
1640790073945289728,-0.033740930,0.473749310,10.919853210,0.165131690,-0.082573320,-0.025226180
1640790073947229952,0.134749350,0.631586430,9.772789960,0.112178940,0.048428780,-0.031396750
1640790073950249984,-0.034200240,0.358388190,9.899743080,0.028115510,-0.099699200,-0.012145940
1640790073951599872,-0.745605590,0.100880220,10.912108420,0.046814980,-0.064159940,0.011582670
1640790073955190016,-0.288664820,-0.084219810,8.903345110,0.093220160,-0.034686920,-0.015291570
1640790073956559872,-0.498581440,0.084961250,10.047396660,0.138406470,-0.069551170,-0.005419550
1640790073960339968,-0.411470060,0.509867370,10.031407360,0.041517620,0.088839230,-0.006638470
1640790073963779840,0.116613840,0.686129270,9.671314240,-0.063103440,-0.042071940,-0.007312000
1640790073965420032,-0.213892250,0.694834050,10.943659780,-0.025090580,-0.069203980,0.010938940
1640790073967529984,0.130954710,0.691036640,9.558116910,0.041364130,-0.020329660,-0.034336750
1640790073970330112,-0.155159700,0.561512770,10.073789600,0.093752130,-0.116042790,-0.028909740
1640790073971479808,-0.298909160,0.397853640,9.917649270,0.037987530,-0.022207200,0.005966430
1640790073975149824,0.086709880,0.003136960,9.221562390,-0.047671800,-0.013829770,0.008809570
1640790073976519936,-0.147200360,-0.234191250,10.382637020,-0.018909570,0.011394920,0.025495890
1640790073980209920,0.078845280,-0.046229920,9.775344850,0.012008840,0.015307960,0.009983780
1640790073981789952,0.014834230,0.207358640,10.000957490,0.014069680,-0.109823060,0.001095240
1640790073987510016,-0.008912440,0.364208160,9.623418810,-0.043608250,-0.006540120,0.002241130
1640790073988129792,0.162880150,0.335644510,9.319895740,-0.061559680,0.018230080,-0.021141770
1640790073990190080,-0.259445460,0.056396180,10.646211620,0.041568280,0.010548530,-0.026747590
1640790073991520000,-0.119543630,0.222913670,9.701539990,0.095596910,-0.004498660,-0.025781990
1640790073995769856,-0.348226460,0.195939660,9.892247200,0.022172930,-0.104883340,0.001506510
1640790073997200128,-0.440380390,-0.076771210,9.785742760,-0.072446450,0.018963220,0.023193660
1640790074000310016,-0.079217800,-0.206046830,9.303956030,-0.026726720,-0.001651050,0.011397900
1640790074001570048,-0.295063590,-0.253279450,10.522752760,0.101459010,-0.009046490,-0.024507940
1640790074005270016,0.258612280,0.282219710,9.542555810,0.094038250,0.057107220,-0.029629470
1640790074006539776,0.023547230,0.424964870,10.196887020,-0.018005070,-0.040380660,-0.028781590
1640790074010259968,-0.325342360,0.348571090,10.528780940,-0.081755220,-0.031074890,-0.017850100
1640790074011620096,-0.104667130,0.378601910,9.263865470,-0.000374020,-0.082418320,-0.015550850
1640790074015689728,-0.665501120,0.087191190,10.085734370,0.114186100,-0.056453050,-0.038579110
1640790074020160000,-0.459738550,0.393333610,9.708962440,0.089125340,0.061015790,-0.023411210
1640790074020669952,-0.426907750,0.435469120,10.168067930,-0.023725630,-0.030475850,0.004369020
1640790074021489920,-0.319584070,0.151423990,10.517009740,-0.090026860,-0.027623770,0.028702620
1640790074025219840,0.266654190,0.370130540,9.530227660,-0.039637080,-0.012058020,-0.000317390
1640790074029219840,-0.057880510,0.362925710,10.220726970,0.019979480,-0.022938850,-0.033359230
1640790074030149888,0.038634830,0.517147000,9.828718190,0.010576840,-0.025306640,-0.016036630
1640790074031839744,0.060984180,0.417508100,9.686069490,-0.028826300,-0.052633880,-0.013607740
1640790074035239936,-0.206298990,-0.100471780,10.047011380,-0.045622890,-0.007526580,-0.001274050
1640790074037469952,-0.083304800,-0.061363120,9.767593380,0.015799700,-0.024154780,0.007107850
1640790074040259840,-0.418486920,0.021841020,10.198925020,0.013726950,-0.021418930,-0.007994470
1640790074041819904,-0.180182640,0.110904600,9.676401140,-0.063622010,-0.011378530,0.025403500
1640790074045189888,-0.168518010,0.125176370,10.030778880,-0.053396810,-0.023782250,0.024880470
1640790074046550016,-0.140452760,-0.014853760,9.758176800,-0.024169690,0.024965410,-0.019125640
1640790074050360064,0.260110020,0.166090060,9.381752970,0.046533350,-0.035062420,-0.010810790
1640790074053979904,-0.106314380,0.204842420,10.157678600,0.036716460,0.027576090,-0.012879080
1640790074055189760,0.017413200,-0.092105520,9.754543300,-0.036591290,0.022332370,0.004670020
1640790074056539904,-0.304259330,-0.224945620,10.446156500,-0.002135340,-0.096949940,0.021411480
1640790074060529920,-0.470151660,-0.509554510,9.689835550,0.060404850,-0.048971190,-0.002850590
1640790074061570048,-0.061777330,-0.326625820,8.919896130,0.092649470,-0.021030010,-0.013150280
1640790074065289984,-0.506235960,0.076599700,10.207746510,0.048336390,0.079189250,-0.007808210
1640790074067669760,-0.182024260,0.017192070,10.051427840,-0.036801400,0.034050650,-0.006562470
1640790074070169856,-0.077076140,0.293445290,10.408978460,0.033386060,-0.094832490,0.006058810
1640790074071480064,-0.252661440,0.373886590,9.837837220,0.092262040,-0.036780540,-0.027669970
1640790074075199744,-0.107807440,0.356778440,9.503765110,0.078053770,-0.039467220,-0.036238140
1640790074076599808,-0.545436620,0.429817050,10.282861710,0.059916080,0.005947050,-0.013493000
1640790074080260096,-0.337434110,0.097888400,9.863946910,0.014700000,-0.043211870,-0.020235780
1640790074081939968,-0.115385030,0.114604810,10.130961420,0.062112520,-0.064964600,0.011627380
1640790074085999872,-0.198539530,0.290490090,9.720195770,0.056192280,0.024044510,-0.011327860
1640790074087379968,-0.118439130,0.379434650,10.117793080,-0.009284920,-0.049789260,-0.000482800
1640790074090400000,-0.292459070,0.551348570,10.399421690,-0.009916720,-0.026938320,0.025971230
1640790074093929984,-0.072194660,0.271506850,9.560600280,0.008636710,-0.082549460,-0.011229520
1640790074095119872,-0.052853650,0.287026230,10.115817070,0.090806200,-0.059169540,-0.011855360
1640790074096560128,-0.157307280,0.479991790,9.641035080,0.056341290,0.052915520,-0.023895500
1640790074100239872,-0.191536890,0.332072650,10.152875900,-0.053384900,-0.068488720,-0.001502040
1640790074101600000,-0.420614840,0.269483000,10.630807880,-0.051084170,-0.061307860,0.036896770
1640790074105270016,-0.059578910,-0.033283500,9.068593980,0.005832310,-0.063410410,-0.009018180
1640790074106929920,-0.077330630,0.043022120,9.899025920,0.089319060,-0.074914100,0.001974400
1640790074110189824,0.009739370,0.295131120,9.625926970,0.038340690,0.099596390,0.000861290
1640790074111519744,0.335446480,0.028915420,9.837314610,-0.078803300,-0.004246830,0.004616380
1640790074115360000,-0.202858310,-0.005252910,11.224843980,-0.037018960,-0.049509110,0.035078820
1640790074116570112,-0.053968510,-0.176391850,9.291390420,0.050750370,-0.080119060,-0.018261370
1640790074120290048,-0.267144890,-0.259780760,9.500004770,0.111328070,-0.144313250,-0.022833050
1640790074121709824,-0.575754700,0.030868030,9.552168850,0.078307100,0.066272910,-0.008051100
1640790074125190144,-0.171508970,-0.225269540,9.545618060,-0.010161100,0.041738160,-0.017789010
1640790074127800064,-0.441975710,-0.095553700,11.189299580,0.041854380,-0.034032760,0.023283070
1640790074130550016,-0.057683930,0.353222850,9.661193850,0.087320800,-0.048503280,0.004722180
1640790074132189952,0.002217280,0.367641330,9.740564350,0.048212710,-0.102505100,-0.005105140
1640790074135289856,-0.321211730,0.652442810,9.933810230,0.011380010,0.037935380,0.009804960
1640790074136580096,-0.037424840,0.324629660,9.591291430,0.029817230,-0.040097540,-0.008480250
1640790074140219904,-0.326373880,0.022748680,10.699428560,0.121131550,-0.055176030,-0.007295610
1640790074141539840,-0.091997670,0.342757640,9.460385320,0.118815900,-0.007151070,-0.007130210
1640790074145200128,-0.307381300,0.265186400,10.309419630,0.006835160,-0.080142920,-0.005094710
1640790074146599936,-0.509499190,0.406892120,10.307857510,-0.071835530,0.007949770,0.026898090
1640790074150249984,-0.120941800,0.416883230,9.372886660,-0.029081110,-0.091516960,0.014585260
1640790074155799808,-0.331238960,0.294105320,10.495120050,0.078894210,-0.062187020,-0.011512640
1640790074156559872,0.149097060,0.660046940,9.153384210,0.086507210,0.045850870,-0.005912780
1640790074157110016,0.015036580,0.570446790,10.321510310,-0.010599200,-0.073692210,0.002905730
1640790074160219904,-0.331740230,0.335155250,10.899899480,-0.088679790,-0.001971420,0.036929550
1640790074161579776,0.124007240,0.263221530,9.085446360,-0.051988670,-0.105391440,0.012199580
1640790074165429760,-0.413983910,0.042979190,10.500420570,0.035564610,-0.127378110,0.000458960
1640790074166640128,0.002892860,0.233602570,8.905880930,0.033198300,0.077316160,0.001518430
1640790074170569984,0.175536220,0.241520720,9.653025630,-0.048561390,-0.027461350,-0.000910460
1640790074171599872,-0.253756820,-0.003547580,11.205501560,-0.075829040,0.064532460,0.030237440
1640790074175139840,0.301909920,0.082115450,9.400895120,-0.027333200,-0.051212310,0.004252790
1640790074176590080,-0.260279920,-0.018681610,10.392204280,0.037075580,-0.167526320,-0.007805230
1640790074180610048,-0.331449600,0.061816980,9.159263610,0.002345440,0.032761690,-0.006048380
1640790074181589760,-0.174624220,-0.040892080,9.155529020,-0.034184750,-0.005890430,-0.017461180
1640790074185279744,-0.720948160,-0.461553390,11.168464660,0.013293330,0.023363530,0.003047290
1640790074186919936,-0.068010260,-0.225668820,9.563390730,0.096504380,-0.016614790,-0.001338120
1640790074190209792,-0.225330520,-0.005405100,10.244162560,0.075988480,-0.108175000,-0.003425780
1640790074191680000,-0.225446750,0.244280770,9.697898860,-0.042369960,0.040984160,0.019663570
1640790074195229952,0.076845490,0.433111940,9.397260670,-0.058814880,-0.031004840,0.001800060
1640790074196819968,-0.193173990,0.223560380,10.480390550,0.028763710,-0.017562510,-0.015160440
1640790074200349696,0.122548620,0.428491470,9.561572070,0.132383420,-0.011426210,-0.019970540
1640790074203089920,-0.271766540,0.463566090,10.443706510,0.100991150,-0.077553090,-0.033956770
1640790074205159936,-0.558685120,0.229951580,10.226607320,-0.047622620,-0.018912550,-0.009630620
1640790074206549760,-0.440142360,0.130098420,9.759883880,-0.043971840,-0.099861630,0.010244550
1640790074210139904,-0.626909850,-0.032369140,10.205225940,0.028637050,-0.028200450,-0.019834940
1640790074211639808,-0.006450550,0.356023550,9.125258450,0.066070260,0.011470910,-0.015559790
1640790074215239936,-0.136232210,0.790441750,10.402261730,0.013537710,-0.024433440,0.001272560
1640790074216640000,0.061492820,0.691492320,10.231060980,-0.129897910,0.028191510,0.016362970
1640790074220609792,0.172066870,0.445532110,10.003821370,-0.070397560,-0.100937490,0.024081760
1640790074221529856,-0.413215640,0.144377540,10.690382000,0.065235780,-0.095143910,-0.011362130
1640790074225199872,-0.086787050,0.062658300,9.048027990,0.078196820,-0.036589810,-0.012004370
1640790074226709760,-0.291754630,-0.001627680,9.708656310,0.002804400,-0.051741310,0.004079940
1640790074230589952,-0.214821340,-0.152519610,10.042703630,-0.105653700,0.089430810,0.005458300
1640790074231579904,0.265255930,-0.012704700,9.632379530,-0.068278620,-0.005601350,0.014761090
1640790074235499776,-0.144989420,0.236592200,10.663021090,0.009977820,-0.082477910,-0.000639260
1640790074236909824,0.106516040,0.505066340,9.447546010,-0.025582310,-0.029917060,-0.010015070
1640790074240179968,-0.072317440,0.401645420,9.559615140,-0.028671330,-0.046351560,-0.004172330
1640790074241570048,-0.410724430,0.028597270,10.194704060,-0.015778840,0.016357010,-0.015704330
1640790074245230080,-0.221159490,-0.113467660,9.755442620,0.062285360,-0.018157070,-0.006155670
1640790074248090112,-0.508229550,-0.176438150,10.095516200,0.074230130,-0.060853370,0.005966430
1640790074250409728,-0.291746530,-0.192196310,9.673190120,-0.037613510,-0.025136770,0.011554360
1640790074252239872,-0.160250100,-0.087063240,9.682719230,-0.052335860,-0.009825830,0.011309980
1640790074255139840,-0.009467430,-0.078225490,9.827238080,-0.000727180,0.013801460,-0.015747550
1640790074256559872,0.224816710,0.285667600,10.043530460,0.069732960,0.001142920,-0.035159290
1640790074260859904,0.010164610,0.536475300,10.282293320,0.056229540,0.003840030,-0.027148430
1640790074261529856,-0.151580020,0.396711050,10.055202480,-0.032940510,-0.069877510,-0.015681980
1640790074265280000,-0.608500480,0.222387700,10.120820050,-0.001533330,-0.100341440,-0.004023310
1640790074266649856,-0.616980200,0.057879920,9.386439320,0.045625870,-0.042994320,-0.015397370
1640790074270279936,-0.569015560,0.069337650,9.736460690,0.063335880,-0.028739870,-0.011397900
1640790074271520000,-0.574295760,0.288642470,10.318866730,0.030370060,0.028119990,0.007157030
1640790074275139840,0.037912590,0.359450550,9.972011570,-0.056926910,-0.031000380,0.006729360
1640790074276519936,0.000083690,0.407361890,10.570848460,-0.040377680,-0.064650200,0.019870700
1640790074280419840,0.078550230,0.661857600,9.872208600,-0.015303490,-0.043238700,-0.019794700
1640790074282330112,0.111635450,0.628553090,9.740869520,-0.015395880,-0.091251720,-0.013265010
1640790074287159808,-0.274946960,0.404119970,10.064088820,0.008326770,-0.038060550,-0.000640750
1640790074287799808,0.020182860,0.173329230,9.586455350,-0.020697710,-0.032703580,-0.005140900
1640790074290129920,-0.205066290,-0.083343890,10.268899920,-0.010590260,-0.020413100,0.009617210
1640790074291579904,-0.254706350,0.062758710,9.970935820,-0.022062660,-0.017698110,0.013387200
1640790074295219968,-0.094552430,0.171268390,10.041783330,-0.081132360,-0.069405140,0.019571190
1640790074297999872,-0.160274670,0.120210240,9.801920890,-0.078776460,-0.021165610,0.026720760
1640790074302469888,0.110651610,0.232678150,9.442562100,-0.027406220,-0.035403670,-0.009764730
1640790074303190016,-0.029233950,0.278344900,10.072474480,0.009404120,0.009165700,-0.016456840
1640790074305239808,0.032812560,0.222020270,9.631199840,-0.000073020,0.021828710,-0.008437040
1640790074306579712,-0.173912550,0.033324900,10.516081810,-0.039041040,-0.083495680,0.002604720
1640790074310190080,-0.392080610,-0.358443500,10.076347350,-0.017142300,-0.024151800,0.021894280
1640790074311599872,-0.129042710,-0.409082800,9.120862010,0.047117470,-0.087139020,0.000759960
1640790074315459840,-0.368090420,-0.223650600,9.938518520,0.047908730,0.010932980,-0.013300780
1640790074317740032,0.078489550,0.077910920,9.097680090,-0.027468800,0.113877660,-0.003005560
1640790074320209920,0.005622900,0.273413270,10.638793950,-0.056891150,-0.034928320,0.004416700
1640790074321539840,-0.245795260,0.302123340,10.504545210,0.001892450,-0.024274000,-0.004354120
1640790074325189888,0.052090620,0.377075730,9.090182300,0.061480700,-0.119709970,-0.019395350
1640790074326629888,-0.621029560,0.266956840,10.319046970,0.062948470,-0.021794440,-0.025017560
1640790074330609920,-0.503396510,0.071681070,9.436180110,0.006988650,0.069372360,-0.012207030
1640790074331980032,-0.368580730,-0.134689810,10.393660550,0.025279820,-0.086021430,0.010287760
1640790074337859840,-0.469517890,-0.125654790,10.380091670,0.058905790,-0.005932150,0.016064940
1640790074338459904,0.232658710,0.221967040,8.974658010,0.019711260,-0.035151840,-0.007162990
1640790074340189952,-0.096822950,0.587394300,10.499215130,-0.043927130,-0.006082650,-0.003972650
1640790074341549824,0.163970380,0.693463620,9.711596490,-0.074881320,0.025458640,0.001251700
1640790074345679872,0.318147390,0.604198160,10.217049600,0.018461050,-0.088949500,-0.011482830
1640790074348140032,-0.143364030,0.561078730,10.291333200,0.084559640,0.018349290,-0.026758020
1640790074350249984,-0.079520070,0.520894530,9.492980960,0.011277200,-0.046645110,-0.009059910
1640790074352800000,-0.645523970,0.305882420,10.638835910,-0.070410960,-0.042428070,0.021193920
1640790074355190016,-0.514023010,-0.030740080,9.444327350,-0.099273030,0.002866980,0.032073260
1640790074356570112,-0.282258210,-0.140707700,9.872860910,-0.001405180,-0.078463560,0.016719100
1640790074360839936,-0.165153460,0.201496080,9.686328890,0.030151020,0.076074920,-0.000923870
1640790074361569792,0.479479880,0.445293070,9.183660510,-0.071674590,0.035762780,0.000704820
1640790074365649920,0.208872090,0.454424170,11.043110850,-0.109870730,0.054670870,0.026941300
1640790074367219968,0.297239630,0.162568510,9.889492030,-0.081659850,0.022882220,0.006517770
1640790074370710016,0.011439710,-0.092186760,10.164773940,0.048005580,-0.177483260,0.010791420
1640790074371689984,-0.425043430,-0.092845600,9.468951230,0.077001740,0.003622470,0.001554190
1640790074375160064,-0.136584360,-0.297925200,8.490503310,-0.039446350,0.070545070,-0.001385810
1640790074376590080,-0.657190020,-0.291392240,10.955150600,-0.053378940,0.066442790,0.031860180
1640790074380760064,-0.257619080,-0.179680080,9.921417240,-0.018277770,0.066272920,0.006921590
1640790074382139904,0.139157550,0.186772990,9.693461420,0.034095350,-0.111009190,0.005471710
1640790074385910016,-0.128868390,0.686429140,9.949883460,-0.008469820,0.077097120,0.000771880
1640790074386669824,0.193458150,0.589638290,9.243819240,-0.083211070,0.073887410,-0.018711390
1640790074390189824,-0.280283990,0.305825260,10.935836790,0.001214440,-0.036108500,0.011849400
1640790074391559936,-0.255600840,0.147479300,9.720026020,0.097028900,0.002042950,-0.006118420
1640790074395379968,-0.228953450,-0.063056030,9.561707500,0.079418730,-0.063541520,-0.005710120
1640790074396600064,-0.670605300,0.066176260,10.085621830,-0.030766430,0.064668040,0.023789700
1640790074400310016,-0.368363110,-0.011369920,9.653055190,-0.115121920,0.016315280,0.003549460
1640790074401679872,-0.383965310,0.004107500,10.674522400,-0.029833610,-0.041829050,0.016717610
1640790074405179904,0.061612080,0.469646990,9.333179470,0.052475940,0.041174890,-0.010289250
1640790074411279872,0.201480460,0.673556210,9.977801320,0.019599500,-0.003422800,-0.023078920
1640790074412039936,-0.084992360,0.811063410,10.573787690,-0.072346610,0.096629560,0.021119410
1640790074412519936,0.036100310,0.598519800,9.753702160,-0.099174690,-0.061210980,0.020733470
1640790074415479808,-0.412086010,0.131355720,10.548090930,-0.009799000,-0.113415720,0.029902160
1640790074419440128,-0.075543870,0.273032780,8.583990100,0.033834580,0.052192810,0.015357140
1640790074420189952,-0.142646740,0.168123710,9.680588720,-0.042219460,0.010645390,0.015127660
1640790074421540096,-0.246874290,0.171511590,10.695349690,-0.119619070,0.152878480,0.043606760
1640790074425230080,0.359056950,0.216085810,9.532244680,-0.123213250,0.022052230,0.021183490
1640790074428049920,-0.182495010,0.064401460,10.971055980,-0.041677060,-0.084367390,0.007167460
1640790074430179840,0.049471580,0.429303110,8.953688620,-0.010898710,0.038819020,-0.001461800
1640790074431820032,-0.050837460,0.217819260,9.147420880,-0.052918500,-0.035116080,0.001722570
1640790074435459840,-0.484859050,-0.056250650,10.440299990,-0.077293800,0.120155520,0.030460960
1640790074436590080,0.060347400,-0.090636210,9.473935130,-0.038914390,0.074113910,0.023330750
1640790074440209920,-0.388531890,-0.341730450,10.960978510,0.018751620,-0.057098280,0.030227010
1640790074441989888,-0.097100660,0.086340930,9.353712080,-0.011457500,0.046691300,0.038421150
1640790074445230080,0.056989550,0.192743510,9.134342190,-0.101751090,0.003221630,0.007410350
1640790074447360000,-0.272748080,0.101485420,10.215282440,-0.104773060,0.107927640,0.020579990
1640790074450259968,0.178505080,0.295963290,9.439678190,0.010482970,0.060364610,0.001481180
1640790074452139776,-0.182002080,0.212712720,10.575180050,0.062265990,-0.002294780,-0.011962650
1640790074455139840,-0.260764840,0.282874670,9.885096550,-0.007845460,0.044928490,0.018566840
1640790074456610048,-0.499413820,0.116122640,10.043279650,-0.073488060,-0.038424140,0.008146460
1640790074460269824,-0.672062520,-0.317099570,10.087339400,-0.056946290,0.031140450,0.012275580
1640790074461570048,-0.233104410,-0.087586780,9.163994790,0.057508050,0.019232930,0.013671820
1640790074465289728,-0.393344100,0.226164640,10.308165550,0.059922040,0.055426360,-0.005763770
1640790074468719872,0.071325630,0.594767930,9.746598240,-0.076617310,0.097313520,0.009098650
1640790074470160128,0.032339890,0.896936660,10.388068200,-0.133466720,-0.043605270,0.033812230
1640790074471520000,-0.118940290,0.533273160,10.414050100,-0.103807460,0.006087120,0.016583500
1640790074475339776,0.168279900,0.601473990,9.229893680,0.027973950,-0.010785460,-0.004251300
1640790074476610048,-0.403482080,0.587107060,10.496216770,0.047108540,0.002332030,0.004866720
1640790074480489984,-0.151233910,0.220503370,9.587338450,-0.089250500,0.086575740,0.035461780
1640790074481609728,-0.023149820,0.043786220,9.801144600,-0.129744410,0.001174210,0.048960750
1640790074485219840,-0.329928190,-0.113181930,10.563673020,-0.106057520,0.061097740,0.022690000
1640790074486609920,0.132924940,0.212323740,9.361510280,-0.053448980,0.018768010,0.020101670
1640790074490469888,-0.127591220,0.430298120,10.060803410,-0.061693780,-0.027598440,0.007097420
1640790074491609856,0.133726850,0.426694750,9.586860660,-0.148002800,0.120754560,0.006656350
1640790074495179776,0.194637880,0.235222070,9.890122410,-0.097410380,0.081200890,0.026839970
1640790074496919808,-0.271923270,-0.027157640,10.778564450,-0.022163990,0.023683910,0.007937850
1640790074500199936,-0.051447720,0.017474410,9.508188250,-0.009791550,-0.006330010,0.035570560
1640790074501619712,-0.290960550,-0.131199430,9.480807300,-0.068312890,0.006632510,0.049495700
1640790074505299712,-0.176109820,-0.266965720,9.446431160,-0.147013380,0.114126500,0.028233230
1640790074507419904,0.042877010,-0.120512480,9.787813190,-0.067272790,0.116963700,0.025071210
1640790074510210048,0.045689250,0.124742570,10.264266970,-0.003847480,0.102877620,0.005461280
1640790074511589888,0.133379370,0.384128420,10.127964020,-0.042992830,0.042739500,0.005578990
1640790074515290112,-0.262119290,0.417775750,10.080851550,-0.097861890,0.027857730,0.008374460
1640790074517799936,-0.317502020,0.021326520,9.442293170,-0.084528320,0.020954010,-0.001795590
1640790074520150016,-0.500127730,-0.074253160,9.663189890,0.045345720,0.029292710,-0.006689130
1640790074522070016,-0.449543060,0.061507070,9.615886690,0.053420660,0.129373390,-0.001499060
1640790074525209856,-0.226945890,0.060530950,10.065649030,-0.064408780,0.094231970,0.024604800
1640790074526629888,-0.379418640,0.247042060,10.721198080,-0.117255750,0.059123340,0.038172310
1640790074530439936,0.106542510,0.283709940,9.709222790,-0.102551300,0.021396580,0.016719100
1640790074531630080,0.008656330,0.439731120,9.843976970,-0.006631020,0.023534890,-0.002908710
1640790074535140096,-0.145089660,0.776210370,9.728362080,-0.000587110,0.099989770,-0.018447640
1640790074536619776,0.006316700,0.614342810,9.781772610,-0.080764280,0.044924020,0.004175310
1640790074540189952,-0.315802810,0.405738440,10.311238290,-0.094431650,0.039272010,0.022944810
1640790074541580032,-0.157802520,0.202565770,9.825849530,-0.087516020,0.051659360,0.023795670
1640790074545209856,-0.457194950,0.024358430,10.277174000,-0.049376490,0.034978990,0.018306080
1640790074546759936,-0.456801710,0.302260760,9.811995510,-0.066946450,0.035128000,0.023280090
1640790074550230016,-0.024528350,0.295634090,9.539587970,-0.136493180,0.049498680,0.031104690
1640790074551599872,0.023555010,0.207497890,9.907452580,-0.131230060,0.133709620,0.028528280
1640790074555179776,0.269010870,0.346856270,9.915265080,-0.086489320,0.087715690,-0.004588070
1640790074556640000,0.091535800,0.373370800,10.409920690,-0.067381570,0.034376980,-0.011104350
1640790074560199936,-0.029021170,0.232454140,9.623144150,-0.092619660,0.034759940,0.013832750
1640790074561559808,-0.136363850,-0.082501090,9.827728270,-0.110001880,0.000832980,0.018307570
1640790074565270016,-0.345414940,-0.471951130,9.671144490,-0.054053960,0.126443820,0.020769240
1640790074566649856,-0.028153500,-0.372903850,9.287918090,-0.011314450,0.094926360,0.016468770
1640790074570659840,-0.205686030,-0.060207090,10.478192330,-0.048464540,0.111228230,0.022412840
1640790074571669760,0.005231210,0.016110110,9.708883290,-0.139744590,0.130303200,0.036373730
1640790074575189760,-0.101770530,0.088301030,10.182475090,-0.103001320,-0.020939110,0.008310380
1640790074576619776,-0.398798850,-0.011726740,9.817836760,0.013007230,0.049401820,-0.017857550
1640790074580399872,-0.032074480,0.053348840,8.726898190,0.066931550,0.064830480,-0.041034820
1640790074581590016,-0.650216460,0.042476640,10.671397210,0.028853120,0.110837820,-0.006425380
1640790074585180160,-0.462987750,-0.124303910,9.881904600,-0.055834650,0.125637670,0.013862550
1640790074586880000,-0.190266400,-0.122039190,10.063656810,-0.039386750,-0.056424740,0.030858820
1640790074590249984,-0.394669770,-0.013323350,9.891736980,0.013379750,0.079640750,0.031504050
1640790074591569920,0.190826030,0.219138550,8.843708990,0.001594420,0.103041540,-0.005364420
1640790074595249920,-0.251238880,0.439982060,10.772795680,0.000989440,0.090430680,-0.006960330
1640790074596959744,-0.132789150,0.355604770,10.000580790,-0.022320450,0.077524780,-0.014345350
1640790074601359872,0.033141940,0.193070990,9.986875530,0.031457840,-0.049248340,-0.012327730
1640790074602010112,-0.583855810,0.209451180,10.240520480,0.043982270,0.065425040,-0.019787250
1640790074605169920,-0.432238460,0.225988310,9.383334160,-0.013853610,0.022129710,-0.005126000
1640790074606619904,-0.694099610,0.218877430,10.469887730,-0.027035180,0.006122890,0.024928150
1640790074610169856,-0.417169000,0.252885730,9.524242400,-0.030301510,0.065261130,0.012782220
1640790074611619840,0.082306840,0.439503310,9.780895230,0.013616680,0.016461310,0.012633200
1640790074615269888,0.002674190,0.800492820,10.115705490,-0.022993980,0.128868220,-0.001725550
1640790074620239872,0.269372550,0.846138120,9.774456980,-0.104449700,0.023159380,0.003260370
1640790074620640000,-0.034732220,0.542333900,10.770912170,-0.082732730,-0.011177360,0.019331280
1640790074621549824,-0.080680620,0.181524920,9.268792150,-0.025895240,0.020277500,-0.014831130
1640790074625219840,-0.186224420,-0.188612310,9.615600590,0.044682630,-0.058420010,-0.014063720
1640790074626659840,-0.337035450,-0.206800430,9.697010990,0.009849670,0.150577720,-0.003026430
1640790074630409984,-0.048515550,-0.416891600,9.589173320,-0.088998680,0.102780760,0.006727870
1640790074631670016,-0.367573380,-0.323150280,11.227357860,-0.057971480,0.020942090,0.021888320
1640790074635849984,-0.008796190,-0.025513950,9.267918590,-0.015300510,0.021845100,-0.015175340
1640790074637289984,0.177991390,0.218103050,9.153459550,0.013038520,-0.055198380,-0.021034480
1640790074640159744,-0.199598160,0.602450250,9.814594270,-0.015667080,0.182811930,-0.025574860
1640790074641579776,0.009900110,0.333620370,9.592549320,-0.039492550,0.095883010,-0.023272640
1640790074645189888,-0.568625510,-0.032045890,11.308623310,0.062493980,-0.063781450,0.004912910
1640790074647840000,-0.357637550,0.008371120,9.293143270,0.084006770,0.007070600,-0.020028650
1640790074650429952,-0.313999500,-0.256735320,9.251754760,0.022031370,-0.018088530,-0.004017350
1640790074653080064,-0.660850350,-0.098455000,10.200873370,-0.025764110,0.134314600,0.015269220
1640790074655119872,0.013465560,-0.101188630,9.323410990,-0.017584860,0.063106420,-0.021845100
1640790074656620032,-0.054429440,0.062901420,10.572834970,0.072447960,-0.010474030,-0.007353720
1640790074660800000,0.068659420,0.570275010,9.633392330,0.080755340,0.077183530,-0.033481420
1640790074661559808,-0.129816280,0.476831790,10.028827670,-0.006598230,-0.030745570,-0.039410590
1640790074665329920,-0.690539960,0.471271010,10.554319380,-0.017550590,-0.008593500,0.002902750
1640790074668119808,-0.404679030,0.224871020,9.257658960,0.034467880,-0.045235460,-0.016124550
1640790074670359808,-0.588523150,0.056304120,10.191326140,0.102776280,-0.009001790,-0.012385850
1640790074671680000,-0.384297490,0.481853070,9.505202290,0.044515730,0.110864640,0.012779240
1640790074675190016,-0.209035630,0.451448410,10.250955580,-0.081366290,-0.029295680,0.003561380
1640790074676590080,-0.138814320,0.477313730,10.458633420,-0.103361900,0.020487600,0.023388860
1640790074680329984,0.300846340,0.534871340,9.275226590,-0.017791990,-0.042288010,-0.021718440
1640790074681720064,-0.065408920,0.447765890,10.423268320,0.062161690,-0.034481290,-0.040231650
1640790074685269760,0.165935110,0.618528130,9.223053930,0.000362100,0.081041460,-0.020052490
1640790074686629888,-0.022733230,0.186797310,10.051301000,-0.076760360,-0.040338930,-0.000828500
1640790074690189824,-0.515365720,-0.292097120,10.806716920,-0.059391570,0.044238580,0.020550200
1640790074691619840,-0.173039000,-0.190883530,9.046300890,0.023916360,-0.061464310,0.004245340
1640790074695799808,-0.639146030,-0.213695350,10.199282650,0.037731230,-0.097148120,-0.005705650
1640790074696940032,-0.123646940,0.083070840,8.861331940,-0.053015360,0.134670730,0.000397860
1640790074700310016,0.138877360,0.187876280,9.792520520,-0.082401950,0.044819720,-0.014644860
1640790074701750016,-0.252634470,0.114514660,11.357900620,-0.010995570,0.056983540,-0.011788310
1640790074705199872,0.364948720,0.428258870,9.245326040,0.058431930,-0.066612660,-0.028321150
1640790074706569984,-0.325884220,0.257553820,10.210464480,0.023147470,-0.140304860,-0.020137430
1640790074710139904,-0.348177550,0.022312320,9.095041280,-0.045341260,0.066721450,0.002409520
1640790074711889920,-0.258659720,-0.305872590,9.301617620,0.018359720,-0.011095410,-0.014135240
1640790074715339776,-0.624229250,-0.396281840,10.693902970,0.088295350,0.028815870,-0.011801720
1640790074716610048,0.083946560,0.167158130,9.376910210,0.067736210,0.031770770,-0.002153220
1640790074720209920,-0.275599240,0.316616300,10.574509620,-0.055792930,-0.042037670,-0.009925660
1640790074721580032,-0.225324720,0.449287060,10.031989100,-0.105904050,-0.004479290,-0.005593900
1640790074725260032,-0.014981780,0.503524840,9.413128850,0.021190940,-0.070340940,-0.034311420
1640790074726809856,-0.432947840,0.345642690,10.185877800,0.110721590,0.010769070,-0.059524180
1640790074730389760,-0.189484430,0.548898520,9.542277340,0.094744570,0.010122360,-0.029161570
1640790074731719936,-0.541576920,0.347107290,10.465490340,-0.030097360,-0.054985280,-0.012981890
1640790074735839744,-0.319825080,0.109709370,9.901611330,-0.118236240,-0.016972420,0.016514960
1640790074736849920,-0.171046270,0.190802170,9.885877610,-0.024032590,-0.056710840,0.013075770
1640790074740169984,-0.272323820,0.266875890,10.115291600,0.026324390,-0.002107020,-0.020533800
1640790074741580032,0.208940310,0.571294670,9.325948720,0.004474820,-0.017373270,0.001700220
1640790074745580032,-0.012335330,0.541437690,10.382916450,-0.049330290,-0.007914010,0.000046190
1640790074747439872,0.170209540,0.177019370,9.957017900,-0.088842220,0.037734210,-0.013265010
1640790074752219904,-0.142813160,0.182349620,10.192693710,0.009091200,-0.100064280,-0.011223560
1640790074752739840,-0.564000790,0.154145540,10.188761710,0.013007220,-0.072856230,-0.030624860
1640790074755169792,-0.163080390,0.095829550,8.915922160,-0.053887060,-0.034394860,0.000686940
1640790074756679936,-0.443706750,-0.000537670,10.094302180,-0.054481630,0.006055830,0.013229250
1640790074760239872,-0.064041110,-0.117388780,9.919439320,-0.039991730,0.084041040,-0.006927550
1640790074762759936,0.241582190,0.183195500,9.850669860,0.025500360,-0.028640030,-0.007379050
1640790074765559808,-0.010669090,0.335865320,10.248359680,-0.008639690,-0.029146670,-0.001856680
1640790074766690048,0.270084230,0.236120250,9.412664410,-0.083567190,-0.003299120,0.005935130
1640790074770289920,-0.118990680,-0.016210340,9.795783040,-0.017888840,-0.035694240,-0.002889340
1640790074771589888,-0.180348320,-0.286803390,9.671097760,0.047713510,0.009337070,-0.028607250
1640790074775179776,-0.196789380,-0.285586360,9.718604090,0.097720320,0.019715730,-0.021530690
1640790074776649984,-0.492502660,-0.309279470,10.163391110,0.034683940,0.011514130,-0.006470080
1640790074780560128,-0.430621300,-0.415982130,10.105646130,-0.028532750,-0.049190230,-0.007063150
1640790074781750016,-0.292914870,-0.210486440,9.375990870,0.030556330,-0.036782030,-0.015686450
1640790074785250048,-0.017546720,0.026481660,9.245765690,0.062198950,0.020726030,-0.044085090
1640790074786649856,-0.064026370,0.413430900,10.144126890,0.073640050,0.087286540,-0.043103100
1640790074790179840,0.022703860,0.515622910,10.081269260,0.050577530,0.015112760,-0.032506890
1640790074791610112,-0.126953050,0.293027910,10.513802530,0.060290100,-0.108608630,-0.017407540
1640790074796509952,-0.370055620,0.104710170,9.633866310,0.111541170,-0.029279300,-0.008052590
1640790074797250048,-0.389150560,0.047219700,9.255721090,0.084073840,-0.042471290,-0.025904180
1640790074800209920,-0.811373650,-0.017142970,10.344121930,0.061856220,0.008274610,-0.001427530
1640790074801619968,-0.287045960,0.070696580,9.340451240,0.056961180,0.013215840,-0.018587710
1640790074806419968,-0.130536240,0.315099840,10.240437510,0.048616520,-0.065429520,-0.033199790
1640790074806959872,-0.128966300,0.641929980,10.119936940,0.036647920,0.047594320,-0.029495360
1640790074810400000,0.129276750,0.834140660,9.721829410,-0.005584960,-0.050222880,-0.062154230
1640790074812359936,-0.426604690,0.725739420,10.824661250,0.009076300,-0.087660550,-0.040784480
1640790074815889920,-0.193753290,0.501071690,9.257547380,0.054253650,-0.061997780,-0.033999980
1640790074816609792,-0.179273660,0.263835220,9.687989230,0.068189200,-0.070895260,-0.038152930
1640790074820150016,-0.464764600,0.205534990,9.961009030,0.023336710,0.056947770,-0.007441640
1640790074821549824,0.026252070,0.297928510,9.717950820,-0.055181980,-0.026419760,-0.002551080
1640790074825219840,-0.120874320,0.221978050,10.660105710,-0.077714030,-0.034280130,0.004065040
1640790074828079872,0.225399180,0.408233230,9.290529250,-0.035351510,-0.020064420,-0.020295380
1640790074830589952,0.256906750,0.687748310,9.925967220,-0.000287590,-0.065767770,-0.048564370
1640790074832489984,-0.080100640,0.566629770,9.899136540,-0.034238400,0.050212450,-0.034376980
1640790074835480064,0.091564940,0.304355770,9.650739670,-0.045283140,-0.036679200,-0.018945330
1640790074837129728,-0.514735940,-0.067725110,10.903670310,-0.009265540,-0.029733780,-0.023205580
1640790074840169984,-0.276807190,-0.231204600,9.042395590,0.021348890,-0.044050810,-0.014305110
1640790074841580032,-0.229339720,-0.173638790,9.695370670,-0.000076000,-0.085292740,-0.004641710
1640790074845219840,-0.184426340,-0.113862650,9.491581920,-0.078223650,0.155727580,-0.007463990
1640790074847869952,0.428503660,0.039517750,9.390522960,-0.073544670,0.033199780,-0.014711920
1640790074851049984,0.021526990,0.131587760,11.147531510,0.011864300,0.029648840,-0.031627720
1640790074851630080,0.305935320,0.330395910,9.160223960,0.026239460,0.002810360,-0.034452980
1640790074855170048,-0.133707690,0.184056890,10.042005540,0.011931360,-0.109636790,-0.028702620
1640790074856649984,-0.687987570,-0.127088350,9.789382930,-0.024560090,0.075456490,-0.031383330
1640790074860250112,-0.254340110,-0.411083310,8.857655530,0.034107260,-0.019615890,-0.028631090
1640790074861709824,-0.625727830,-0.473718520,10.519310000,0.116197770,0.040423870,-0.013226270
1640790074865289984,-0.159553210,-0.064624110,9.327021600,0.055301190,0.100764640,-0.022110340
1640790074866659840,-0.093166220,0.154902160,10.287285800,-0.024861100,-0.063748660,-0.011686980
1640790074870129920,-0.220909430,0.238378790,10.031299590,-0.043819840,0.038492680,-0.024975840
1640790074871589888,0.155170490,0.429117410,9.184803010,0.050768250,-0.041377540,-0.067411360
1640790074875249920,-0.286649410,0.572305200,10.304482460,0.129556660,0.005030630,-0.067088020
1640790074876610048,-0.202062860,0.609650790,9.435081480,0.063486400,0.044728820,-0.056828560
1640790074880450048,-0.441240040,0.340159830,10.529224400,0.003497300,-0.061044100,-0.016714630
1640790074884499968,-0.567465900,0.055648270,10.072648050,-0.014805800,0.001651050,-0.000920890
1640790074885139968,-0.297960220,-0.084957400,9.390332220,0.046134000,-0.075575710,-0.025437770
1640790074886620160,-0.388108700,0.150163800,10.049842830,0.074124340,0.040625040,-0.025510790
1640790074890480128,0.115908560,0.421007220,9.229630470,-0.000065570,0.063084070,-0.031469760
1640790074891759872,0.103276780,0.508137460,10.640454290,-0.030867760,-0.037042800,-0.025096540
1640790074895219968,0.293887670,0.616532440,9.853133200,-0.042012330,0.053036220,-0.037266320
1640790074896950016,0.156239120,0.662575070,9.817520140,-0.006772580,-0.067430730,-0.054296840
1640790074900899840,-0.569750370,0.711251500,10.709379200,0.009849670,-0.040139260,-0.025312600
1640790074901609984,-0.347461790,0.381803870,8.994209290,-0.027097770,-0.038903950,-0.032320620
1640790074905169920,-0.598468070,0.064608090,10.028214450,-0.011537970,-0.055880850,-0.012065470
1640790074907640064,-0.397418530,0.141739680,9.752666470,-0.026562810,0.122706600,-0.014254450
1640790074910199808,0.047648520,0.158938690,9.710484500,-0.058904300,0.002351400,-0.019840900
1640790074911619840,-0.057235640,0.443482880,10.760941510,-0.086888670,-0.005440410,0.010181960
1640790074915299840,0.505156930,0.435679020,9.297919270,-0.120495270,0.028520820,-0.008161370
1640790074917149952,0.365528640,0.216457710,9.752604480,-0.039033600,-0.039373340,-0.027745960
1640790074920150016,0.234062050,0.224285740,9.661089900,0.015217070,0.064119700,-0.032854080
1640790074921679872,0.185544130,-0.080005450,9.527885440,-0.007992980,0.042746960,-0.028881430
1640790074925259776,-0.475354310,-0.404469310,10.637404440,-0.028565520,0.014664230,-0.001193580
1640790074926699776,-0.467537340,-0.386753620,9.681725500,-0.038750470,-0.037260360,-0.005750360
1640790074930490112,-0.569076360,-0.469220850,9.450324060,-0.014287240,-0.033570840,-0.019134580
1640790074931660032,-0.297747020,-0.001303930,9.153309820,-0.012348590,0.114002830,-0.026986000
1640790074935680000,-0.199573790,0.292762010,9.955973630,-0.024132430,0.104323030,-0.034926830
1640790074936630016,-0.003287550,0.307638560,10.242671970,-0.010192390,0.048984590,-0.024150310
1640790074940140032,0.305683170,0.399144500,9.697532650,0.031213460,-0.021845100,-0.034236910
1640790074941599744,-0.156852200,0.157638760,10.012662890,0.048644840,-0.005349520,-0.028802450
1640790074945449728,-0.102006360,-0.002164160,9.264164920,0.015631320,0.025953350,-0.019299980
1640790074947019776,-0.417579140,-0.241787080,9.885642050,0.016635660,-0.004208090,-0.023488700
1640790074950549760,-0.278921250,-0.385039270,9.640508650,0.044454630,0.078606590,-0.022475420
1640790074951619840,0.004724770,-0.082784450,9.747639660,0.070200860,0.051184010,-0.027009850
1640790074955209984,-0.509967920,0.189040680,10.407623290,0.025919090,0.030854350,-0.034536430
1640790074956669696,-0.222415240,0.455417480,9.535263060,-0.044603650,-0.011889640,-0.034712260
1640790074960320000,-0.495489300,0.471489730,9.868460660,0.003997980,-0.032122430,-0.041803720
1640790074961609728,-0.401555810,0.391939040,9.545472150,0.082391500,0.036136810,-0.049994890
1640790074965270016,-0.178163360,0.526845160,9.907679560,0.113195180,0.039148330,-0.046153370
1640790074966840064,-0.455533060,0.465991500,10.416536330,0.011986490,0.042051080,-0.015585130
1640790074970229760,-0.059573490,0.373030070,9.913882260,-0.081419950,-0.024621190,0.024519860
1640790074971680000,-0.183781910,0.158943470,10.064405440,-0.044368210,-0.012320280,0.007528070
1640790074975149824,0.080095190,0.182668760,9.086760520,0.021187960,0.003156070,-0.029107930
1640790074976610048,0.260340330,0.484050010,9.587742810,0.052973630,0.019037720,-0.037407880
1640790074980480000,0.135189520,0.540213530,9.882872580,-0.056140120,0.127147150,-0.043705110
1640790074981659904,0.235214370,0.416472640,10.243478780,-0.109623380,0.001841780,-0.015199190
1640790074985149952,-0.324496360,0.291637720,10.842498780,-0.044278800,-0.022910540,-0.021590290
1640790074987099904,-0.317797060,0.051845020,9.034994130,0.010612610,-0.049693890,-0.037941340
1640790074990239744,-0.455200310,0.070943370,9.406780240,0.030927360,-0.051575900,-0.014129280
1640790074991639808,-0.540053310,-0.053096710,9.359196660,-0.042043630,0.160540660,-0.013759730
1640790074995790080,0.026108430,-0.302258280,9.565518380,-0.055204330,0.068858270,0.003696980
1640790074997349888,-0.108534630,-0.024237140,10.895104410,0.014159090,0.041817140,-0.000453000
1640790075000480000,0.303671780,0.258907410,9.398614880,-0.020864600,0.012943150,-0.021207330
1640790075001619712,0.216068370,0.343124870,9.608507160,-0.057542320,-0.048479440,-0.007720290
1640790075005189888,-0.091806320,0.230492530,9.404323580,-0.067043300,0.091063980,-0.034520030
1640790075006639872,0.029925100,-0.170777660,9.401287080,0.038468840,0.044283280,-0.044777990
1640790075010159872,-0.472761010,-0.220571320,10.432851790,0.146965700,0.032883890,-0.029444690
1640790075012519936,-0.442520140,-0.136992290,9.574893000,0.058896840,0.010317560,-0.032460690
1640790075015239936,-0.592369380,-0.070903750,9.934298520,-0.067298120,-0.027328730,-0.001047550
1640790075017289984,-0.452299680,0.082539220,9.274155620,-0.094999370,0.086373100,-0.008882580
1640790075020310016,-0.177046450,0.222756250,9.761774060,0.021360810,0.025518240,-0.042681400
1640790075021600000,-0.108642090,0.629834650,10.095999720,0.116306550,0.080214440,-0.039638580
1640790075025169920,0.179278080,0.710165860,9.518954280,0.049023320,0.013770160,-0.044190880
1640790075026690048,-0.290217850,0.484945770,10.717376710,-0.040358310,-0.018723310,-0.017882890
1640790075030239744,-0.230880960,0.277634860,9.456640240,-0.051179530,0.000473860,0.004144010
1640790075031699968,-0.351585750,-0.106913660,9.744901660,0.029259920,-0.093673150,-0.018437200
1640790075035660032,-0.365036520,0.179758060,9.624282840,0.063954290,0.087103260,-0.018115340
1640790075037189888,0.058014210,0.430796440,9.188050270,-0.040192900,0.068745020,-0.021594760
1640790075040129792,-0.287060440,0.397049900,10.998940470,-0.098720190,0.019992890,0.002896790
1640790075041639936,0.082202600,0.666905580,9.692321780,-0.095607360,0.025284290,-0.024645030
1640790075045420032,-0.115319670,0.547635260,9.854604720,-0.023727120,-0.104701530,-0.040005150
1640790075046739712,-0.407193420,0.624815340,9.808542250,-0.001828370,0.006751720,-0.022649770
1640790075050349824,-0.008157300,0.503747400,8.853705410,-0.072208050,0.038698310,-0.022970140
1640790075053139968,-0.269370470,0.001225310,10.332169530,-0.089789930,0.051200400,0.014993550
1640790075055119872,0.024733950,-0.067108390,10.012700080,-0.057582560,0.089552990,0.008685890
1640790075056659968,-0.029678130,-0.158195640,10.085200310,-0.028546160,-0.063222650,-0.006061790
1640790075060359936,-0.031676140,-0.012622850,9.505229950,-0.064921390,-0.019727650,0.004789230
1640790075061590016,0.215999040,0.150273870,8.929889680,-0.124783810,0.056834520,-0.023640690
1640790075065260032,0.022587510,-0.072627390,9.902448650,-0.093190370,0.113171350,-0.020055470
1640790075068679936,0.149497390,0.073780950,10.060015680,0.007627900,0.073331590,-0.034941740
1640790075070119936,-0.262778100,0.175350000,10.428925510,0.031724580,-0.023949150,-0.035551190
1640790075071709952,-0.322157410,0.082143370,9.360194210,-0.058925160,-0.015291570,-0.002166630
1640790075075179776,-0.522688030,-0.138693090,9.338016510,-0.099147860,0.004312400,-0.006890300
1640790075076609792,-0.714812820,-0.414202600,9.657485960,-0.014010070,0.087527920,-0.016434490
1640790075080479744,-0.124940500,-0.132847250,9.415962220,0.083455440,0.048172470,-0.012739000
1640790075081699840,-0.326592500,0.115565440,10.342466350,0.039500000,0.058825320,-0.019645690
1640790075087239936,0.047346690,0.312374770,9.750035290,-0.093957780,0.051695110,-0.001059470
1640790075087889920,-0.061958780,0.241415460,10.195326810,-0.087229900,-0.041809670,-0.007331370
1640790075090149888,-0.196780190,0.081662660,9.550805090,0.025917590,-0.000260770,-0.037597120
1640790075091620096,0.091675560,0.239112260,9.050567630,0.113211580,0.011120740,-0.041891640
1640790075095259904,-0.417920260,0.207301570,10.107295990,0.055952380,0.087752940,-0.027295950
1640790075098209792,-0.280524400,0.148068680,9.999200820,-0.065845240,0.023277100,-0.008898970
1640790075100219904,-0.356303750,0.063102390,10.306241040,-0.060576190,-0.050710140,-0.002148750
1640790075103279872,-0.507676240,0.098381470,9.549316410,0.001494590,-0.002317130,-0.029648840
1640790075105159936,-0.279503460,0.545014980,9.489670750,0.035062440,-0.012893970,-0.035969910
1640790075106639872,-0.472732690,0.608428060,10.008237840,-0.021968780,0.069458780,-0.022734700
1640790075110210048,0.007267080,0.476077200,9.633456230,-0.063498320,0.001728530,-0.019010910
1640790075111640064,-0.096460660,0.348858590,10.657535550,-0.003287200,-0.008623300,-0.013403600
1640790075115409920,-0.050081720,0.263286320,9.563280110,-0.006337460,0.028386720,-0.022223590
1640790075117009920,-0.084501840,0.370773730,9.888867380,-0.025679170,-0.100263960,0.000526010
1640790075120229888,-0.215525390,0.214478120,9.694984440,-0.091782210,0.052094460,0.007504230
1640790075121600000,0.338334500,0.021379630,8.814641950,-0.082622470,0.033773490,-0.002621110
1640790075126659840,-0.026290310,0.099987480,10.639788630,0.004981460,0.049148500,-0.010707970
1640790075127529984,0.116799630,0.246841370,9.675611500,-0.024971370,0.100593270,-0.029319530
1640790075130720000,-0.044055520,0.256469160,10.157645230,-0.059510770,-0.086407380,-0.003901120
1640790075132839936,-0.513228420,0.038858410,10.105904580,-0.097453590,-0.012902920,-0.007252400
1640790075136160000,-0.043885750,-0.196804030,8.477891920,-0.042383370,0.015233460,-0.028678770
1640790075137069824,-0.382595420,-0.191071760,9.965143200,0.063683090,0.053283580,-0.010603670
1640790075140209920,-0.224334910,-0.005886360,9.687383650,0.016374890,0.144760310,-0.011801720
1640790075141639936,-0.022064440,-0.033125330,10.067382810,-0.057232380,-0.017628080,0.017206370
1640790075145540096,-0.181033910,-0.080585870,10.176724430,-0.072100750,0.006827710,0.009137390
1640790075151399936,0.240504980,-0.084096530,8.906795500,-0.002489980,0.003677610,-0.022262330
1640790075152279808,-0.027831320,0.022597890,9.696433070,0.083042680,0.068102780,-0.038465860
1640790075153120000,-0.019995220,0.186916630,9.583868030,0.033748140,0.115469110,-0.031730530
1640790075155170048,-0.290207710,-0.141119540,10.416964530,0.004878640,0.005462760,-0.018455080
1640790075156639744,-0.398711950,-0.299419970,9.964942930,0.037714830,-0.013639030,-0.017744300
1640790075160839936,-0.463771460,-0.281506840,9.266289710,0.088688730,-0.046107170,-0.024139880
1640790075161939968,-0.590649430,-0.115142700,9.590883260,0.078552950,0.071060650,-0.027234850
1640790075165619968,-0.282206240,0.242428140,9.485979080,0.012156370,0.103564560,-0.022660200
1640790075166699776,-0.328072990,0.290650960,10.516004560,0.034342710,0.000302490,-0.009700660
1640790075170169856,0.079187680,0.583541690,9.701745990,0.052492330,0.020216410,-0.013276940
1640790075171639808,0.005400790,0.614809570,9.746798520,0.056231020,-0.016488140,-0.024470690
1640790075175180032,-0.423983570,0.588678480,10.264693260,0.036397580,0.013023610,-0.010411440
1640790075176649728,-0.167160020,0.408202590,9.527893070,0.009226800,-0.025841600,-0.012080370
1640790075180819968,-0.349792600,-0.021870940,9.901332860,0.066730380,-0.022515650,-0.003138180
1640790075182099712,-0.099707540,0.136975880,9.512879370,0.074808300,0.057676450,-0.017890330
1640790075185699840,-0.144298610,0.313585640,9.958637240,-0.004188720,0.040429830,-0.025953350
1640790075186659840,-0.258576690,0.505724010,10.083891870,-0.075761980,-0.000549850,-0.001390280
1640790075190129920,-0.023384760,0.540279330,9.749574660,-0.077542660,-0.044387580,-0.008031730
1640790075191629824,-0.179916710,0.392623900,9.769259450,0.012651090,0.015808640,-0.019672510
1640790075195259904,-0.010333330,0.504953740,9.456336980,0.056041790,0.020834800,-0.023674960
1640790075196679936,-0.242317100,0.310443910,10.268764500,-0.001217420,0.034736100,-0.018864870
1640790075200269824,-0.146735130,-0.008871930,9.713588710,-0.065717100,0.048844520,0.020878020
1640790075201779968,-0.141365890,-0.279644010,10.157875060,-0.041617460,-0.073082750,0.013923650
1640790075205139968,-0.236195980,-0.340102700,9.590246200,0.032866000,0.015540420,-0.009788570
1640790075206669824,0.389577510,0.048479130,8.391770360,0.022344290,0.030513110,-0.017133360
1640790075210500096,0.028466150,0.237006200,10.256290440,-0.048384070,0.110803550,-0.015224520
1640790075211989760,0.214080390,0.261689630,9.839948650,-0.073380780,0.139062150,-0.012078880
1640790075215270144,-0.046971320,0.152544190,10.662390710,0.013242660,-0.099118050,-0.027373430
1640790075216879872,-0.589755710,0.108245000,9.913868900,0.089405470,-0.050391260,-0.025284290
1640790075220099840,-0.199956790,0.094946120,8.119395260,0.048415370,-0.016605860,-0.018624960
1640790075221639936,-0.749351020,-0.240603600,10.004054070,-0.025470550,0.126108540,0.000897050
1640790075225169920,-0.357448010,-0.263591230,9.659262660,-0.002588330,0.141911210,0.008082390
1640790075227089920,-0.060902470,-0.239007960,10.475811000,0.077702110,-0.064432630,-0.011456010
1640790075230690048,-0.086736310,0.121015410,9.825311660,0.059603170,0.032536690,-0.016871100
1640790075232059904,0.254637810,0.464608850,8.985047340,-0.024646520,-0.001153350,-0.021578380
1640790075235509760,-0.317370980,0.241490170,10.460013390,-0.047336520,0.058797010,-0.030079490
1640790075236839936,-0.080178820,0.196782620,9.440413480,0.067035850,0.032283370,-0.023628770
1640790075240130048,-0.342955200,0.172745720,10.352530480,0.167979300,-0.080002830,-0.024060910
1640790075241789696,-0.579741360,0.169459540,9.593031880,0.072759390,0.054489080,-0.017148260
1640790075245289984,-0.545908810,0.253924250,9.477429390,-0.036135320,-0.056169940,0.013355910
1640790075246820096,-0.874438520,0.016908940,10.623541830,-0.050579010,0.005058940,0.014236570
1640790075250929920,-0.090886290,0.184618160,8.869800570,0.053609900,0.008025760,-0.017260010
1640790075251669760,-0.136579010,0.654735210,10.252514840,0.116649280,-0.045509640,-0.039632620
1640790075255159808,0.197275150,0.948015210,9.618756290,-0.030688940,0.114577990,-0.028812880
1640790075256719872,0.317365650,0.941935180,9.838735580,-0.118778630,-0.035183140,0.009951000
1640790075260239872,-0.371188220,0.363324760,11.088492390,-0.065261130,-0.059279810,0.014722350
1640790075261659904,-0.055048320,-0.014544210,8.867706300,0.073923180,-0.071626900,-0.002674760
1640790075265209856,-0.447655080,-0.209690790,9.422769550,0.134202810,-0.104668730,-0.014196340
1640790075266670080,-0.401397650,-0.250658540,9.522753720,-0.013789540,0.121432540,0.003278260
1640790075270149888,0.044151140,-0.189415230,9.569946290,-0.109179330,0.066798930,0.019514560
1640790075271669760,-0.195213170,-0.178611440,10.901994710,-0.069899860,-0.017997620,-0.004923340
1640790075275290112,0.263971240,0.385602330,9.466067310,0.009739400,-0.045683980,-0.033158060
1640790075276679936,0.073285360,0.743809760,9.191610340,0.033856930,-0.068452950,-0.034190720
1640790075280480000,-0.134084400,0.605954770,9.563249590,-0.051122910,0.055181980,-0.028647480
1640790075281659904,-0.192961170,0.306994320,9.771868710,-0.020512940,0.039231780,0.002199410
1640790075285120000,-0.356789860,-0.253605570,10.238364220,0.048936910,-0.021313130,-0.000678000
1640790075286649856,-0.312373700,-0.331847010,9.858485220,0.085400040,-0.048752130,0.001412630
1640790075290329856,-0.370797160,-0.134682950,9.317894940,0.007270280,-0.012218950,0.003428760
1640790075291689984,-0.139261110,-0.222886490,9.313883780,-0.118063410,0.028060380,-0.015954680
1640790075295140096,-0.094888670,-0.060448990,9.784367560,-0.023120640,0.050969430,-0.019566710
1640790075297900032,0.115995810,0.214576050,9.749402050,0.089184950,0.008864700,-0.065664950
1640790075300169984,0.046459240,0.470788870,9.916395190,0.107425450,-0.036151710,-0.024363400
1640790075301629952,-0.350281750,0.642832400,9.748376850,-0.008921320,-0.018726290,-0.007764990
1640790075305139968,-0.468900740,0.181285160,9.938722610,-0.098347660,-0.052644320,-0.012320280
1640790075307239936,-0.762114050,-0.076127280,9.893134120,0.028076770,-0.042158370,0.013938550
1640790075310169856,-0.523515520,-0.130454630,9.381379130,0.135850920,-0.041130190,-0.032790010
1640790075311669760,-0.404987220,0.140655130,9.903399470,0.082542000,0.020523370,-0.022664670
1640790075315279872,-0.149032440,0.570467590,9.552043910,-0.065119570,0.041045250,-0.008560720
1640790075317179904,0.003823420,0.529594780,10.387067790,-0.139042720,-0.079052140,-0.017656380
1640790075320139776,0.022364130,0.679875310,9.887883190,-0.041240450,-0.029559430,-0.019316380
1640790075321679872,0.178322090,0.845383940,9.050523760,0.045405330,-0.091512510,-0.047707560
1640790075325239808,-0.336044430,0.716766360,10.451703070,0.015866760,-0.024154780,-0.029258430
1640790075326710016,-0.141811650,0.513478100,9.236558910,-0.077398120,0.037080050,0.002807380
1640790075330569984,-0.364344150,-0.179669560,10.507927890,-0.087215010,-0.120499750,0.011937320
1640790075331779840,-0.561417460,-0.191806330,10.196126940,-0.019580130,0.009401140,0.012630220
1640790075335640064,0.011036790,0.127060710,8.644647600,-0.033320490,-0.098323840,-0.015687940
1640790075336659968,-0.264425840,0.196697490,10.316046710,-0.101520130,-0.026172400,0.005611780
1640790075340189952,0.511265520,0.559966740,8.768237110,-0.143140570,0.132885590,0.003489850
1640790075341609984,0.417440860,0.280580400,10.436219220,-0.085192910,-0.034263720,-0.025700030
1640790075345479936,-0.049364480,0.367942450,10.795518880,0.009877980,0.000730160,-0.010886790
1640790075346739968,0.176828320,0.287432220,8.934592250,-0.007832050,-0.135372560,-0.020137430
1640790075350119936,-0.639879290,-0.356692880,10.087201120,-0.081333530,-0.080063950,0.011083480
1640790075351660032,-0.368536860,-0.389806390,8.647426610,-0.079254810,0.081697130,0.011682510
1640790075355140096,-0.307104080,-0.632309730,9.891061780,-0.005553660,-0.001333650,-0.014917550
1640790075356649984,-0.268162850,-0.082041920,10.167290690,0.011855360,0.082290170,0.009769200
1640790075360260096,0.207899470,0.467705370,9.428918840,-0.064657640,-0.031906370,-0.007309020
1640790075361629952,-0.192690570,0.343918440,10.462675090,-0.136339660,-0.038334730,-0.009256600
1640790075365209856,0.160527010,0.444929960,8.965839390,-0.048142680,-0.010494890,-0.013394650
1640790075366909952,-0.197404860,0.112423760,9.901100160,0.088042020,-0.049044200,-0.036683680
1640790075370679808,-0.312083810,0.036658510,9.805051800,0.076931700,0.070451190,-0.016155840
1640790075371820032,-0.233042910,0.082642200,9.640275960,-0.015076990,-0.045883660,0.010438260
1640790075375209728,-0.664923490,-0.290899250,10.542256360,-0.110588980,-0.034219030,0.007903580
1640790075376709888,-0.136247140,-0.075410330,9.032506940,-0.057758390,-0.017568470,0.001129510
1640790075380260096,-0.409835100,0.240532770,9.829800610,0.020757320,-0.046209990,-0.034116210
1640790075381680128,-0.164694850,0.580130930,9.719530110,-0.002662840,0.074078140,-0.033769020
1640790075385269760,0.060396420,0.871804890,9.773906710,-0.042848290,-0.010828670,-0.009712580
1640790075386880000,-0.313315060,0.484567200,10.702125550,-0.082270800,-0.053505610,0.001363460
1640790075390169856,-0.026896570,0.385926510,9.566349980,-0.034461920,-0.047230720,-0.000022350
1640790075391640064,-0.518052640,0.247487830,9.718672750,-0.003242490,-0.088867530,-0.010168550
1640790075395520000,-0.463998970,0.045176760,9.586690900,-0.047187510,-0.030334300,-0.004412230
1640790075397879808,-0.162027060,0.102429490,9.436334610,-0.069876010,-0.002053380,0.005556640
1640790075400889856,-0.048400890,-0.029947120,9.876348500,-0.078979140,0.037513680,-0.006265940
1640790075401619968,0.254784880,0.250063480,10.181483270,-0.061780220,0.000399350,-0.014169520
1640790075405189888,0.018715320,0.584288900,10.050874710,-0.078707930,-0.042563680,-0.026571750
1640790075406679808,0.118623470,0.352707360,9.500129700,-0.116048760,-0.095713140,0.002290310
1640790075410140160,-0.179590910,0.131655570,9.704373360,-0.045681000,-0.028398640,0.000962620
1640790075411990016,-0.214957540,-0.240478630,9.208141330,0.004681940,0.029237570,-0.030052670
1640790075415209984,-0.114839240,-0.292618930,9.835439680,0.040651850,-0.020878020,-0.000354650
1640790075416879872,-0.353197810,-0.118138150,10.032188420,-0.040146710,0.061681870,0.004304950
1640790075420199936,-0.112947380,-0.263211640,9.719651220,-0.129479210,-0.041745610,0.005598370
1640790075421639936,-0.324181880,0.033371080,10.010271070,-0.056333850,-0.073424000,0.001911820
1640790075425169920,0.004027520,0.127482430,8.785563470,0.017888850,0.003172460,-0.048759580
1640790075426720000,0.078271660,0.296164450,9.519587520,0.049795210,0.029851500,-0.040350850
1640790075430279936,-0.163923070,0.394160870,10.137518880,0.000646710,0.096429890,-0.022432210
1640790075431660032,-0.147053320,-0.077672370,10.303550720,-0.030599530,-0.064098830,-0.016476210
1640790075435689984,-0.413865690,-0.140678640,10.004560470,0.023777780,-0.104688110,0.007255380
1640790075436760064,-0.308542100,-0.206050110,8.688240050,0.032630570,-0.061370430,-0.018325450
1640790075440160000,-0.507348780,-0.174497570,9.628065110,0.024466220,0.035223370,-0.017106530
1640790075441619968,-0.253615080,0.180271070,9.574996950,-0.002935530,0.096189980,-0.016473240
1640790075445519872,-0.205518770,0.179187770,10.578010560,0.001700220,-0.066548590,-0.021080670
1640790075446980096,-0.134978190,0.425856890,10.172371860,0.034584110,-0.037159030,-0.028729440
1640790075451160064,-0.045874680,0.573781970,9.145594600,0.017079710,-0.073024640,-0.044113410
1640790075452109824,-0.626457210,0.433571490,10.307033540,0.004135070,-0.049017370,-0.032870470
1640790075455119872,-0.237827460,0.412747090,9.144502640,0.008299950,0.005334620,-0.013688210
1640790075456669696,-0.312487750,0.069634560,10.029839520,0.047081710,-0.077438360,-0.017668310
1640790075460939776,-0.249451970,0.252402810,10.062128070,0.055833160,0.028815860,0.004993380
1640790075461689856,0.048222360,0.452620150,9.497882840,-0.052013990,-0.025813280,-0.012959540
1640790075465230080,-0.325772520,0.437102560,10.543031690,-0.107942520,-0.060637310,0.007064640
1640790075466850048,0.046556590,0.497578350,9.449182510,-0.064183780,-0.035271050,-0.009036070
1640790075470599936,-0.084690950,0.354856670,9.665534970,0.024808950,-0.067208710,-0.042015310
1640790075471709952,-0.124095180,0.513748940,9.638216020,0.038132070,0.009883940,-0.026758020
1640790075475139840,0.052813900,0.508473040,9.705927850,-0.073607270,-0.006996100,-0.013011700
1640790075476659968,-0.317441940,0.100193320,10.361991880,-0.122156750,-0.005809960,0.019249320
1640790075480399872,-0.102987570,0.052523650,9.717782970,-0.064222520,-0.092287350,0.017678740
1640790075481699840,-0.227317470,-0.000405980,9.659557340,0.008760390,-0.070455680,-0.016768280
1640790075486060032,0.179916500,0.219259750,8.672140120,-0.015553830,0.044120850,-0.016675890
1640790075487340032,0.133198380,0.335517410,9.960393910,-0.090946260,0.050973900,-0.007563830
1640790075490159872,0.078575860,0.149321750,10.254499440,-0.110699240,0.084364420,-0.004762410
1640790075491659776,0.270735770,0.114056780,9.875451090,-0.037239500,-0.103981790,-0.015977030
1640790075495200000,-0.344827620,0.045965830,10.042458530,0.016635660,-0.063854460,-0.022660200
1640790075497519872,-0.121007070,0.007492060,8.494137760,-0.030332810,0.023452940,-0.019249320
1640790075500279808,-0.497839780,-0.267953840,9.947255130,-0.051561000,0.017698110,-0.019493700
1640790075502459904,-0.402865830,-0.379213060,9.777725220,-0.013554090,0.093725320,-0.010737770
1640790075505179904,0.059774630,-0.064698010,9.613536830,0.033225120,-0.041903560,-0.020305810
1640790075506670080,-0.202067910,0.139961410,10.060226440,-0.013965370,0.045990950,-0.005246700
1640790075510159872,0.119120610,0.298724830,9.229290010,-0.073561090,0.016972430,-0.009393690
1640790075511950080,-0.235294510,0.122926350,10.261259080,-0.036615130,-0.037546460,-0.028261540
1640790075515489792,-0.131043340,-0.039121570,9.155365940,0.068658590,0.030229990,-0.039440400
1640790075516719872,-0.180220630,0.035214480,9.680369380,0.134089560,-0.033897160,-0.045217570
1640790075520160000,-0.551028730,0.024685020,10.140832900,0.027938190,0.070320070,-0.018952790
1640790075521689856,-0.283734980,0.123995890,9.442485810,-0.064060080,-0.049810110,-0.001974400
1640790075525219840,-0.575220700,0.108346960,10.350527760,-0.050503020,-0.037594140,-0.004744530
1640790075526779904,-0.070871960,0.346523610,8.832512860,0.022926930,0.034229460,-0.031220910
1640790075530329856,-0.119222420,0.747042180,9.896956440,0.071851920,-0.026896600,-0.047463180
1640790075531849984,-0.143976580,0.910723690,10.159914020,-0.036498900,0.086838010,-0.039811430
1640790075535579904,0.170060400,0.754164700,9.573658940,-0.087094310,-0.030848390,-0.007800760
1640790075537400064,-0.435335010,0.272311240,10.681097030,-0.035133960,-0.069056460,-0.012874610
1640790075540129792,-0.258281860,0.188160300,9.223492620,0.014199320,-0.012041630,-0.026506190
1640790075541669888,-0.448420550,0.083196120,9.416561130,0.026245420,-0.073383760,-0.008842350
1640790075545569792,-0.411072460,-0.049324600,9.708957670,-0.068676470,0.039218370,-0.009453300
1640790075546700032,0.164825980,0.064157550,9.256314280,-0.087352080,0.064083930,0.000214580
1640790075551239936,0.093731990,0.079889460,10.284878730,-0.058788070,0.030986970,-0.020945070
1640790075552379904,0.143029660,0.467002660,10.112784390,-0.027658050,-0.011575220,-0.039301810
1640790075555189760,0.006922510,0.678035380,9.461015700,-0.035938610,-0.070507820,-0.025959310
1640790075556640000,-0.110001970,0.366179940,9.315544130,-0.100672250,-0.038276620,-0.018337370
1640790075560240128,-0.237575740,0.045636100,9.379249570,-0.037865340,0.058080260,-0.005751850
1640790075561849856,-0.256768440,-0.219061320,9.713418960,0.030179330,0.059792410,-0.021815300
1640790075565329920,-0.292570740,-0.366022170,10.292169570,0.031101710,-0.006555020,0.003401940
1640790075566690048,-0.288103880,-0.169141640,9.676021580,-0.039598350,-0.006909670,0.011987990
1640790075570179840,-0.017044320,-0.341744780,9.345128060,-0.111007700,-0.016987330,-0.019982450
1640790075571699968,-0.082651990,-0.060838560,9.475986480,-0.021466610,0.050626700,-0.020235780
1640790075575179776,0.149991690,0.229150270,9.274962430,0.053703780,0.042240310,-0.065177660
1640790075576709888,0.026696130,0.343452810,10.230072020,0.041563810,0.030083950,-0.042055550
1640790075580499968,-0.227118750,0.460374180,9.796171190,-0.014175480,0.020344560,-0.018678610
1640790075581699840,-0.411420230,-0.037840780,10.159709930,-0.028657920,-0.104832650,-0.026059150
1640790075585129984,-0.582079050,-0.137715610,9.466653820,0.062456730,-0.001233820,-0.007517640
1640790075586720000,-0.320095810,-0.004934700,8.833937640,0.080312780,-0.004522500,-0.033374130
1640790075590169856,-0.494662760,0.037709680,10.461527820,0.022883720,0.074364240,-0.023065510
1640790075591699712,0.083666570,0.388994220,9.303636550,-0.045184790,0.079123680,-0.020337110
1640790075595579904,0.085294750,0.384388060,10.472774510,-0.035712130,-0.102877620,-0.042214990
1640790075597019904,0.046566860,0.634580020,9.901602750,0.000461940,0.062802420,-0.047180050
1640790075600299776,0.104050990,0.803785680,8.996356960,0.013352930,-0.054353480,-0.057065490
1640790075601680128,-0.677467580,0.429105820,10.709083560,-0.003711880,-0.049966570,-0.025753680
1640790075605120000,-0.101902910,0.334170550,8.651261330,-0.014135240,0.050660980,-0.004580620
1640790075606669824,-0.390578420,-0.147998870,10.156517980,0.002482530,-0.059255970,-0.022321940
1640790075610460160,-0.531993450,-0.023020810,10.274594310,-0.005027650,0.076748420,-0.007109340
1640790075611660032,-0.002683920,0.283418120,9.073459630,-0.049215560,-0.042840840,-0.027915840
1640790075615239936,-0.323876860,0.161256130,10.374776840,-0.084306300,-0.044445690,-0.013613700
1640790075616780032,0.460115970,0.515969220,8.719357490,-0.057628750,0.076825920,-0.015643240
1640790075620149760,0.280618460,0.318657820,9.799270630,0.001354520,0.016507510,-0.053803630
1640790075621719808,0.193861040,0.453262180,10.028846740,0.002785030,0.070069730,-0.025112930
1640790075625200128,0.126305130,0.389917460,9.603410720,-0.037582210,-0.041855870,-0.012883540
1640790075627669760,-0.464908780,-0.284528640,10.090811730,-0.081731390,-0.035493080,-0.000314410
1640790075630129920,-0.198356940,-0.351743580,8.923153880,-0.001871590,-0.011450050,-0.009313230
1640790075631929856,-0.485745550,-0.366304190,9.503291130,0.057148940,0.044836100,-0.046387320
1640790075636219904,-0.071944840,-0.061830380,9.382480620,0.005756320,0.134496380,-0.036264950
1640790075636960000,-0.105571070,0.277368720,10.245798110,-0.063349310,0.042396790,-0.023062530
1640790075640139776,-0.203438820,0.116048690,10.209475520,-0.082349780,0.004170840,-0.030779840
1640790075641860096,0.209512430,0.229750690,9.171460150,0.037921970,-0.063331430,-0.044472520
1640790075645139968,-0.237487760,0.182277140,9.353096960,0.095795100,0.043188040,-0.058041510
1640790075647279872,-0.041023210,0.132088420,9.314535140,0.039029130,0.104479510,-0.042957070
1640790075650409984,-0.302974550,-0.053417590,10.365611080,-0.007425250,0.060991940,-0.021313130
1640790075651689984,-0.338466790,-0.282145290,10.052621840,-0.003688040,-0.010605160,-0.025188920
1640790075655139840,-0.157138840,-0.097587030,9.608756070,0.056418780,-0.051207840,-0.026686490
1640790075656699904,-0.357324870,0.175048810,9.299145700,0.035388760,0.083038220,-0.044880810
1640790075660349952,-0.262980400,0.484180600,9.817305560,-0.013609230,0.039744380,-0.044949350
1640790075661710080,-0.270620910,0.564027730,10.332367900,-0.006064770,0.050809980,-0.031542780
1640790075665259776,0.036868090,0.453822490,9.462991710,0.027008360,-0.010728840,-0.037567320
1640790075666739968,-0.166740600,0.426176760,10.132024770,0.084112590,-0.023601950,-0.026519600
1640790075670159872,-0.249704020,0.469459180,9.492111210,0.005048510,0.075826060,-0.027930740
1640790075671680000,-0.230169860,0.222670050,9.678338050,-0.042049590,-0.039264560,0.005474690
1640790075675219968,-0.334411260,0.047007460,10.100982670,-0.018061700,0.012049080,0.007590650
1640790075676729856,0.271587850,0.094749800,8.784433360,0.010371210,0.068224960,-0.018958750
1640790075680389888,0.180630790,0.364534590,9.940716740,0.024843220,0.055363770,-0.015375020
1640790075682659840,0.211318420,0.576812030,10.080815320,-0.058811900,0.124591600,-0.007644290
1640790075685139968,0.121605930,0.335551620,9.975805280,-0.082521140,-0.025501850,0.009816890
1640790075686659840,-0.282761630,-0.065006990,9.940025330,0.001114610,-0.063434240,-0.000074510
1640790075690549760,-0.282359300,-0.277315500,8.976740840,0.103762750,0.008098780,-0.021098550
1640790075693679872,-0.439253270,-0.309305190,9.183727260,0.107060390,0.081971310,-0.017394130
1640790075695360000,-0.374326410,-0.181463510,9.893929480,-0.030030310,0.101563330,-0.012168290
1640790075696999936,-0.242331880,-0.075994180,10.137890820,-0.076672440,0.065954030,0.003124770
1640790075700800000,0.103961330,0.229749500,9.551395420,-0.024138390,-0.002101060,-0.006243590
1640790075701629952,-0.007769520,0.495710050,9.823243140,0.049135100,-0.008060040,-0.032347440
1640790075705159936,-0.023888370,0.659659390,9.071767810,0.050924730,0.081409510,-0.029085580
1640790075706990080,-0.057767560,0.334181670,9.789522170,0.006110970,0.038142500,-0.029796360
1640790075710149888,-0.480816190,-0.060854980,10.295166020,0.055502360,0.055664780,0.007762010
1640790075712209920,-0.200052070,-0.239797550,9.315549850,0.085835160,-0.037868320,-0.008645650
1640790075715229952,-0.568969850,-0.328567950,10.052062990,0.054056940,-0.003324450,0.002218780
1640790075716749824,-0.488819930,0.065955590,9.013360980,-0.019259750,0.070436290,-0.003305080
1640790075720179968,-0.311965760,0.043449780,9.932059290,-0.026212630,-0.012308360,-0.023989380
1640790075721869824,-0.236733470,0.327258830,9.905995370,0.047357380,0.091062490,-0.028735400
1640790075725199872,0.168694540,0.818928120,9.414618490,0.082018970,-0.028638540,-0.049091880
1640790075727490048,-0.311398510,0.790582600,10.690371510,0.011967120,0.009951000,-0.022269790
1640790075730279936,-0.153703420,0.839401420,9.075695990,-0.050011280,0.007811190,-0.006872420
1640790075733499904,-0.490010290,0.303952570,10.336867330,-0.013040010,-0.129790620,0.001561640
1640790075735129856,-0.441546650,0.103947750,9.440234180,0.055286300,0.065313290,0.008815530
1640790075736719872,0.034009770,0.269788030,8.752372740,0.062601280,-0.028800960,-0.007405880
1640790075740150016,-0.347693260,0.180378680,10.789245610,-0.046598910,0.059217210,0.009578470
1640790075741659904,0.466684010,0.471299470,8.945294380,-0.124551380,0.096003730,0.014066700
1640790075745519872,0.111775460,0.223411500,10.533596990,-0.073732440,-0.094121690,-0.021539630
1640790075746809856,0.028014230,0.418940340,9.786644940,0.010545550,0.037874290,-0.020071860
1640790075750399744,0.228957430,0.463422540,8.654462810,0.034305450,-0.055514280,-0.040324040
1640790075751719936,-0.471873220,0.027256360,10.245199200,-0.022289160,0.025826690,-0.016999240
1640790075755290112,-0.062855500,0.033106220,9.132987980,-0.048282750,0.102213040,0.009922680
1640790075756759808,-0.448802260,-0.313802450,10.284604070,-0.020974870,-0.031270090,-0.004456940
1640790075760730112,-0.292668820,-0.086451950,9.741856580,0.007770960,0.008268650,0.024604800
1640790075762089984,-0.076979650,0.195248560,9.094417570,-0.020077820,-0.012403730,-0.004348160
1640790075765229824,-0.108095900,0.131078170,9.505944250,-0.076748440,0.079652650,-0.016242270
1640790075767059968,0.316574930,0.326333790,9.475491520,-0.024640560,0.077205900,-0.012415650
1640790075770629888,-0.001720900,0.174876210,10.264602660,0.047703100,0.041453540,-0.030770900
1640790075771739904,0.140291320,0.169769050,9.585952760,0.054952510,-0.001907350,-0.009739400
1640790075775179776,-0.363463850,0.096124400,9.774793620,-0.003293160,-0.039337580,-0.009821360
1640790075776759808,-0.524895730,-0.279301400,9.184164050,-0.049787770,0.014555460,-0.010041890
1640790075780310016,-0.340445070,-0.332127870,9.300489430,0.039708610,0.009459260,-0.004962090
1640790075781709824,-0.553905490,-0.151685880,9.826409340,0.080190600,0.086772450,-0.026643280
1640790075785120000,-0.097460390,0.188342930,9.771131520,0.046783690,0.033950810,-0.025390090
1640790075787979776,-0.256517890,0.546106520,10.282088280,-0.036767130,0.003094970,-0.018371640
1640790075790129920,-0.091000570,0.591691200,9.514204980,-0.062201930,-0.032252080,-0.012335180
1640790075791839744,-0.138542770,0.537988070,9.670435910,0.027352580,-0.035808980,-0.026004020
1640790075795849984,-0.248488160,0.554550350,9.306727410,0.073009730,0.051218270,-0.027813020
1640790075798869760,-0.294022830,0.421110150,9.880023000,0.058315690,-0.023959580,-0.000737610
1640790075800269824,-0.447682020,0.199288010,10.166073800,-0.025278330,-0.005438920,0.014747680
1640790075801689856,-0.162441420,0.022090880,9.204504010,-0.068630280,-0.026339300,0.017452240
1640790075805159680,-0.438033040,0.064670970,10.136347770,-0.016976890,-0.024150310,-0.015413760
1640790075806700032,-0.198297230,0.398485120,9.427538870,-0.013993680,0.044451650,-0.035759810
1640790075810370048,-0.040173120,0.531281470,9.651942250,-0.019353620,-0.056679540,-0.024166700
1640790075811719936,-0.040617730,0.553166690,10.007765770,-0.051420930,0.028592350,-0.010786950
1640790075815409920,0.150318150,0.455078480,9.494688990,-0.058075790,0.022956730,-0.012435020
1640790075816669952,-0.330475660,0.364958940,10.286064150,-0.012247270,-0.066155200,0.012837350
1640790075820150016,-0.396674810,0.142927290,9.748546600,-0.033375620,-0.058373810,0.022119280
1640790075821729792,-0.224923060,-0.101470780,8.954675670,-0.024569030,-0.044518710,0.024370850
1640790075825179904,-0.088287550,-0.158995300,9.266446110,-0.037202240,0.045052170,0.016421080
1640790075826959872,0.061548680,0.032071420,9.878879550,-0.041052700,0.091940190,0.007882710
1640790075830469888,0.180219230,0.246491210,9.881804470,-0.052022950,0.029344860,0.013454260
1640790075831719936,0.023266620,0.297343760,10.236983300,-0.085483490,-0.092476610,-0.004586580
1640790075835439872,-0.185222510,0.259477410,9.364326480,-0.039240720,-0.038579110,0.002671780
1640790075836719872,-0.105043130,0.072490060,8.699345590,0.006026030,-0.026172400,-0.026607520
1640790075840169984,-0.597297670,-0.118451310,10.097379680,0.042924290,0.048415370,-0.002494450
1640790075841649920,-0.384225250,-0.080852120,9.401793480,0.014080110,0.058308240,0.010824200
1640790075845369856,-0.369662730,-0.488934520,10.308912280,-0.034467880,-0.074186930,0.009219350
1640790075847669760,-0.343143670,-0.167348280,9.535358430,-0.000524520,-0.019344690,0.018851460
1640790075850139904,0.112506900,-0.008018350,8.797307010,0.014011560,-0.040502840,-0.022192300
1640790075852000000,-0.113307980,0.178858880,10.108812330,0.012572110,0.058658420,-0.016234820
1640790075855160064,0.159172270,0.607302310,9.436468120,0.005351010,0.044107450,-0.018654770
1640790075856719872,-0.105287440,0.250495490,10.657323840,0.019475820,-0.099723040,-0.019679970
1640790075860239872,-0.227290630,0.282487750,9.573801040,0.064034760,-0.008876620,-0.005847220
1640790075862049792,-0.380330770,0.229140030,9.259048460,0.052776930,-0.123563420,-0.028981270
1640790075865259776,-0.849566820,0.039187820,10.124039650,0.009016690,-0.008778270,0.003752110
1640790075868969984,-0.164815110,0.241641740,8.677741050,-0.010104480,0.009116530,0.007797780
1640790075870119936,-0.357180330,0.144275160,10.557616230,0.013901290,-0.045745080,-0.008018310
1640790075871739904,0.085495500,0.610960070,9.752096180,0.005318220,0.070604670,-0.009512900
1640790075875150080,0.113501380,0.872527540,9.741598130,-0.037041310,-0.114698710,-0.025329000
1640790075876719872,-0.368668970,0.605069640,10.420910840,-0.069084760,-0.072205070,-0.007793310
1640790075880719872,0.118132250,0.412966040,8.824970250,-0.004148480,-0.048972670,-0.011353200
1640790075881969920,-0.418834060,0.003067260,9.953357700,0.068704780,-0.070025030,-0.023989380
1640790075885459968,-0.127532330,0.123570260,9.588310240,0.033396480,0.033494830,0.006361310
1640790075886749952,-0.103328890,0.163814870,9.804600720,-0.076986860,-0.016883020,0.026914480
1640790075890129920,-0.235656160,-0.031016140,10.228722570,-0.132584590,-0.036790970,0.032049420
1640790075891709952,0.170124560,0.206146140,9.397590640,-0.049148500,-0.073909770,0.009703640
1640790075895809792,0.002754870,0.269037960,9.291008950,0.021055340,-0.015379490,-0.024326150
1640790075899639808,0.307627080,0.439249810,9.136825560,-0.002944470,0.012168290,-0.016859180
1640790075900549888,-0.124171630,0.312322590,10.364569660,-0.047250090,0.037524100,-0.010809300
1640790075902779904,-0.088407900,-0.117664200,9.792558670,-0.057005890,-0.013414030,0.009784100
1640790075905139968,-0.226241530,-0.291182910,9.964325900,0.028772660,-0.128179800,0.014241040
1640790075906749952,-0.459106090,-0.368281220,9.256237980,0.045987970,0.000543890,0.000657140
1640790075910169856,-0.052712150,-0.250296350,8.774950030,-0.002872940,0.015632810,-0.008624790
1640790075911980032,-0.338328900,-0.145129040,10.179940220,-0.027744470,0.068910410,-0.001034140
1640790075915449856,0.192474900,-0.048592060,9.557238580,0.009603800,0.027528410,-0.013682250
1640790075916770048,0.131065760,0.235957580,10.172135350,0.072449450,-0.052501260,-0.018373130
1640790075920179968,-0.190564920,0.420623450,9.819616320,0.022454560,-0.001943110,-0.019806630
1640790075921700096,-0.248098080,0.335621240,9.497351650,-0.007249410,-0.069212920,-0.011749570
1640790075925199872,-0.531682070,0.053424820,9.769751550,0.031290950,-0.008481740,-0.009074810
1640790075926739968,-0.394859400,-0.032710360,9.431288720,0.107915720,0.004944210,-0.010736290
1640790075930599936,-0.493700060,0.079362880,10.022201540,0.105223070,-0.018617510,-0.011746590
1640790075931749888,-0.279645770,0.347931530,9.657949450,-0.026039780,-0.001685320,-0.010973220
1640790075935249920,-0.142836240,0.452379380,9.808412550,-0.070689620,-0.032462180,0.007927420
1640790075936999936,-0.019360260,0.451605620,9.930612560,-0.023053590,0.003601610,-0.016410650
1640790075940169728,0.137383240,0.566472650,9.734940530,0.069659950,-0.025208290,-0.033080580
1640790075941740032,0.029436480,0.668275480,9.660305980,0.079920890,-0.024931130,-0.015702840
1640790075945179904,0.093080730,0.421747390,9.637125970,-0.041794780,-0.002516810,-0.010269880
1640790075949250048,-0.167391780,-0.029146930,9.773607250,-0.042966010,0.003981590,0.029772520
1640790075950160128,-0.246313300,-0.255614070,9.776104930,0.026215610,-0.062446300,-0.004030760
1640790075951799808,-0.286179630,-0.163800840,9.683045390,0.073081260,-0.029198830,0.008091330
1640790075955119872,0.043522200,0.050805830,8.709850310,0.016957520,0.036777560,0.007915500
1640790075956749824,0.038385620,0.075362850,10.151145940,-0.061827900,0.044600670,-0.002059340
1640790075960219904,0.093581820,0.235319790,9.907260890,-0.020645560,0.113065550,0.002580880
1640790075961760000,0.177439270,0.315976530,9.650386810,0.047644970,-0.112248960,-0.030054150
1640790075965459712,-0.426210550,0.317818110,10.135629650,0.051964820,-0.052426750,-0.016103680
1640790075966769920,-0.068830910,0.248154630,8.197433470,0.001388790,0.022886690,-0.011734670
1640790075970129920,-0.475647480,-0.397416030,10.277490620,0.009198490,0.003533070,-0.004975500
1640790075971750144,-0.362079770,-0.342733920,9.871177670,0.093998020,0.135821100,0.004005430
1640790075975149824,0.167527420,-0.236512140,9.502452850,0.107832260,-0.048404930,-0.015234950
1640790075976770048,-0.162170340,-0.004373460,10.271735190,0.023421650,0.027303400,0.019855800
1640790075980199936,0.309165450,0.413341080,8.627544400,-0.059080130,0.034107270,-0.007036330
1640790075982539776,-0.126450630,0.103121230,10.158893590,-0.003884730,-0.023326280,-0.029689080
1640790075985240064,-0.121703450,0.435644720,9.531890870,0.125375400,0.058437880,-0.042936210
1640790075986739968,-0.303775130,0.461489470,9.901064870,0.150018930,-0.047534720,-0.054067370
1640790075990129920,-0.782483280,0.249880920,10.401942250,0.046592960,0.014953320,-0.015898050
1640790075991680000,-0.497336120,0.352413540,9.308670040,-0.023181740,-0.039972360,-0.001508000
1640790075996749824,-0.789012790,0.006244070,10.099990840,-0.002317130,-0.043347480,-0.001822410
1640790075997529856,-0.111274420,0.198932410,8.966185570,0.057366490,0.063550480,-0.009064380
1640790076000249856,0.042390340,0.588479520,9.738187790,0.070256000,0.008569660,-0.028721990
1640790076001699840,0.141016680,0.526172880,10.231561660,-0.010339920,0.051113970,-0.008948150
1640790076005139712,0.565806330,0.622245970,9.651133540,-0.037024920,-0.025968260,-0.006014110
1640790076006709760,-0.117451310,0.295304980,10.386817930,-0.017209350,-0.053852790,-0.021582840
1640790076010439936,-0.088914200,0.212501330,9.413993840,0.037170950,-0.036461660,-0.025805830
1640790076011839744,-0.464734610,0.103268940,9.533850670,0.046004350,-0.039812930,-0.016960500
1640790076015319808,-0.357036200,-0.081990560,9.308211330,-0.006592270,0.047573440,0.000031290
1640790076016800000,-0.133662920,-0.018975960,9.770681380,-0.009043510,0.048036870,0.007592140
1640790076020179968,-0.169175860,0.022136600,9.918832780,-0.012047590,0.057208530,0.000377000
1640790076021689856,0.212668580,0.426003010,9.667320250,-0.003413860,-0.049926350,0.007991490
1640790076025260032,0.048922040,0.430300000,9.892642970,-0.041070580,0.030197210,0.011365120
1640790076027059968,0.295418650,0.185641590,9.032936100,-0.028340520,0.039704150,-0.006952880
1640790076030809856,-0.094801500,-0.018703710,10.246306420,0.074379150,-0.009265540,-0.015434620
1640790076032199936,-0.192989690,-0.280599950,9.459105490,0.096480550,0.061424080,-0.020313260
1640790076035239936,-0.164421350,-0.354698570,9.338803290,0.073359910,-0.046953560,0.001606350
1640790076036710144,-0.599391460,-0.434631710,10.067217830,-0.002132360,0.022694470,0.007557870
1640790076040119808,-0.046591070,-0.333625260,8.813759800,0.009188060,0.045630340,-0.000007450
1640790076041719808,-0.078611610,-0.048080520,9.722971920,0.080734500,0.023871660,-0.024876000
1640790076045120000,-0.002538170,0.400228230,9.855032920,0.087137510,0.102195130,-0.032302740
1640790076047079936,0.008756960,0.559522750,9.768942830,0.061322760,-0.005555150,-0.019577150
1640790076050230016,-0.324956210,0.266290930,10.129474640,0.033970180,-0.048752130,-0.015522540
1640790076052269824,-0.386882420,-0.078336800,9.461834910,0.125530380,-0.028347970,-0.011767450
1640790076055119872,-0.502911330,-0.240123180,9.247039790,0.181074430,-0.007973610,-0.025035440
