# timestamp,accel_x,accel_y,accel_z,gyro_x,gyro_y,gyro_z
1640843763.747470,0.380450550,-0.845676120,9.723695760,-0.037337840,0.054149340,-0.002406540
1640843763.750530,0.330237720,-0.397708540,10.533048630,-0.030657650,0.010488930,-0.036190450
1640843763.752610,0.414580790,0.297039810,9.835632320,0.021345920,-0.017926100,-0.062975290
1640843763.756189,0.379028620,0.921061520,9.420354840,-0.008517500,-0.025083120,-0.063824650
1640843763.757449,-0.064489380,1.220329640,9.755167010,-0.035241250,0.016960500,-0.017824770
1640843763.760219,-0.326095220,1.045727130,9.657994270,-0.021539630,0.035639110,0.008359550
1640843763.762580,-0.525018750,0.700743790,9.783429150,0.007981060,-0.046807530,0.011551380
1640843763.765179,-0.760260400,0.128217340,10.054868700,0.027893480,-0.029446190,0.024019180
1640843763.767619,-0.605486630,-0.204143670,9.592763900,-0.010105970,0.017592310,0.000143050
1640843763.770840,-0.522913630,-0.476623420,10.153998370,-0.030255320,-0.028310720,-0.010368230
1640843763.772590,-0.361185010,-0.518811880,10.416939740,-0.028455260,0.001606350,-0.005629660
1640843763.775159,0.297780100,-0.205555630,9.403541560,-0.020211940,0.010804830,-0.009657440
1640843763.777480,0.291409730,-0.119966860,10.334481240,0.027841330,-0.025781990,0.006374720
1640843763.780140,0.344546080,0.366150740,9.985427860,0.030770900,0.031019750,0.020577010
1640843763.782879,0.612563910,0.780494690,9.285069470,-0.009398160,-0.061999270,0.008298460
1640843763.785300,0.103354510,0.879437860,10.494435310,-0.054827330,-0.025875870,0.011140110
1640843763.789240,0.214689570,1.059537890,9.364335060,-0.058981770,0.072319800,-0.006788970
1640843763.790239,-0.175609200,0.906112910,10.314231870,-0.016292930,-0.049714760,-0.040531170
1640843763.792549,-0.609761480,0.801778200,10.314350130,-0.031057010,-0.001077350,-0.025735800
1640843763.795179,-0.242098380,0.480498730,8.576109890,-0.080676380,-0.021852550,-0.004787740
1640843763.797550,-0.716235820,-0.303784100,10.328349110,-0.063988570,-0.018657750,0.025585300
1640843763.800510,-0.609003130,-0.688684820,9.629088400,-0.011853870,0.056970120,0.057750940
1640843763.803160,-0.063771840,-0.941797550,9.509045600,0.034426150,-0.102087870,0.046318780
1640843763.807530,-0.133764920,-0.975221280,10.470544820,0.012080370,0.035923720,0.034873190
1640843763.808410,0.542613740,-0.606560710,9.314968110,-0.026552380,0.078466530,-0.012004380
1640843763.810180,0.369673160,-0.185121800,10.661876680,0.012819470,-0.064323840,-0.054222350
1640843763.812539,0.325929190,0.550592360,9.603693960,0.021970270,0.010427830,-0.069957970
1640843763.815169,0.561256410,1.132569430,8.761646270,-0.004284080,-0.050105160,-0.039838260
1640843763.817610,-0.290749970,1.038796780,10.368055340,0.000029800,0.041054190,0.008681420
1640843763.820370,-0.337581930,0.722633480,9.484064100,0.023928290,0.027287010,0.025419890
1640843763.823410,-0.563658000,0.431412820,10.078699110,0.057263680,-0.112071660,0.033819680
1640843763.825280,-0.825181310,-0.093404670,9.919090270,0.023345650,0.028300290,0.017836690
1640843763.827530,-0.409244360,-0.470343710,9.430757520,-0.006175040,-0.010329480,-0.006733830
1640843763.830160,-0.624158980,-0.379272490,10.499418260,0.028082730,-0.032711030,-0.015403330
1640843763.833639,-0.041002620,-0.318014500,9.478558540,0.007697940,-0.014692550,-0.033658740
1640843763.835840,0.413507040,-0.053984270,9.743947030,0.015069540,-0.019310410,-0.002047420
1640843763.837520,0.339317620,0.276812760,10.232163430,0.059250000,0.055554510,0.012691320
1640843763.840469,0.447179110,0.442786040,10.003305440,0.042738030,-0.052934900,0.016774240
1640843763.842680,0.398547470,1.013222340,9.787500380,0.006932020,-0.071738670,0.029814240
1640843763.845170,0.209305480,0.941479030,9.591389660,-0.051781540,0.030115250,-0.003091990
1640843763.847479,-0.066246320,0.789128070,9.964624400,-0.040349370,0.027623770,-0.023658570
1640843763.851420,-0.370868470,0.940956530,9.920196530,0.023132560,-0.030580160,-0.057405240
1640843763.854610,-0.489068780,0.566016380,9.591780660,-0.040321050,-0.049783290,-0.043809420
1640843763.855160,-0.292637350,0.316105930,9.185595510,-0.085058820,0.041271750,0.012093780
1640843763.857460,-0.513663170,-0.378959750,10.116548540,-0.041958690,0.027772790,0.028538700
1640843763.860230,-0.384989980,-0.902542830,10.308580400,0.033947830,-0.031609830,0.053524970
1640843763.862560,0.157057810,-0.736329260,9.331496240,0.075273210,-0.045436620,0.048202270
1640843763.865300,0.260857110,-0.779573740,9.944849970,-0.000675020,0.038737060,-0.000418720
1640843763.867800,0.468316500,-0.303806780,9.783537860,-0.037696960,0.086179360,-0.032353400
1640843763.870240,0.531610190,0.392717690,9.796344760,0.012657050,-0.049717720,-0.072251270
1640843763.874179,0.289342140,0.872352180,9.701019290,0.001330670,-0.012211500,-0.065968930
1640843763.875130,0.285038710,1.288501740,8.980910300,-0.002987680,0.026550880,-0.024841720
1640843763.877480,-0.499122680,0.956069890,10.322618480,0.009317690,-0.003725290,0.007426740
1640843763.880159,-0.728353980,0.497577160,9.828304290,0.013515350,-0.015144050,0.029036400
1640843763.886760,-0.600900590,0.074695730,9.504300120,0.036868460,-0.060367600,0.031282020
1640843763.887270,-0.953411100,-0.389967410,10.241106030,0.009432440,0.035123530,0.012035670
1640843763.887709,-0.481544260,-0.519060610,9.654158590,-0.012837350,-0.003467500,-0.019477310
1640843763.890679,-0.198407770,-0.484523980,10.071776390,0.027512020,-0.049385440,-0.010193890
1640843763.892550,0.244752290,-0.301725300,9.576526640,0.029385090,0.037761030,-0.018091500
1640843763.895249,0.753051880,0.024017180,9.742793080,0.046063960,0.003391500,-0.000563260
1640843763.897549,0.510760610,0.432022240,10.277934070,0.050428510,0.037859370,0.014403460
1640843763.900400,0.566368280,0.626894410,9.605696680,0.003716350,-0.052809720,-0.018781420
1640843763.903010,0.203970910,0.860985820,10.006933210,0.004655120,-0.051829220,-0.010795890
1640843763.905249,-0.295038430,0.945780990,9.417548180,0.005349520,0.037239500,-0.035654020
1640843763.907970,-0.521361950,0.620813970,9.809705730,-0.002650920,-0.049008430,-0.044743720
1640843763.910159,-0.779792310,0.704831240,9.801208500,0.008375940,0.007584690,-0.004217030
1640843763.912560,-0.366786180,0.141105440,9.045800210,-0.034174320,0.009748340,0.007961690
1640843763.915259,-0.279028530,-0.493080080,10.292490960,-0.007373100,0.043854110,0.057543810
1640843763.918290,-0.047778330,-0.663702490,9.797191620,0.076250730,0.060732670,0.044156610
1640843763.920199,0.306884470,-0.968629000,9.972091670,0.078864380,-0.089107450,0.022189320
1640843763.922580,0.482804890,-0.627813040,9.676483150,0.045774880,0.026720760,0.016433000
1640843763.925140,0.696664210,-0.381092730,9.073618890,0.010000170,0.075508650,-0.045101350
1640843763.927500,0.352087940,-0.036927250,10.391679760,0.045424700,0.025321540,-0.058507930
1640843763.930320,0.132697700,0.728225230,9.360743520,0.087960060,0.015920400,-0.063973670
1640843763.932870,-0.100898940,0.942139210,9.137676240,0.050894930,-0.063011060,-0.054521870
1640843763.935230,-0.606768130,0.983644250,9.737056730,0.025436280,0.044982140,0.016745920
1640843763.937650,-0.698229070,0.621009410,9.432150840,0.047789510,0.041787330,0.034250320
1640843763.940250,-0.711545170,-0.005202040,10.474308010,0.083421160,-0.039981300,0.039355450
1640843763.942530,-0.463427040,-0.309032890,9.983990670,0.115621090,0.057549770,0.039701170
1640843763.945170,-0.136094720,-0.575266420,9.732211110,0.090557340,0.014731290,0.011466440
1640843763.947660,-0.046343110,-0.576407670,10.284377100,0.061410670,-0.007213650,-0.003303590
1640843763.950450,0.428077250,-0.204185770,9.146293640,0.044846540,0.009155270,-0.018243490
1640843763.952600,0.604679170,0.168386580,9.358702660,0.050587960,0.016857690,-0.035499040
1640843763.955200,0.463137030,0.498912010,10.018779750,0.089444220,0.072889040,-0.034441050
1640843763.957549,0.227359920,1.009491320,9.969492910,0.084351030,0.000809130,-0.040079660
1640843763.960160,-0.063466690,1.255537150,9.928213120,0.013966860,-0.036327540,-0.036501880
1640843763.962870,-0.531399790,0.999293680,10.003381730,-0.020900370,-0.014957790,-0.016373400
1640843763.965210,-0.808547790,0.864460530,9.616163250,0.000570710,0.009663400,0.003193320
1640843763.967559,-0.811636090,0.539344670,9.641794200,0.032515820,-0.029113890,0.019127130
1640843763.972519,-0.606182870,0.108723200,9.747158050,0.006474560,0.015522540,0.040359800
1640843763.973290,0.099007130,-0.193471730,9.197870250,-0.022290650,0.080378360,0.028005240
1640843763.975240,0.407854650,-0.812587140,10.269288060,0.013636050,0.034798690,0.007179380
1640843763.977550,0.492091480,-0.597859380,10.243068700,0.061889000,0.034575160,-0.019106270
1640843763.980199,0.951436340,-0.208858310,9.206926350,0.029698020,-0.041855880,-0.044386100
1640843763.982849,0.438600720,-0.095552640,10.082794190,-0.023096800,0.021962820,-0.046747920
1640843763.985190,0.187985260,0.523013710,9.231681820,-0.007371600,0.083959110,-0.046555700
1640843763.987599,-0.315491910,0.604430440,9.822768210,0.029550490,-0.071337830,-0.053924330
1640843763.990150,-0.876292590,0.827488600,9.631687160,0.031553210,0.010901690,-0.021560490
1640843763.992550,-0.665586830,0.803112150,8.864700320,0.003011520,0.014176960,-0.015504660
1640843763.995309,-1.073425410,0.279486000,10.705414770,-0.001153350,0.001321730,0.000335280
1640843763.997480,-0.552260990,0.108184250,9.742712970,0.017628070,0.061288480,0.009809430
1640843764.000500,0.201309840,-0.374786670,9.967195510,0.040577350,-0.017447770,0.004766880
1640843764.002679,0.063295380,-0.664003490,10.670193670,0.062133370,0.083804130,0.013424460
1640843764.005190,0.694349530,-0.408158720,9.214430810,0.056815150,0.007790330,-0.009465220
1640843764.007500,0.405235500,-0.178864260,10.021286010,0.028388200,-0.096781550,-0.019076470
1640843764.010350,0.356209840,0.316007550,8.966682430,-0.019474330,0.035339600,-0.030153990
1640843764.014590,0.381492350,0.709479750,9.343021390,-0.005212430,0.021019580,-0.039768220
1640843764.015139,-0.525815670,1.027223350,10.959170340,0.044456120,0.027400260,-0.044767560
1640843764.017609,-0.396818010,1.339234830,9.719104770,0.010284780,-0.023923820,-0.027675930
1640843764.020370,-0.574935970,1.218044520,10.058750150,-0.056385990,-0.068227930,0.007638330
1640843764.022549,-0.877431870,0.720480200,9.879797940,-0.077125420,0.049898030,0.030234460
1640843764.025280,-0.420027880,0.120708680,9.479933740,-0.013482570,-0.013135370,0.034990900
1640843764.027510,-0.351099280,-0.161727290,10.023077010,0.044263910,-0.035655500,0.037837030
1640843764.030130,0.345262410,-0.508699830,9.320169450,-0.022825590,0.039921700,0.030583140
1640843764.032570,0.824853240,-0.622184690,9.862071990,-0.062787530,0.076381850,0.010222200
1640843764.035210,0.600649770,-0.592680810,10.421203610,-0.016500060,0.043320660,-0.030891600
1640843764.039060,0.703530970,-0.315181310,9.681985860,0.020046530,-0.050663950,-0.054085260
1640843764.040190,0.262316170,0.353807690,9.236415860,0.030408800,-0.037112820,-0.029809770
1640843764.042780,-0.462826910,0.503843720,9.334701540,-0.026041270,-0.002275410,-0.015938280
1640843764.045159,-0.797278050,0.579330680,9.581896780,-0.031784180,-0.011284650,0.018842520
1640843764.047479,-0.998543200,0.537235500,9.772300720,0.031025710,-0.026127700,0.009520350
1640843764.050320,-0.870985930,0.209488650,10.122444150,0.036904220,0.017815830,-0.006359820
1640843764.053609,-0.370450080,0.209469210,9.908299450,0.042600930,0.055055330,0.006809830
1640843764.055169,-0.187959820,-0.217742060,10.315249440,0.026980050,-0.028853120,0.002808870
1640843764.057839,0.517596960,-0.439806850,9.568023680,0.010029970,-0.004012880,0.025759640
1640843764.060170,0.823640640,-0.515957890,9.174556730,0.068451470,0.027325750,0.045624380
1640843764.062579,0.383745490,-0.687360230,10.218180660,0.093548020,0.013276940,0.011383000
1640843764.065169,0.409787240,-0.213082600,9.460263250,0.086775420,-0.035460300,-0.002057850
1640843764.067590,-0.169729160,0.276638600,9.863108630,0.053834910,-0.087390830,-0.020341580
1640843764.070299,-0.635934890,0.647270620,10.079517360,-0.013510880,0.012561680,-0.037063660
1640843764.072540,-0.655527230,1.185928460,9.644351960,0.025948880,-0.024414070,-0.026109820
1640843764.075450,-1.043075920,1.330133080,10.483602520,0.053590540,-0.055827210,-0.009970370
1640843764.077510,-0.353455510,1.261187080,9.280570980,0.003348290,0.031864640,0.034101310
1640843764.080160,-0.059451770,0.755234300,9.794223790,0.010070200,-0.007408860,0.076448920
1640843764.083040,-0.026521990,0.053708480,10.373951910,0.020955500,0.021807850,0.055255000
1640843764.085410,0.744098600,-0.371853290,9.282644270,0.030253830,-0.043597820,0.030192740
1640843764.087610,0.552494050,-0.574778910,10.178628920,0.017569960,-0.033544000,0.016915800
1640843764.090260,0.585838260,-0.770156320,9.633858680,-0.019672520,0.067345810,-0.023151930
1640843764.092540,0.358828430,-0.508178650,9.855908390,0.027354060,-0.051367280,-0.037872800
1640843764.095130,-0.397210990,0.162256330,9.858139040,0.037503240,-0.046937170,-0.029815740
1640843764.097540,-0.249013540,0.314771980,8.715155600,-0.012402240,-0.046195090,-0.025735800
1640843764.100170,-0.875581980,0.680623830,9.978751180,0.018596650,-0.007966160,0.018821660
1640843764.102660,-0.830645860,0.779382410,9.759663580,0.039321190,0.029522180,0.004895030
1640843764.107380,-0.393672970,0.545748530,10.272212030,0.045184790,-0.069740420,0.022606550
1640843764.107950,-0.303742440,0.499431550,10.333045960,0.051029030,0.038768350,0.035859660
1640843764.110180,0.374299820,-0.112999250,9.587686540,0.018842520,0.012494620,-0.006985660
1640843764.112560,0.350060700,-0.256374540,10.198495860,0.063170490,-0.035171210,0.018620490
1640843764.115190,0.584376570,-0.266135900,8.778534890,0.060047220,0.008179250,-0.011067100
1640843764.117960,0.639194730,-0.475724520,9.380426410,0.022630390,-0.041584670,-0.002385680
1640843764.122059,-0.032907910,-0.154558290,10.073393820,0.053542860,0.033627450,0.014624000
1640843764.123510,-0.143640520,-0.110028940,9.783753400,0.060267760,-0.060370570,-0.051289800
1640843764.125140,-0.539614440,0.346746000,10.474582670,0.061291460,-0.071220110,-0.021840630
1640843764.127509,-0.759396970,0.875830110,9.716402050,0.040201840,0.032626080,-0.015521050
1640843764.130180,-0.856454850,0.828220130,10.251214980,-0.004850330,-0.046625740,-0.010786950
1640843764.132609,-0.868583920,1.162565950,9.970404620,0.018946820,-0.075276190,0.041063120
1640843764.135239,-0.080675330,0.922670420,8.801284790,0.008273130,-0.050385300,0.025658320
1640843764.140730,0.463831990,0.392076190,9.666897770,-0.004066530,0.064831980,0.036153200
1640843764.141559,0.705395940,0.114039470,10.210739140,0.041084000,0.107687710,0.021237140
1640843764.142589,0.959321500,-0.283394720,10.289381030,0.019779800,-0.051487990,-0.027078390
1640843764.145160,0.885347840,-0.299315750,9.644968990,-0.025247040,-0.068947680,-0.014245510
1640843764.147580,0.352795930,-0.388713270,9.013493540,-0.021637970,0.005093220,-0.003644820
1640843764.150280,-0.421037350,-0.441219930,9.728147510,0.014074150,-0.026889150,-0.010435280
1640843764.153339,-1.003982540,0.000373480,9.691349030,0.066806380,-0.058226290,0.007364150
1640843764.158620,-0.957773090,0.358908530,9.355831150,0.014422830,-0.025452680,0.003157560
1640843764.158959,-0.802409770,0.496969850,9.996000290,-0.036169590,0.047253080,-0.013846160
1640843764.160159,-0.576274390,0.613306700,10.504724500,0.014448170,0.033275780,-0.020164250
1640843764.162560,0.190695670,0.630389510,9.742551800,0.061656530,-0.033424790,-0.023321810
1640843764.165340,0.631848990,0.452845070,9.518417360,0.062312190,-0.025434790,0.011216100
1640843764.167610,0.758437810,0.113843770,9.431930540,0.024122000,0.070926550,0.049023340
1640843764.170930,0.743220510,-0.253630910,9.437879560,0.008612870,0.011050700,0.042656070
1640843764.173580,0.087307350,-0.633587840,10.460871700,0.056166950,-0.080887970,0.023157890
1640843764.175220,-0.147237760,-0.391298170,9.390892030,0.054329630,-0.021103030,-0.015097850
1640843764.177549,-0.529918190,-0.132886990,9.633199690,0.036828220,-0.056886680,-0.047348450
1640843764.180260,-1.030319930,0.260212450,10.557268140,0.013895330,0.018049780,-0.028066340
1640843764.182900,-0.523712100,0.777515590,9.337064740,-0.002956390,0.020670890,-0.022579730
1640843764.185299,-0.552299320,0.732221010,10.611093520,0.033468010,-0.060993440,0.010094050
1640843764.189080,-0.211705270,0.920254530,9.851043700,0.057978930,0.043621660,0.028495490
1640843764.190189,0.430618970,0.863113640,9.184178350,0.026081500,-0.055502360,0.011269750
1640843764.192560,0.216341760,0.547404350,10.566935540,-0.017778580,-0.005087260,0.032988190
1640843764.195119,0.875033620,0.405551670,9.082171440,-0.047060850,0.077813870,0.003951790
1640843764.197540,0.729074420,-0.039994230,10.143141750,-0.008043650,-0.048926480,-0.014083090
1640843764.200389,0.218076910,-0.172980230,10.160243990,0.016900900,0.042080870,-0.007745620
1640843764.202860,0.371186260,-0.167755470,8.716850280,-0.011144580,-0.035774710,-0.013163690
1640843764.207929,-0.606912020,-0.384662780,10.338863370,-0.020202990,-0.042180720,0.011400880
1640843764.208580,-0.779320840,-0.306359200,9.395042420,-0.007882710,0.038509070,0.004637240
1640843764.210160,-0.603025620,-0.137911170,9.739553450,0.031854220,-0.072005390,0.000867250
1640843764.212590,-0.827779050,0.099007240,10.668928150,0.037701420,0.064393870,-0.003030900
1640843764.215180,0.030583210,0.353491960,9.477374080,0.015050180,0.064098830,-0.021517280
1640843764.217650,0.122363450,0.447945150,10.393982890,0.042413180,-0.038123130,-0.016090270
1640843764.220330,0.481843680,0.446820350,9.181396480,0.031997260,0.047898300,-0.013834240
1640843764.223539,0.948226090,0.321276010,8.799618720,0.023670490,-0.014410910,0.013059380
1640843764.225170,0.192991690,0.002758780,10.158032420,0.053194180,0.050321230,0.034382940
1640843764.227510,0.202258910,-0.331285690,9.428706170,0.047861040,-0.003719330,0.009304290
1640843764.230140,-0.279867050,-0.311512230,10.256794930,0.057165320,-0.060485310,0.008465350
1640843764.232590,-0.818670330,-0.386537730,10.156858440,0.045281640,0.038836900,-0.026737160
1640843764.235289,-0.727755780,-0.260557740,9.802464490,0.057697300,-0.040304660,-0.037823620
1640843764.237620,-0.962683020,0.410348330,10.052308080,0.084081290,-0.026987490,-0.018523640
1640843764.241200,-0.345013860,0.542402330,9.240790370,0.031341610,0.010427830,-0.010129810
1640843764.242630,0.147987560,0.711725530,9.731836320,0.032402570,0.045372540,0.024783610
1640843764.245260,0.292168350,0.811042730,10.293790820,0.079570730,0.036717960,0.009544200
1640843764.247579,0.678659020,0.549104510,10.034743310,0.060600030,-0.033171480,0.002132360
1640843764.250779,0.743862270,0.782588840,9.597060200,0.027713180,-0.026944280,-0.000217560
1640843764.252770,0.336082220,0.373454240,9.982707980,-0.038653620,0.025160610,-0.021722910
1640843764.255250,0.142040390,0.089063580,9.707799910,-0.010742250,0.017067790,-0.002186000
1640843764.257530,-0.199393360,0.151867240,9.532158850,0.056178860,-0.040262930,0.005772710
1640843764.260180,-0.433348860,-0.129526670,9.663456920,0.007069110,0.024636090,0.018593670
1640843764.262580,-0.279523040,-0.060992860,9.227652550,-0.012935700,0.063316530,0.044146170
1640843764.265260,-0.537131430,-0.275634830,10.475582120,0.012592970,0.006657840,0.012516970
1640843764.267850,-0.219178170,-0.145908470,10.093700410,0.032885370,0.022928420,-0.017455220
1640843764.270210,0.255491580,0.280505330,9.491594310,0.059399010,-0.017365820,-0.023482740
1640843764.274629,0.099690440,0.183111320,10.350081440,0.016669930,0.089098540,-0.038196150
1640843764.275240,0.424167510,0.513982180,9.377208710,0.000326340,0.065317770,-0.025925040
1640843764.277510,0.288705950,0.609248100,9.710042950,0.021694600,-0.062857590,-0.012455880
1640843764.280180,0.211380510,0.346791480,9.116652490,-0.003781910,0.067521640,0.006531180
1640843764.282780,0.174591030,0.230331850,9.195971490,0.033670670,0.044484440,0.021708010
1640843764.285410,-0.509605470,-0.030008130,10.721734050,0.053156920,0.028763710,0.020708150
1640843764.287560,-0.251996010,-0.234440300,9.688920970,0.013640520,0.011032820,-0.009338560
1640843764.290190,-0.418947220,-0.287659410,10.281101230,0.027593970,-0.007066130,-0.007043780
1640843764.292529,-0.583444000,-0.287195090,10.202179910,0.036144260,0.100632020,-0.032782550
1640843764.295140,-0.328129140,-0.049701850,9.677240370,0.061236320,-0.037233530,-0.044547020
1640843764.297860,-0.251668040,0.554214890,9.710704800,0.052672630,-0.022253390,-0.006595250
1640843764.300160,0.306572820,0.671992240,8.928845410,-0.017954410,0.083310910,0.001347060
1640843764.303210,0.382916990,0.612209560,10.287372590,-0.001330670,0.052760550,0.009590390
1640843764.305250,0.352040140,0.797773540,10.278205870,0.054191060,0.066798910,-0.010462100
1640843764.307619,0.449484500,0.561657970,9.919931410,0.029094520,-0.053265690,-0.023958090
1640843764.310170,-0.099752520,0.639540610,10.247575760,-0.019785760,0.005522370,0.003872810
1640843764.312559,-0.448380140,0.374173940,9.299381260,-0.063067680,0.004017350,-0.000211600
1640843764.315240,-0.662664590,-0.024603760,9.756860730,-0.036321580,-0.060769920,0.035263600
1640843764.317839,-0.562741100,0.135013830,9.318637850,0.021138780,0.079423200,0.037945800
1640843764.320299,-0.140442860,-0.238691970,9.659157750,0.001870100,0.058436400,0.026512150
1640843764.322840,-0.009737580,-0.282490550,10.756624220,0.011491770,0.075861800,0.028957430
1640843764.325160,0.372134060,-0.069298940,9.832014080,0.009748340,0.038333240,-0.027936700
1640843764.327560,0.482609030,-0.084091420,9.987738610,-0.021956860,-0.058247160,-0.038506090
1640843764.330330,0.372278930,0.385441480,9.324009900,-0.000984970,0.058195000,-0.033244490
1640843764.332579,0.139469580,0.408432130,9.033365250,-0.003989040,0.025907160,-0.045107310
1640843764.335600,-0.305340710,0.534801960,9.942519190,-0.000651180,0.002686680,-0.010994080
1640843764.337590,-0.392349330,0.634467600,9.273356440,-0.010134280,0.028792020,0.002573430
1640843764.340289,-0.513487100,0.088832780,9.914178850,-0.012362010,-0.008524960,0.018896160
1640843764.342599,-0.624835910,-0.110163310,10.367510800,0.033870340,0.064252320,0.035841760
1640843764.345160,-0.246807430,-0.416089240,9.798665050,0.069439420,0.009007750,0.013689700
1640843764.347649,-0.062774130,-0.650824730,10.256316180,0.050435960,0.015398860,-0.009116530
1640843764.350170,0.089386240,-0.433429480,9.790274620,0.046022230,0.080965470,-0.016435980
1640843764.352900,0.157201900,-0.190571520,9.582765580,0.034466380,-0.039459760,-0.043711060
1640843764.355199,0.095527310,0.345877230,9.516148570,0.020274520,-0.033524630,-0.041292610
1640843764.357530,0.204503070,0.800309600,9.151418690,0.014923510,0.038467350,-0.016148390
1640843764.360139,-0.014124390,0.864892010,9.981276510,0.031502550,0.064806630,-0.014808770
1640843764.362970,-0.285265830,0.919730010,10.667640690,0.052371620,-0.002773110,-0.010566410
1640843764.365160,-0.366371210,0.954011620,10.038824080,0.017316640,-0.040215250,0.004452470
1640843764.368620,-0.467543900,0.594403510,9.636404040,-0.039961930,-0.037439170,-0.000672040
1640843764.370230,-0.634435470,0.244863030,10.018415450,-0.037118790,-0.016218430,0.011934340
1640843764.373720,-0.404847320,0.172608960,9.364196780,-0.004918870,0.004714730,0.019419190
1640843764.375150,0.125295830,-0.171210300,9.661075590,0.013858080,-0.007849930,0.009107590
1640843764.377570,0.274511040,-0.141246530,10.444742200,-0.005419550,0.080327690,0.030212100
1640843764.380180,0.694291410,-0.050148300,9.720539090,-0.028595330,0.028792030,-0.007200240
1640843764.382580,0.543079080,-0.135998610,10.422661780,-0.020983820,-0.067266830,-0.026181340
1640843764.385439,0.276581730,0.403339090,9.293746950,-0.021593280,0.011055170,-0.036564470
1640843764.387580,0.028067490,0.468621730,9.141447070,-0.030206140,-0.050145390,-0.042316320
1640843764.390139,-0.757359620,0.596800450,10.204126360,-0.028564040,0.002640490,-0.010225170
1640843764.392540,-0.600162150,0.803897920,9.066828730,-0.057463360,0.000040230,0.004902480
1640843764.395200,-0.595483840,0.288949250,10.250021930,-0.053197150,-0.027513500,0.017377740
1640843764.397529,-0.481220420,0.119898010,10.091285710,0.004872680,0.104869920,0.029414900
1640843764.400470,0.118591170,-0.153650820,9.710000990,0.029495360,-0.022317470,0.009173150
1640843764.402819,0.204175410,-0.494104620,10.441209790,0.008863210,-0.018118330,0.021199890
1640843764.406040,0.731654350,-0.555931030,8.849725720,-0.012324750,0.066612670,0.006502870
1640843764.407610,0.612412390,-0.705753390,9.993875500,0.019107760,0.013126430,-0.016112630
1640843764.410270,-0.029448540,-0.287067030,10.183255200,0.058199480,0.022685530,-0.035193570
1640843764.412580,0.012348120,0.221285850,8.959385870,0.030961640,-0.100815320,-0.055864460
1640843764.415269,-0.498019730,0.487318580,9.813433650,-0.007727740,-0.040489440,-0.041602560
1640843764.417899,-0.682574810,0.809249640,9.487072940,-0.008583070,0.095389770,-0.021979210
1640843764.420220,-0.618564190,0.900852980,10.413640980,0.036041440,-0.029221180,-0.009210410
1640843764.422570,-0.684729340,0.834502940,10.731865880,0.038518020,-0.012977420,0.017347930
1640843764.425200,-0.082072490,0.600692270,9.394806860,-0.007115310,-0.008824470,0.042654570
1640843764.427580,-0.052136800,0.200743180,10.112153050,-0.006791950,-0.013051930,0.042010840
1640843764.430150,0.031989040,-0.095272800,9.717485430,0.012056530,-0.002124910,0.019748510
1640843764.432570,0.528103590,-0.100191330,9.267541890,-0.000135600,-0.043229760,-0.000958140
1640843764.435520,0.446778860,-0.068121960,9.955881120,-0.021272900,0.048981610,-0.020584470
1640843764.437650,0.317781270,-0.089735850,10.091697690,-0.013683740,0.025460130,-0.043043500
1640843764.440340,0.178916200,0.318272530,9.966418270,0.003631410,-0.053745500,-0.041282170
1640843764.442730,-0.265867080,0.453571470,9.674230580,-0.012958050,-0.053381920,-0.024659930
1640843764.445190,-0.558202920,0.537515400,9.431490900,-0.040665270,-0.023041670,0.004175310
1640843764.447520,-0.704295930,0.609341440,9.409935000,-0.016877060,-0.002741810,0.030961630
1640843764.450189,-0.766561270,0.246392150,10.143139840,-0.007443130,-0.030013920,0.035457320
1640843764.452610,-0.197265430,0.242101280,9.771002770,-0.006105010,0.027318300,0.022739170
1640843764.455289,0.246347730,0.016572540,9.966691970,-0.003798310,0.014998020,-0.002789500
1640843764.457670,0.365002450,-0.258959620,10.393795970,-0.014714900,0.033976140,-0.012601910
1640843764.460170,0.926852410,-0.036237810,9.054042820,0.000101330,-0.004433100,-0.012654070
1640843764.462649,0.576645430,-0.326101720,9.706222530,0.008077920,-0.046145920,-0.001367930
1640843764.465170,0.265257420,-0.320971400,9.234549520,0.029766560,0.056372580,0.021119420
1640843764.467550,-0.087714820,-0.139617530,9.406723020,0.059387090,-0.049045690,-0.006568430
1640843764.470209,-0.994190390,-0.145345300,10.535109520,0.034970050,-0.042945150,-0.012987850
1640843764.473009,-0.665552260,0.234202670,9.098901750,0.010834630,-0.005120040,-0.027446450
1640843764.476529,-1.010795710,0.343327760,10.487662320,0.035715110,-0.021025540,-0.047782070
1640843764.477510,-0.849321480,0.684375290,10.233919140,0.032635030,0.050428510,-0.027976930
1640843764.480150,0.088497320,0.944591280,9.290435790,0.033196810,-0.064124170,0.006346400
1640843764.482610,0.121185760,0.721982600,10.258028980,0.008539850,0.005880000,0.042590500
1640843764.485230,0.861088160,0.466462790,9.115837100,0.000502170,0.073966390,0.048297650
1640843764.487589,0.887815480,0.097107030,10.142866130,0.039888910,-0.045491760,0.029134750
1640843764.490249,0.557087180,-0.157230930,10.160299300,0.031480190,0.027176740,-0.008019800
1640843764.492650,0.594614920,-0.180733560,9.341003420,0.002753730,-0.031836330,-0.040726360
1640843764.495149,-0.517232890,0.006131400,10.413560870,-0.014720860,-0.053307410,-0.041544440
1640843764.497579,-0.663642230,0.247028440,9.146414760,-0.051398580,-0.023174290,-0.044268370
1640843764.500490,-0.711081390,0.503528590,9.426448820,-0.036706030,-0.033614040,-0.002680720
1640843764.502660,-1.053470610,0.534040270,10.140829090,0.003071130,0.053502620,0.011368100
1640843764.508430,-0.399072470,0.340433330,9.781844140,0.025105480,-0.003898140,0.019319360
1640843764.508989,-0.109275100,0.428016630,10.330708500,0.033624470,-0.028282400,0.034204120
1640843764.510160,0.452612610,0.170106660,9.713768960,-0.042688850,0.037044290,0.010065730
1640843764.512600,0.957833530,-0.177734570,9.866990090,-0.036542120,0.034542390,0.016620760
1640843764.515159,0.754508790,-0.113680740,9.813589100,0.034712250,0.045053660,-0.021024040
1640843764.517890,0.756639960,-0.156585680,9.140842440,0.021602210,-0.039732460,-0.042447450
1640843764.520239,0.301336590,0.016093930,9.300885200,-0.004573170,-0.003047290,0.000372530
1640843764.522820,-0.494358600,-0.140480070,9.496230130,-0.012908880,0.015626850,-0.010739270
1640843764.525130,-0.888893370,-0.321641860,10.196486470,0.019814070,-0.053069000,-0.003457070
1640843764.527560,-1.079340820,0.008995880,9.860431670,0.093096490,-0.004993380,-0.003901120
1640843764.530210,-0.888249990,-0.052171890,10.036650660,0.053969030,0.023598970,-0.032711030
1640843764.532600,-0.614123640,0.237689790,10.438225750,0.026234990,0.053592030,-0.012171270
1640843764.535290,-0.206203340,0.507385790,9.727123260,0.037819140,-0.030133130,-0.024053450
1640843764.537619,0.447602210,0.483640850,9.326709750,0.017502910,-0.044015050,0.000026820
1640843764.540350,0.770053980,0.580761310,9.130377770,0.052145120,0.064891570,0.037476410
1640843764.543860,0.675785660,0.203881380,10.022689820,0.064717220,0.027598440,0.012141470
1640843764.545150,0.543728350,0.069001260,10.318617820,0.055369750,-0.007677080,0.009410080
1640843764.547580,0.213419930,0.177568000,9.808200840,0.030386450,-0.053165860,-0.010761620
1640843764.550490,-0.384610090,0.067566070,10.148019790,-0.032746800,-0.020247690,-0.036624080
1640843764.552680,-0.769343850,0.305316420,9.758171080,-0.008115170,-0.010648370,-0.016103690
1640843764.556389,-1.040456300,0.529130760,9.679059030,0.044293690,-0.078728790,-0.005498530
1640843764.557540,-0.727116940,0.668805120,9.347383500,-0.003953280,0.004060570,0.017601250
1640843764.560160,-0.199348730,0.699020270,9.496028900,-0.011341270,0.049546360,0.051718950
1640843764.562630,0.005707900,0.417526480,10.553456310,-0.010755660,0.056111810,0.028555100
1640843764.565140,0.560567980,0.226864080,10.183671000,-0.002425910,-0.020517410,0.000686940
1640843764.567880,0.724245790,0.180851730,9.877265930,0.010147690,-0.056242950,0.003801290
1640843764.574450,0.700845180,0.069892160,9.296682360,-0.035613780,0.038799640,-0.013010200
1640843764.575389,0.558209960,0.034164920,9.357118610,-0.053992870,0.009612740,-0.012071430
1640843764.575749,-0.020982380,0.131868820,9.701601030,-0.032980750,0.022862860,0.013937060
1640843764.577540,-0.111175470,-0.150655780,9.191868780,-0.003761050,-0.000710790,0.014097990
1640843764.580170,-0.659605740,-0.266537190,10.250093460,0.053283580,-0.026318430,0.041191280
1640843764.582630,-0.832487340,-0.032166890,9.737875940,0.029647350,0.042842330,0.014901160
1640843764.585300,-0.549552200,-0.291608210,10.096055980,-0.013229250,-0.046427560,0.001218910
1640843764.587620,-0.525256340,-0.115782190,10.293136600,0.021745260,0.069113080,0.000427660
1640843764.590720,0.113596440,0.047904740,9.241771700,0.057648120,0.045299530,-0.054766240
1640843764.592610,0.077325940,0.172009510,10.086421970,0.077706580,-0.054751330,-0.020770730
1640843764.595189,0.337577520,0.585574450,8.734467510,0.031243260,0.036244100,-0.004531440
1640843764.597580,0.659365480,0.198708400,9.078110690,0.000956650,-0.020429490,0.028589370
1640843764.600580,0.048489560,-0.048016650,10.497532840,0.068484260,0.071410840,0.067260860
1640843764.603140,0.190114410,-0.147507370,9.627433780,0.117731100,0.011710820,0.012904410
1640843764.605229,-0.256383960,-0.316203500,10.760428430,0.099207470,-0.084482120,0.010316070
1640843764.607859,-0.548282620,0.004421550,9.717315670,0.038391360,0.043556090,-0.020281970
1640843764.610220,-0.398131550,0.084949590,9.373714450,0.009916720,-0.039145350,-0.064668070
1640843764.612599,-0.836346920,0.476754960,10.261278150,0.049845880,-0.019516050,-0.023707740
1640843764.615180,-0.165069160,0.937137540,8.816957470,0.060030830,0.020827350,-0.020334120
1640843764.617920,0.108571020,0.793941680,10.148039820,0.035007300,0.004677470,0.015339260
1640843764.620260,0.015592990,0.781177880,10.537668230,0.037153080,0.083096340,0.043798990
1640843764.624480,0.632632910,0.592387440,9.691850660,0.018067660,-0.044262410,0.005024670
1640843764.625140,0.333637980,0.428108220,10.247961040,-0.007307530,-0.033785400,-0.000295040
1640843764.627580,0.142667820,0.370679590,9.366776470,-0.028097630,0.046437980,-0.018458070
1640843764.630129,-0.081871660,0.241999090,9.642178540,-0.031751400,-0.054350500,-0.025480990
1640843764.632629,-0.565204980,0.232793060,9.836706160,-0.014291700,-0.037395950,0.000673530
1640843764.635360,-0.155041340,0.278245390,8.986753460,-0.041466960,0.027024750,0.002069770
1640843764.637640,-0.140244140,0.138450470,10.165328980,-0.045312940,0.077021120,0.022806230
1640843764.640720,-0.166521040,-0.000146320,10.629703520,-0.005079810,0.067421800,0.001426040
1640843764.642589,0.313704610,0.189993590,9.961323740,-0.000941750,-0.032326580,-0.027152900
1640843764.645160,0.251370190,0.150359080,9.771707530,-0.026029350,-0.001846250,-0.026069580
1640843764.647519,0.086854350,0.131958510,9.489088060,-0.051867970,0.051793470,-0.038111210
1640843764.650740,0.046769280,0.394094080,9.265348430,-0.039029130,0.004035230,-0.034651160
1640843764.652880,-0.327715400,0.307252110,9.632207870,-0.023560230,-0.024437910,-0.025162100
1640843764.655239,-0.214764100,0.238997040,9.295270920,-0.040908160,0.047175590,-0.005096200
1640843764.658609,-0.313369330,-0.026402880,9.887893680,0.004623830,0.036802880,0.001186130
1640843764.660140,-0.666611250,-0.322719400,10.975543020,0.036463150,-0.009465220,0.002901260
1640843764.662609,-0.090224440,-0.171705310,9.526606560,0.015163420,-0.008989870,0.000999870
1640843764.665200,-0.148693520,-0.337079760,10.024528500,0.000849370,-0.026094910,-0.018736720
1640843764.668030,-0.174569410,-0.285942910,10.056869510,0.006391110,0.083342200,-0.030545890
1640843764.670210,0.145076200,0.141293910,9.193049430,0.056540970,-0.048714880,-0.052343310
1640843764.674130,-0.214003910,0.346856800,10.124419210,0.041957200,-0.074733800,-0.036172570
1640843764.675160,0.252208500,0.753893320,8.845617290,-0.020843750,0.081002710,-0.006026030
1640843764.677590,0.006213010,0.680054840,10.241651540,-0.014139710,-0.000594560,-0.000645220
1640843764.680179,-0.503143790,0.535416250,11.129364010,0.019030270,-0.008864700,0.000499190
1640843764.682770,0.070885130,0.653405310,9.049680710,0.022959710,-0.076955560,-0.002008680
1640843764.685490,-0.565252010,0.437607530,10.444302560,-0.005525350,-0.055652860,-0.001838800
1640843764.690930,-0.573288740,0.428405550,9.689361570,-0.064566720,0.064858780,0.003874300
1640843764.692279,-0.155692770,0.325000820,9.496258740,-0.057187680,-0.095973890,0.013339520
1640843764.692690,-0.316467460,0.159267630,10.513596530,-0.014229120,-0.005862120,0.010713930
1640843764.695210,0.606100080,0.161700380,9.023913380,-0.015251340,0.077058380,0.005693730
1640843764.697630,0.510953720,0.104765580,10.674688340,0.000925360,-0.006555020,-0.012148920
1640843764.700189,0.363322260,0.260608380,10.275310520,-0.050292910,0.035648040,-0.036567450
1640843764.702580,0.697672490,0.364120100,8.990525250,-0.095532840,-0.090843450,-0.042678420
1640843764.705180,-0.309164910,0.382359300,10.173768040,-0.062865000,-0.022222100,-0.019244850
1640843764.707540,-0.466643780,0.340954540,9.155634880,-0.041329860,0.022372600,-0.013349950
1640843764.710160,-0.682062270,0.354128690,9.864123340,-0.023849310,-0.085930530,0.023052100
1640843764.712610,-0.881194710,0.205832480,10.030386920,-0.060082960,0.047589830,0.026361640
1640843764.715160,-0.099788810,-0.221304850,9.550203320,-0.067260870,0.035049020,0.015029310
1640843764.717620,-0.139242250,-0.164624330,10.651466370,0.003936890,0.014087560,0.000527500
1640843764.720260,0.436327520,-0.282900480,9.589736940,-0.017295780,0.021234150,-0.042314830
1640843764.722880,0.891830980,-0.544268850,9.492222790,-0.018160050,-0.013418500,-0.021770590
1640843764.725489,0.545120600,-0.959460560,9.555424690,0.070680690,0.081771610,-0.056561830
1640843764.727609,0.676468310,-1.748324040,9.144024850,0.158482800,-0.012208520,-0.123593210
1640843764.730180,0.276596780,-2.034512040,9.542749400,0.264658000,0.006751720,-0.166450460
1640843764.732580,0.135986580,-2.485833880,8.906223300,0.304766090,0.091484210,-0.260970000
1640843764.735230,-0.125435750,-2.576488020,10.175334930,0.334729250,0.028903790,-0.290751460
1640843764.737660,-0.432732430,-1.731766340,10.255515100,0.375202360,0.107312220,-0.303597840
1640843764.740270,-0.036051990,-1.064327120,9.591380120,0.372375610,0.029738250,-0.292471110
1640843764.742790,-0.231578870,0.009424610,10.182041170,0.399215520,0.074939430,-0.245325280
1640843764.745190,0.035394690,0.806125520,9.192181590,0.435645940,0.107376300,-0.240318510
1640843764.748170,0.191019180,1.092145090,9.561853410,0.470155540,0.052088510,-0.246611280
1640843764.750200,0.420849590,1.179798130,9.404841420,0.488981690,0.138409440,-0.272393260
1640843764.752840,0.609880390,1.051626090,9.523866650,0.455169380,0.138071180,-0.308828090
1640843764.755220,0.525227490,0.590257880,10.040834430,0.427694710,0.160405070,-0.346240490
1640843764.757619,0.267635350,0.171858980,10.033882140,0.416450260,0.092263530,-0.385786680
1640843764.760200,-0.184984820,-0.100008410,9.443445210,0.421704440,0.080664470,-0.413625030
1640843764.762780,-0.407787830,-0.145981390,9.059133530,0.413045350,0.061243780,-0.416004750
1640843764.765179,-1.016077160,0.087038040,9.726299290,0.380940790,0.113709290,-0.419479670
1640843764.767589,-0.531159040,0.499128130,9.206236840,0.327603580,0.138069730,-0.401899310
1640843764.770150,-0.231060250,0.792608860,10.243875500,0.320802630,0.143723200,-0.392824410
1640843764.773039,0.073590490,0.917270960,10.542988780,0.375397560,0.206346840,-0.386917680
1640843764.775230,0.696488080,1.182165500,9.631421090,0.368119840,0.130546140,-0.383286300
1640843764.777720,0.807069600,1.061770920,9.477214810,0.329806000,0.106909890,-0.370156820
1640843764.780259,0.732479510,0.611812000,9.069110870,0.264199110,0.178214910,-0.389511910
1640843764.782660,0.606629070,0.193009020,8.822979930,0.286385420,0.184644790,-0.418044720
1640843764.785210,-0.120781670,-0.144972640,10.002614970,0.322914120,0.137759760,-0.482700770
1640843764.787580,-0.698572400,-0.227086750,10.004695890,0.309929340,0.121067480,-0.538219570
1640843764.790180,-1.011319760,-0.089103270,9.534612660,0.276504520,0.088945050,-0.556515220
1640843764.792630,-1.525648470,0.164253670,9.976943970,0.238287490,0.074006640,-0.567619560
1640843764.795179,-1.251700400,0.425363480,9.351257320,0.237549870,0.120277730,-0.533285860
1640843764.797570,-0.586531580,0.661262040,9.181731220,0.265593860,0.157576800,-0.491683240
1640843764.800109,-0.235751300,0.594028120,10.233671190,0.308519600,0.146307070,-0.458462600
1640843764.802580,0.201762960,0.426881340,10.245497700,0.302192630,0.102941710,-0.447736770
1640843764.805280,0.833619360,0.251003980,9.163953780,0.276905330,0.023201110,-0.469252500
1640843764.807619,0.617009940,-0.244852240,10.042650220,0.256955650,0.082498790,-0.514280800
1640843764.810269,0.508913100,-0.291975860,9.638474460,0.276017280,0.189937680,-0.558729590
1640843764.812600,0.096954300,-0.072668260,9.958676340,0.307618170,0.020156810,-0.573755860
1640843764.815220,-0.612146380,0.096825160,10.172685620,0.267140630,0.027151410,-0.566131000
1640843764.817580,-0.715020420,0.337766860,8.850852010,0.231285410,0.055640940,-0.546640160
1640843764.820200,-1.153289200,0.560489360,9.732266430,0.244827570,0.054384770,-0.550171730
1640843764.822840,-1.338939550,0.777961670,10.044688220,0.267691970,0.072611880,-0.571362790
1640843764.825420,-0.846890270,0.972414490,9.772523880,0.245255280,0.023704770,-0.581208050
1640843764.827940,-0.454809670,0.915251200,9.892228130,0.225067170,0.059197850,-0.574061450
1640843764.830170,-0.164334180,0.626914260,10.328474040,0.207610460,0.017885870,-0.577436450
1640843764.832640,0.523198780,0.423552600,9.333105090,0.217986150,0.062102100,-0.559479120
1640843764.835160,1.022731660,0.217345330,9.154781340,0.215567650,0.034891070,-0.546994690
1640843764.837620,0.835491060,-0.196331440,10.106108670,0.196957630,0.120648760,-0.544694070
1640843764.840220,1.027660490,-0.315688400,9.170234680,0.213331010,0.092153260,-0.562757370
1640843764.842810,0.192777720,-0.349218550,10.482227330,0.243632500,-0.061181190,-0.593437250
1640843764.845219,-0.348653970,-0.165575070,9.661635400,0.212898880,0.072591030,-0.621114730
1640843764.847590,-0.701863170,0.219990190,9.256607060,0.176882770,0.017030540,-0.654338420
1640843764.850170,-1.764826890,0.621106030,10.523496630,0.186580460,0.011640790,-0.670647800
1640843764.852599,-1.452427150,1.006455060,9.018933300,0.177174810,-0.011138620,-0.668522890
1640843764.855239,-1.293264030,1.295709010,9.328957560,0.165185350,-0.048109890,-0.631508290
1640843764.857630,-0.864152130,1.040212870,9.792370800,0.164754700,0.060594080,-0.594018340
1640843764.860720,-0.123051910,0.595136050,10.057552340,0.173515080,0.010633470,-0.578229190
1640843764.862660,0.655100290,0.368616850,10.020305630,0.184300540,-0.016145410,-0.575210270
1640843764.866310,0.996437550,-0.076024250,10.356822970,0.129717600,0.009979310,-0.602348270
1640843764.867630,1.006621480,-0.248787890,9.893118860,0.117059070,0.039376330,-0.621749520
1640843764.870139,0.654289130,-0.114003220,9.665993690,0.131453620,-0.097370160,-0.651663720
1640843764.872650,-0.216876340,0.186448680,9.789026260,0.108879820,-0.085333000,-0.658449710
1640843764.875200,-0.362669910,0.683462920,8.514238360,0.067448630,-0.003211200,-0.650605680
1640843764.877750,-1.070242050,0.904284890,10.208960530,0.051495440,-0.024293370,-0.661188540
1640843764.880149,-1.648422720,1.159495830,10.615243910,0.079487280,-0.011670590,-0.666810630
1640843764.882680,-1.145714640,1.345606210,9.514328000,0.063748670,-0.148588450,-0.655375660
1640843764.885160,-1.349009280,1.213866470,10.174930570,0.010493400,-0.103513910,-0.633876140
1640843764.887630,-0.819095490,0.838577750,9.404069900,-0.019040710,-0.039204960,-0.602345110
1640843764.890169,-0.074937180,0.391680660,9.380243300,0.014640390,-0.100910690,-0.580838320
1640843764.892640,0.335870920,-0.082697180,9.848783490,0.046250230,-0.077568020,-0.581438900
1640843764.895200,1.084043980,-0.431691200,9.528011320,0.025033960,-0.024993720,-0.581361470
1640843764.897689,1.195292120,-0.522174060,9.890049930,0.025291740,-0.052769490,-0.600527350
1640843764.900580,0.684775170,-0.471125190,10.508935930,0.017532710,-0.127314050,-0.621657130
1640843764.902819,0.360195070,-0.003113220,9.361883160,-0.000266730,-0.117099310,-0.629463790
1640843764.906570,-0.525602400,0.407083180,9.378004070,0.001671910,-0.164635510,-0.643752630
1640843764.907840,-1.618215200,0.870341060,9.951877590,-0.014877320,-0.123181950,-0.638975260
1640843764.910420,-1.709143880,1.411004660,8.781748770,-0.032135840,-0.177182270,-0.601384160
1640843764.912590,-2.083134890,1.241878750,10.224626540,-0.048318510,-0.233861850,-0.584366920
1640843764.915160,-1.526412610,1.139195800,9.667500500,-0.042697790,-0.079628850,-0.544305210
1640843764.917559,-0.520061310,0.701211390,9.743117330,-0.026573250,-0.192023840,-0.528286460
1640843764.920140,-0.080188270,-0.037586740,11.103689190,-0.023932760,-0.127689540,-0.510358870
1640843764.922659,1.066701770,-0.397843390,9.255996700,-0.010468070,-0.122250630,-0.516206090
1640843764.925180,1.115559940,-0.695871950,10.151937480,-0.010277330,-0.271213110,-0.544393240
1640843764.927580,0.797092440,-0.408759800,9.496892930,-0.073912750,-0.173690960,-0.560683190
1640843764.930130,0.753893910,0.077431230,8.625070570,-0.105738660,-0.255978110,-0.569199140
1640843764.932649,-0.515560030,0.379384580,10.755199430,-0.076016800,-0.233696430,-0.556090650
1640843764.932920,-0.881718220,1.098053460,9.426132200,-0.056755550,-0.187723380,-0.552876350
1640843764.938760,-1.305957200,1.525533560,10.033895490,-0.078330930,-0.338922470,-0.515917000
1640843764.940690,-1.834467770,1.526036020,10.269073490,-0.131356750,-0.212153840,-0.454288780
1640843764.942870,-1.268386840,1.292635800,8.933310510,-0.157629000,-0.257718650,-0.431846140
1640843764.946740,-1.229135750,0.723086600,10.458362580,-0.116530080,-0.345259960,-0.398342400
1640843764.947710,-0.329437460,0.227021430,9.082267760,-0.096243620,-0.211864750,-0.391690520
1640843764.950170,0.758458500,-0.371961120,9.339599610,-0.113047680,-0.282658640,-0.423599870
1640843764.952690,0.819457950,-0.735642310,10.743266110,-0.112444180,-0.187663750,-0.430345590
1640843764.953019,1.520231130,-0.801345830,9.093535420,-0.107039530,-0.233957220,-0.461651440
1640843764.957600,1.071704510,-0.720039010,10.066739080,-0.080379840,-0.387188820,-0.451374080
1640843764.960260,0.266336530,-0.278249650,9.135314940,-0.080409670,-0.237461950,-0.412246670
1640843764.962669,-0.361537430,0.064164150,8.761032100,-0.086726260,-0.364457130,-0.406788380
1640843764.962950,-1.879958030,0.602109730,10.481808660,-0.091891010,-0.369946720,-0.366623790
1640843764.967650,-1.809692620,1.110031960,8.781616210,-0.117951650,-0.320789310,-0.369724720
1640843764.970379,-1.863322620,1.015209320,10.335131650,-0.113880630,-0.385077330,-0.369559230
1640843764.972710,-1.591122510,1.181255460,10.296184540,-0.079499190,-0.225456060,-0.343978430
1640843764.972990,-0.112188210,0.795619670,9.256167410,-0.066904750,-0.369235870,-0.336867600
1640843764.977620,0.352268100,0.183824990,10.498324390,-0.070746250,-0.325690210,-0.275656580
1640843764.980370,1.356152650,-0.185229900,8.741645810,-0.085075210,-0.246274470,-0.279261200
1640843764.983810,1.424517990,-0.959797200,9.772791860,-0.065319260,-0.432366220,-0.298300450
1640843764.984340,0.761534150,-0.745394590,9.546112060,-0.056222090,-0.339213070,-0.326386180
1640843764.987640,0.593983410,-0.383486120,8.698176380,-0.096659370,-0.418958070,-0.369665030
1640843764.990170,-0.775012910,-0.096765300,10.562560080,-0.097803790,-0.392361070,-0.330762570
1640843764.992879,-1.167940500,0.804060880,9.171363830,-0.095665480,-0.336064490,-0.315421880
1640843764.993800,-1.517940760,0.980355500,9.886993410,-0.081415480,-0.464341100,-0.266099010
1640843764.997599,-1.614882230,1.295163990,9.620083810,-0.082829610,-0.323182430,-0.178727520
1640843765.000130,-0.889465690,1.155572890,9.020695690,-0.086736690,-0.391106370,-0.175794970
1640843765.002940,-0.632695790,0.567393420,10.262579920,-0.075328340,-0.404164220,-0.156804920
1640843765.003399,0.536372900,0.474436760,8.706660270,-0.087334200,-0.350341170,-0.175514790
1640843765.007580,0.856082140,-0.212049860,9.938068390,-0.100183510,-0.395415780,-0.208832350
1640843765.010160,0.936448690,-0.373710960,9.776686670,-0.092574960,-0.325955450,-0.200317810
1640843765.012640,0.865941110,-0.401754530,8.956425670,-0.084182630,-0.473567930,-0.230065020
1640843765.012930,0.088015450,-0.421446290,9.283583640,-0.092212880,-0.454665780,-0.204946150
1640843765.017629,-0.275810870,-0.001509910,8.481391910,-0.096999120,-0.411713210,-0.180973160
1640843765.020259,-1.311921000,0.081215440,9.862384800,-0.075677040,-0.470553340,-0.177842390
1640843765.023370,-1.269099590,0.666258040,9.408874510,-0.075773890,-0.439788460,-0.139296070
1640843765.023840,-1.199487090,0.805726830,9.826393130,-0.097799320,-0.459002020,-0.127439220
1640843765.027590,-1.062939760,0.728223260,10.155920980,-0.081525760,-0.350725740,-0.109803700
1640843765.030120,-0.416782650,0.834638180,9.733558650,-0.056394940,-0.509631690,-0.094306480
1640843765.032680,-0.320446520,0.700822590,9.538750650,-0.080181680,-0.527066050,-0.063346340
1640843765.032920,0.725661220,0.673674880,7.880344870,-0.152464240,-0.458525210,-0.052392490
1640843765.037670,0.474560020,0.166988940,9.858602520,-0.167207420,-0.410088930,-0.053392350
1640843765.040130,0.585868420,0.078678560,9.394403460,-0.095826390,-0.405360790,-0.056077540
1640843765.042960,0.517407360,-0.064868160,9.786458020,-0.068849340,-0.607648490,-0.082041330
1640843765.043700,-0.121632350,0.117180510,9.314044950,-0.128604490,-0.451102850,-0.055855520
1640843765.047590,-0.487644400,0.285745440,8.833533290,-0.180922460,-0.508518460,-0.051088640
1640843765.050459,-1.451902510,0.230038790,10.342337610,-0.176911070,-0.536254050,-0.018867850
1640843765.052600,-1.037323950,0.656653110,8.318144800,-0.132274640,-0.534241020,-0.010159610
1640843765.052909,-0.995854680,0.530002060,9.693711280,-0.109528030,-0.560079570,-0.012177230
1640843765.057670,-0.374106260,0.849097130,9.235138890,-0.158557310,-0.337208870,0.031512980
1640843765.060580,0.414060650,0.572414280,9.317427640,-0.189355030,-0.518180370,0.028076770
1640843765.062760,0.642719920,0.102144150,10.023527150,-0.154353710,-0.486257730,0.071531560
1640843765.063330,1.290103200,-0.017814030,8.238366130,-0.099815450,-0.483238760,0.075620440
1640843765.067590,0.535094980,-0.470260530,9.409772870,-0.087107730,-0.558316890,0.089381660
1640843765.070180,0.366067320,-0.220537350,8.726089480,-0.137069820,-0.492173520,0.081563000
1640843765.072640,-0.264198040,-0.279750880,9.108501430,-0.187067700,-0.526730840,0.037474930
1640843765.073160,-0.709347900,0.094410080,9.553945540,-0.145524740,-0.467434610,0.028368830
1640843765.077649,-0.961615980,0.718225660,9.672953610,-0.116895150,-0.522464570,0.013539200
1640843765.078040,-1.037063000,1.042313810,9.250090600,-0.139345230,-0.525041040,0.065889950
1640843765.082970,-0.439438580,1.104981180,8.741113660,-0.157906160,-0.536199030,0.128582150
1640843765.083660,-0.414056720,0.580815320,9.466216090,-0.162054610,-0.414186720,0.165206210
1640843765.087630,0.438847150,0.351226480,8.791822430,-0.109642770,-0.489683510,0.179585840
1640843765.090139,0.384955910,-0.019065890,10.050962450,-0.119534150,-0.543712200,0.175254080
1640843765.092660,0.853318100,0.030825300,8.647963520,-0.185206550,-0.434941140,0.167311730
1640843765.093259,0.581429600,-0.180492730,9.651877400,-0.213319110,-0.563043360,0.157801820
1640843765.097750,0.109882280,-0.000558170,9.580509190,-0.182606280,-0.464630220,0.179718450
1640843765.098520,0.328379010,0.191008540,8.226723670,-0.131402920,-0.542092320,0.189569610
1640843765.102690,-0.525504590,0.264095780,9.823034290,-0.143329840,-0.478950230,0.212773710
1640843765.103260,-0.461583410,0.669968780,8.741010670,-0.182233800,-0.419589940,0.205467690
1640843765.107689,-0.869980100,0.465309800,9.725049020,-0.211325330,-0.595626350,0.184710350
1640843765.108170,-0.779336270,0.712521670,9.275805470,-0.189498070,-0.498649570,0.214079050
1640843765.112660,-0.365352360,0.545841990,8.655247690,-0.166687380,-0.503279390,0.200586020
1640843765.112959,-0.203367560,0.394871920,9.482906340,-0.162605990,-0.462737740,0.265184130
1640843765.117669,0.482164740,0.373558460,8.821043970,-0.194180060,-0.442902800,0.298985840
1640843765.118029,0.876957480,-0.442668290,8.989717480,-0.199723240,-0.460976450,0.320714710
1640843765.122599,0.953509210,-0.751850960,9.194956780,-0.103604810,-0.453265070,0.326940450
1640843765.122840,0.666841750,-0.837899270,9.123397830,-0.083012890,-0.485643800,0.279264180
1640843765.127679,0.447623850,-0.615912800,8.896241190,-0.119511780,-0.509221850,0.280728970
1640843765.128100,-0.180798680,-0.257646050,9.311853410,-0.175850090,-0.444448020,0.269003210
1640843765.132660,-0.519273400,0.107023200,9.181865690,-0.144249250,-0.418323370,0.250305290
1640843765.132969,-0.857683900,0.507025900,9.226732250,-0.056526060,-0.521126450,0.272013250
1640843765.137810,-0.936486660,0.887811840,8.847168920,-0.060565780,-0.486861260,0.298225970
1640843765.138470,-0.367767450,0.909467520,8.206963540,-0.108766560,-0.426502560,0.337257980
1640843765.142700,-0.269805250,0.614428220,9.570380210,-0.149898260,-0.414775370,0.360952410
1640843765.143050,0.341103850,0.223198160,9.384872440,-0.095182660,-0.401915700,0.367908240
1640843765.147879,0.836132650,-0.284281220,9.293261530,-0.050026190,-0.474311470,0.354345140
1640843765.148520,0.636210020,-0.357788590,9.713864330,-0.041514640,-0.422301950,0.369453520
1640843765.152639,0.675802770,-0.303238030,8.538920400,-0.098831970,-0.449006350,0.365607500
1640843765.152900,0.160260680,-0.252654460,9.183381080,-0.152961950,-0.512108330,0.373408290
1640843765.157660,-0.135022190,0.171072890,8.544036870,-0.115656870,-0.395953740,0.388993410
1640843765.157960,-0.332544420,0.239225520,9.175929070,-0.075963160,-0.452108740,0.351022270
1640843765.162900,-0.857465510,0.904482600,9.910078050,-0.044085090,-0.429157970,0.356899230
1640843765.163319,-0.565947230,1.394173260,8.693566320,-0.156526270,-0.498595920,0.346599520
1640843765.167660,-0.587057410,1.172314520,9.432781220,-0.223177700,-0.464001390,0.388591020
1640843765.167909,-0.275235410,1.135566590,8.609065060,-0.175564020,-0.371261030,0.403799180
1640843765.172680,0.067768870,0.443671490,9.261305810,-0.096869480,-0.492887260,0.424108000
1640843765.173060,0.457736020,0.166619870,8.812131880,-0.075471410,-0.393307270,0.477960800
1640843765.177870,1.145567540,-0.338594170,8.433583260,-0.170739010,-0.395762920,0.458784460
1640843765.178690,0.952294350,-0.881934640,9.789002420,-0.199429720,-0.319823710,0.460377400
1640843765.182690,1.011724710,-0.877605020,8.827361110,-0.145864500,-0.387439220,0.401219790
1640843765.183210,0.490587290,-0.862720490,9.249798770,-0.059404980,-0.504504260,0.363740320
1640843765.187700,0.048541770,-0.118624340,8.132125850,-0.074683140,-0.358159840,0.377936660
1640843765.188079,-0.609835920,0.167029380,8.687200550,-0.135108870,-0.410814640,0.392548830
1640843765.193090,-1.148996830,0.373666790,9.323751450,-0.130094620,-0.373159410,0.427045020
1640843765.193539,-0.990731360,0.602777900,8.807483670,-0.079193730,-0.437302950,0.421089020
1640843765.197660,-0.970385490,0.619283680,9.393388750,-0.025239590,-0.380852820,0.442534690
1640843765.197980,-0.258313090,0.780887420,8.881357190,-0.060260300,-0.344829260,0.459967580
1640843765.202649,0.162299630,0.368292870,9.395999910,-0.105482360,-0.397250150,0.469596740
1640843765.203029,1.063922410,-0.092876970,8.551958080,-0.087487710,-0.321805570,0.490850270
1640843765.207710,1.101727490,-0.590797900,9.288444520,-0.030559310,-0.355945560,0.459021420
1640843765.208070,0.782915770,-0.612121340,9.197581290,0.012665990,-0.376257390,0.452345670
1640843765.212669,0.493582580,-0.402173760,8.674891470,-0.056882210,-0.493566780,0.412906770
1640843765.213009,-0.328956070,-0.230270650,8.896755220,-0.116609060,-0.388477800,0.408780660
1640843765.217670,-0.425767540,0.215844880,8.577580450,-0.089335450,-0.350007470,0.405946370
1640843765.218089,-1.129383680,0.527382610,9.935268400,-0.008456410,-0.373376910,0.425344740
1640843765.222649,-0.807723280,1.149142270,8.794051170,-0.004646180,-0.381071930,0.487662940
1640843765.222970,-0.657745060,0.933415230,9.386128430,-0.079660130,-0.434432980,0.509247240
1640843765.227900,-0.306917280,0.638879360,8.784820560,-0.077419000,-0.319160550,0.540065820
1640843765.228350,0.414227040,0.311354070,8.786300660,-0.036272410,-0.419676360,0.505326810
1640843765.232640,0.499382260,-0.043605560,9.475500110,-0.022870310,-0.318591360,0.485381570
1640843765.232910,1.173018340,-0.108768750,8.435594560,-0.044181950,-0.346441570,0.464920730
1640843765.237660,0.770125810,-0.545603570,9.666744230,-0.071041290,-0.377103780,0.448365600
1640843765.238030,0.840201440,-0.364343230,7.978630070,-0.047487020,-0.309312370,0.457674260
1640843765.242740,0.238652350,-0.399257840,8.941290860,-0.021879370,-0.422014300,0.451062710
1640843765.243770,-0.441875370,-0.312033180,8.789556500,0.001542270,-0.299374820,0.481304620
1640843765.247630,-0.470822480,-0.023760320,8.518602370,0.008910890,-0.417511250,0.455719320
1640843765.247939,-1.148950460,-0.042527500,9.939263340,-0.013113020,-0.341451260,0.460501070
1640843765.252640,-0.389307890,0.256669250,8.439369200,0.011365120,-0.301213560,0.453785150
1640843765.252889,-0.440147370,0.275106610,9.994241710,0.032141800,-0.344055920,0.437045160
1640843765.257779,0.271331670,0.545539080,8.702366830,0.026926400,-0.246889930,0.470951290
1640843765.259670,0.904623810,0.456452310,8.452437400,0.018614530,-0.375796880,0.487238230
1640843765.262960,0.741848290,0.022648560,8.994627950,0.021009150,-0.239989210,0.530502320
1640843765.263450,1.029023530,-0.267372250,8.163764000,0.074636940,-0.304858420,0.511643290
1640843765.267700,0.065071790,-0.607569100,9.921071050,0.091992340,-0.391368630,0.471298460
1640843765.268080,-0.005482050,-0.379619900,8.466508870,0.047247120,-0.306993810,0.438433950
1640843765.272650,-0.528633300,-0.157572190,9.330588340,0.006777050,-0.365024860,0.399370580
1640843765.273000,-1.049015280,0.338761360,9.617330550,0.002908710,-0.239534710,0.403371540
1640843765.277979,-0.580422820,0.912103530,8.676578520,0.050680350,-0.373092350,0.440779390
1640843765.278380,-0.707189380,1.015311720,9.461617470,0.046394770,-0.328283010,0.485475450
1640843765.282650,0.283761140,1.026723270,8.054885860,0.027307870,-0.225681100,0.515002070
1640843765.282920,0.376117050,0.460906480,9.578029630,0.045245890,-0.290529520,0.521764280
1640843765.287670,0.571979880,0.066193410,9.335939410,0.050424050,-0.249603420,0.502966400
1640843765.287950,0.989480850,-0.212595310,8.624532700,0.042979430,-0.373680980,0.476707580
1640843765.292650,0.336202200,-0.575786470,9.293332100,0.024737420,-0.282791290,0.467568700
1640843765.293010,0.398997870,-0.496549550,8.209126470,0.033295160,-0.270092490,0.462010530
1640843765.298790,-0.296859000,-0.405583590,9.260476110,0.057625770,-0.337398050,0.464338060
1640843765.299330,-0.398426030,-0.167529480,8.616752620,0.047685220,-0.243622090,0.457149830
1640843765.303700,-0.481396560,0.111907760,9.019920350,0.077205900,-0.315280320,0.437124160
1640843765.304160,-0.820764420,0.416113940,9.584510800,0.076831880,-0.284798470,0.417852460
1640843765.307750,-0.060326310,0.606620010,8.607756610,0.060252850,-0.305424660,0.425852920
1640843765.308159,-0.032104580,0.470134020,9.387245180,0.076669480,-0.240720840,0.441823990
1640843765.312670,0.414995430,0.357958880,8.977483750,0.094404840,-0.207495730,0.456310870
1640843765.313000,0.585620520,0.122256390,8.964939120,0.102508080,-0.317207010,0.472079280
1640843765.317639,0.581902090,-0.234646020,8.548127170,0.085684660,-0.266131790,0.478656680
1640843765.317940,0.664874140,-0.538587450,8.485599520,0.101707880,-0.257515940,0.460590480
1640843765.323060,0.049928470,-0.445302070,9.374576570,0.114840280,-0.219118620,0.442850680
1640843765.323660,0.011644730,-0.314662640,9.249498370,0.102302450,-0.283747940,0.423789020
1640843765.327920,-0.375472310,-0.039280050,9.479434010,0.111423460,-0.272490140,0.421157540
1640843765.328940,-0.436209320,0.430994540,9.021848680,0.100275900,-0.238741960,0.409631520
1640843765.332680,-0.592762890,0.771455650,9.354259490,0.101161020,-0.279648600,0.423316750
1640843765.333089,-0.465220450,1.247840760,8.774497030,0.078271330,-0.256723200,0.426732060
1640843765.337690,0.107429670,1.146277670,8.743894580,0.044199820,-0.261472200,0.426043600
1640843765.338739,0.298250410,0.904345040,9.160919190,0.079657150,-0.151146990,0.444179830
1640843765.344519,0.754802050,0.489253370,9.046184540,0.087523470,-0.219100760,0.421646300
1640843765.344980,0.715185280,-0.039025330,9.509467120,0.089626010,-0.256137550,0.448109240
1640843765.347750,0.748642270,-0.425707310,8.327870370,0.065346060,-0.216059430,0.444147080
1640843765.348110,0.344599690,-1.012264730,9.155415530,0.056101390,-0.249339670,0.447875350
1640843765.352630,-0.189523920,-0.863655450,8.985157010,0.113800190,-0.174140970,0.446777110
1640843765.353000,-0.238656460,-0.781506600,8.950795170,0.118425510,-0.279350640,0.388671550
1640843765.357689,-0.583877920,-0.218239170,9.504916190,0.119648880,-0.180174410,0.376591090
1640843765.358090,-0.207696930,0.457616480,8.473957060,0.096026080,-0.163152860,0.341331960
1640843765.363139,-0.244182380,0.680273470,9.791996000,0.090840460,-0.213450190,0.355798040
1640843765.363790,0.162986430,1.141339780,8.617875100,0.132969020,-0.146579760,0.409376620
1640843765.367659,0.399363460,0.663629470,9.014686580,0.144587490,-0.260274140,0.410266310
1640843765.368039,0.141922790,0.460232380,9.312374110,0.150546430,-0.154624890,0.440564810
1640843765.372820,0.433173420,0.168184310,8.421585080,0.099541250,-0.235624630,0.415076320
1640843765.373649,0.031883380,-0.411004100,9.907762530,0.082057720,-0.200559230,0.406810730
1640843765.377679,0.166388030,-0.240012140,8.732782360,0.112871820,-0.122964380,0.386632920
1640843765.378150,0.001354070,-0.404402520,9.712662700,0.136053610,-0.261350040,0.372850980
1640843765.382700,-0.118904960,-0.166652070,9.138811110,0.153708490,-0.142645840,0.420500430
1640843765.383060,0.239438150,-0.031873950,8.519597050,0.130765140,-0.197465760,0.400176700
1640843765.387719,-0.320751700,0.025948220,10.054192540,0.134606660,-0.154779870,0.404511480
1640843765.388120,-0.031042720,0.528198960,8.582178120,0.140544770,-0.185588020,0.370487570
1640843765.392660,-0.126832140,0.620379270,9.530416490,0.115723920,-0.266397060,0.343647690
1640843765.392880,-0.110943470,0.883779590,8.962999340,0.122371320,-0.107702620,0.372543870
1640843765.397680,0.276911740,0.892377850,8.676812170,0.102521480,-0.201003270,0.373248790
1640843765.398090,0.156293750,0.524027350,9.620933530,0.108212230,-0.128319870,0.423768160
1640843765.402860,0.636787300,0.185177650,8.426395420,0.131371620,-0.098286580,0.437538420
1640843765.403530,0.352977720,-0.413653310,9.850591660,0.142300140,-0.197157260,0.417707890
1640843765.407660,0.155836790,-0.551638720,9.184052470,0.150723800,-0.149801400,0.404900370
1640843765.407970,0.377183880,-0.677390750,8.556324960,0.120012460,-0.203204170,0.355954410
1640843765.414029,-0.144423410,-0.697564720,9.713811870,0.137576460,-0.081431870,0.337523250
1640843765.414620,-0.057433050,-0.077346650,8.909981730,0.167933120,-0.093898180,0.318174090
1640843765.418949,-0.328555350,0.335707460,9.478866580,0.162182750,-0.234341670,0.327868790
1640843765.419530,-0.400639000,0.513586400,8.765087130,0.164136290,-0.159604830,0.373572050
1640843765.422700,-0.142034280,0.806906520,8.527614590,0.147543860,-0.167353470,0.376051660
1640843765.423080,-0.382576320,0.698744710,9.774367330,0.155782710,-0.119929030,0.392422170
1640843765.427680,0.140631530,0.588896690,9.256939890,0.153599650,-0.107483570,0.392761860
1640843765.428229,0.364180000,0.441178080,9.777518270,0.150245430,-0.151327270,0.367107990
1640843765.432639,0.360717480,0.148139540,9.673443790,0.133849700,-0.120356700,0.374282900
1640843765.432950,0.619837460,0.212382640,8.748836520,0.117874170,-0.162714720,0.365167890
1640843765.437670,0.372362230,-0.001698090,9.167918210,0.112894200,-0.153024490,0.347441430
1640843765.438120,0.435190470,-0.043105020,8.737770080,0.115063780,-0.074818730,0.343151420
1640843765.442629,0.264223010,0.089227020,9.232832910,0.136320290,-0.097152580,0.299945500
1640843765.442960,-0.174572240,0.154665160,9.871097560,0.130741310,-0.120639800,0.314180580
1640843765.447650,-0.163606790,0.425336930,9.009468080,0.093506280,-0.149111450,0.336456300
1640843765.448000,-0.413359050,0.293899740,9.378587720,0.092023620,-0.156632070,0.339888070
1640843765.452750,-0.542349640,0.456619620,9.199462890,0.113029790,-0.080993780,0.394575300
1640843765.453270,-0.108445930,0.379810480,8.795648570,0.131702420,-0.129772740,0.384660070
1640843765.457720,-0.023127840,0.090270530,9.740514760,0.119477510,-0.081500420,0.371170070
1640843765.458330,0.671230200,0.312186810,8.889931680,0.106184170,-0.022269780,0.357794700
1640843765.463070,0.760397140,0.005796740,9.753764150,0.103226320,-0.108237580,0.329086270
1640843765.463699,0.757093970,-0.035219890,9.396439550,0.110042100,-0.052088500,0.329695640
1640843765.467720,0.841181160,-0.022404110,8.665022850,0.142221200,-0.113053630,0.311313630
1640843765.468089,-0.042793220,-0.243140940,9.764812470,0.146169980,-0.094819070,0.329549640
1640843765.472689,-0.230733170,0.099558930,8.523254390,0.118975360,-0.088641070,0.328150450
1640843765.472970,-0.768708470,-0.017836020,9.609533310,0.095188640,-0.174824920,0.309181300
1640843765.477650,-1.003448490,0.271677520,9.517600060,0.108942380,-0.040028980,0.313535270
1640843765.478080,-0.555212380,0.684718010,9.279726030,0.127223130,-0.120288140,0.305920840
1640843765.482890,-0.550095800,0.618109170,10.372079850,0.119148210,-0.087498140,0.346577260
1640843765.483470,0.532207490,0.827323730,8.594696040,0.103320200,-0.029179460,0.370433990
1640843765.487680,0.745986040,0.345249740,10.001718520,0.108771050,-0.090615450,0.377814470
1640843765.487980,0.776108800,0.168436100,9.551825520,0.128220020,-0.020015240,0.374341010
1640843765.492710,1.160389540,0.159645410,8.700411800,0.113256300,-0.170218990,0.327743650
1640843765.493450,0.394569810,-0.032558280,9.912846570,0.064715750,-0.054639580,0.311379160
1640843765.500249,0.342619780,0.221192120,8.697093010,0.039887420,-0.021341440,0.282908920
1640843765.500749,-0.332278100,0.235517670,10.156698230,0.068488720,-0.137233750,0.267936290
1640843765.502620,-0.681171540,0.491018860,9.276876450,0.080494570,-0.032027060,0.315104400
1640843765.502910,-0.413990680,0.542404120,8.740187640,0.069655490,-0.131419300,0.343975510
1640843765.507650,-0.858223260,0.215643850,10.196447370,0.073188550,-0.040589270,0.383166970
1640843765.508020,-0.158436670,0.204442810,8.851144790,0.087848310,-0.029592210,0.385379760
1640843765.512889,0.147368730,-0.172656760,10.156340600,0.091667480,-0.120182340,0.351145860
1640843765.513559,0.622085510,-0.206901000,9.444105150,0.092858080,0.050233310,0.325606790
1640843765.517650,1.307314990,-0.033088570,9.032926560,0.090172890,-0.039356950,0.286383930
1640843765.517979,0.842089120,0.017360490,10.117642400,0.083112720,-0.013235210,0.283455850
1640843765.522630,1.048562530,0.202360720,8.304845810,0.073038050,-0.042893000,0.309197600
1640843765.522990,0.356630180,0.007169470,9.430341720,0.119371720,-0.098291040,0.337530700
1640843765.527690,-0.440005600,-0.015108530,9.355407710,0.138314070,0.032944980,0.338807790
1640843765.528080,-0.614219250,0.142496420,9.331503870,0.124521550,-0.104101010,0.315974650
1640843765.532800,-1.286224840,0.062334340,10.514558790,0.093998040,-0.051589320,0.304620030
1640843765.533450,-0.826877650,0.243335140,9.103707310,0.092771660,-0.009001790,0.281444220
1640843765.537750,-0.588688370,0.471633020,10.078842160,0.127099450,-0.090372580,0.281222250
1640843765.538339,-0.060757070,0.541686590,9.401406290,0.122371340,0.034254790,0.329819350
1640843765.542600,0.925871730,0.496687350,8.966137890,0.101360690,-0.043496500,0.355303380
1640843765.542940,0.950650100,0.230438380,10.200140000,0.110724570,0.025708980,0.370013710
1640843765.547710,1.268105630,-0.036566460,9.207519530,0.112764560,-0.000549850,0.337143300
1640843765.548159,0.902489840,-0.030726150,9.874417300,0.130540150,-0.122129920,0.308676090
1640843765.552640,0.198660750,0.102024150,9.485700610,0.087657580,-0.004917380,0.287443400
1640843765.552970,-0.051001750,0.372051920,8.944690700,0.047661370,-0.066727410,0.282290580
1640843765.557619,-0.891485810,0.559823270,10.007752420,0.056612490,-0.025820730,0.307697000
1640843765.557900,-0.697703540,0.552474740,8.984041210,0.068129580,0.007338820,0.321680250
1640843765.562830,-0.538558360,0.459149660,9.844090460,0.118212420,-0.035242740,0.351263580
1640843765.563540,-0.494329390,0.160618560,10.113752370,0.135503710,0.046686830,0.335621830
1640843765.567629,0.379380430,0.050082620,9.363415720,0.083999340,-0.055676700,0.330029460
1640843765.568009,0.597607730,-0.172201370,9.954916000,0.074072180,0.002273920,0.338576730
1640843765.572770,1.014496090,-0.481983450,9.256278990,0.085099050,0.078973180,0.302343070
1640843765.574299,0.976158140,-0.229043840,9.672740940,0.145506870,-0.037415330,0.306656990
1640843765.577750,0.510470870,-0.011881260,9.478529930,0.132323820,-0.009189550,0.310230310
1640843765.581090,0.532458070,0.091087540,8.638748170,0.063492360,-0.022226570,0.318539140
1640843765.582899,-0.274846730,0.254150030,10.062908170,0.094139560,0.025272370,0.320927770
1640843765.583670,-0.461573900,0.266920390,9.806933400,0.122985240,0.040355320,0.294327740
1640843765.587710,-0.429102540,0.416750220,10.041653630,0.154259800,-0.049178310,0.307081670
1640843765.588110,-0.640960400,0.448170570,10.085802080,0.136479770,0.046469280,0.305923880
1640843765.592630,-0.183275310,0.318664040,9.427828790,0.089085100,0.023666020,0.308470460
1640843765.592880,-0.207039480,0.481778890,9.957240100,0.092579420,-0.028662390,0.326636430
1640843765.597669,0.203243230,0.306614490,9.230897900,0.070704520,0.020174680,0.309161870
1640843765.598110,0.685334920,0.182789850,9.387666700,0.100396600,0.020590420,0.317402210
1640843765.602660,0.447630410,0.283668160,10.314013480,0.128905490,0.078208770,0.297798220
1640843765.602990,0.787656130,0.256415810,9.750265120,0.064487760,0.006231670,0.291480120
1640843765.607659,0.619246300,0.375764520,9.834971430,0.037442150,-0.013564530,0.325985310
1640843765.608000,0.214829390,0.132455480,9.699230190,0.049652160,0.063058740,0.305856700
1640843765.612759,-0.069723860,0.201738180,9.629379270,0.087316350,-0.007750090,0.320534500
1640843765.615120,-0.596060280,0.440824210,9.784316060,0.095869600,-0.038833920,0.338004590
1640843765.617750,-0.307291900,0.270061550,9.196592330,0.018587700,0.045445560,0.311657760
1640843765.619109,-0.079723620,0.358099550,9.871241570,0.019180770,0.102333730,0.295081730
1640843765.622650,-0.106398680,0.219284450,10.542106630,0.076335670,0.090046230,0.255815710
1640843765.622929,0.514767290,0.191129130,9.699515340,0.103265050,-0.009329620,0.259296600
1640843765.627699,0.494657930,0.283172280,9.415225030,0.082622460,0.008226930,0.298133430
1640843765.628110,0.377325920,-0.173160940,9.290292740,0.017586350,0.064758980,0.328576620
1640843765.632670,0.336833510,-0.362437460,9.453138350,0.058649480,0.011193750,0.356841090
1640843765.633080,-0.008772280,-0.562802910,9.816857340,0.129514960,0.029271850,0.313521980
1640843765.637719,0.128913800,-0.457775180,9.776103020,0.130639970,0.074067720,0.286258790
1640843765.638130,-0.164273290,-0.019848750,10.448196410,0.107620660,0.047001250,0.281268360
1640843765.642910,-0.196509390,0.072193410,10.103953360,0.067380060,0.008875130,0.260901390
1640843765.643509,0.210655300,0.355022730,9.416558270,0.095099200,0.007355210,0.290566650
1640843765.647610,-0.011247840,0.343220620,9.848546980,0.162576140,0.104039910,0.305309920
1640843765.647859,0.107381000,0.192900630,9.924427030,0.175508860,0.062835220,0.313699250
1640843765.652720,0.045768300,0.358033360,9.941859250,0.159321770,-0.040213770,0.334499840
1640843765.653280,-0.005813740,0.171441170,9.588583950,0.086863340,0.010085110,0.296288730
1640843765.658800,0.242357090,0.203210680,9.612794880,0.067342820,0.072106730,0.288490980
1640843765.659220,-0.139091190,0.386984740,10.555228230,0.134810810,0.062647470,0.283047560
1640843765.662660,0.083478170,0.307637300,10.153666500,0.131680070,-0.006401540,0.280895860
1640843765.662969,0.359676840,0.469312820,9.671605110,0.124278680,0.024071340,0.328184660
1640843765.667750,-0.003920190,0.237215070,10.265478130,0.093288720,0.077383230,0.328175750
1640843765.668140,0.111149740,0.279865530,10.198156360,0.068041680,0.020524860,0.330010060
1640843765.673070,0.122537900,0.417616160,9.881752970,0.085669760,-0.034935780,0.307014580
1640843765.673480,0.247561310,0.241204560,9.618461610,0.076754400,0.055396560,0.261682300
1640843765.677670,0.376859040,0.553449330,9.902056690,0.086988490,0.111421940,0.264169250
1640843765.677980,0.043862440,0.677067580,10.365578650,0.066474080,0.018611550,0.267300010
1640843765.682730,0.303031440,0.563353060,9.638677600,0.012265150,-0.009956960,0.296250020
1640843765.683140,0.139507730,0.407166720,9.605394360,0.038644670,0.043919690,0.348509850
1640843765.687650,-0.387982460,-0.153950410,10.317584990,0.085708510,0.043678280,0.347760380
1640843765.687950,-0.008217020,-0.247809420,9.948815350,0.108878320,0.018291180,0.346970590
1640843765.692839,0.071230340,-0.285353660,10.037696840,0.080810490,0.053033240,0.318533180
1640843765.693519,0.431040910,-0.367636260,10.027686120,0.030036270,0.117354120,0.283601880
1640843765.697700,0.660416310,-0.033341680,10.202080730,0.061683350,0.094822040,0.265759200
1640843765.698060,0.433683900,0.058867620,10.026022910,0.114755330,0.029081100,0.264892010
1640843765.702690,0.560135600,0.244004320,9.336701390,0.126951960,0.019417700,0.306490150
1640843765.703060,0.107992170,0.315376010,9.744771960,0.102190700,0.070537630,0.336845250
1640843765.707680,-0.321219800,0.023786410,10.121043210,0.079362090,0.065702210,0.333359870
1640843765.708130,-0.248254420,0.086661340,10.236732480,0.106883060,0.031286480,0.312083990
1640843765.712610,-0.545120360,0.053691500,10.558757780,0.133807940,0.058247150,0.273054840
1640843765.712920,-0.262330650,0.154455900,10.094645500,0.120402890,0.050088770,0.269766150
1640843765.717710,-0.053153170,0.428706350,10.227115630,0.108973700,0.042341650,0.295759770
1640843765.718089,0.258861060,0.273068730,9.841753960,0.075788790,0.083695340,0.316794190
1640843765.722730,0.771622780,0.203864310,9.917648320,0.111177570,0.095319760,0.344704090
1640843765.723699,0.422014060,0.072013530,10.824230190,0.161804300,0.069238250,0.325426490
1640843765.727700,0.473774790,0.052323170,10.069080350,0.139261800,-0.001901390,0.290746990
1640843765.727959,0.381777290,0.377840490,9.978246690,0.091528890,-0.015577670,0.280961420
1640843765.732740,-0.007188320,0.400638430,10.010619160,0.044849510,0.111955400,0.268611340
1640843765.733359,0.040273190,0.643970670,10.050164220,0.057511040,0.082933930,0.293979110
1640843765.738020,-0.239457890,0.845566870,10.658762930,0.097534050,0.035384290,0.324289470
1640843765.739410,-0.143713460,0.484058830,9.843915940,0.097981110,0.065331170,0.333964820
1640843765.742750,0.031588060,0.436801140,9.972839360,0.102035710,0.038284070,0.354374950
1640843765.743369,-0.222037700,0.135048400,10.739082340,0.073790550,0.073823340,0.334139170
1640843765.747710,0.511593940,-0.148701980,9.800535200,0.049106790,0.070382650,0.311291220
1640843765.748080,0.745815400,-0.105798580,10.490367890,0.090439630,0.098392380,0.290346180
1640843765.752689,0.757632370,-0.125312460,10.275543210,0.098681460,0.173217090,0.261166720
1640843765.753070,0.972446080,0.178929870,9.680947300,0.079473850,0.038062040,0.279998780
1640843765.757640,0.402346730,0.248108310,10.081064220,0.071012980,0.038866700,0.317281480
1640843765.757920,0.323716730,-0.049662440,9.116504670,0.076495110,0.123517220,0.333434340
1640843765.762689,-0.034691180,0.025554720,10.302658080,0.141266000,0.087635230,0.349739190
1640843765.763029,-0.579253790,-0.042444550,11.112567900,0.151456920,0.141483590,0.330604610
1640843765.767700,-0.055394810,-0.102814640,10.093124390,0.117793680,0.076410170,0.302492050
1640843765.768180,-0.219915360,0.085639280,10.829608920,0.124289110,0.083471860,0.297798220
1640843765.772840,0.115116440,0.008055570,9.755133630,0.128382460,0.170944650,0.280483070
1640843765.773779,0.665205960,0.117058970,9.504807470,0.170373930,0.077214840,0.307735830
1640843765.777700,0.424541950,0.240682900,10.421431540,0.182460260,0.153520700,0.333538710
1640843765.778260,0.766591130,0.040214210,9.613188740,0.146882250,0.155004860,0.345645870
1640843765.783130,0.291956630,0.039562520,10.925102230,0.171795490,0.031046570,0.348471130
1640843765.783970,-0.114834730,0.083721670,10.552956580,0.165252420,0.103618230,0.309223000
1640843765.787779,0.175569100,0.229285750,9.607549670,0.160364810,0.094056140,0.289645820
1640843765.788360,-0.426606660,0.600688220,11.034105300,0.167754310,0.117935240,0.299304750
1640843765.792620,-0.158567970,0.718514620,9.993920330,0.115020590,0.162215530,0.298212560
1640843765.792980,0.394379260,0.751259030,9.931770320,0.126965340,0.070242590,0.335335730
1640843765.797649,0.122369410,0.583075940,10.907695770,0.151465830,0.170078890,0.345903660
1640843765.797900,0.707878230,0.392663240,9.833450320,0.141318140,0.175465660,0.328794120
1640843765.803160,0.534631970,0.326349790,10.845361710,0.136093800,0.059559950,0.332531420
1640843765.803769,0.276384170,0.143271060,10.511137960,0.092808920,0.161604600,0.319135250
1640843765.807670,0.561020370,0.124226360,9.605777740,0.095458330,0.102494660,0.300546020
1640843765.808009,-0.152166810,0.300867710,10.782487870,0.115683680,0.080496070,0.316202670
1640843765.812790,0.044732800,0.399815470,9.576499940,0.074511770,0.184878750,0.325809420
1640843765.813520,0.260446880,0.402319340,10.043014530,0.088383280,0.138610600,0.330355850
1640843765.817910,-0.250069200,0.415702220,11.376184460,0.108459600,0.174443390,0.343856220
1640843765.818470,0.410546840,0.402598560,9.965746880,0.105470430,0.137621160,0.324161380
1640843765.823789,0.400264080,0.241295130,10.734078410,0.099459300,0.087787220,0.321817340
1640843765.824159,0.399205890,0.085816990,10.225889210,0.090515610,0.230091850,0.323262810
1640843765.827620,0.856124400,0.036948540,9.541680340,0.106841340,0.183324560,0.299011200
1640843765.827890,0.313504190,-0.021251670,10.712787630,0.110401210,0.147928310,0.321160260
1640843765.833269,0.392903390,-0.002649720,9.468015670,0.094988950,0.176584740,0.336587430
1640843765.833649,0.202358440,-0.144812000,10.131065370,0.115223220,0.102618340,0.339798660
1640843765.837659,-0.416089000,-0.230825020,10.904866220,0.138129290,0.185552250,0.352904230
1640843765.838050,-0.023914410,-0.170236450,9.929591180,0.161863880,0.173321370,0.322924580
1640843765.842690,-0.157793760,-0.074603330,11.172165870,0.173981490,0.154677030,0.296756650
1640843765.843020,0.044889870,0.256697950,10.333728790,0.130069270,0.246077810,0.297677550
1640843765.847630,0.611202600,0.446257740,9.684588430,0.126120430,0.144432490,0.286614890
1640843765.848029,0.364601400,0.402630210,10.621634480,0.154146550,0.186127440,0.322276350
1640843765.852810,0.647197250,0.408269940,9.530934330,0.182981820,0.225845010,0.349117850
1640843765.853610,0.384204330,0.222664790,10.549913410,0.196330250,0.112333900,0.344957410
1640843765.857699,-0.026543680,0.151228500,10.717408180,0.146675110,0.182527320,0.354784760
1640843765.858110,0.236436610,0.111751550,9.693531990,0.119590770,0.164924580,0.324308930
1640843765.862650,-0.300451520,0.013883140,11.262270930,0.146725770,0.165933370,0.288759200
1640843765.863050,-0.224389110,0.443179250,10.410587310,0.151214000,0.218172360,0.299552020
1640843765.867659,0.127788980,0.671778080,9.968902590,0.137387220,0.114271070,0.310355510
1640843765.868120,0.034405120,0.546531080,10.871702190,0.105920440,0.204151900,0.341783490
1640843765.872660,0.558960260,0.692045330,9.822333340,0.110062960,0.275234880,0.358401330
1640843765.873200,0.475798190,0.571161630,10.984442710,0.136326270,0.122278930,0.335092870
1640843765.877669,0.411792670,0.552837670,10.810314180,0.111202890,0.193090710,0.336545650
1640843765.877980,0.751359880,0.677836240,9.529926300,0.060190270,0.178962960,0.311854540
1640843765.882680,0.190225870,0.511704920,11.003587720,0.045607980,0.168980660,0.305478250
1640843765.883669,0.302911880,0.615103600,10.086838720,0.035743420,0.257433980,0.319200750
1640843765.887660,0.433888700,0.577936050,9.881028180,0.045202680,0.172626970,0.321489570
1640843765.887940,-0.031894520,0.308176670,11.174138070,0.059562910,0.228075700,0.356300120
1640843765.892710,0.163062900,0.335796650,10.071229930,0.041244920,0.241197620,0.343228910
1640843765.893149,0.062145960,0.105085740,10.571802140,0.024944550,0.121484710,0.342242510
1640843765.897760,0.052703330,-0.096227570,10.684358600,0.033162540,0.250638960,0.336717010
1640843765.899459,0.519585790,-0.018739380,9.725654600,0.039477640,0.286245290,0.291629110
1640843765.903730,0.233409840,-0.072019000,10.997608180,0.069358940,0.205771650,0.299851630
1640843765.904250,0.437357840,0.234136970,10.210823060,0.048221650,0.241835420,0.307814810
1640843765.907650,0.623990890,0.273929390,9.546008110,0.015732650,0.183825180,0.324726130
1640843765.908039,0.042382330,0.025280100,10.709831240,0.049896540,0.223092750,0.359466610
1640843765.912680,0.198789690,0.031716970,10.124655720,0.092200950,0.265677330,0.357532590
1640843765.912979,-0.012079080,-0.151199550,10.745788570,0.123490390,0.185051580,0.335136060
1640843765.917980,-0.140098360,-0.051989290,10.865207670,0.102013360,0.257015230,0.327214600
1640843765.918609,0.193638730,0.148322780,10.150071140,0.039686270,0.242058960,0.285133750
1640843765.922670,0.001236210,0.149290730,10.674014090,0.060158980,0.208921760,0.300991620
1640843765.922969,0.334582750,0.379127770,9.975768090,0.104415430,0.258706540,0.316278640
1640843765.927650,0.343295280,0.311290680,10.236411090,0.125713660,0.228819250,0.329492990
1640843765.928000,-0.050852430,0.242301290,10.805648800,0.133782630,0.213369710,0.351181570
1640843765.932809,0.232168240,0.238234090,10.183646200,0.084954510,0.181646660,0.344060360
1640843765.933359,0.015144100,-0.015334040,10.734890940,0.065481670,0.208331640,0.326713890
1640843765.941219,-0.092684440,0.229684340,10.794636730,0.110416110,0.258374240,0.312973590
1640843765.941920,0.063134930,0.557851850,10.688867570,0.084190060,0.188615900,0.307884810
1640843765.942760,0.004809690,0.652696310,10.609839440,0.050392750,0.172078640,0.338959780
1640843765.943090,0.337548050,0.699556350,10.058973310,0.057427600,0.227758290,0.344811410
1640843765.947739,0.406923150,0.563642680,10.663868900,0.063501310,0.259903070,0.333987180
1640843765.948279,0.343020110,0.636786700,10.774546620,0.072114170,0.217166560,0.343565640
1640843765.952620,0.466234890,0.457230630,10.663361550,0.042912370,0.186581940,0.332550790
1640843765.952970,0.367755440,0.175008620,10.731330870,0.020857160,0.213983680,0.317218930
1640843765.957700,0.192801970,0.287437500,10.112780570,0.047729910,0.205472130,0.335153970
1640843765.958050,0.182450430,0.280066580,10.182573320,0.013531740,0.205084700,0.340571940
1640843765.962980,0.231702740,0.211194600,10.242223740,-0.002379720,0.280793100,0.366920290
1640843765.963410,0.133842510,0.168291610,10.602433200,0.050255660,0.257347550,0.362071390
1640843765.967660,0.069509890,0.114449550,11.328083040,0.063057240,0.172208260,0.336800550
1640843765.968050,0.295783430,0.214510590,10.363348960,0.033998490,0.211714250,0.350454450
1640843765.972780,0.550555350,0.014809420,10.257222180,0.012215970,0.264322760,0.322574410
1640843765.975340,0.447174640,-0.018206200,11.170048710,0.037297610,0.316990910,0.312706860
1640843765.977680,0.429584320,0.283150110,10.199780460,0.082868340,0.242730990,0.318622620
1640843765.978230,0.334758160,0.189516650,9.938912390,0.053551800,0.135451600,0.337547120
1640843765.985960,0.081662710,0.176834200,10.079429630,0.026346750,0.243748770,0.380936320
1640843765.986330,-0.117945690,-0.006476240,10.009883880,0.056016460,0.280065890,0.380918470
1640843765.987599,-0.310822730,-0.313914950,11.413483620,0.102452930,0.189656030,0.358848300
1640843765.987890,-0.087068800,-0.106814750,11.007146840,0.129483660,0.254844130,0.332981380
1640843765.992640,0.198046000,0.038755470,10.373002050,0.073745850,0.240892190,0.293457510
1640843765.993049,0.223367240,0.263290380,11.027910230,0.032581390,0.230234890,0.314943520
1640843765.997630,0.500649630,0.625635450,10.002338410,0.052237520,0.258508380,0.326329530
1640843765.997980,0.745853480,0.540957810,9.892294880,0.082544970,0.208823380,0.343625220
1640843766.002660,0.607479040,0.607313330,10.834813120,0.114403680,0.269737900,0.384955200
1640843766.003229,0.448759700,0.498381410,10.564544680,0.088505450,0.300848510,0.361719730
1640843766.007660,0.137069870,0.206881640,11.159263610,0.043040520,0.178779660,0.349964200
1640843766.008020,-0.151531640,0.359534080,11.114748000,0.040674220,0.197622220,0.355407600
1640843766.012730,-0.281917100,0.354310780,10.123163220,0.024437910,0.242616250,0.305271150
1640843766.013270,-0.365835580,0.409159810,10.489196780,0.034748020,0.194638970,0.346018400
1640843766.017949,-0.265645000,0.659721080,10.629001620,0.045841940,0.269387750,0.376764030
1640843766.019110,0.039418890,0.443433490,10.603588100,0.008171800,0.257808000,0.365598560
1640843766.022689,0.208828570,0.509236400,11.254701610,0.013715030,0.178776730,0.395923910
1640843766.023079,0.280863880,0.478141100,11.130162240,0.013105570,0.196385430,0.373674990
1640843766.027690,0.670199330,0.189476970,10.303307530,-0.008422140,0.217695530,0.345954240
1640843766.028060,0.701234760,0.449434430,10.669416430,0.015351180,0.227820900,0.345726340
1640843766.032850,0.385551450,0.505071640,10.860598560,-0.019332770,0.247795850,0.318726930
1640843766.034320,0.625344810,0.396394070,9.771073340,-0.054727490,0.182688250,0.348937510
1640843766.037690,0.154256180,0.345700740,10.651674270,-0.008901950,0.187550490,0.384590030
1640843766.038040,-0.282981630,0.050771580,10.953971860,0.009033080,0.256860290,0.363032580
1640843766.042960,-0.030820380,-0.008141030,10.538379670,0.006462630,0.167298320,0.383012090
1640843766.043480,-0.215066940,-0.160595280,11.469301220,0.010737780,0.201489050,0.370107590
1640843766.047710,0.198851200,-0.374724600,10.704017640,-0.003525610,0.326220690,0.322782990
1640843766.048190,0.604500060,-0.005492200,10.482920650,0.041045250,0.216954990,0.333303210
1640843766.052760,0.330680340,0.191227140,11.187759400,0.033319000,0.208896440,0.327099860
1640843766.053350,0.792472360,0.235777420,9.602605820,-0.010156630,0.240093510,0.351379810
1640843766.057770,0.545739350,0.255279810,10.330366130,0.058119000,0.191889700,0.395745040
1640843766.058310,-0.176070590,0.100872290,11.609501840,0.077514370,0.254942480,0.374978870
1640843766.062709,0.171439860,0.154032260,10.379043580,0.049322850,0.216943030,0.361222120
1640843766.063069,-0.268622430,0.139214100,11.379673960,0.049377990,0.158473880,0.345131840
1640843766.067649,-0.425726860,0.173946430,11.395786290,0.026932360,0.266449150,0.308695440
1640843766.068080,0.181444600,0.530231600,10.033993720,0.029964750,0.202393580,0.324554800
1640843766.072690,-0.073587510,0.584298730,11.226658820,0.044888260,0.172489900,0.356587770
1640843766.073060,0.426486640,0.414420010,10.768163680,0.021044920,0.288032000,0.365233510
1640843766.077679,0.773430470,0.321745250,10.491607670,0.064659140,0.232584800,0.382761720
1640843766.078140,0.223170850,0.180233810,12.029498100,0.072376440,0.151412190,0.369873670
1640843766.082950,0.567873900,0.191803950,10.588405610,0.007149580,0.218929350,0.344184070
1640843766.083690,0.447274660,0.408113990,10.421919820,-0.022858380,0.181365010,0.344355430
1640843766.087620,-0.148925900,0.490817370,11.684452060,-0.028741360,0.213117910,0.348670810
1640843766.087920,0.182574110,0.616401310,10.447334290,-0.006783010,0.248563270,0.363621120
1640843766.092720,0.202403460,0.688129540,10.639863010,0.026142600,0.169701890,0.381223800
1640843766.093370,-0.067172530,0.459587100,11.656135560,0.005833810,0.253598480,0.389954510
1640843766.097720,0.349755850,0.405007240,10.711198810,-0.022099920,0.252555340,0.369933340
1640843766.098209,0.310011920,0.152559800,11.141650200,-0.019040710,0.149264930,0.357081030
1640843766.102680,0.345259760,-0.078276470,11.336318020,-0.003707410,0.252507570,0.348433820
1640843766.103089,0.623957570,0.060342730,10.544557570,0.010024010,0.283522930,0.339969990
1640843766.107800,0.255979980,0.088869560,11.144490240,0.009875000,0.162489730,0.344593850
1640843766.108840,0.166079640,0.073610820,10.854637150,-0.021424890,0.191122280,0.376237870
1640843766.112640,0.307469900,0.113633130,10.143995290,-0.011740630,0.241217050,0.380656210
1640843766.112919,-0.115074260,-0.010625430,11.356327060,0.030438600,0.224541130,0.369994370
1640843766.117679,-0.023505730,0.134440540,11.546192170,0.058896840,0.224110500,0.369857280
1640843766.118080,0.252664540,0.213284700,11.197893140,0.035570560,0.214108820,0.343589450
1640843766.122720,0.113017260,0.150935680,11.628019330,0.013014670,0.224614140,0.341926540
1640843766.123080,0.285781620,0.357913370,11.154959680,0.015212590,0.224885340,0.348973300
1640843766.127640,0.378173740,0.504546520,10.726613040,0.022199750,0.198686120,0.344686210
1640843766.127960,0.242094000,0.381184910,10.906800270,0.024834280,0.201016710,0.364327490
1640843766.132769,0.263039800,0.385260160,11.022556300,0.034655630,0.222259760,0.361172880
1640843766.133380,0.108981690,0.383890360,11.447281840,0.026063620,0.200141970,0.342127650
1640843766.137780,0.005449720,0.294068840,11.631655690,-0.002503390,0.194685130,0.357626320
1640843766.138350,0.097947670,0.277881260,11.540555950,-0.000263750,0.215345650,0.353984620
1640843766.142700,-0.124275790,0.330855250,11.714544300,0.013664370,0.185282560,0.355932210
1640843766.143119,-0.004057250,0.518513920,11.092316630,0.017808380,0.160090670,0.391587670
1640843766.147729,0.380828050,0.656363900,10.711737630,-0.029365720,0.202038910,0.388540330
1640843766.148260,0.578025520,0.503726070,11.295227050,-0.056317460,0.281690090,0.368776920
1640843766.152680,0.673755050,0.423341300,11.639286990,-0.001685320,0.264960560,0.347986880
1640843766.153050,0.726604220,0.478172630,11.629344940,0.014120340,0.161190380,0.320038260
1640843766.157709,0.458305570,0.335296870,11.328641890,-0.024558610,0.173127650,0.330358740
1640843766.158239,0.175951960,0.225805450,10.789457320,-0.057323280,0.191004570,0.370407130
1640843766.162840,-0.184471700,0.097456950,11.188096050,-0.049868230,0.180414320,0.374424490
1640843766.164929,-0.295290560,-0.061151480,11.197833060,-0.016486650,0.193652510,0.390507250
1640843766.168059,-0.064658700,-0.075450100,10.958304410,0.017371780,0.231698160,0.377444920
1640843766.170290,0.112821700,0.008592500,11.871790890,0.008736550,0.228923570,0.347119570
1640843766.175220,0.354815450,0.028056830,11.834667210,-0.013493000,0.224617120,0.345306070
1640843766.176190,0.781523170,0.091359780,11.078354840,0.005264580,0.197240730,0.346080960
1640843766.178200,0.833044410,0.049548400,11.442193030,0.040924550,0.215151920,0.349478450
1640843766.178820,0.598985020,0.088284130,11.247918130,0.053513050,0.248233970,0.355522360
1640843766.182740,0.441307400,0.235124600,10.749361040,0.034269690,0.166441500,0.350250330
1640843766.187019,0.053421510,0.150760310,11.478950500,0.003235040,0.159627200,0.350891080
1640843766.188000,-0.175194260,0.244791730,11.358733180,0.007487830,0.249089320,0.341066750
1640843766.189400,-0.177698760,0.410965350,11.479154590,0.036929550,0.219532890,0.337482990
1640843766.192649,-0.174151240,0.393985870,12.300930980,0.047107040,0.198669760,0.359483090
1640843766.193040,0.151667150,0.343608590,11.585183140,0.047616660,0.262679160,0.374856620
1640843766.197680,0.445416990,0.243559140,11.240514760,0.049534440,0.210924490,0.372765990
1640843766.198120,0.340651240,0.324305300,11.806203840,0.033569340,0.167420520,0.374199450
1640843766.203140,0.579965000,0.456388950,11.057851790,-0.005541740,0.212363940,0.359778110
1640843766.203620,0.827220920,0.440334590,10.875519750,-0.018201770,0.230416690,0.333415000
1640843766.207680,0.589579110,0.505029080,12.193709370,0.020766260,0.255976650,0.331041250
1640843766.208060,0.470479070,0.714878860,12.039929390,0.027523940,0.268715620,0.327836010
1640843766.212720,0.456840130,0.670394960,11.268237110,-0.014862420,0.182919200,0.353892180
1640843766.213270,0.019529310,0.390898350,11.722561840,-0.026336320,0.158490240,0.400547770
1640843766.218050,-0.191913200,0.247686590,11.208107950,-0.007194280,0.241513590,0.401102100
1640843766.219149,0.066309530,0.032531760,10.860440250,-0.002656880,0.229465980,0.376956160
1640843766.222730,0.209083450,-0.008569480,12.013675690,0.009210410,0.251102480,0.371095600
1640843766.223430,0.511919080,0.122283530,12.031174660,-0.008082390,0.339946150,0.334081140
1640843766.227630,0.935432490,0.092603050,11.462972640,-0.026701390,0.256024270,0.318402020
1640843766.228030,0.769008990,0.131006370,11.824943540,0.012539330,0.182750820,0.339773330
1640843766.232720,0.526557740,0.163500620,11.121458050,0.035220390,0.255054270,0.357300040
1640843766.233189,0.479259190,0.018825580,10.498904230,0.029382110,0.238797080,0.370571020
1640843766.237759,-0.048004480,0.044152690,11.725985530,0.035034130,0.229336400,0.388920400
1640843766.238330,-0.170075220,-0.004214680,11.782198910,0.034193710,0.301945270,0.358632240
1640843766.242679,0.014685300,-0.000594850,11.579141620,0.033698980,0.255952810,0.319349770
1640843766.243049,-0.039566410,0.287640990,12.247064590,0.068727140,0.210493850,0.333817300
1640843766.247680,0.329179320,0.334804560,11.580328940,0.058878970,0.301632290,0.336751340
1640843766.248080,0.760852520,0.058324790,11.039375310,0.063143690,0.304025500,0.352436360
1640843766.253110,0.586791990,0.095221290,11.953934670,0.110319280,0.261615250,0.381989780
1640843766.254400,0.460234110,0.098507710,11.754983900,0.103206940,0.258843600,0.359658930
1640843766.258750,0.523026410,0.088557320,10.871458050,0.044764570,0.217902680,0.347514420
1640843766.259770,0.204032660,0.349378200,11.601692200,0.044421860,0.225275750,0.336381820
1640843766.263150,-0.015959550,0.470465780,12.184793470,0.062742850,0.341096610,0.308092000
1640843766.263520,0.154994250,0.664814170,11.720010760,0.064119700,0.293622910,0.312748580
1640843766.268139,0.087665570,0.912933410,12.057142260,0.069290410,0.198194380,0.358550250
1640843766.270030,0.072852370,0.750814620,11.964768410,0.036399070,0.293776450,0.368240510
1640843766.274710,0.431077120,0.514789340,11.067029000,0.020095710,0.311440260,0.372360710
1640843766.275270,0.287500020,0.526203750,11.917178150,0.049175330,0.210383560,0.381433990
1640843766.278030,0.451035800,0.426031470,12.028035160,0.029370190,0.297598630,0.350555870
1640843766.280220,1.039426570,0.312433300,10.972225190,-0.018276280,0.341430400,0.320373540
1640843766.282719,0.867240970,0.469701410,12.034921650,-0.005024670,0.292751190,0.327797260
1640843766.284000,0.488655600,0.476321640,12.319723130,-0.012461840,0.324364040,0.319355790
1640843766.287999,0.652269480,0.325529400,10.744771960,-0.025640430,0.266924530,0.340577990
1640843766.289929,0.109148540,0.228779850,11.318461420,0.015373530,0.241124660,0.383554490
1640843766.292800,-0.361020950,0.195576710,12.024859430,0.018897660,0.325350490,0.374917690
1640843766.293340,0.065190120,0.129769130,11.144032480,-0.026367600,0.344145330,0.378562510
1640843766.297720,0.222913430,0.085898400,11.978985790,-0.010518730,0.315442680,0.374899800
1640843766.298210,0.350153630,0.060695750,12.600887300,0.037066640,0.401735370,0.326710970
1640843766.302729,0.922473730,0.107368950,11.313923840,0.041762000,0.363045990,0.315259490
1640843766.303239,0.912125770,0.286947880,11.227694510,0.045990940,0.269100100,0.345520680
1640843766.307690,0.599786460,0.133167120,11.510457040,0.019459430,0.360336960,0.359486100
1640843766.308149,0.646270390,-0.115740660,10.869219780,0.012238330,0.380648700,0.361760020
1640843766.312630,0.190207180,-0.173721600,11.642130850,0.091275590,0.292058350,0.359712630
1640843766.312940,-0.182169330,-0.181090100,12.198961260,0.112658750,0.343860780,0.332848790
1640843766.317659,0.024357650,-0.051177390,11.453432080,0.067591680,0.367555110,0.309319820
1640843766.318130,-0.087663490,0.270725910,11.740655900,0.050568580,0.316183300,0.322562460
1640843766.322680,-0.056030030,0.278621350,12.071346280,0.053326800,0.360082120,0.324881080
1640843766.323050,0.511751710,0.246186260,11.278063770,0.099651540,0.389711560,0.341972740
1640843766.327630,0.552473900,0.308674370,11.594668390,0.161685060,0.352673290,0.356364250
1640843766.327920,0.378474680,0.394108740,12.118886950,0.130058850,0.344750370,0.345684650
1640843766.332790,0.722299160,0.412100230,11.136857990,0.036245580,0.341162150,0.348837760
1640843766.333380,0.531864170,0.401575540,11.422057150,0.036285820,0.334572790,0.331662630
1640843766.339130,0.168815570,0.441524620,12.266306880,0.097791870,0.369778360,0.308854970
1640843766.339820,0.302363040,0.572709500,11.585297580,0.110492130,0.372020960,0.303949450
1640843766.343099,0.173812140,0.836957220,11.462229730,0.065542760,0.323089960,0.333999130
1640843766.343829,-0.135473160,0.679274980,12.028136250,0.001206990,0.369373020,0.354027840
1640843766.347689,0.014370420,0.420105700,11.638973240,0.011052190,0.362761380,0.356884360
1640843766.348060,0.153245060,0.545832160,11.390295030,0.073455280,0.306454300,0.355830820
1640843766.353000,0.271016210,0.356940480,11.753591540,0.072984400,0.374196500,0.346101820
1640843766.354090,0.847832740,0.190620710,11.564252850,0.023412700,0.462332460,0.339601930
1640843766.357679,1.019808410,0.218579830,11.813343050,0.022849440,0.423063430,0.333711590
1640843766.358080,0.825929460,0.152884450,12.010540960,0.024510920,0.344264600,0.314770640
1640843766.362929,0.908267500,0.207634240,10.982150080,0.013414030,0.353255930,0.322586390
1640843766.363520,0.436161550,0.242931900,10.883444790,0.038513540,0.388671550,0.343568680
1640843766.367669,-0.129538690,0.071409090,11.571514130,0.058758270,0.388459920,0.351549740
1640843766.368739,-0.170103620,0.059869480,11.633011820,0.059041390,0.391192820,0.367547570
1640843766.372769,-0.140117620,0.138653580,11.563272480,0.057125100,0.395974610,0.357352200
1640843766.373489,-0.121042330,-0.036189310,11.879510880,0.048546490,0.421567350,0.323042270
1640843766.377709,0.197988330,0.076878700,11.732168200,0.073732440,0.405627580,0.312353760
1640843766.378430,0.452775990,0.300693390,11.339717860,0.092195000,0.382676780,0.304560450
1640843766.382799,0.792308450,0.229930100,11.092851640,0.066824280,0.422020350,0.319746200
1640843766.383230,0.934313710,0.119587660,11.459053990,0.069493060,0.463724140,0.350965590
1640843766.387679,0.678501310,0.087166640,11.878376960,0.118555150,0.418894050,0.349983630
1640843766.388029,0.422642110,-0.012692300,11.461845400,0.126722470,0.339975950,0.338041810
1640843766.392609,0.264760080,0.143927630,11.113999370,0.082176950,0.361849460,0.336045090
1640843766.392930,-0.187921300,0.383774400,11.618595120,0.058512400,0.455276730,0.322026100
1640843766.397640,-0.351996600,0.400557280,11.875976560,0.066795950,0.409086110,0.307507870
1640843766.397960,0.004327660,0.695175170,11.601955410,0.089873370,0.369705290,0.326895710
1640843766.402660,0.147174640,0.755499780,11.787179950,0.089947880,0.455608960,0.339159340
1640843766.403000,0.366745890,0.627829370,11.695467000,0.072310880,0.460308880,0.341276880
1640843766.407640,0.737921000,0.716849570,11.408259390,0.051471600,0.375209780,0.355798040
1640843766.408010,0.865110870,0.565202830,11.472989080,0.031045080,0.417494860,0.347937700
1640843766.414579,0.928952460,0.286678250,11.332680700,0.023992360,0.482653140,0.319542020
1640843766.415599,0.767227230,0.380463540,11.645905490,0.053951150,0.432880310,0.318560060
1640843766.417680,0.271194820,0.442070660,11.975720410,0.034274170,0.388200640,0.301481840
1640843766.418439,0.020815910,0.424829040,11.149271970,-0.028656430,0.406391980,0.318202410
1640843766.422659,-0.200526010,0.436265530,11.232309340,-0.019180770,0.398321510,0.349032910
1640843766.423080,-0.531676950,0.348325970,11.928071980,0.022082030,0.428567890,0.353589680
1640843766.427650,-0.188048630,0.270884780,11.323879240,0.039625170,0.438776700,0.350193770
1640843766.428069,0.361406920,0.308227630,11.370810510,0.032362350,0.440637830,0.352372260
1640843766.432629,0.492437030,0.154042470,12.246203420,-0.004231930,0.490786190,0.325393710
1640843766.432940,0.818792460,0.070107390,11.499829290,-0.006569920,0.448301490,0.298290040
1640843766.437610,1.071279410,0.212620380,10.805659290,0.024425990,0.345942380,0.298985840
1640843766.437909,0.752965570,0.137133170,11.182024000,0.031483170,0.434012800,0.315780940
1640843766.442870,0.431942190,0.034492700,10.973762510,0.022642310,0.495569470,0.333118470
1640843766.443310,0.089078510,0.038374860,11.436627390,0.039906810,0.367699620,0.358808130
1640843766.447620,-0.279592250,-0.140892000,12.058394430,0.039298840,0.385427470,0.343890550
1640843766.447850,-0.113296230,-0.085745790,11.199886320,0.041064620,0.478826460,0.320807130
1640843766.452710,-0.042283530,0.119478940,11.594944950,0.065119590,0.442703160,0.301583170
1640843766.453260,-0.091851410,0.296759460,12.233318330,0.066772120,0.426612880,0.289171990
1640843766.457830,0.512654300,0.428979610,10.787490840,0.049996390,0.443889260,0.314380290
1640843766.458900,0.741257730,0.366291080,10.995658870,0.074750190,0.415259690,0.348885360
1640843766.462679,0.439164280,0.158441900,12.024554250,0.102274140,0.451602130,0.351108670
1640843766.463179,0.627629460,0.154390840,11.089121820,0.093546510,0.429144590,0.337199870
1640843766.467900,0.543144230,0.225615010,11.305730820,0.067360700,0.380066070,0.315156610
1640843766.468310,0.088450000,0.311276020,12.277431490,0.036957870,0.450384710,0.296998080
1640843766.472669,0.158672110,0.630082370,11.334929470,0.012579560,0.450947940,0.282524560
1640843766.473029,0.133954700,0.827379820,11.275385860,0.024075810,0.365342200,0.301678510
1640843766.477650,-0.037615530,0.653958080,12.035993580,0.049072520,0.446964860,0.323270260
1640843766.478040,0.150239540,0.613226710,11.312570570,0.061379380,0.491964880,0.332062040
1640843766.482630,0.242600080,0.547298370,11.384436610,0.031423570,0.356477530,0.343073900
1640843766.483070,0.210648700,0.343458210,11.978449820,-0.015312440,0.399632810,0.345192940
1640843766.487630,0.539949890,0.277352390,11.193103790,-0.027513510,0.492152630,0.317551200
1640843766.487910,0.670710030,0.296040620,11.401802060,0.008367000,0.427220850,0.301717220
1640843766.492620,0.383140920,0.556849120,12.140285490,0.006844100,0.402651730,0.306774710
1640843766.493010,0.554307520,0.726094720,10.902728080,-0.046887990,0.450511310,0.319647790
1640843766.497789,0.505207780,0.522845630,10.886840820,-0.068873170,0.408802930,0.334236030
1640843766.498400,0.047813080,0.506159370,12.091145520,-0.033073130,0.427033010,0.345142220
1640843766.503029,0.195214660,0.408694480,11.402550700,-0.014179950,0.475768800,0.326272930
1640843766.503549,0.455983670,0.208761450,11.239082340,-0.025838620,0.423704180,0.303717020
1640843766.508420,0.326697740,0.312635540,12.120274540,-0.046816480,0.467206630,0.310607340
1640843766.508839,0.510096490,0.238583530,11.211287500,-0.077991210,0.524427060,0.297677550
1640843766.512610,0.624198680,0.048042610,10.762237550,-0.063046820,0.414757520,0.307421390
1640843766.512920,0.248352230,0.113724130,11.381843570,0.001814960,0.409929510,0.346380500
1640843766.517670,0.244817750,-0.134792430,10.962736130,-0.003921990,0.493790300,0.335238960
1640843766.518090,0.292241040,-0.322985890,11.172571180,-0.019325320,0.454995070,0.347059970
1640843766.522689,0.096854130,-0.228707490,12.219978330,0.011688470,0.464612330,0.335931840
1640843766.523180,0.401621070,-0.124292960,11.666858670,0.004917380,0.530031380,0.279317860
1640843766.527639,0.499043430,0.217961070,11.114789960,-0.002276900,0.454574880,0.281138780
1640843766.527910,0.236388040,0.616067770,11.320500370,0.012935700,0.406073120,0.299647450
1640843766.532680,0.363002270,0.512717190,10.591615680,-0.003595650,0.500153010,0.318564410
1640843766.533160,0.347164870,0.314055770,10.688631060,0.028452280,0.468730960,0.349116330
1640843766.537750,-0.180184480,0.299018530,12.115025520,0.076416130,0.431950480,0.352284400
1640843766.538339,-0.054751970,0.075197980,11.652256970,0.014629960,0.458979670,0.328402250
1640843766.542670,0.183301280,-0.045761760,11.149998660,-0.007227060,0.413371710,0.312122700
1640843766.543380,-0.016812370,0.124843720,11.999538420,0.029021510,0.454793900,0.293610990
1640843766.547710,0.230449510,0.293277680,11.445371630,0.018014020,0.504967570,0.277367230
1640843766.548060,0.659842550,0.466388230,10.733949660,0.011233990,0.408916230,0.317634670
1640843766.552610,0.364546300,0.485793080,11.665717120,0.034706290,0.435270430,0.336165760
1640843766.552919,0.429668520,0.492195840,11.350412370,0.004859270,0.483460780,0.324420720
1640843766.557680,0.426822660,0.570638180,11.104864120,-0.015459950,0.383837550,0.324532420
1640843766.558050,-0.039530780,0.615271210,12.012204170,-0.011712310,0.387632940,0.309304950
1640843766.562610,0.091553990,0.669056060,11.428862570,-0.040046880,0.486447010,0.292073190
1640843766.562960,0.186901090,0.836619560,11.052092550,-0.053477300,0.419104160,0.317637710
1640843766.567659,-0.099496390,0.832963470,11.893082620,-0.059376660,0.393396650,0.336436960
1640843766.567940,0.317596200,0.540527880,11.141680720,-0.085355360,0.474020900,0.342892200
1640843766.572950,0.554128770,0.413928120,10.953303340,-0.055459150,0.437659110,0.338964160
1640843766.573680,0.179208070,0.258397970,12.183406830,-0.059115890,0.401908250,0.320780280
1640843766.577770,0.560222690,0.084155320,11.442231180,-0.093649350,0.440128210,0.305753950
1640843766.578430,0.781903800,0.155372900,10.838741300,-0.094844420,0.431983230,0.295403690
1640843766.582680,0.432889730,0.318653790,11.598065380,-0.097502780,0.421196280,0.295882020
1640843766.583720,0.629293200,0.308714750,10.959947590,-0.116950270,0.494362440,0.317415600
1640843766.587700,0.435076920,0.284460690,10.939433100,-0.074405970,0.450861540,0.346003560
1640843766.588209,-0.114154990,0.206775130,11.873190880,-0.045420240,0.371913610,0.357492360
1640843766.592589,-0.051328070,0.076082740,11.356445310,-0.074166080,0.419047560,0.358825920
1640843766.592880,0.106339100,0.044856910,10.971919060,-0.084486630,0.442770180,0.327912060
1640843766.597630,0.116973740,-0.071594110,11.751551630,-0.060980030,0.501646160,0.286282600
1640843766.597900,0.480951610,0.070064530,11.629388810,-0.043682750,0.501413760,0.268852710
1640843766.603109,0.661920550,0.270645440,11.040366170,-0.036394600,0.418432150,0.284622610
1640843766.603649,0.462685590,0.043837640,10.839540480,-0.042013830,0.389406140,0.327381520
1640843766.607659,0.399225060,-0.039608300,10.574485780,-0.036469110,0.416947990,0.361813690
1640843766.607960,0.119958940,-0.171472820,11.085706710,-0.006033480,0.460477230,0.364185900
1640843766.612690,-0.118715190,-0.345694540,11.808867450,0.010579820,0.452582600,0.333938030
1640843766.613119,0.062265380,-0.079322340,11.740609170,0.011499230,0.421476420,0.303137390
1640843766.618630,0.007222850,0.187547060,11.657789230,-0.003732740,0.425863270,0.280945000
1640843766.619370,0.023258030,0.538968320,11.329516410,-0.038665530,0.413246540,0.277370210
1640843766.622710,0.347996770,0.858112690,10.850671770,-0.035758320,0.409291770,0.316137080
1640843766.623100,0.288345720,0.650719760,11.182285310,-0.002989170,0.425599520,0.335155460
1640843766.627640,0.277076990,0.515807990,11.198795320,0.033499300,0.449480180,0.337849560
1640843766.627950,0.298326080,0.618776620,11.399880410,0.000993910,0.378416570,0.331969620
1640843766.632670,0.111076680,0.354430200,11.745841980,-0.082881760,0.366541770,0.310693680
1640843766.634120,0.113026410,0.285645690,11.262954710,-0.086380550,0.404420500,0.292210310
1640843766.637670,0.169999200,0.518866840,11.295417790,-0.050671410,0.377982940,0.293011990
1640843766.638020,0.130928550,0.602372770,11.652994160,-0.055602200,0.421185820,0.311209260
1640843766.642650,0.305836440,0.687060480,11.213222500,-0.082367660,0.421129230,0.344422490
1640843766.643030,0.321586160,0.672620650,11.513028140,-0.107298800,0.367699560,0.342123240
1640843766.647640,0.251503710,0.534927130,11.664984700,-0.125402260,0.368948340,0.330531660
1640843766.647899,0.426862210,0.470397680,10.857737540,-0.108754660,0.400702710,0.315076200
1640843766.652870,0.476713960,0.459943650,11.365361210,-0.111730410,0.413867830,0.284913210
1640843766.653410,0.280538380,0.553073110,11.932886120,-0.136832890,0.425575700,0.298452380
1640843766.657680,0.399519090,0.705010000,10.963212970,-0.176711410,0.369282160,0.320755030
1640843766.658180,0.414916520,0.467760260,10.881464960,-0.195223090,0.375954840,0.345781450
1640843766.662690,0.068674190,0.210642040,11.596382140,-0.145722970,0.450374280,0.360414450
1640843766.663030,-0.006312510,0.165728780,11.202996250,-0.101399440,0.390459660,0.351682390
1640843766.668059,0.146172580,-0.057864050,11.304948810,-0.138404980,0.315004590,0.327825550
1640843766.668540,0.441712230,-0.038133440,11.368227960,-0.177155450,0.462918040,0.319303600
1640843766.672659,0.663061740,0.018857120,11.113790510,-0.181457430,0.526093010,0.282666180
1640843766.673030,0.637170790,0.069985440,11.706813810,-0.136290510,0.379797820,0.275245340
1640843766.677610,0.521217290,0.226153270,11.240286830,-0.091061000,0.351753860,0.314874980
1640843766.677919,0.505211590,0.139238700,9.948163030,-0.102093840,0.415353540,0.330029460
1640843766.682880,0.183208580,-0.055017830,10.936498640,-0.131684560,0.400626690,0.358992820
1640843766.683480,-0.080466980,-0.182031260,11.691991810,-0.115412500,0.463633300,0.362952080
1640843766.687670,0.182582480,-0.422966660,11.168523790,-0.070905710,0.452828470,0.313741030
1640843766.687970,0.183399420,-0.284017560,11.736722950,-0.033855440,0.395692940,0.284309720
1640843766.692700,0.092376380,0.182318020,11.558485030,-0.059708960,0.426052570,0.281953900
1640843766.693159,0.333237080,0.291228440,10.370567320,-0.130715970,0.404588970,0.298801060
1640843766.698160,0.152387660,0.216774510,10.917869570,-0.095607350,0.374892350,0.340266530
1640843766.700300,-0.004173030,0.242897470,11.214367870,-0.004529950,0.437527920,0.342060630
1640843766.703300,0.048260210,0.207304780,11.008948330,-0.001841780,0.399428700,0.334289670
1640843766.704150,-0.051729850,0.339835410,11.613825800,-0.056657210,0.328001380,0.349457590
1640843766.707700,-0.013567870,0.300832390,11.661074640,-0.096657880,0.401750270,0.320647660
1640843766.708030,0.170882850,0.298729390,11.099503520,-0.105501730,0.401190010,0.302477180
1640843766.712620,0.203595240,0.667449950,11.277554510,-0.054173180,0.327500760,0.323666720
1640843766.713009,0.183442400,0.651018080,11.346017840,-0.061003870,0.372855420,0.328675000
1640843766.717620,0.385491700,0.591890630,10.693620680,-0.112548490,0.390170600,0.332357080
1640843766.718050,0.274564590,0.688492420,11.305344580,-0.126862530,0.328402250,0.346988440
1640843766.722610,-0.047311610,0.505587580,11.995322230,-0.133380310,0.361304010,0.315713880
1640843766.722890,0.360373910,0.441134660,10.836997990,-0.138402000,0.359344480,0.312203200
1640843766.727609,0.155189190,0.606512960,11.322241780,-0.114780670,0.312560800,0.328202550
1640843766.727880,-0.067150370,0.589403870,11.705451010,-0.163577540,0.367163120,0.333008200
1640843766.733350,0.424312470,0.391051920,10.331583980,-0.207351180,0.371029970,0.360593230
1640843766.733820,0.162721460,0.253999230,11.301622390,-0.151769820,0.307396080,0.365227460
1640843766.740970,-0.093758670,0.166746530,11.861955640,-0.132395360,0.353989090,0.326456160
1640843766.742879,0.435841410,0.180105360,10.575001720,-0.175744320,0.338360700,0.324074920
1640843766.743650,0.262593570,0.158168880,11.429323200,-0.183154670,0.303313200,0.309741530
1640843766.743929,0.356240930,0.118409330,11.624388690,-0.185874100,0.410704340,0.289495230
1640843766.747680,0.817088480,0.246479080,10.444111820,-0.165630880,0.394129780,0.307805870
1640843766.748160,0.316742270,0.338143050,11.252469060,-0.135749620,0.288492500,0.337021140
1640843766.752630,-0.007818620,0.078682640,11.186086650,-0.158734660,0.313417640,0.345979690
1640843766.752960,0.044758580,-0.050491080,10.253362660,-0.163879990,0.292882350,0.354662600
1640843766.757619,-0.448514190,-0.155087070,11.348716740,-0.129736970,0.283263620,0.339399280
1640843766.757900,-0.318256410,-0.357099680,11.759355550,-0.105501730,0.363568990,0.297126170
1640843766.762790,0.166318030,-0.104394820,11.311761860,-0.099921240,0.376689490,0.284306790
1640843766.763180,0.065515990,0.169364210,11.908676150,-0.118093180,0.277934940,0.292541090
1640843766.767670,0.430751860,0.190438630,10.944740300,-0.138600140,0.278341740,0.320768330
1640843766.768040,0.760542150,0.353436320,9.956092830,-0.111526270,0.298176800,0.341738820
1640843766.772689,0.279336360,0.444240210,11.135731700,-0.086075070,0.316511120,0.343343620
1640843766.773510,0.187446100,0.369127930,11.462481500,-0.106129070,0.309026300,0.340409670
1640843766.777819,0.168812320,0.384297130,11.240632060,-0.117179750,0.240737210,0.321154330
1640843766.778940,-0.337265790,0.366718320,11.838302610,-0.131057220,0.260867180,0.313654570
1640843766.782869,-0.457508710,0.485379840,11.494525910,-0.134213270,0.272110100,0.311552020
1640843766.784220,-0.209216850,0.610852900,10.888338090,-0.148774680,0.207668590,0.340949000
1640843766.787619,-0.099278260,0.413083200,11.029634480,-0.153641400,0.275743100,0.364665780
1640843766.787920,0.429016710,0.219215360,10.905803680,-0.113727170,0.356204810,0.360344440
1640843766.792600,0.594849230,0.274234150,11.517756460,-0.111427930,0.282973080,0.337870480
1640843766.792899,0.442362730,0.355934290,11.833931920,-0.159113120,0.202170040,0.323328410
1640843766.797690,0.696395640,0.364252720,10.688915250,-0.201992740,0.220279430,0.320421160
1640843766.798060,0.570984480,0.268852830,10.735084530,-0.178429510,0.262498940,0.317934220
1640843766.802640,0.144830260,0.412331790,11.193427090,-0.135836020,0.304220650,0.343802570
1640843766.802960,0.116616340,0.518228230,10.853408810,-0.144781200,0.264249830,0.370711150
1640843766.807659,-0.080842350,0.209982560,11.150378230,-0.177553310,0.205138360,0.384940210
1640843766.808060,-0.392091180,0.140858340,11.182090760,-0.174261630,0.231035100,0.376497210
1640843766.812870,-0.111243440,0.024610700,10.879245760,-0.158089440,0.245526480,0.339537920
1640843766.813429,0.084961350,-0.199300080,11.512650490,-0.142170500,0.276128950,0.308118790
1640843766.817970,0.273347320,0.059426050,11.434658050,-0.116981590,0.321230350,0.299566980
1640843766.819049,0.547398330,0.178976370,10.963720320,-0.152483580,0.232836620,0.301244850
1640843766.822620,0.498029230,0.125786500,10.896740910,-0.180119250,0.182230770,0.339750980
1640843766.822990,0.281549900,0.258414510,10.323164940,-0.136756940,0.223812490,0.378254150
1640843766.827679,0.153334250,0.155417960,10.606549260,-0.110483180,0.225815210,0.361470880
1640843766.828060,-0.170288030,0.229540140,11.715885160,-0.132215050,0.234320800,0.359186590
1640843766.832810,-0.251726270,0.365257320,11.613369940,-0.152866560,0.242118550,0.341996550
1640843766.834060,-0.077794480,0.295720310,11.447817800,-0.161534560,0.191488860,0.293575260
1640843766.837620,-0.164586660,0.561022040,11.415503500,-0.146855380,0.190702100,0.309179750
1640843766.837999,-0.062497720,0.753406230,10.563160900,-0.169226540,0.198681650,0.330898140
1640843766.842660,0.329169660,0.477777690,10.450596810,-0.187195840,0.198948380,0.350098340
1640843766.843609,0.358607200,0.389278830,11.334849360,-0.160408030,0.243473080,0.363995160
1640843766.847649,0.299440650,0.370700240,11.501072880,-0.163686290,0.215914850,0.340798500
1640843766.847940,0.351071920,0.061501990,11.499902730,-0.189968940,0.138436270,0.326775010
1640843766.852690,0.154749360,0.259678990,11.389651300,-0.194081680,0.138464580,0.318792460
1640843766.853210,-0.084610780,0.466927050,10.817744260,-0.223647060,0.187069190,0.321897860
1640843766.857740,-0.003517160,0.472128450,10.578871730,-0.238040120,0.173887660,0.343446520
1640843766.858630,-0.018634290,0.655161080,10.892004970,-0.204400760,0.184676080,0.374527360
1640843766.862800,0.023968710,0.522769930,11.113294600,-0.200091330,0.212854180,0.364896740
1640843766.863649,0.201533080,0.424587790,11.320248600,-0.219743000,0.167374340,0.358583120
1640843766.867659,0.254029930,0.351811290,11.450935360,-0.229288640,0.141182560,0.350549850
1640843766.868140,0.415205390,0.036400090,10.977766990,-0.241260260,0.197951540,0.320787790
1640843766.873390,0.584034860,-0.009590450,10.692334180,-0.206409390,0.197859110,0.318361850
1640843766.874110,0.299894540,0.058544920,11.056342120,-0.185230390,0.171026590,0.314113530
1640843766.877660,0.130481840,-0.034087770,10.592138290,-0.241687910,0.147779290,0.328387320
1640843766.878080,0.122729620,-0.052429470,10.338148120,-0.236719880,0.120832050,0.359723030
1640843766.882799,-0.303589970,-0.125724460,11.266028400,-0.183717920,0.170463340,0.356811290
1640843766.884199,-0.274409950,-0.087596980,11.252116200,-0.173017380,0.190772130,0.335410240
1640843766.887699,0.085219390,0.115458180,11.210853580,-0.166727600,0.134040400,0.338338350
1640843766.888069,0.087051560,0.068726170,11.574866290,-0.176323940,0.187322500,0.309225890
1640843766.892769,0.422909170,0.270050440,10.667304990,-0.196114200,0.181046140,0.300642850
1640843766.893380,0.503940050,0.558790680,10.503131870,-0.179339980,0.099217910,0.327834550
1640843766.900460,0.233414370,0.418847650,10.926565170,-0.190924120,0.141781570,0.334839520
1640843766.903890,0.323928330,0.385657040,10.492257120,-0.196135060,0.167031590,0.338996980
1640843766.904399,-0.038993040,0.381069090,11.380973820,-0.168955340,0.106398780,0.335426630
1640843766.904719,-0.286111470,0.103477720,11.806708340,-0.186666860,0.128178300,0.319339360
1640843766.908350,-0.063806110,0.194599080,10.819642070,-0.198097540,0.137555570,0.318461600
1640843766.908779,-0.306672450,0.522608940,11.330865860,-0.202204300,0.066877900,0.320996370
1640843766.912609,-0.219482020,0.527919950,11.065489770,-0.255641370,0.116419800,0.347024200
1640843766.912880,0.384628830,0.571995740,10.037724490,-0.245426640,0.138969720,0.369179280
1640843766.917660,0.299987670,0.504465280,11.349312780,-0.186993200,0.136087830,0.344912710
1640843766.918049,0.316074340,0.442576560,11.677045820,-0.205773140,0.140081360,0.323849920
1640843766.922690,0.623753730,0.587931040,10.689822200,-0.257837710,0.058798490,0.318913130
1640843766.923110,0.294460950,0.396547140,11.245809560,-0.288984180,0.076119610,0.317649540
1640843766.927580,0.055451170,0.319773580,11.027522090,-0.284329120,0.154118280,0.324027330
1640843766.927820,0.163350180,0.454222170,10.261441230,-0.252354150,0.068418690,0.349552930
1640843766.932720,-0.115881590,0.268634590,10.979110720,-0.247079150,0.080437970,0.356833640
1640843766.933230,-0.012848470,0.098160940,10.950353620,-0.264750510,0.164903730,0.369414780
1640843766.937850,0.146079300,0.107452880,10.942712780,-0.270128340,0.099408640,0.349263910
1640843766.938370,-0.027473640,-0.009683660,11.692299840,-0.261881950,0.059033930,0.326891240
1640843766.943660,0.320883450,-0.105536590,10.743272780,-0.237569230,0.121071940,0.329715010
1640843766.944080,0.353075830,0.015447480,10.527169230,-0.229267820,0.095161800,0.316488770
1640843766.947620,0.036993690,0.064862970,11.009960170,-0.238540780,0.075984000,0.328758360
1640843766.947950,0.269528780,0.034513700,10.160659790,-0.258392100,0.084762300,0.355787630
1640843766.952659,0.066230600,0.089291420,10.661086080,-0.233835000,0.065037600,0.347493590
1640843766.953230,-0.270533920,0.094708960,11.461984630,-0.214114810,0.076162820,0.344044030
1640843766.957600,0.027077400,0.146299390,10.932149890,-0.218944250,0.075481840,0.350312920
1640843766.957939,-0.039444980,0.179406550,11.390137670,-0.216431920,0.075228520,0.334806740
