# timestamp,accel_x,accel_y,accel_z,gyro_x,gyro_y,gyro_z
1640787230.614329,-0.052145970,0.516296210,9.895865440,0.019614400,-0.087778260,0.032442810
1640787230.615360,-0.470257070,0.336641970,9.930561070,0.009754300,-0.061015800,0.012809040
1640787230.619650,-0.204299260,0.266100790,9.007064820,0.004799660,-0.002764170,0.025366250
1640787230.622100,-0.325052590,0.077147020,10.061711310,0.008919840,0.042738020,0.018224120
1640787230.624310,-0.210379060,0.242814720,10.421683310,-0.019735100,0.089077660,-0.013484060
1640787230.626819,-0.108776780,0.597369310,10.316302300,-0.034491720,-0.054828830,0.004158910
1640787230.629439,-0.180380550,0.574288070,10.044506070,-0.072620810,-0.091798610,-0.006538630
1640787230.631800,0.118223740,0.633634920,8.814330100,-0.061880050,-0.006869440,-0.021587310
1640787230.634230,-0.056943600,0.409121540,9.574675560,0.000077490,0.044508280,-0.004708770
1640787230.634650,-0.044597480,0.058693550,9.990790370,0.022657220,0.052854420,0.010915100
1640787230.639860,0.076471840,-0.127644750,9.897693630,0.024235250,-0.023429100,0.026436150
1640787230.640540,-0.189212960,-0.356881260,10.181334500,-0.016073880,-0.023604940,0.036546590
1640787230.644680,-0.203278620,-0.267141970,9.733791350,-0.056158010,-0.030098850,0.003378090
1640787230.647670,-0.267227860,-0.054029080,9.671903610,-0.036287300,-0.025865430,-0.030028820
1640787230.649160,-0.121633280,0.242708950,9.469834330,-0.005409120,0.057461870,-0.053440040
1640787230.649690,-0.095090940,0.630995090,9.762405400,0.021140280,0.039067870,-0.028890380
1640787230.654870,-0.231066390,0.542051610,10.172896390,0.011599060,-0.005359950,0.007152560
1640787230.656070,-0.142610120,0.356791020,9.605600360,0.002405050,-0.058634590,0.031812490
1640787230.659459,-0.326160910,0.191420180,9.741219520,0.014157590,-0.070844590,0.022827090
1640787230.661160,-0.148661780,-0.008779240,9.569683070,0.013428930,0.042411680,0.019089880
1640787230.664710,-0.019897380,0.184054240,10.007783890,0.004337730,0.033816700,-0.003620980
1640787230.666370,-0.058740130,0.311049010,10.640304570,-0.026245420,0.025159120,-0.020495060
1640787230.670080,0.193629240,0.537148770,9.779153820,-0.047957890,-0.013037020,-0.003892180
1640787230.672500,-0.137509900,0.617229100,10.005361560,-0.027346620,-0.069898370,-0.006422400
1640787230.674199,-0.125253130,0.485864100,9.333829880,-0.013543670,0.000247360,-0.009907780
1640787230.674690,-0.115642630,0.462386190,9.104915620,0.000187750,0.012534860,0.016777220
1640787230.679489,-0.400196490,0.115907030,10.366283420,-0.002068280,0.043626130,0.017678740
1640787230.681919,-0.083865010,-0.078078640,9.844066620,-0.005970900,0.046274070,0.035241250
1640787230.686560,-0.248471270,-0.008459960,10.436508180,-0.002579390,-0.062717500,0.028175120
1640787230.688099,-0.208432470,-0.048996650,9.975806240,-0.041860350,-0.003060700,-0.001414120
1640787230.690650,0.156355900,0.245197030,8.902335170,-0.035293400,0.004617870,-0.015446540
1640787230.693220,-0.144035490,0.352748010,10.036672590,-0.014984610,0.032815340,-0.027057530
1640787230.694650,0.156248060,0.311749100,9.390815730,-0.003883240,0.074315060,-0.016930700
1640787230.698639,-0.012332890,0.294474900,9.857392310,0.043202940,-0.049211090,0.011530520
1640787230.699990,-0.323045400,0.079491820,10.245926860,0.022842000,-0.014054780,0.017361340
1640787230.700709,-0.096093430,-0.069727290,9.238654140,-0.001949070,0.000746550,0.031128530
1640787230.704810,-0.533587570,-0.098819430,10.501583100,0.015044210,-0.015926360,0.007073580
1640787230.705649,-0.191067130,0.057752050,9.736065860,0.006377700,0.064449020,-0.023297970
1640787230.709990,-0.056996790,0.453489540,9.599939350,0.013498960,-0.000740590,-0.018180900
1640787230.714130,-0.416033330,0.590420480,10.475156780,-0.013692680,0.009511410,-0.004112720
1640787230.715109,-0.108672020,0.610226040,9.306237220,-0.007617470,-0.034256280,-0.007230040
1640787230.716080,-0.399670810,0.684552790,9.858747480,0.027176740,-0.109270220,-0.008666520
1640787230.719240,-0.208863790,0.574794410,9.570202830,-0.014016030,0.032052400,0.008802120
1640787230.720290,0.098347110,0.347676690,9.758051870,-0.010605160,0.069399180,0.027035180
1640787230.725800,-0.307803180,0.316165150,11.396107670,-0.010336940,0.013379750,0.008644160
1640787230.727310,0.086068720,0.477446200,9.937066080,-0.053533920,-0.045835980,0.019422170
1640787230.729980,0.031411870,0.418809860,9.394461630,-0.071866810,-0.110284980,0.014099480
1640787230.733100,-0.103278350,0.442267720,9.297382350,-0.086422270,0.024335090,-0.017939510
1640787230.734130,0.112504390,0.360668060,8.962837220,-0.045911970,0.073105100,-0.013706090
1640787230.734570,-0.225006920,0.054106460,10.451903340,0.009857120,0.004047160,-0.006960330
1640787230.740010,-0.152854290,-0.065984250,10.155498500,0.002865490,0.002227720,0.007410350
1640787230.741520,-0.266252100,-0.241216930,9.990851400,-0.021773570,-0.070612130,0.015692410
1640787230.744560,-0.576826390,-0.272057680,10.209687230,-0.050984320,-0.033119310,0.010822710
1640787230.745290,-0.200673010,-0.053273110,9.155401230,-0.044043370,0.017580390,-0.007317960
1640787230.750290,-0.235910150,0.172726090,9.927706720,0.000783800,0.021907690,-0.026673070
1640787230.751710,-0.023334230,0.569316450,9.766151430,-0.011329350,0.050137940,-0.014477970
1640787230.755499,0.111732490,0.535407360,9.750167850,-0.018928950,-0.029815740,0.002972780
1640787230.757789,-0.119690140,0.263848600,10.166073800,0.012592970,-0.049877170,0.014944380
1640787230.759280,0.017937150,0.287684860,9.373146060,0.014893710,-0.036028030,0.005929170
1640787230.760120,-0.146625120,0.057215730,10.028866770,0.006616120,0.002795460,0.006119910
1640787230.764819,-0.126729680,0.073318700,10.091612820,-0.009919700,0.069268060,0.015598540
1640787230.765960,-0.172086000,0.304258140,10.307314870,-0.018508730,-0.016057490,-0.012981890
1640787230.769349,-0.292588830,0.491918770,10.221892360,-0.041808200,-0.059445210,0.004257260
1640787230.770409,-0.071432400,0.693397050,8.971520420,-0.059132270,-0.037856400,0.007493790
1640787230.774449,-0.203918050,0.563478110,9.658061980,-0.036408010,0.006328520,-0.030197210
1640787230.776520,-0.083404290,0.604142900,9.640927310,-0.010266900,0.069728480,-0.003778930
1640787230.780409,0.000238260,0.373293400,9.917566300,-0.016048550,-0.005941090,0.014427310
1640787230.782980,-0.137806650,-0.160206880,10.480239870,-0.020730500,-0.000202660,0.015087430
1640787230.784190,0.030639600,-0.152670170,9.424859050,-0.007691980,-0.034019350,0.031395260
1640787230.784730,-0.200273500,-0.322243840,9.874567030,-0.012087820,-0.049379480,0.006160140
1640787230.789549,0.014455250,-0.301389460,9.382642750,-0.026658180,0.078439730,-0.022783880
1640787230.790510,0.125296650,0.210937320,9.549673080,-0.013956430,0.037828090,-0.024768720
1640787230.794659,-0.071676590,0.313008730,10.461793900,-0.020807980,0.030978020,-0.018291170
1640787230.796049,0.170286740,0.407948430,9.297546390,-0.000849370,0.017011170,0.004167860
1640787230.799700,-0.339120890,0.337716700,10.169979100,0.043214860,-0.065834830,0.000862780
1640787230.802310,-0.484462920,0.184752180,9.705535890,0.032925600,0.012950600,-0.008669500
1640787230.804649,-0.320162360,0.194363920,9.197065350,0.022880740,-0.024709110,0.004421170
1640787230.805529,-0.537519040,0.219521700,10.471776960,-0.003971160,0.047519800,-0.021865960
1640787230.809280,0.014059570,0.529020850,9.647330280,-0.040306150,0.080296400,-0.010290740
1640787230.810099,-0.096368630,0.716258590,10.338912960,-0.041630860,-0.032104560,0.019316380
1640787230.814450,0.023725130,0.548575940,10.022621150,-0.041201710,0.022400920,0.002540650
1640787230.816640,0.263649280,0.419230580,9.041870120,0.017318130,-0.016583500,-0.005009770
1640787230.819429,-0.259193300,0.221128260,10.141400340,0.044785440,-0.017094610,-0.012286010
1640787230.820950,-0.054242060,0.028805680,9.397821430,-0.003021960,0.058387220,-0.013208390
1640787230.824329,-0.173376780,0.074381850,9.888130190,-0.026185810,-0.017566980,0.011053680
1640787230.830690,-0.365547360,0.166388970,10.503043170,-0.068195160,0.028823320,0.018641350
1640787230.834640,0.029826720,0.315649120,9.233687400,-0.056707870,0.019221010,0.019097330
1640787230.835219,-0.221141430,0.467915000,10.055473330,-0.018197300,-0.020585960,0.009201470
1640787230.835520,-0.011181780,0.548581180,9.477272030,-0.024478140,0.082807250,-0.012287500
1640787230.836449,0.015384710,0.280453680,9.484748840,0.009898840,-0.005535780,0.009387730
1640787230.839210,-0.374411050,-0.080154390,10.305672650,0.036132330,-0.011220570,0.007279220
1640787230.839830,-0.136459010,-0.182868000,9.138049130,0.022333860,0.009053950,0.004155930
1640787230.844499,-0.474260330,-0.177003650,10.078414920,0.007580220,-0.055195390,0.013408060
1640787230.848480,-0.342745480,0.062336940,9.743667600,-0.052355230,0.058443850,-0.011377040
1640787230.849470,-0.018535070,0.373824780,9.536780360,-0.041371580,0.017271940,-0.016441940
1640787230.850160,-0.263927790,0.602453650,10.614053730,-0.002007190,0.023986400,0.008113680
1640787230.854339,0.090089220,0.624009250,9.548184390,0.012420120,0.018492340,0.009633600
1640787230.855589,-0.141692830,0.339994070,9.994787220,0.044956800,-0.073398660,0.001348560
1640787230.859730,-0.309779170,0.360702130,9.645326610,0.025159120,-0.000624360,0.007662180
1640787230.861110,-0.144499450,0.238916980,9.135111810,-0.025670240,-0.016717610,-0.000387430
1640787230.868880,-0.404847590,0.186865330,10.310729980,-0.043921180,0.005663930,0.004377960
1640787230.869840,-0.138012250,0.529663380,9.797218320,-0.065469730,0.053219500,0.013841690
1640787230.870309,-0.144110590,0.404226030,10.269848820,-0.040873890,-0.045880680,0.015461450
1640787230.870689,-0.082824480,0.355069580,9.926218030,-0.008171800,0.003875790,0.023466350
1640787230.887169,0.102579590,0.314447790,9.236155510,0.005850200,0.012966990,0.001789630
1640787230.887930,-0.224329290,0.003487610,10.107185360,-0.003935400,-0.024247170,-0.002044440
1640787230.888440,-0.035550560,0.041548740,9.192696570,-0.027871140,0.003270810,0.012356050
1640787230.888980,-0.016170210,-0.176623300,9.592395780,-0.016517940,-0.023838880,-0.002381210
1640787230.889410,-0.227538730,-0.102820250,10.010593410,-0.002780560,0.053130090,0.013667350
1640787230.889850,-0.170488000,0.219880420,9.633212090,-0.016628200,-0.016546250,0.000041720
1640787230.890280,-0.300009310,0.138609840,10.212527280,-0.018766520,-0.061070920,-0.013791030
1640787230.892000,-0.036149710,0.449573340,9.122698780,-0.006039440,0.024032590,0.000223520
1640787230.894450,-0.074105460,0.426268940,9.662691120,0.006702540,0.008679930,-0.003656740
1640787230.896540,-0.188441200,0.149857600,10.135323520,0.014720860,0.062587860,0.029920040
1640787230.903290,-0.043403190,0.197730560,9.551699640,0.039546190,-0.023216010,0.013822320
1640787230.905020,-0.386807650,-0.034594210,10.265417100,0.024579460,-0.066976260,-0.004762410
1640787230.905609,-0.295977030,0.007788140,9.284341810,-0.006890300,-0.008298460,-0.004313890
1640787230.906060,-0.362361490,0.285559090,9.631408690,-0.008937720,-0.041039290,-0.033028430
1640787230.909530,-0.335103270,0.371690240,10.231435780,-0.027024750,0.052210690,-0.012454390
1640787230.912600,0.033272570,0.579548480,9.630627630,-0.015760960,0.021213290,0.016033650
1640787230.914399,-0.020015880,0.556871590,10.449701310,0.005806980,-0.039103620,0.010724370
1640787230.917330,0.148013580,0.454277460,9.543297770,0.000399350,0.011968610,0.007684530
1640787230.919270,0.048505110,0.407800410,9.367791180,-0.003872810,-0.059007110,0.011457500
1640787230.920390,-0.244307470,0.034610220,10.032008170,-0.016587970,-0.005011260,-0.005568560
1640787230.924719,-0.084612210,-0.060859230,9.076797490,0.007741150,0.006970760,0.001288950
1640787230.927230,-0.301332680,-0.015488700,10.000022890,0.020331140,-0.033099950,0.009101630
1640787230.929989,-0.195652750,-0.021140010,9.751214030,-0.034718210,0.066272910,0.003559890
1640787230.931880,-0.119714830,0.095937480,9.692646980,-0.020195540,-0.028137860,-0.005152820
1640787230.934610,-0.341446880,0.144855630,10.434536930,0.007146600,-0.036966800,-0.017677250
1640787230.935250,0.024927520,0.155441970,8.966743470,0.030794740,0.003920500,-0.001715120
1640787230.939250,-0.229604830,-0.023027130,9.812757490,0.068877640,-0.040023030,0.002130870
1640787230.941570,-0.294155060,-0.075107880,9.842150690,0.065131490,0.050026190,-0.015272200
1640787230.944860,-0.198849470,0.139752060,9.411305430,0.042323770,-0.078529130,-0.006690620
1640787230.949540,-0.442252310,0.267198560,10.146530150,-0.004382430,-0.063186880,-0.004695360
1640787230.950889,-0.064394530,0.508492950,9.102080350,-0.034686920,0.028207900,-0.023055080
1640787230.951740,-0.279527960,0.685667690,10.275361060,0.012725590,-0.043892860,-0.007577240
1640787230.954200,-0.119733910,0.628466960,10.245193480,0.038827960,0.031460820,0.008252260
1640787230.955910,0.151697010,0.390146670,9.545869830,0.055722900,-0.045003010,-0.010101500
1640787230.959920,-0.265692770,0.248611670,10.438689230,0.062061850,-0.054295360,-0.005473200
1640787230.962129,-0.119850130,0.262284700,9.139256480,-0.015224520,-0.019493700,-0.011289120
1640787230.964800,-0.297461720,0.122634030,9.526094440,-0.045168400,-0.105269280,-0.007605550
1640787230.965510,-0.351542150,0.316333710,9.709581380,-0.037604570,0.017213820,0.000876190
1640787230.969190,0.057077340,0.430073680,9.132040020,-0.021575390,0.005692240,-0.001162290
1640787230.969650,-0.143743070,0.288960580,10.668509480,0.003014500,-0.020295380,0.000813600
1640787230.974310,0.172527270,0.273333730,9.747757910,0.011995430,0.024105610,-0.010219220
1640787230.975989,0.171702890,0.137999980,9.819931030,0.015291570,-0.110042100,-0.022023920
1640787230.980460,-0.023570860,0.096991080,9.700630190,-0.013916200,-0.009427970,0.002582370
1640787230.981969,0.174855980,-0.076345260,8.711587910,-0.022757050,0.024157760,-0.007390980
1640787230.984220,-0.333683250,-0.166634740,10.354101180,0.021305680,-0.016957520,-0.022833050
1640787230.985299,-0.385724370,0.269418300,9.649574280,0.017826260,0.006408990,-0.007760520
1640787230.989200,-0.292794910,0.321472910,9.515478130,-0.018407410,-0.104957820,-0.035059450
1640787230.989940,-0.595179500,0.486267030,10.267743110,-0.032566490,-0.003317000,-0.018745660
1640787230.994279,-0.145667930,0.800118680,9.288780210,-0.029152630,0.018149610,-0.012835860
1640787230.998289,-0.171929760,0.453771380,10.525396350,0.001423060,-0.038544830,-0.001013280
1640787231.000049,0.048712730,0.489293460,9.793521880,0.018233060,0.044810770,0.003457070
1640787231.000739,0.167325680,0.361419530,9.512261390,0.005826350,-0.063796340,-0.012820960
1640787231.004249,-0.242275830,0.157339690,10.297449110,-0.049121680,-0.048300620,0.003728270
1640787231.004910,-0.019290500,0.202760310,8.902913090,-0.066289290,-0.028090180,0.008182230
1640787231.009320,-0.149857340,-0.008881780,9.900367740,-0.030326850,-0.048187390,-0.002898280
1640787231.011710,-0.159873490,0.177466690,9.912063600,-0.010181960,0.067535050,0.019486250
1640787231.014690,0.128046080,0.284898580,9.591730120,-0.025275350,-0.013418500,0.004877150
1640787231.017089,-0.124603760,0.148409680,10.631754880,-0.035622710,-0.025367730,-0.002637510
1640787231.019179,-0.034886170,0.309755090,9.279966350,-0.036148730,-0.024971370,-0.000952180
1640787231.019840,-0.150032370,0.044911370,9.607550620,-0.005654990,-0.085824730,-0.005285440
1640787231.024220,-0.372629610,-0.113679330,9.669350620,0.020024180,0.045616920,-0.002805890
1640787231.024960,-0.270527930,0.065304030,9.285786630,0.040487950,-0.022867320,-0.004315380
1640787231.030290,-0.532119270,-0.049130100,10.473855970,-0.000195210,-0.047148760,-0.003601610
1640787231.032719,-0.231954710,0.189995070,9.355756760,-0.046782190,-0.007109340,-0.005520880
1640787231.035840,-0.163660970,0.376583520,10.043846130,-0.028049950,-0.076584530,-0.008733570
1640787231.037180,-0.050803830,0.362868280,10.156301500,-0.010564920,0.044821210,0.009614230
1640787231.039270,0.215398770,0.386638700,9.517702100,0.037690990,-0.005179640,0.013829770
1640787231.040820,-0.073456670,0.220589910,10.561969760,0.059996540,-0.033602110,0.001730020
1640787231.044809,-0.094149300,0.243427560,9.323251720,0.018031900,-0.023972990,-0.003701450
1640787231.048709,-0.349241940,0.307061880,9.558938980,-0.030417740,-0.136327740,0.002670290
1640787231.049250,-0.468670190,0.356976570,9.623692510,-0.061893470,0.012327730,0.013020640
1640787231.049749,-0.190485840,0.459411560,9.209868430,-0.050263110,0.002521280,0.007882720
1640787231.054420,-0.252806660,0.389011680,10.720841410,-0.001271070,0.004684930,0.019319360
1640787231.055760,0.104162770,0.308614130,9.908583640,0.010827180,0.045908990,0.003173950
1640787231.059729,0.092037950,0.143191140,10.044903760,0.012101230,-0.106617830,-0.013197960
1640787231.060959,0.023725310,0.050161480,9.708668710,-0.023634730,-0.028567020,0.005631150
1640787231.064190,0.235575150,-0.144552410,8.639995570,-0.034829980,-0.001476710,0.006589290
1640787231.064730,-0.216850590,-0.208092080,10.096780780,0.006306170,-0.013396150,0.002619620
1640787231.069370,-0.114838240,0.090584250,9.387079240,0.009526310,0.042839350,0.000178810
1640787231.070129,-0.173110400,0.109935010,9.871508600,0.001531840,-0.071753560,-0.004278120
1640787231.074580,-0.526400740,0.292402330,10.470592500,-0.008045140,-0.009360910,-0.012247260
1640787231.076040,-0.157893490,0.516854520,9.202919960,-0.016714630,-0.030334300,-0.010244550
1640787231.079259,-0.401929290,0.310132060,10.440847400,0.012107190,-0.047968330,0.002948940
1640787231.080060,-0.147521050,0.356224330,9.475835800,0.032676760,0.077763200,-0.005756320
1640787231.084990,-0.130165560,0.302587990,9.834192280,0.033392020,-0.056225070,-0.016348070
1640787231.085770,-0.502833010,0.306325320,10.396628380,0.002075730,-0.061033680,0.003811720
1640787231.089259,0.034270570,0.459451710,8.574193950,-0.050871090,-0.059735780,-0.011289120
1640787231.090230,-0.174530820,0.480037990,10.042797090,-0.050689270,-0.047516820,0.007119770
1640787231.094630,-0.018427690,0.625297730,9.887713430,-0.049094860,0.100992620,0.023546820
1640787231.095759,0.372815940,0.477868320,9.935894970,-0.035479670,-0.028476120,0.007274750
1640787231.099280,0.005740300,0.246428460,10.892379760,-0.010322030,-0.023160880,0.002413990
1640787231.100119,0.162055640,0.196510630,9.038869860,-0.021095580,-0.030499700,-0.014582280
1640787231.104159,-0.203656540,-0.145137240,9.668633460,-0.024509430,-0.105041270,-0.018537040
1640787231.104640,-0.463295820,-0.159168270,9.449164390,-0.033010550,0.035713620,-0.006042420
1640787231.109269,-0.201156660,-0.084955240,8.957215310,-0.024749340,-0.004266200,-0.013528770
1640787231.110880,-0.504702030,-0.087017920,10.526620860,-0.021643940,-0.003273790,0.011225050
1640787231.114130,-0.170694380,0.123125350,9.521319390,-0.013990700,0.032903260,0.012251740
1640787231.114509,-0.071873290,0.149610820,10.147444730,0.016203520,-0.088237220,-0.014182920
1640787231.119180,-0.136934100,0.301346750,10.149511340,0.003544990,-0.016482170,0.008735060
1640787231.119930,0.357223060,0.230349090,8.848453520,0.006641450,0.005449360,0.003246960
1640787231.124740,-0.004316250,-0.009352140,10.424317360,0.038419660,0.019937760,-0.006400050
1640787231.125340,-0.085142210,0.307476460,9.727966310,0.044217700,0.034788250,-0.012037160
1640787231.129140,-0.207192270,0.398931380,9.686948780,-0.000779330,-0.141830740,-0.014078620
1640787231.129660,-0.536166790,0.531211850,9.780759810,-0.057984890,-0.031858690,-0.006912650
1640787231.134110,-0.272131560,0.692907990,8.938825610,-0.057257700,0.015047190,-0.005784630
1640787231.134539,-0.343123560,0.547784270,10.558422090,-0.004991890,0.027023260,0.000397860
1640787231.139360,-0.008246220,0.508209760,10.043533330,0.011490290,0.071503230,0.012791160
1640787231.142870,0.193169970,0.248219480,10.079643250,0.023609400,-0.062726450,-0.006242100
1640787231.144140,-0.104834370,0.127127800,10.151686670,-0.021956860,-0.026471910,-0.000095370
1640787231.144490,0.010696900,0.058795550,8.810297010,-0.067305560,-0.057768830,0.006754700
1640787231.149129,-0.203877930,-0.188191530,9.672670360,-0.026685000,-0.034734610,-0.000475350
1640787231.149710,-0.147293050,0.042153240,9.187555310,-0.001187620,0.082674620,-0.004617870
1640787231.155400,-0.036735730,0.177597430,9.776256560,-0.006134810,-0.009867550,0.004085900
1640787231.156459,-0.207722280,0.123712940,10.555265430,-0.023043160,0.041419270,0.006939470
1640787231.159220,-0.017513130,0.260300640,9.691308020,-0.023046140,-0.030882660,-0.015993420
1640787231.159829,-0.264442290,0.221382860,10.272627830,-0.000596050,-0.088752810,-0.004944210
1640787231.164100,-0.023265530,0.135937880,8.950157170,0.004662570,0.054031610,0.009216370
1640787231.164480,-0.066147390,-0.038742610,9.581828120,0.041091450,0.026060650,-0.002676250
1640787231.169160,-0.450141820,0.041082080,10.586716650,0.046736010,0.052344800,0.010094050
1640787231.169629,-0.227801780,0.162028980,9.410079000,-0.002603230,-0.083620830,0.002363320
1640787231.174239,-0.407836200,0.196252520,9.942529680,-0.021857020,-0.117261690,0.005050000
1640787231.175310,-0.141735330,0.552445950,9.089944840,-0.025852020,0.070993590,0.010471050
1640787231.179149,0.107603070,0.610746380,9.835503580,-0.016762320,0.032629080,0.013281410
1640787231.179860,-0.046734800,0.570922790,11.120891570,0.015173850,0.068789730,0.008635220
1640787231.184090,0.368787830,0.683179970,9.565375330,0.001487140,-0.018562380,-0.003975630
1640787231.184480,-0.149722590,0.408481150,10.229459760,-0.019410250,-0.131350730,0.000871720
1640787231.189270,-0.333934690,0.272273420,9.064841270,-0.053904960,0.022788350,0.006069240
1640787231.190179,-0.185953050,-0.008740570,8.815084460,-0.025512280,-0.023868680,-0.001251700
1640787231.194340,-0.461781020,-0.135721610,10.375593190,0.008118150,0.050258630,0.022579730
1640787231.194840,0.109153080,-0.031375690,9.271450040,-0.014118850,0.098451970,0.022962690
1640787231.199200,0.027845720,-0.160717550,10.740462300,-0.017933550,-0.030535460,0.012210010
1640787231.199869,-0.125232040,0.062774680,10.438972470,-0.024938580,0.013352930,0.000652670
1640787231.204259,0.133470480,0.176429110,8.902194980,-0.014667210,-0.095750390,-0.011938810
1640787231.205010,-0.324354170,-0.077409940,9.913442610,0.022661690,-0.015221540,-0.003372130
1640787231.209440,-0.176202270,0.139161420,8.893576620,0.057347120,0.134480010,-0.020530820
1640787231.210480,-0.307190030,0.239413980,10.198860170,0.063373150,-0.023591520,-0.008477270
1640787231.214150,-0.508917870,0.298023070,10.449598310,-0.001937150,0.001928210,0.025622550
1640787231.214569,0.106971410,0.421645310,8.890474320,-0.031453370,-0.035761300,0.008317830
1640787231.219509,-0.178733470,0.387647600,10.491733550,-0.006438790,0.003278260,0.024129450
1640787231.220430,0.132614120,0.394811720,9.646461490,0.020271540,0.127227620,0.010429320
1640787231.224830,0.215423200,0.197398840,10.214735980,0.062525260,-0.006063280,-0.023764370
1640787231.226359,-0.305796680,0.229717000,10.733159070,0.049211080,0.007408860,-0.018890200
1640787231.229220,-0.171357440,0.287941600,8.948410030,-0.011795760,-0.064630810,-0.029632450
1640787231.229780,-0.578136090,0.163722130,9.823160170,-0.038285550,-0.084163260,-0.013336540
1640787231.234160,-0.444874760,0.357788210,9.119874950,-0.025798380,0.090733180,0.003102420
1640787231.234740,-0.039083160,0.391676960,9.633137700,0.017844140,0.052495290,0.024588400
1640787231.239230,-0.086010930,0.370233360,10.895851140,0.026270750,0.091256210,0.050322710
1640787231.240280,0.311729790,0.479202060,9.844062810,-0.006793440,0.010250510,0.024357440
1640787231.244120,0.096877000,0.332477660,10.258875850,-0.024199490,-0.092019140,0.009424990
1640787231.244520,-0.014371260,0.237372340,9.177832600,-0.048702960,0.008879600,-0.009167200
1640787231.249110,0.005602650,-0.075847310,9.034546850,0.013151760,0.015120210,-0.039677320
1640787231.249580,-0.398553340,-0.156729360,10.234354020,0.076042110,0.090073030,-0.037470460
1640787231.254310,-0.342960210,0.019227500,9.598453520,0.047668810,0.024081770,-0.028312210
1640787231.254930,-0.457814810,-0.030514340,10.264350890,-0.008335710,-0.079326330,0.007426740
1640787231.259519,-0.403694990,0.234979570,9.582583430,-0.053754450,0.009393690,0.030049680
1640787231.261050,-0.127971630,0.382766930,9.468875890,-0.020293890,-0.009371340,0.023050610
1640787231.264160,-0.089063700,0.450012450,10.418951030,0.037428740,0.085465620,0.026936830
1640787231.264639,0.168077950,0.567456310,9.916018490,0.047810380,0.072158890,-0.021398070
1640787231.269179,-0.143650470,0.469542350,10.890838620,0.041933360,-0.076849760,-0.023363530
1640787231.269879,-0.342611940,0.426064250,9.684744830,-0.005173680,-0.053378940,-0.008806590
1640787231.274160,-0.363330840,0.321407500,8.800051690,-0.031517450,-0.108434270,-0.022484360
1640787231.274659,-0.527534430,0.356697770,9.609960560,-0.028066340,0.024147330,0.004893540
1640787231.279150,0.003001020,0.459529280,8.999808310,-0.032512850,0.114288930,0.020241740
1640787231.279729,0.114350770,0.290887770,10.765099530,-0.020164250,0.030314930,0.022549930
1640787231.284160,0.157811850,0.271467090,10.690941810,-0.014810270,0.055131320,0.014480950
1640787231.284639,0.221314370,0.172131640,9.724946020,-0.017437340,-0.116011510,-0.011138620
1640787231.289800,-0.280278090,-0.079327920,10.061166760,-0.013719500,-0.085572910,-0.001026690
1640787231.290779,-0.146273110,-0.192804960,8.310751910,0.001795590,0.056980550,-0.025558470
1640787231.294489,-0.387424200,-0.259315970,9.614612580,0.038921830,-0.000582640,-0.024369360
1640787231.295070,-0.541117490,-0.108953110,10.258780480,0.027646120,0.095026190,0.012126560
1640787231.299260,-0.133654910,0.017120550,9.474846840,0.005543230,-0.044384610,0.005735460
1640787231.300470,-0.360260960,0.193440300,10.706861500,-0.003880260,-0.099092720,0.015328820
1640787231.304220,0.246803490,0.435442240,8.902531620,-0.014589730,0.070638950,0.013785070
1640787231.304930,0.349284560,0.254861860,9.848844530,0.039039560,0.034372510,-0.016747420
1640787231.309340,-0.082038250,0.411439690,10.909904480,0.077156710,0.097474450,-0.027295940
1640787231.309960,0.080683930,0.541164340,9.266158100,0.042292480,-0.062742840,-0.027930740
1640787231.314110,-0.553145950,0.426342430,10.172668460,-0.014525650,-0.159728570,-0.011298060
1640787231.314600,-0.620455500,0.475214930,8.839152340,-0.058613720,0.030882660,-0.003309550
1640787231.319180,-0.362922340,0.362226960,9.232604980,-0.018715860,-0.008949640,0.007097420
1640787231.319759,-0.447936770,0.330099280,10.948805810,0.021739300,0.106109690,0.014092030
1640787231.324200,0.373505980,0.411745640,9.699961660,0.020264090,0.089217710,-0.006464120
1640787231.325739,0.242077280,0.457612690,10.926895140,-0.011570750,-0.054365400,-0.006937980
1640787231.329160,0.057952060,0.602878750,9.765982630,-0.092488530,-0.016801060,-0.004251300
1640787231.329700,0.317032870,0.324699340,8.402461050,-0.082701450,-0.090041760,-0.014878810
1640787231.334139,-0.210472810,0.133279200,9.723798750,-0.001375380,0.048042840,-0.009664890
1640787231.334590,-0.136544360,0.019478440,9.257213590,0.031207510,0.137096640,-0.004079940
1640787231.339720,-0.323283730,-0.332081140,10.742834090,0.046442450,-0.036132330,0.012998280
1640787231.340580,-0.562059160,-0.237149280,10.541775700,0.001472230,-0.013963880,0.006130340
1640787231.344210,-0.111689050,-0.160316120,9.045930860,-0.049807140,-0.076651570,-0.012835860
1640787231.344709,-0.270377370,0.044013210,9.860518460,-0.033551450,0.027996300,-0.000403820
1640787231.349170,0.046995650,0.367099640,9.141668320,0.013397630,0.133501010,-0.036092100
1640787231.349730,0.163513660,0.554720940,10.114086150,0.060729690,0.014962260,-0.045134140
1640787231.354220,-0.209650020,0.836015280,10.375920300,0.023631750,0.002631550,-0.008521970
1640787231.354770,-0.094092410,0.450741590,9.330837250,-0.031431020,-0.093616540,-0.002466140
1640787231.359629,-0.459980790,0.063758660,10.058115010,0.012692810,-0.067183380,0.022667650
1640787231.360380,-0.325813000,0.005620220,9.292785640,0.045932830,0.074756150,0.013825300
1640787231.364240,-0.095327380,-0.267401930,10.211901660,0.061541800,0.052957250,-0.004827980
1640787231.364800,-0.108800040,0.152011510,10.581441880,0.021795930,0.092831250,-0.009633600
1640787231.369150,0.023387150,0.530973370,9.839823720,-0.058086220,-0.048825150,-0.030463930
1640787231.369880,-0.243520160,0.762487350,10.014660840,-0.081343940,-0.100874900,-0.011317430
1640787231.374169,-0.242612880,1.095016240,8.672003750,-0.058019170,-0.019414720,-0.026783350
1640787231.374699,-0.223485710,0.920476200,9.458244320,-0.009663400,-0.002485510,-0.003977120
1640787231.379760,-0.268364340,0.629153910,10.308557510,0.020806490,0.127080080,0.031796100
1640787231.380650,0.032269380,0.113798130,10.201300620,0.001290440,0.020417570,0.026525560
1640787231.384199,-0.069633510,-0.331219200,11.030565260,-0.013223290,-0.054314740,0.027768320
1640787231.384600,0.089657120,-0.272241920,9.258235930,-0.053115190,-0.017784540,0.009584430
1640787231.389170,0.226053270,-0.306817890,8.993894580,-0.071398920,-0.049196180,-0.030097370
1640787231.390149,0.045907440,-0.004543320,9.461512570,-0.055688630,0.132815550,-0.037923460
1640787231.394130,0.233553590,0.349462420,9.149261470,-0.023585560,0.082831070,-0.036412480
1640787231.394990,-0.264311190,0.227575420,10.984136580,0.009419020,-0.030264260,-0.005127490
1640787231.399210,-0.379316360,0.246175990,9.787598610,0.017274920,-0.013861060,0.003553930
1640787231.399860,-0.439195690,-0.032015260,9.619709010,0.019484750,-0.115348410,0.016845760
1640787231.404300,-0.715371430,-0.317116260,10.261689190,0.023074450,0.074142220,0.024713580
1640787231.405020,-0.121021760,-0.280504790,9.000987050,0.044065720,0.098189720,-0.005164740
1640787231.409700,-0.174471410,-0.024620240,10.511482240,0.060920420,0.009892880,-0.016124550
1640787231.410470,0.056432270,0.536932950,9.535558700,-0.006747250,0.071415290,-0.016033650
1640787231.414150,0.262711760,0.799833770,9.183936120,-0.057753930,-0.077557570,-0.012011830
1640787231.414579,-0.232265220,0.924351100,10.316361430,-0.049392890,-0.010402500,-0.009390710
1640787231.419139,0.065350100,0.807757850,8.907068250,0.004351140,0.050994750,-0.001654030
1640787231.419690,-0.216351780,0.286441680,10.720377920,0.076206040,-0.011453030,0.014133750
1640787231.424150,-0.458028730,-0.013198130,10.767937660,0.068180260,0.109927360,-0.001098220
1640787231.424840,-0.242642640,-0.161348210,9.656164170,0.015555320,-0.083082910,0.002565980
1640787231.429370,-0.587039470,-0.127598640,10.144657140,-0.044925510,-0.084161740,0.018864870
1640787231.430290,-0.059228330,0.286962540,8.048115730,-0.094895090,0.061087320,-0.013735890
1640787231.434120,0.170300780,0.675649110,9.295560840,-0.075443090,0.039824850,-0.003525620
1640787231.434480,0.113867860,0.907290640,10.443249700,-0.045670570,0.152204930,0.017195940
1640787231.439329,0.545639990,0.619232180,9.917471890,0.010798870,0.024054950,0.008717180
1640787231.440660,-0.110232200,0.124856170,11.384983060,0.066581370,-0.082401940,0.031073390
1640787231.444280,-0.279440310,-0.283912420,9.554110530,0.024747850,-0.022944810,0.010494890
1640787231.444820,-0.302407830,-0.822462680,8.938842770,0.016215450,-0.074157130,-0.001023710
1640787231.449100,-0.605656090,-0.671277110,9.395233150,0.020948050,0.112409890,-0.020332640
1640787231.449649,-0.055766030,-0.221728580,8.756735800,-0.002998110,0.131666660,-0.038735570
1640787231.454210,-0.237859580,0.328428800,10.610407830,-0.008085370,0.020557640,0.001978870
1640787231.454749,-0.104458120,0.895740630,9.976693150,-0.030985480,0.006945430,-0.000274180
1640787231.459450,0.125866040,0.812537790,9.735534670,0.002232190,-0.086171930,0.017429890
1640787231.460749,-0.268514390,0.637663070,10.396453860,0.059928010,0.049816080,0.033658750
1640787231.464120,-0.061335660,0.134564490,9.678534510,0.096671280,0.074602670,-0.010207300
1640787231.464550,-0.324741330,-0.147272770,10.564764980,0.110498090,-0.011846420,0.000689920
1640787231.469149,-0.434530620,0.038327210,9.533329010,0.013591350,-0.003238020,-0.006076690
1640787231.469740,-0.184765040,0.037141020,9.010542870,-0.076080860,-0.064462430,-0.003071130
1640787231.474990,-0.345754330,0.509185970,9.686383250,-0.059488420,0.043512880,0.013245640
1640787231.475780,0.055370090,0.906057830,9.302215580,-0.029933450,0.059859460,-0.002348420
1640787231.479100,0.149832950,0.810244860,10.717561720,0.022995470,0.051419440,0.029261410
1640787231.479610,0.056141190,0.748004560,10.568485260,0.041897600,0.076501070,0.016072390
1640787231.484190,-0.139363200,0.358587240,10.427323340,0.018276270,-0.103731440,0.000409780
1640787231.484580,-0.459751750,-0.021198850,9.875137330,-0.011417270,-0.084900860,0.024384260
1640787231.489339,-0.343542520,-0.247631460,8.282076840,-0.026166440,-0.018095970,-0.012242790
1640787231.490419,-0.324792060,-0.242733390,9.451118470,-0.017258520,0.072382400,-0.018322470
1640787231.494190,-0.201891360,0.082959700,9.748708720,-0.017082690,0.158782320,0.014066690
1640787231.494680,0.141869460,0.223752020,10.289056780,-0.016771260,-0.021626050,0.004433100
1640787231.499110,0.032545310,0.373879550,10.748934750,-0.015321370,-0.032661860,0.025129320
1640787231.499610,0.228986760,0.380468160,9.178631780,-0.011555850,-0.020526350,0.016163290
1640787231.504180,-0.123241400,-0.001506890,10.106742860,0.041320930,-0.017815830,0.000457470
1640787231.504760,-0.340571580,-0.215388090,9.699617390,0.078302620,0.092548150,-0.011907520
1640787231.509250,-0.327843190,-0.171245230,9.374664310,0.085550540,-0.031954040,-0.033183390
1640787231.511070,-0.740022780,-0.088519890,10.410429000,0.023216010,-0.026848920,-0.014629960
1640787231.514150,-0.419886980,0.165436670,8.946254730,-0.015957660,-0.002248590,0.003105400
1640787231.514510,-0.327593890,0.515426930,10.130003930,-0.000692900,-0.053983930,0.016193090
1640787231.519120,0.044814770,0.824157060,10.132110600,-0.002275410,0.123749670,0.036364800
1640787231.519660,0.654857100,0.761243520,9.741689680,0.014992060,0.068753970,0.021027030
1640787231.526950,0.204934460,0.680899620,11.464728360,0.048363210,0.023341180,-0.005131960
1640787231.527639,0.129554640,0.532819150,9.484970090,0.026801230,-0.035977370,-0.011044740
1640787231.529080,-0.288024250,0.156289100,9.333657260,0.003553930,-0.183540580,0.000381470
1640787231.529510,-0.748190940,0.087006990,9.269664760,-0.029413400,0.029982630,-0.000929830
1640787231.534080,-0.315272690,-0.013691570,8.631383900,-0.033541020,0.072892020,0.017915670
1640787231.534440,-0.415371360,0.046016610,11.150177960,-0.001779200,0.089266900,0.038160380
1640787231.539330,0.043851440,0.364324030,10.440550800,-0.006471580,0.107729460,0.011831520
1640787231.542420,0.381222960,0.484360280,10.032136920,-0.021700560,-0.101634850,0.009520350
1640787231.544099,0.042634040,0.613560320,9.994825360,-0.041143590,-0.000090900,0.009410080
1640787231.544450,0.329739000,0.335456790,8.225274090,-0.033676630,0.030274690,-0.017967820
1640787231.549150,-0.255843100,0.077086140,10.016817090,0.046651070,0.003886220,-0.000828500
1640787231.549640,-0.461979210,0.048768450,9.732941630,0.038784740,0.085981200,-0.012120610
1640787231.554250,-0.248936060,-0.217141450,9.722988130,0.003367660,-0.053073480,-0.000248850
1640787231.554940,-0.623136460,0.070249840,10.735414510,-0.041659170,0.012983380,0.017410510
1640787231.559130,-0.023522230,0.099203190,9.217929840,-0.068968530,0.070664290,0.019823010
1640787231.559980,-0.030611290,-0.001485490,10.374217990,0.031822920,0.006826220,0.023971500
1640787231.564180,-0.011627440,0.337056990,9.797504430,0.079299510,0.083680460,-0.020465250
1640787231.564550,0.166353540,0.303386990,9.251189230,0.062610210,-0.044080620,-0.027981400
1640787231.569130,-0.590761180,0.435223490,10.347134590,0.010216240,-0.052161510,-0.020022690
1640787231.569660,-0.454093780,0.413944720,9.106182100,-0.056998440,-0.025632980,-0.041435660
1640787231.575790,-0.461082910,0.280248310,10.127089500,-0.023201100,-0.036695600,0.002144280
1640787231.576540,-0.396584060,0.416453120,10.294495580,0.036168100,0.126692650,0.024554140
1640787231.579200,0.148868310,0.160444560,10.140962600,0.062750270,0.055453180,0.012324750
1640787231.579759,-0.042926500,0.352208550,10.701720240,0.036591290,-0.010839110,0.030340260
1640787231.584129,0.119877410,0.448328910,8.953266140,-0.055256500,-0.053425140,0.007787350
1640787231.584470,0.081976990,0.164936680,9.209331510,-0.067581240,-0.070185960,0.005075340
1640787231.589350,-0.255211470,0.345387940,9.504142760,0.000105800,0.070515260,-0.008818510
1640787231.592209,-0.040992420,0.272719140,9.766762730,0.033453110,0.020259620,-0.020952520
1640787231.594179,-0.206097780,0.224607740,10.852703090,0.028729440,0.043436890,0.013364850
1640787231.594580,-0.088586570,0.200773160,9.991374970,-0.017617640,0.029900680,-0.000648200
1640787231.599130,-0.064149800,0.022407900,10.099607470,-0.025019050,-0.062394150,0.014881790
1640787231.599670,-0.209211380,0.071016560,9.291129110,0.002744790,0.026129180,0.033144650
1640787231.608199,0.043515030,-0.031287930,8.734561920,0.026986000,0.004452470,0.005902350
1640787231.608630,-0.196218070,-0.052161510,10.074777600,0.048480930,0.070038440,-0.001384320
1640787231.609089,-0.226219130,0.133084580,9.721072200,0.017239150,0.050386790,-0.014829640
1640787231.609510,-0.327418060,0.070134570,10.571018220,0.005349520,-0.084181140,-0.029690570
1640787231.614149,-0.483278990,0.292584480,10.170427320,0.012618300,0.004725160,-0.021214780
1640787231.614519,-0.173551350,0.441608100,9.204140660,0.023798650,-0.028690700,-0.004588070
1640787231.619230,-0.240151930,0.269022940,10.393958090,0.032569470,0.056128210,0.025624040
1640787231.621879,0.045217570,0.274966930,9.378571510,0.057223440,0.098770870,0.015491250
1640787231.624950,0.013221830,0.271167700,10.166942600,0.068803130,-0.071994970,0.002150240
1640787231.626659,-0.218756450,0.442770780,9.936798100,0.006167590,-0.001426040,-0.001026690
1640787231.629089,0.030944530,0.627237680,8.828615190,-0.054842240,-0.049591060,-0.007614490
1640787231.629550,-0.344345900,0.713188650,10.554763790,-0.052638350,0.009515880,0.001570580
1640787231.634090,-0.130366560,0.622165980,9.766728400,-0.028339030,0.112055250,0.004400310
1640787231.634450,-0.079104920,0.290661450,10.507779120,0.045350190,-0.035014750,0.000634790
1640787231.639150,-0.377541510,0.097201790,10.634029390,0.059257450,0.015933810,0.002852080
1640787231.640980,-0.048240300,-0.161934630,8.660617830,0.008712710,-0.048555440,0.011144580
1640787231.644179,-0.311590790,-0.417639820,9.810593610,-0.008186700,-0.038290020,0.033211710
1640787231.644539,-0.065770030,-0.339572400,8.930848120,-0.005926190,0.123421870,0.014463070
1640787231.649089,0.198298130,-0.048410390,9.597480770,0.040215250,0.002954900,0.009618700
1640787231.649510,-0.021107010,0.465413450,10.827520370,0.019909440,0.066098580,0.000059600
1640787231.654290,0.315970360,0.664934640,9.462353710,-0.033737720,0.015541910,-0.033298140
1640787231.654919,-0.123394260,0.718591930,10.539916040,-0.007329880,-0.064054130,0.002355870
1640787231.659230,-0.306437250,0.399409150,9.473796840,0.033296640,0.063388060,-0.004544850
1640787231.659890,-0.210829320,-0.120155910,9.045078280,0.112715370,-0.039131940,-0.004869700
1640787231.664130,-0.735933480,-0.152731880,10.191122060,0.116302080,0.041778390,0.008794670
1640787231.664460,-0.287751380,-0.224754260,9.000398640,0.004789230,0.050573050,-0.013169650
1640787231.669129,-0.240230680,0.053309900,10.322256090,-0.044052310,-0.032478570,0.016252700
1640787231.669680,-0.110207100,0.595553820,10.083288190,-0.056946280,0.093573320,0.004239380
1640787231.674430,0.365322920,0.706670170,9.783118250,-0.009581450,0.000517070,0.007222590
1640787231.675590,-0.053377910,0.868079780,10.821736340,0.067025420,0.023575130,0.018367170
1640787231.679139,0.150465340,0.622957410,9.365161900,0.059589740,0.033234060,-0.028958920
1640787231.679620,-0.240074930,0.317299930,9.947710040,0.039081270,-0.068081900,0.000324850
1640787231.684160,-0.655674460,0.192193150,9.660223010,-0.015778840,0.010316070,-0.001482670
1640787231.684579,-0.289647190,-0.082251020,9.020359990,-0.046128030,-0.014804300,-0.007481870
1640787231.690019,-0.540846290,0.308935310,10.215345380,-0.025008620,0.034186250,0.034861270
1640787231.694120,-0.068645440,0.421773700,9.616645810,-0.052168960,0.095123040,0.010639430
1640787231.694559,0.235867370,0.406398800,10.375706670,-0.029344860,0.018215180,0.019045180
1640787231.694909,-0.049172170,0.598652780,10.311826710,-0.006668270,0.013656910,0.005359950
1640787231.699309,0.213926520,0.165786670,9.148773190,-0.010275840,-0.057995330,-0.009134410
1640787231.700400,-0.204764680,-0.151070580,9.614176750,0.024218860,-0.020545720,0.010493400
1640787231.704160,-0.386331080,-0.407601390,9.142623900,0.047379740,0.057269630,-0.017601250
1640787231.704800,-0.336482200,-0.554095980,9.912128450,0.035272530,-0.007100400,-0.017794960
1640787231.709149,-0.527584250,-0.093968410,10.195986750,0.014570360,0.035044550,0.001838800
1640787231.709720,-0.015334500,0.226825650,9.543315890,-0.038196150,-0.003102420,-0.011760000
1640787231.714150,-0.103425320,0.666482990,10.306686400,-0.029332940,0.027509030,0.025118890
1640787231.714730,-0.060003020,0.849097610,9.595467570,-0.001171230,0.049011410,0.026437640
1640787231.719120,0.053455420,0.453218160,9.907753940,0.062973800,-0.037707380,0.013875960
1640787231.719720,-0.449428440,0.303746160,10.079587940,0.105927870,0.001214440,0.012315810
1640787231.724350,-0.329198450,0.050373730,9.184144020,0.059385600,-0.065350530,-0.003252920
1640787231.725770,-0.556319120,-0.147025940,10.145809170,0.004327300,-0.033977630,0.007392470
1640787231.729140,-0.318974850,0.237598030,9.444095610,-0.042149420,0.059090560,0.009715560
1640787231.729580,0.098560690,0.460972160,10.093222620,-0.052601110,0.014179950,0.024624170
1640787231.734180,0.098479660,0.736974780,10.474873540,-0.031134490,0.083430110,0.008708240
1640787231.734580,0.403826120,0.968619470,9.409785270,-0.013421480,-0.032682720,-0.007866320
1640787231.740350,0.064021040,0.767771360,10.053747180,-0.004388390,-0.060914460,-0.005958970
1640787231.742149,-0.223137110,0.248287200,9.051730160,-0.001870100,0.008973480,0.008380410
1640787231.744089,-0.379412860,-0.343967230,9.522300720,0.040216750,-0.069911780,0.007833540
1640787231.744470,-0.699439820,-0.551343500,10.181489940,0.049585100,0.037103880,0.017602740
1640787231.749120,-0.290974920,-0.516227250,9.390215870,-0.005628170,0.016722080,0.021412960
1640787231.749610,-0.199169160,-0.070856240,10.419361110,-0.059857960,0.005966430,-0.001363460
1640787231.754240,0.051322350,0.464787240,9.494935040,-0.084067870,0.061555210,-0.007155540
1640787231.754789,0.352341440,0.651046340,9.347707750,-0.021438300,-0.045222050,0.010178980
1640787231.759209,-0.063154650,0.610046390,9.967249870,0.071753570,0.025092070,-0.006620590
1640787231.759699,-0.063071520,0.315510420,9.129352570,0.102193650,-0.028876960,-0.016832350
1640787231.764180,-0.521861910,-0.009765500,10.331645010,0.088191030,-0.086110840,0.011196730
1640787231.764660,-0.637476030,-0.251826050,9.824877740,0.016544760,0.036148720,-0.002172590
1640787231.769150,-0.316954550,-0.132958290,9.727679250,-0.016114110,-0.035263590,0.000353160
1640787231.769650,-0.443183360,0.395511150,10.488657950,-0.032603740,0.041274730,0.022603570
1640787231.774160,0.143623340,0.552005830,9.229721070,-0.035203990,0.034861270,0.008426610
1640787231.774750,0.088026150,0.843835230,10.118013380,0.031216440,-0.056150560,0.011432170
1640787231.779230,-0.025167330,0.940528690,9.450469970,0.025880340,-0.000402330,-0.005002320
1640787231.780419,0.065028890,0.466530680,9.190710070,0.002637510,-0.085017090,0.011789800
1640787231.784119,-0.519871060,0.293024690,10.431480410,0.022819640,-0.007927420,0.011643770
1640787231.784489,-0.263985160,-0.017346400,9.706859590,-0.011418760,0.000821050,0.002232190
1640787231.789389,-0.268053440,-0.043362550,10.270471570,0.000506640,-0.055645410,0.033614040
1640787231.791930,-0.281896000,0.199277330,9.773125650,-0.043626130,0.019489230,-0.016801060
1640787231.794119,0.299026010,0.343442050,8.842057230,-0.079095350,-0.011001530,-0.010783970
1640787231.794510,-0.037585670,0.606339100,9.854236600,-0.045822560,0.014095010,0.013467670
1640787231.799150,0.104088920,0.338587940,9.279463770,-0.015959140,0.011652710,-0.017072260
1640787231.799680,-0.048070540,0.137214560,9.944999690,0.047105550,-0.087571140,0.014337900
1640787231.804250,-0.436491340,-0.014341450,10.124729160,0.029017030,-0.013893840,0.014632940
1640787231.804900,-0.041545710,-0.470984910,9.519103050,-0.018085540,-0.001093750,0.002938510
1640787231.809430,-0.436887150,-0.365139070,10.505993840,0.019924340,0.015577670,0.005629660
1640787231.809899,-0.196932540,-0.140897480,9.435585020,0.025802850,0.023773320,-0.021718450
1640787231.814100,0.005143810,0.089277990,9.286154750,0.019097330,-0.073058910,0.011537970
1640787231.814580,-0.225753160,0.424335630,9.345221520,0.004322830,0.003705920,0.008049610
1640787231.819140,0.122027330,0.390562560,9.155371670,0.011150540,0.007021430,-0.013747810
1640787231.819749,-0.302202940,0.535107370,10.690721510,0.060431660,-0.015057620,0.001083310
1640787231.824210,-0.235424700,0.503624020,10.119743350,0.059182950,-0.006546080,-0.021313130
1640787231.824810,-0.037027500,0.425207970,10.118767740,0.018195810,-0.053615870,-0.009748340
1640787231.829210,-0.542117770,0.509971560,10.285709380,-0.015088920,-0.002066790,0.022518630
1640787231.829720,-0.091103050,0.236126290,9.019083020,-0.010316070,-0.050307810,0.011447070
1640787231.834110,-0.229242910,0.245854680,9.541465760,0.038334740,-0.043042010,0.001648070
1640787231.834640,-0.073083890,0.510488930,8.984901430,0.006882850,0.043417510,-0.003835560
1640787231.840010,0.237141040,0.363779900,9.678034780,-0.037691000,0.010754170,0.008641180
1640787231.842100,-0.126933750,0.373410430,10.759357450,-0.039425490,0.010922550,0.014947360
1640787231.844169,0.036445580,0.342954430,9.840580940,-0.010363760,-0.068165360,0.001421570
1640787231.844879,-0.152267350,0.209760670,10.039129260,0.010399520,-0.082288680,0.003245470
1640787231.849079,-0.362356690,0.082765840,9.337822910,-0.000475350,0.014767050,-0.015366080
1640787231.849510,-0.136813390,0.038293180,9.120547290,-0.003297630,-0.014315550,-0.014895200
1640787231.854280,-0.410696950,0.006526990,9.897257800,0.005890430,0.021809340,0.003457070
1640787231.854940,-0.055983740,0.054913050,9.217921260,-0.010384620,-0.012533370,0.001299380
1640787231.859200,-0.051430070,0.170333640,9.974408150,-0.000685450,-0.042095780,0.004974010
1640787231.860750,-0.189904120,0.204455810,9.864836690,-0.002630060,0.003743170,-0.001583990
1640787231.864110,0.069552910,0.346604410,9.657708170,0.008718670,-0.045002990,-0.008611380
1640787231.864539,-0.210226570,0.397708450,10.267253880,0.019237400,0.004513560,-0.016377870
1640787231.869140,-0.180138680,0.325313690,9.579139710,-0.004039700,-0.006243590,-0.002476570
1640787231.869690,-0.386871870,0.217475490,9.911760330,0.022627420,-0.069960950,0.020051000
1640787231.875690,-0.575597110,-0.044872870,9.504396440,0.032384700,-0.047837200,-0.006280840
1640787231.877800,-0.229286860,0.093364390,8.996923450,0.034660100,-0.057874620,-0.008791690
1640787231.879160,-0.259082080,0.310074360,9.947717670,-0.003369150,0.030589100,-0.000953670
1640787231.879619,0.091503200,0.342769980,9.917135240,-0.045537950,0.044426330,-0.017477570
1640787231.884140,0.183417070,0.753777800,10.513641360,-0.026650730,-0.042657560,-0.005795060
1640787231.884460,-0.017780030,0.854177000,10.143634800,-0.036631520,-0.044807800,-0.004547830
1640787231.889890,0.083969460,0.676769670,9.191258430,-0.039127460,-0.112149130,0.001384320
1640787231.890859,-0.284277590,0.580064420,9.329187390,-0.020670890,-0.040659310,-0.012151900
1640787231.894160,-0.191670550,0.036575100,8.953344350,-0.041526560,0.035105650,-0.009611250
1640787231.894739,-0.213234420,-0.294026050,9.956984520,0.015947220,0.013892350,0.022564830
1640787231.899140,-0.354722320,-0.376366320,10.480530740,0.013907260,0.000342730,-0.006192920
1640787231.899789,0.034952500,-0.384800820,9.731096270,-0.031057000,-0.078220650,0.007456540
1640787231.904179,-0.090342510,0.014483450,9.845767970,-0.051148240,-0.037296120,0.003737210
1640787231.904780,0.149120630,0.128063810,9.204769130,-0.068935760,0.050093240,-0.042799120
1640787231.909410,0.070812120,0.450855550,9.616133690,0.016683340,-0.009652980,-0.024503470
1640787231.910849,-0.285485860,0.497413520,9.787901880,0.055767600,-0.025166570,-0.023502110
1640787231.914060,-0.089767470,0.188922120,9.150073050,0.041730710,-0.074809800,-0.007447600
1640787231.914430,-0.604438840,0.119392140,10.051883700,0.050310790,-0.054247680,0.025862460
1640787231.919170,-0.414582520,-0.152004570,9.683362010,0.015453990,0.013946000,0.012081860
1640787231.919700,-0.219262790,-0.127181080,10.144443510,0.026199230,-0.018198790,0.011740630
1640787231.924500,-0.164808260,0.309184670,10.229149820,0.020492080,0.040228670,-0.004936750
1640787231.925340,0.340944950,0.533127490,9.415803910,-0.023646650,-0.004349650,-0.009432430
1640787231.929119,-0.085481980,0.661020160,10.048500060,-0.006923080,-0.071156020,-0.001414120
1640787231.929679,0.059721330,0.617304210,8.993014340,0.016582010,-0.054377330,-0.036826730
1640787231.934120,0.046785880,0.503167210,9.227146150,0.037029390,-0.049567230,-0.006942450
1640787231.934450,-0.349072990,0.265555290,10.288356780,0.037063650,0.061672930,0.012636180
1640787231.939319,-0.043926220,0.029888310,10.070224760,0.010238590,0.021715460,0.009876490
1640787231.942240,-0.347944770,0.140759050,10.749877930,0.000093880,-0.070644920,0.034363570
1640787231.944360,-0.122384560,0.224869530,9.348435400,-0.050295890,-0.029669700,0.020533800
1640787231.945150,0.204108000,0.380832020,8.774177550,-0.055244570,-0.012287500,-0.003610550
1640787231.949100,-0.157316860,0.507512630,9.639559750,-0.024802980,0.054019690,-0.018696480
1640787231.949530,0.234114470,0.394221990,9.187027930,0.002636020,0.040715930,-0.013431910
1640787231.954190,-0.071600410,0.026636720,10.352155690,0.046059490,-0.035807480,-0.002986190
1640787231.955099,-0.349818530,-0.342486110,10.101125720,0.050158800,-0.024087730,-0.000937280
1640787231.959630,-0.290020610,-0.509146570,9.566123010,0.052492320,-0.080743430,0.006306170
1640787231.961069,-0.645710230,-0.524471040,9.912120820,0.044149160,-0.026807190,0.002996620
1640787231.964140,-0.036862770,-0.079751260,8.804510120,0.016561150,0.054425000,-0.013072790
1640787231.964609,0.070244420,0.506632750,9.800452230,-0.005821880,0.061871120,0.006526710
1640787231.969060,-0.009907400,0.691017870,10.219858170,-0.013411050,0.043950970,0.011074540
1640787231.969529,0.187644450,0.789557930,9.683537480,0.040960320,-0.083538890,0.006687640
1640787231.974929,-0.331919400,0.638404250,9.978228570,0.081832710,-0.086253880,-0.014352800
1640787231.977010,-0.302792880,0.259676250,9.257145880,0.065270070,-0.003471970,-0.015629830
1640787231.979130,-0.326228800,0.057673310,9.982148170,0.061376390,0.014315550,-0.007286670
1640787231.979679,-0.329459970,-0.022412000,10.396279340,0.013554100,0.064739580,-0.008796160
1640787231.984099,0.169895230,0.272657450,9.726858140,-0.024893880,0.002717970,0.015537440
1640787231.984419,0.029187830,0.533959810,9.894212720,-0.043471150,-0.023595990,-0.000073020
1640787231.989280,0.245928020,0.689571080,9.024633410,-0.065769260,0.001887980,-0.017200410
1640787231.990049,0.163935870,0.686060190,9.323442460,0.005117060,0.008197130,0.003233550
1640787231.994259,-0.139851360,0.142013430,9.994183540,0.057418660,0.047796960,-0.013551120
1640787231.994870,-0.154296130,-0.124010200,10.021409990,0.096204880,-0.009407100,0.002563000
1640787231.999130,-0.483253870,-0.247508000,10.396339420,0.053852800,-0.033617020,0.010940430
1640787231.999699,-0.304652690,-0.405117390,9.499408720,-0.049538910,-0.006116930,-0.008141990
1640787232.004279,-0.181303800,0.028735900,9.290902140,-0.044688590,0.008922820,0.003029410
1640787232.005040,-0.052430070,0.220754710,9.374627110,-0.016853210,0.095190100,-0.011000040
1640787232.009080,0.170444470,0.386264500,9.580648420,0.056792800,0.043721500,-0.002914670
1640787232.009650,-0.104294180,0.522655730,10.247594830,0.100989650,-0.026367610,0.000032780
1640787232.014079,-0.093673140,0.217441710,9.602178570,0.049605970,-0.043587380,-0.003209710
1640787232.014510,-0.305318150,0.110794520,9.740881920,0.034983460,-0.042100250,0.002388660
1640787232.019400,-0.370709030,-0.003340380,9.804971690,0.019887090,0.063388060,-0.020676850
1640787232.021190,-0.127207930,0.049449980,9.624166490,0.029286740,0.044493380,-0.016771260
1640787232.026360,-0.394241030,0.339679510,10.255281450,0.056071590,0.007247930,0.003497300
1640787232.026820,-0.080521670,0.286772940,9.415390010,0.027294460,-0.012072920,-0.008088350
1640787232.029100,-0.223161740,0.511372450,9.625908850,0.029520700,-0.071573260,-0.001376870
1640787232.029549,-0.313522990,0.556426290,9.630547520,0.016054510,0.018918510,-0.000049170
1640787232.034090,0.124440670,0.369511690,9.453858380,0.015234950,0.049233440,-0.007079540
1640787232.034659,-0.202083300,0.515160800,10.859063150,0.047777600,0.037428740,-0.011478360
1640787232.039180,0.046761970,0.447758380,10.118475910,0.015857820,0.019249320,-0.005058940
1640787232.040619,-0.007203680,0.341158330,9.752908710,-0.015187260,-0.093536060,-0.001406670
1640787232.044099,-0.291994480,0.474901410,9.245213510,-0.022941830,-0.032071770,-0.014612080
1640787232.044560,0.064805600,0.371476950,8.361755370,-0.036378200,0.039912750,-0.002847610
1640787232.049100,-0.320822660,0.213428560,10.035583500,-0.000716750,0.049027810,0.002874430
1640787232.049510,-0.185033230,0.203931750,10.085240360,0.003114340,0.040972230,-0.001274050
1640787232.054200,0.053352870,0.077843110,10.037894250,-0.004503130,-0.043211880,0.006017090
1640787232.054910,-0.273899880,-0.131606850,10.441814420,-0.015786290,0.003464520,-0.007212160
1640787232.059260,0.105271280,-0.114762180,9.218186380,-0.004772840,0.027699770,-0.035104160
1640787232.059990,-0.155577720,-0.002117080,9.638123510,0.029517720,-0.025570390,-0.023148950
1640787232.064139,-0.172209350,0.006988760,9.184778210,0.016859170,0.041252380,-0.005953010
1640787232.064580,0.060527550,0.081090400,9.090575220,0.022493300,0.008191170,0.002102550
1640787232.069120,-0.531297800,0.092936510,10.516065600,0.026763980,-0.004309420,0.000493230
1640787232.069660,-0.133515850,0.279004070,9.507665630,0.014168030,-0.005656480,-0.006844100
1640787232.074460,-0.175344120,0.358100650,10.081458090,0.024767220,-0.008751450,-0.019092860
1640787232.076069,-0.252955850,0.467430410,10.236939430,0.012271110,0.077265500,-0.036700070
1640787232.079130,0.064888920,0.709861810,9.569462780,0.006119910,0.005283950,-0.017587840
1640787232.079710,-0.403180360,0.475362450,10.225063320,0.004249810,-0.052070630,-0.003740190
1640787232.084180,-0.211138230,0.332244720,9.008682250,0.009475650,-0.038771340,-0.004415210
1640787232.084699,-0.332615440,0.289849010,9.292280200,0.016404690,-0.035105640,0.004717710
1640787232.089290,-0.434674500,0.062609650,9.971441270,-0.008301440,0.055295230,-0.000686940
1640787232.091400,0.076833340,0.127261760,9.867727280,-0.005017220,0.056035820,0.007809700
1640787232.094179,-0.079691400,0.231005760,10.882906910,0.001841780,-0.003112850,-0.002135340
1640787232.094709,0.152414900,0.361081270,9.914119720,-0.027990340,-0.014536080,0.003495810
1640787232.099340,0.242132530,0.530034840,9.204125400,-0.028927630,-0.053301460,-0.007529560
1640787232.100459,-0.084957530,0.431877460,9.379571910,-0.041444600,0.014665720,-0.026534500
1640787232.104220,-0.043659990,0.337678190,9.027546880,-0.010564920,0.034047670,-0.000077490
1640787232.104900,-0.349381720,0.061461920,9.954370500,0.039611760,0.005403160,0.001446900
1640787232.109120,-0.427725080,-0.123630230,10.053216930,0.016090280,-0.001063940,-0.003121790
1640787232.109580,-0.392146770,-0.074379930,9.817443850,-0.004082920,-0.036196410,0.011731680
1640787232.114110,-0.424366770,-0.195632010,10.043224330,-0.038550790,0.001995270,-0.018043810
1640787232.114560,-0.064037560,0.085184300,9.402193070,-0.026351210,0.026628370,-0.019791720
1640787232.119140,-0.063245950,0.360056160,9.776865960,0.018720330,0.012885040,-0.013726950
1640787232.119660,0.046792880,0.248035000,9.685412410,0.018247960,0.019750000,-0.011798740
1640787232.124570,0.019928300,0.277687790,9.689788820,0.048537560,-0.049865250,-0.002129380
1640787232.126010,-0.225286630,0.151758160,9.940176010,0.042413180,-0.035706160,-0.010909140
1640787232.129109,-0.062072900,0.070686550,9.437023160,0.017488000,-0.007548930,0.000524520
1640787232.129540,-0.258012150,0.196226020,10.216653820,0.022871790,0.019063060,-0.006894770
1640787232.134130,-0.082389300,0.446376030,10.065979000,-0.009240210,0.048033900,-0.015120210
1640787232.134640,-0.060006650,0.725780550,9.943984030,-0.038245320,-0.040818750,0.010859970
1640787232.139299,-0.199037370,0.707888480,9.701715470,-0.037318460,-0.032237180,-0.013820830
1640787232.141180,0.007780890,0.625950100,8.888665200,-0.028191510,-0.002883370,-0.031723090
1640787232.144120,-0.358894140,0.467279910,9.894180300,0.010243060,-0.007326900,-0.019659100
1640787232.144569,-0.210720670,-0.020456340,9.701039310,0.013992190,0.041818630,-0.010636450
1640787232.149089,-0.070713750,-0.211440860,9.863180160,0.014314060,-0.021968780,-0.003585220
1640787232.149649,-0.196172950,-0.312655570,10.315418240,-0.006772580,0.012046100,0.017100570
1640787232.154219,0.259574830,-0.315133750,9.357898710,-0.033088030,0.037914520,-0.001820920
1640787232.155110,0.099223080,0.046319590,9.852056500,-0.023444000,-0.014846030,-0.024411080
1640787232.159279,0.187001900,0.350015970,9.284775730,-0.022479890,0.071044270,-0.031442940
1640787232.159819,0.199583410,0.483760710,9.273921970,-0.012497600,0.018033390,-0.026157500
1640787232.164140,-0.442259370,0.350665840,10.455034260,0.040823220,-0.014913080,-0.021819770
1640787232.164610,-0.254497080,0.194224300,9.184228900,0.057351600,-0.014758110,-0.004647670
1640787232.169129,-0.586440800,-0.016380520,9.903528210,0.049075490,-0.040572880,-0.004251300
1640787232.169580,-0.556817110,-0.073328240,9.961767200,0.016105180,0.083139540,0.001160800
1640787232.174490,-0.124570620,0.173191580,9.599401470,-0.009317700,0.046150390,0.004594030
1640787232.175470,-0.349945810,0.331329820,10.615059850,-0.019447510,0.001481180,0.010271370
1640787232.179270,0.198842210,0.528430760,9.218259810,-0.022058190,0.029261410,-0.003066660
1640787232.179860,0.052831590,0.654340740,9.662831310,0.014920540,-0.038319830,-0.031478700
1640787232.184080,-0.192343730,0.602689740,9.850636480,0.006410480,0.011834500,-0.023844840
1640787232.184500,0.111417170,0.496739330,9.189208980,0.000971560,0.017134850,-0.006036460
1640787232.189410,-0.351979350,0.227576730,10.616150860,-0.007709860,0.008888540,0.002510850
1640787232.190379,-0.159929470,0.221537920,9.983354570,-0.026181340,0.052262840,0.022864340
1640787232.194120,-0.158540040,0.268952790,9.890024190,-0.030349200,-0.033399460,0.025194890
1640787232.194599,-0.361077460,0.262616310,9.843419080,-0.074236100,-0.009649990,-0.005321200
1640787232.199169,0.070837790,0.437961670,8.574008940,-0.073005250,0.020705160,-0.010503830
1640787232.199679,-0.152580190,0.199512930,9.713985440,-0.035122040,0.040534140,-0.018593670
1640787232.204929,-0.151397050,-0.088099970,9.955928800,0.014154610,0.058119000,-0.013123450
1640787232.205680,-0.140155900,-0.152344690,9.958511350,0.062209370,-0.051641470,-0.000663100
1640787232.209220,-0.355997000,-0.343453560,10.179289820,0.002433360,-0.041055680,-0.002257530
1640787232.209760,-0.036508330,-0.181582810,9.208798410,-0.046515460,0.031964470,0.008170300
1640787232.214100,-0.157121300,0.045085730,9.875393870,-0.037698450,0.039924680,-0.010983650
1640787232.214480,-0.004159940,0.241822050,9.707942960,-0.006136300,0.062692160,-0.006425380
1640787232.219120,-0.001774020,0.465307300,9.626213070,0.048200780,-0.017042460,0.008003410
1640787232.219699,-0.351406310,0.370317970,10.011064530,0.040413440,-0.042757400,-0.011201200
1640787232.224130,-0.272205980,0.278086160,9.311513900,0.013920670,-0.038322810,-0.002226230
1640787232.225230,-0.464271930,0.172131020,9.916089060,0.018680090,0.004792210,0.000526010
1640787232.229179,-0.329767730,0.022848200,10.138312340,0.006704030,0.060850390,-0.008811060
1640787232.229650,-0.164139110,0.381888930,10.191692350,0.014920530,0.003798310,0.007897610
1640787232.234089,-0.198212680,0.444629430,10.228308680,-0.021605190,-0.018623470,0.013552610
1640787232.234449,0.067608230,0.464493840,9.238159180,-0.055687140,-0.036418440,0.003418330
1640787232.240229,-0.200427140,0.604831640,9.469827650,-0.014631450,-0.045782330,0.000244380
1640787232.242169,-0.094355340,0.351512370,9.299845700,-0.001758340,0.026568770,-0.003825130
1640787232.244370,0.027973650,0.193745300,9.689517020,0.023403760,0.013068320,0.003814700
1640787232.244969,-0.231821790,0.108843150,10.615323070,0.012360510,0.019006430,0.008386370
1640787232.249110,0.033445890,-0.068007310,9.931522370,-0.030371550,-0.013619660,0.015622380
1640787232.249709,-0.168527230,0.000172000,9.967441560,-0.018705430,-0.073391210,0.000803170
1640787232.254190,-0.066136730,0.201955350,9.147236820,-0.038641690,0.019051130,-0.009539720
1640787232.254760,0.031477760,0.242295120,9.093935970,-0.018464030,0.020293890,0.014732780
1640787232.260049,-0.369190010,0.079568700,10.137261390,0.033372640,0.024203960,0.003334880
1640787232.261279,-0.136416910,0.067323300,9.555904390,0.043298300,-0.018541520,-0.009867550
1640787232.264089,-0.388178470,0.041098840,10.193094250,0.031596420,-0.073058910,0.007092950
1640787232.264439,-0.354828360,0.010966980,9.912398340,-0.005580480,0.023394820,-0.012405220
1640787232.269140,-0.059833310,0.263900310,9.744502070,-0.008440020,-0.005215410,-0.015170870
1640787232.269559,-0.301925570,0.490417720,10.456246380,-0.001162290,0.010615590,0.004138050
1640787232.274119,0.158070560,0.615416290,9.422339440,-0.004227460,0.017058850,0.008741020
1640787232.275950,-0.036888470,0.620376940,9.879357340,0.015634300,-0.072371940,0.012506550
1640787232.279110,-0.188856440,0.566827120,9.610565190,-0.002767150,-0.007496780,-0.000299510
1640787232.279700,0.075821680,0.488098800,9.111232760,-0.034971530,-0.003907080,-0.000803170
1640787232.284129,-0.334670100,0.234548840,10.539364810,-0.017963350,0.012022260,0.008367000
1640787232.284570,-0.065418540,0.226656480,9.985774990,-0.021378690,0.035111610,0.006814300
1640787232.291849,-0.045180710,0.249385830,10.061118130,-0.024686750,-0.049044200,0.009275970
1640787232.292640,-0.217142090,0.141309810,9.969413760,-0.036513810,-0.007952750,0.005823370
1640787232.294109,0.037763200,0.230451210,8.920892720,-0.042946640,0.009472670,0.000590090
1640787232.294540,-0.325069010,0.082872150,9.832985880,-0.020150850,-0.025464600,0.012809040
1640787232.299100,-0.193463390,-0.176428990,9.519165990,0.009749830,0.033229590,0.014837090
1640787232.299549,-0.052141100,-0.115645370,9.669457440,0.048741700,-0.012999770,0.011213120
1640787232.304109,-0.298929810,-0.242197600,10.438814160,0.020857160,0.013832750,0.005277990
1640787232.304849,0.045824990,0.024787140,9.642937660,-0.023335220,0.017519300,0.001420080
1640787232.309640,-0.132159710,0.241614100,10.150736810,-0.026792290,-0.039166220,-0.014480950
1640787232.311020,-0.050023730,0.299726690,9.581330300,-0.006273390,0.017333030,0.000534950
1640787232.314149,0.042615950,0.502952810,9.349903110,0.042025750,0.011223550,0.017955900
1640787232.315340,-0.413557890,0.214113700,10.257804870,0.062833730,0.007677080,0.017188490
1640787232.319160,-0.268659620,0.196778640,9.590291980,0.052061680,-0.036856540,0.013831260
1640787232.319660,-0.427162470,0.255946960,9.974804880,0.019615890,-0.048144160,0.015071040
1640787232.328450,-0.312596920,0.113873620,9.824604030,-0.029577310,0.025801360,0.005371870
1640787232.328889,-0.062879960,0.451215920,9.842698100,-0.008420650,0.028879940,0.009085240
1640787232.329160,-0.089238570,0.552051070,10.472294810,0.003179910,0.021092590,-0.004759430
1640787232.329550,0.253030840,0.548048500,9.631040570,-0.006945430,-0.010421870,0.006231670
1640787232.334100,0.094039830,0.667969410,9.665504460,-0.005017220,-0.048449630,-0.000536440
1640787232.334489,0.063572390,0.305373640,9.315822600,-0.032968820,0.015418230,-0.000610950
1640787232.339300,0.048219020,0.083930710,9.384996410,0.004772840,0.016295910,0.027137990
1640787232.342300,-0.319355930,-0.195665540,10.309285160,0.037141150,0.029852990,0.023692840
1640787232.344090,-0.154131130,-0.379498480,9.858849530,0.022438170,-0.000338260,0.014500320
1640787232.344489,-0.389034030,-0.069692720,10.157873150,0.012001400,-0.036653880,0.008381900
1640787232.349110,-0.381900040,0.044577870,9.735404010,-0.037385520,0.018315020,-0.021348890
1640787232.349570,-0.166435440,0.312686120,9.274916650,-0.018376110,-0.003232060,-0.021375720
1640787232.354179,-0.352615680,0.541840610,9.976643560,0.033530590,0.016900900,-0.010466580
1640787232.354960,-0.026116460,0.334467800,9.547822950,0.049069530,0.029219690,-0.011426210
1640787232.359220,-0.238598720,0.381969930,10.178046230,0.072126100,-0.052043800,0.010058280
1640787232.359939,-0.267889170,0.302152690,9.993784900,0.024832790,-0.009955470,0.015264750
1640787232.364110,-0.007850360,0.174351220,9.529193880,-0.020714100,-0.019386410,0.019711260
1640787232.364719,-0.256704690,0.435600430,10.345703120,-0.020439920,0.005951520,0.021478530
1640787232.369140,0.155557040,0.527868090,9.660705570,-0.040699540,0.053553280,0.023180240
1640787232.369639,0.080432060,0.483153190,10.005447390,-0.009262560,-0.014880300,0.013875960
1640787232.374990,-0.135157510,0.497257050,10.101222990,0.001214440,-0.002349910,-0.022174420
1640787232.375720,0.080828930,0.334406520,9.184680940,-0.012406710,-0.033117830,-0.026634340
1640787232.379160,-0.392020760,-0.013662750,9.947381970,0.013297800,-0.028954450,-0.004312400
1640787232.379789,-0.282569470,-0.174550640,9.537674900,0.015041230,0.047804420,0.000762940
1640787232.384150,-0.209794800,-0.117216400,9.917018890,0.009037550,-0.002466140,0.020009280
1640787232.384549,-0.399358000,-0.011761500,10.515212060,-0.019600990,0.018601120,0.025065240
1640787232.389269,0.149697480,0.351293120,9.445364950,-0.061288480,0.020173190,-0.000092390
1640787232.390020,-0.066193090,0.538038970,10.014597890,-0.040730840,-0.021958350,0.001807510
1640787232.394160,0.099153700,0.465152740,9.417967800,0.000473860,0.046753890,0.004705790
1640787232.394919,0.211401150,0.215570060,9.471196170,0.053334240,0.020635130,-0.008878110
1640787232.399099,-0.321811440,-0.072935660,10.497991560,0.088371340,-0.007055700,0.002311170
1640787232.399670,-0.131018620,-0.132307200,9.438127520,0.036291780,-0.017581880,0.015819070
1640787232.404250,-0.401519420,-0.137352060,10.037743570,-0.023396310,-0.024889420,0.009776650
1640787232.404990,-0.425547000,0.106732150,9.985494610,-0.045961150,0.056223580,0.012226400
1640787232.409530,-0.067141530,0.560659710,9.755143170,-0.022280220,0.028979780,0.008901950
1640787232.410689,-0.277232230,0.666164820,10.518021580,0.009755790,0.000809130,-0.001017750
1640787232.414100,0.118910030,0.708413420,9.421343800,0.024804470,0.009880960,-0.000540910
1640787232.414520,-0.006624230,0.627890530,9.788549420,0.030830500,-0.023442510,-0.009904800
1640787232.419309,-0.163275810,0.284073110,9.884495740,-0.014033910,0.020606820,0.010889770
1640787232.420879,0.029712800,0.044352480,9.440769200,-0.009211900,0.008998810,0.032889840
1640787232.425439,-0.275037710,-0.111774050,10.234008790,0.011503690,-0.002789500,0.035084780
1640787232.426090,-0.066096360,-0.044782320,9.558094020,-0.011105840,0.030493740,0.047019130
1640787232.429160,0.001120530,0.188683910,9.760785100,-0.024934110,0.010746720,0.025109950
1640787232.429679,-0.126040030,0.205096950,10.147793770,-0.046387310,0.054591900,-0.019086900
1640787232.434120,0.074319060,0.431977300,9.532371520,-0.001360480,0.005796550,-0.006373230
1640787232.434549,-0.192813070,0.321937830,10.018632890,0.035917750,-0.006079670,-0.008994340
1640787232.439200,-0.226930200,0.051354580,9.609231950,0.038918850,0.037606060,0.000104310
1640787232.440990,-0.457846880,0.092995760,9.853069310,0.051039460,-0.029811260,0.021696090
1640787232.444130,-0.585181180,-0.005025420,9.957942010,-0.011570750,-0.006446240,0.013040010
1640787232.444579,-0.223966660,0.163327980,9.309592250,-0.031673900,0.019271670,0.027370450
1640787232.449110,-0.303151940,0.508336900,10.304210660,-0.012648100,0.031976410,0.003483890
1640787232.449610,0.112173480,0.641231120,10.029507640,-0.024700170,0.070714950,0.007653240
1640787232.454219,0.201801580,0.704156160,10.107428550,-0.002166630,-0.006763640,0.023750960
1640787232.454860,0.050410050,0.443518250,10.224473950,0.006254020,0.008104740,-0.009897350
1640787232.459450,0.062966380,0.293139100,9.423203470,0.003971160,-0.007456540,0.004354120
1640787232.460670,-0.441150550,0.229039300,9.821328160,0.002382700,-0.052031890,0.019444530
1640787232.464120,-0.361402660,0.036101080,9.439529420,-0.044357780,0.022365150,0.015708810
1640787232.464530,-0.217737910,0.198844580,9.577526090,-0.045499210,0.027740000,0.036834180
1640787232.469159,-0.286845620,0.329329640,10.545004840,-0.041358170,0.062771130,0.035546710
1640787232.469800,0.140779030,0.332522000,9.936433790,-0.040204820,0.058640540,0.008550290
1640787232.474150,0.031161310,0.494252620,10.209375380,-0.007475910,-0.044004620,0.012378390
1640787232.475370,0.054287640,0.293863060,9.596232410,-0.019074970,0.014917550,0.008088350
1640787232.479110,0.069987590,-0.052742900,9.091546060,-0.002698600,0.011186300,0.016967950
1640787232.479620,-0.439829290,-0.261105360,10.087778090,0.037959220,0.010828670,0.011819600
1640787232.484140,-0.242386670,-0.232319530,9.523393630,0.012525920,0.039185580,0.002144280
1640787232.484560,-0.407477560,-0.041863280,10.123139380,-0.016087290,-0.030805170,0.010594720
1640787232.490049,-0.328026470,0.317619800,10.160105710,-0.057263680,0.042113670,0.005671380
1640787232.490540,0.101916510,0.633830310,9.597060200,-0.060173880,0.055049370,0.016304850
1640787232.494099,-0.202375040,0.623132650,10.662698750,-0.004126130,0.011706350,0.020873550
1640787232.494520,0.030968470,0.580208180,9.679426190,0.037886200,0.032956890,0.001841780
1640787232.499600,-0.227358370,0.420773180,9.721920010,0.042001910,-0.071619450,-0.002531710
1640787232.500370,-0.564524170,0.207509980,9.795251850,-0.006173550,-0.020730500,0.015893580
1640787232.504150,-0.228685010,0.124514140,9.132324220,-0.051648920,0.030137600,0.008802120
1640787232.504870,-0.412085500,0.147036300,10.493391990,-0.053885580,0.013737380,0.015987450
1640787232.509500,0.072111520,0.281490860,10.080260280,-0.045648220,0.084029150,0.021775070
1640787232.510069,0.388625830,0.376820000,9.992735860,-0.021356340,0.020997220,-0.002516810
1640787232.514119,0.122925010,0.384068340,10.341212270,-0.014799830,0.000940260,-0.003269310
1640787232.514500,0.262552590,0.338265210,8.913311000,-0.020653010,-0.004100800,0.011861320
1640787232.519120,-0.166780990,-0.146675900,9.545678140,0.000576670,-0.043030080,0.007963180
1640787232.519650,-0.426595810,-0.387774710,9.568348880,0.037685040,0.054121020,0.016534330
1640787232.524140,-0.391866360,-0.262120100,9.635534290,0.042161350,0.007955730,0.000928340
1640787232.524610,-0.661516900,-0.203606490,10.736188890,0.010512770,0.001108650,-0.010238590
1640787232.529140,-0.190279450,0.311387180,9.540085790,-0.041903560,0.033542520,-0.002875920
1640787232.529680,-0.089602050,0.620303270,9.956321720,-0.044746700,0.001472230,-0.013752280
1640787232.534180,-0.029733850,0.597266140,9.953200340,-0.002518300,0.072255740,0.012502070
1640787232.534590,0.165154550,0.602867250,9.412438390,0.070063780,-0.001868610,0.003793840
1640787232.540050,-0.198187960,0.348478380,10.229405400,0.064854320,-0.046110160,-0.015465920
1640787232.540710,-0.112483340,0.251017360,9.316378590,-0.006049870,0.013919170,0.007765000
1640787232.544099,-0.229723140,0.134382900,9.941535000,-0.044387570,-0.013183060,-0.002104040
1640787232.544710,-0.232063070,0.068350320,10.358485220,-0.051487980,0.071816140,0.010111930
1640787232.549160,0.064033230,0.418852360,9.780708310,-0.012366470,0.047105550,0.018405910
1640787232.549660,-0.104113040,0.445122840,10.476239200,-0.000567730,-0.004996360,-0.006540120
1640787232.554180,0.017365150,0.498642680,9.495151520,-0.029042360,0.013870000,-0.001786650
1640787232.554730,-0.159381900,0.512264790,9.335463520,-0.028602780,-0.040580340,-0.003440680
1640787232.559140,-0.375256870,0.106831100,9.809507370,-0.018517680,0.028976800,-0.009712580
1640787232.559729,-0.234507590,-0.002236710,9.383090020,0.028036530,0.037562850,0.014287230
1640787232.564129,-0.300086650,-0.059363120,10.291446690,0.029313560,0.011023880,0.023745000
1640787232.564710,-0.048483680,-0.160532860,9.949722290,-0.019544360,0.068804620,0.030857330
1640787232.569080,0.126036700,0.107722660,9.674938200,-0.029471520,-0.000980500,0.010305640
1640787232.569640,0.104417320,0.248538450,9.968398090,-0.036090620,0.023037200,0.006127360
1640787232.575050,0.289940570,0.303246170,9.031696320,-0.007553400,0.058911740,0.000935790
1640787232.576099,-0.106213500,0.256947820,9.959498410,0.051675740,0.000433620,-0.026550890
1640787232.579200,-0.261077230,0.182562530,9.853900910,0.033435230,0.037865340,-0.039137900
1640787232.580570,-0.458490490,0.050023730,9.663215640,0.028838220,-0.042515990,-0.011911990
1640787232.584120,-0.673200670,-0.057832310,10.298583980,0.013202430,0.002023580,-0.016577540
1640787232.584530,-0.341246340,0.147327830,9.466242790,-0.001397730,0.056441140,0.007410350
1640787232.590020,-0.322747590,0.252185910,10.235219000,0.016301870,0.018124290,0.035431980
1640787232.591369,-0.055647080,0.316286590,10.011098860,0.017070770,0.092969840,0.017689170
1640787232.594110,0.090531330,0.495680150,9.556193350,0.016482170,-0.033454590,-0.006997580
1640787232.594499,-0.193258660,0.519621550,10.147569660,0.018699470,-0.045363600,-0.006879870
1640787232.599110,0.023621120,0.454563470,9.035970690,-0.001096730,0.011678040,-0.025042890
1640787232.599599,-0.235895950,0.384468640,9.979952810,0.008855760,-0.027802590,-0.019527970
1640787232.604200,-0.203726190,0.422126470,10.138952260,-0.007748600,0.085528200,0.012063980
1640787232.604790,0.084626210,0.249001180,9.728524210,-0.022917990,0.029179450,0.028575960
1640787232.609120,-0.292374880,0.133423340,10.716113090,-0.002120440,-0.019389390,0.026513640
1640787232.609650,-0.031675380,0.311748920,9.166937830,-0.016520920,0.016471740,0.023590020
1640787232.614130,-0.084068540,0.079865820,9.319968220,-0.017169120,-0.047653920,0.010615590
1640787232.614529,-0.279625240,-0.035018110,9.804530140,0.007866320,0.059427320,-0.003525610
1640787232.619060,0.064469580,0.043258240,9.122538570,0.015665590,0.048980130,-0.021544100
1640787232.619459,-0.286875430,-0.083191180,10.617805480,0.031559170,-0.008709730,-0.014212730
1640787232.624159,-0.155990200,0.155149670,9.768301010,0.006739790,0.039783120,-0.012530390
1640787232.625049,-0.119526830,0.291503460,9.739273070,-0.019983950,-0.067862870,-0.003999470
1640787232.629180,-0.331552570,0.255051850,10.085993770,-0.007633860,0.034290540,0.035253160
1640787232.629809,0.079582240,0.192836600,8.899672510,0.038100790,0.067181910,0.018098960
1640787232.634100,-0.207964470,0.098419310,10.384990690,0.077454770,0.006769600,-0.004090370
1640787232.634470,-0.244058800,0.218102660,9.772997860,0.046178700,0.047697130,0.002619620
1640787232.639959,-0.170060800,0.155961710,9.407045360,0.006851550,-0.093358760,-0.027875600
1640787232.640720,-0.505714600,0.271698980,10.162133220,-0.017265980,-0.023992360,-0.018295650
1640787232.644160,-0.059268410,0.576539640,8.985047340,-0.017738340,0.065012280,0.005850190
1640787232.644719,-0.190730470,0.271047920,10.723023410,0.016923250,0.029020010,0.002266470
1640787232.649119,-0.263167890,0.382883370,10.688747410,0.051982700,0.049714750,0.010219220
1640787232.649740,-0.020559800,0.458692820,9.509104730,0.051373240,-0.109235950,-0.000213090
1640787232.654150,-0.307816450,0.242250650,9.873847010,0.002425910,-0.076079370,-0.001007320
1640787232.654670,-0.017853280,0.468820990,8.475377080,-0.038793680,0.053326780,0.001443920
1640787232.659129,0.014529960,0.333355840,9.702551840,-0.036402050,0.017443300,0.005058940
1640787232.661150,0.004292630,0.270890380,10.439035420,-0.001846250,0.091642140,0.021414460
1640787232.664049,0.189570740,0.351194470,10.006010060,0.032518810,-0.015766920,0.010351840
1640787232.664430,-0.218650880,0.172842430,10.895917890,0.007064640,-0.078243020,-0.001485650
1640787232.669109,-0.331103650,0.124640430,9.290406230,-0.029642880,-0.029192870,0.005064910
1640787232.669580,-0.266250130,-0.183653400,8.944690700,0.003112850,-0.068993870,-0.023280080
1640787232.674749,-0.354190770,-0.219172490,9.408061030,0.038856270,0.104840110,-0.036348400
1640787232.676010,-0.078088250,0.142815630,9.258704190,0.040487950,0.057080400,-0.022941830
1640787232.679119,-0.196112570,0.155758830,10.809252740,0.008200110,-0.037872790,-0.014309590
1640787232.679730,-0.051340380,0.472285600,9.880408290,-0.050371890,-0.023746490,0.005578990
1640787232.684130,0.038781950,0.496740160,9.767107010,-0.033026930,-0.082156060,0.033426290
1640787232.684500,-0.210143860,0.064663250,10.310951230,0.038613380,0.073486570,0.019384920
1640787232.690340,-0.101416840,0.124235500,9.430336950,0.116989020,0.023092330,-0.011280180
1640787232.691880,-0.344330310,0.089696440,10.187472340,0.097724780,-0.076577070,-0.006940960
1640787232.694200,-0.220221650,0.271979720,9.110395430,-0.024537740,0.010225180,-0.017437340
1640787232.694830,-0.181890500,0.610804200,9.369400020,-0.098605450,-0.067868810,-0.007283690
1640787232.699100,-0.269900830,0.757509170,10.318829540,-0.089868900,0.047877430,0.016874070
1640787232.699760,0.117556300,0.783965650,9.774565700,-0.013946000,0.047971310,0.004088880
1640787232.704200,-0.071256570,0.646956800,11.082122800,0.059698530,-0.033208730,-0.004535910
1640787232.704910,-0.177519800,0.469855040,10.123631480,0.020019710,0.007727740,-0.005418060
1640787232.709590,-0.236008850,-0.020245120,9.194784160,-0.044770540,-0.125336660,0.010967250
1640787232.710739,-0.404395430,-0.390452000,9.342274670,-0.039464240,-0.035808980,0.009822850
1640787232.714059,0.085212120,-0.267709430,8.290081020,-0.028558080,0.082570310,-0.002911690
1640787232.714480,0.097202610,-0.189523320,10.267121320,-0.002425910,0.056801740,0.031438470
1640787232.719110,0.187739940,0.116220470,10.792242050,-0.020211930,0.114002820,0.011909010
1640787232.719640,0.203573260,0.339755270,10.416102410,-0.031942130,-0.089645390,-0.012068450
1640787232.724670,-0.281216290,0.389252130,10.488028530,-0.006446240,-0.103278470,0.008639690
1640787232.725780,-0.176569460,0.215716150,8.458507540,0.019930300,0.017067790,-0.020894410
1640787232.729140,-0.496707860,0.024258310,9.343804360,0.079730150,-0.009851160,-0.036466120
1640787232.729630,-0.651558340,0.166982140,9.780050280,0.058980290,0.098204630,-0.007286670
1640787232.734120,-0.210732270,0.164468820,9.458831790,-0.020524870,-0.012907390,-0.003156070
1640787232.734500,-0.470187780,0.309653940,10.972720150,-0.052568310,-0.051306180,0.026528540
1640787232.739149,-0.037014750,0.601806940,9.540314670,-0.056706380,0.009946530,0.022779410
1640787232.741360,0.059668100,0.318377850,10.088778500,0.003834070,-0.056266780,0.011616940
1640787232.744099,-0.147479490,0.263781580,10.390761380,0.077129900,0.081695620,0.000837450
1640787232.744550,0.161985930,0.197965200,9.380670550,0.071337820,-0.011847910,-0.034904480
1640787232.749130,-0.358882960,-0.008302640,10.554216380,0.030854340,-0.103551150,-0.010162590
1640787232.749590,-0.259788810,0.328776060,8.880541800,-0.051514810,-0.032348930,-0.005957480
1640787232.754160,-0.054276000,0.417230550,9.106000900,-0.099131460,-0.052556400,0.012920800
1640787232.754779,-0.271653980,0.533359890,10.506465910,-0.049865250,0.110572580,0.041471430
1640787232.760530,0.167394100,0.687091710,9.969388960,0.016155840,0.053496670,-0.004282590
1640787232.761129,-0.076388110,0.580145540,11.128048900,0.033336880,-0.090318930,-0.009696190
1640787232.764109,-0.235361780,0.478082540,9.674701690,-0.029388070,-0.037571790,0.001923740
1640787232.764649,-0.107297820,-0.023028050,8.724049570,-0.061129040,-0.095444930,-0.017324090
1640787232.769179,-0.437814180,-0.322185720,9.530918120,-0.016866620,0.026844440,-0.002034010
1640787232.769719,-0.056924760,-0.310665250,8.817881580,0.017544630,0.095623740,0.005568560
1640787232.774540,-0.021851660,-0.339635280,10.614604000,0.035396220,-0.006730860,0.007483360
1640787232.775910,-0.094167750,0.024576980,10.654969220,-0.017066300,0.025931000,0.015315410
1640787232.779130,0.221455020,0.252779960,9.711233140,-0.046335160,-0.089865920,0.008919840
1640787232.779680,-0.069271090,0.131811900,10.190606120,-0.009031590,-0.019957120,-0.001089270
1640787232.784109,0.006283870,0.366609540,8.795818330,0.050629670,0.069479640,-0.028754760
1640787232.784469,-0.161266420,0.353262010,9.736766820,0.089003150,-0.020873540,-0.028838220
1640787232.792009,-0.488007550,0.240854290,9.949851990,0.047592820,0.029742720,-0.019419190
1640787232.793850,-0.338839890,0.308010460,9.394213680,-0.003778930,-0.076490640,-0.017741320
1640787232.794420,-0.495519430,0.281311510,10.569519040,-0.030775370,-0.034862760,0.017629570
1640787232.795850,-0.166963340,0.257911470,9.603987690,-0.020004810,0.077658890,0.027985880
1640787232.799110,-0.002893000,0.292677160,10.514448170,0.042872130,0.003361700,0.003765520
1640787232.799700,-0.077771930,0.483634590,10.484583850,0.040127340,0.053589050,-0.001497570
1640787232.804710,0.052551850,0.399804170,9.306367870,-0.008018310,-0.085070740,-0.013853610
1640787232.805740,-0.225096290,0.271865670,9.706178670,-0.010238590,-0.098577140,-0.019317870
1640787232.809180,-0.103971350,0.252081570,8.568553920,-0.019125640,0.027289990,-0.022855400
1640787232.809759,-0.024680920,0.124447710,9.695127490,0.023545330,0.019760430,0.011193750
1640787232.814119,-0.086244230,0.180206250,10.836738590,0.033387550,0.119721900,0.023679440
1640787232.814550,0.220314740,0.370309410,10.231980320,-0.013795500,-0.006917120,0.012826920
1640787232.819330,0.038631430,0.419656100,10.571897510,-0.057446960,-0.073289890,0.041389470
1640787232.820190,0.061219250,0.311894300,8.873607640,-0.058297810,0.025069720,-0.006167590
1640787232.824839,-0.012091870,0.151334400,8.810647010,0.015659630,-0.033661720,-0.032721460
1640787232.825940,-0.388731300,0.125505760,9.677044870,0.063249480,0.084067890,-0.020579990
1640787232.829100,-0.206035940,-0.134090690,9.357495310,0.033123790,0.029517710,-0.031177700
1640787232.829620,-0.508759620,-0.232337280,10.967124940,0.022889680,-0.055913630,0.009284910
1640787232.834100,-0.411246360,-0.027886560,10.084101680,-0.010019540,0.026124720,0.016191600
1640787232.834930,-0.032706660,-0.125625800,9.680512430,-0.003376600,-0.044205790,0.014343860
1640787232.840240,-0.166946010,0.201721980,10.180014610,0.049868230,0.083464390,0.005778670
1640787232.841060,0.258704130,0.483494760,8.926298140,0.050921740,0.077591840,-0.030361120
1640787232.844110,-0.006072470,0.474279370,10.242927550,0.055842110,-0.061751900,-0.010524690
1640787232.844540,-0.210419710,0.757480380,9.496772770,0.015237930,-0.009819870,-0.017914180
1640787232.849120,-0.085714210,0.658719660,9.264461520,-0.037801270,-0.087957090,-0.008101760
1640787232.849570,-0.597103950,0.553993170,10.724099160,-0.024314220,0.053976480,0.035959480
1640787232.854189,-0.251812160,0.382061000,9.887886050,0.001898410,0.092117500,-0.006423890
1640787232.854770,-0.333907840,0.281478520,10.868782040,0.037831080,-0.053720180,0.005678830
1640787232.859480,-0.431489110,0.363821300,9.938838010,0.006622080,-0.001654030,0.008220970
1640787232.860420,0.019136100,0.206890750,8.510742190,-0.059856490,-0.082205240,-0.022280220
1640787232.864050,-0.230404270,0.351073120,9.576689720,-0.073568530,-0.009796020,0.008304420
1640787232.864450,0.070522160,0.322377410,9.034053800,-0.050382310,0.101329370,0.004477800
1640787232.869150,0.212653400,0.099734800,10.596743580,0.006181000,0.007326900,-0.002814830
1640787232.869650,-0.214586170,0.236695680,11.276915550,0.016775730,0.009143350,0.006702540
1640787232.874179,0.035371360,0.090770060,9.659895900,-0.023299460,-0.089979170,-0.006181000
1640787232.874859,-0.256124970,-0.154322070,9.862748150,-0.029355290,-0.078336910,-0.004746020
1640787232.879119,-0.191892640,0.045228730,8.414846420,-0.011633340,0.077295300,-0.022692980
1640787232.879850,0.080014500,0.113777420,8.995712280,0.007639830,0.043089690,-0.025461620
1640787232.884140,-0.260799940,0.284443230,10.417816160,-0.000746550,0.069774690,-0.000704820
1640787232.884600,-0.028293500,0.418059620,9.714113240,-0.018689030,-0.043065840,-0.007575750
1640787232.889180,-0.333056090,0.230864390,10.818451880,-0.025662780,-0.096619120,0.000460450
1640787232.891120,-0.489128470,0.020607450,9.936655040,0.003649290,0.024507940,0.000718240
1640787232.894120,-0.115194830,-0.293515830,9.547859190,0.087201600,-0.023216010,-0.020588940
1640787232.894569,-0.354269950,-0.197785420,10.204780580,0.107127430,0.072458390,-0.029794870
1640787232.899150,-0.003022800,0.098229450,9.004383090,0.031560660,0.005871060,-0.023593010
1640787232.900319,0.040124610,0.327433620,9.882422450,-0.039318210,-0.067467990,-0.013533230
1640787232.904170,-0.088290480,0.786176680,9.460163120,-0.077374290,0.016810000,-0.012069940
1640787232.904729,0.202578890,0.910700500,9.559741970,-0.028157240,-0.025948880,0.010597710
1640787232.909380,-0.107435550,0.769674660,10.983528140,0.042675440,0.090630350,0.008758900
1640787232.909860,-0.203356940,0.596431200,10.324957850,0.059792400,0.042386360,-0.016282500
1640787232.914090,-0.417038320,0.343396190,10.556837080,0.028680270,-0.116607550,0.001876060
1640787232.914559,-0.559718910,0.118484930,9.165781970,-0.054927170,-0.043915220,-0.001567600
1640787232.919099,-0.173755810,0.055588530,8.283681870,-0.084522350,-0.044605130,-0.015407800
1640787232.919700,-0.148094970,0.353278580,9.636281010,-0.066304210,0.109343240,0.004865230
1640787232.924579,0.228911920,0.388913270,9.793981550,-0.068286060,0.127653790,-0.003445150
1640787232.925809,0.350604770,0.412570420,11.021174430,-0.016173720,-0.037653740,0.009578470
1640787232.929109,0.137850110,0.425094010,10.687259670,-0.024351480,-0.012426080,-0.001609330
1640787232.929560,0.187403380,0.018836240,9.299141880,-0.040918590,-0.079262260,-0.010141730
1640787232.934110,-0.251065760,-0.172069390,9.624065400,-0.003755090,-0.004199150,-0.002807380
1640787232.934530,-0.170432640,-0.324516710,8.508580210,-0.000940260,0.108632450,-0.035461780
1640787232.940100,-0.177670400,-0.268299190,9.493715290,0.005187090,0.032983720,-0.010584300
1640787232.941010,-0.462020190,0.081536090,10.277147290,-0.025418410,0.071020420,0.000280140
1640787232.944630,-0.133385910,0.103413560,9.708075520,-0.055654350,-0.041976570,-0.008338690
1640787232.945080,-0.454522310,0.377391820,10.706339840,-0.012052060,-0.056420260,0.015474850
1640787232.949159,-0.216596290,0.286636800,9.523337360,0.025711950,0.067710880,-0.011371070
1640787232.949640,-0.049481300,-0.004145830,9.962718960,0.075346230,0.015944240,-0.019432610
1640787232.954180,-0.408148850,0.228935320,10.379171370,0.090685490,0.066845120,-0.010617080
1640787232.954880,-0.072651920,0.063465300,9.084076880,0.018958750,-0.058655440,-0.017113980
1640787232.959139,-0.346188070,0.353882940,9.725096700,-0.028067830,-0.106167820,0.008200110
1640787232.959760,-0.203402390,0.759834770,8.850869180,-0.078386080,0.041398410,0.001323220
1640787232.964320,0.155005770,0.562776510,9.651038170,-0.054337090,0.042314830,0.012436510
1640787232.965060,-0.168476730,0.697872400,11.272379880,0.035142900,0.114098200,0.005976860
1640787232.969149,0.191430490,0.558494810,10.261877060,0.041656200,-0.012151900,-0.019644200
1640787232.969669,-0.127895310,0.196669000,10.373836520,0.008559230,-0.122088190,0.006212290
1640787232.974099,-0.376682730,-0.004315450,8.905166630,-0.043410070,-0.025734310,-0.005508960
1640787232.975690,-0.128741850,-0.481983750,8.339140890,-0.034439570,-0.014777480,-0.000077490
1640787232.979080,-0.475475850,-0.426915050,9.887902260,0.036174060,0.083775830,0.017663840
1640787232.980530,-0.129957630,-0.228578340,9.704335210,0.046040130,0.076927250,-0.008809570
1640787232.984120,-0.074973560,-0.025484110,10.891950610,0.019560760,-0.057035680,0.003586710
1640787232.984530,-0.300297950,0.487459180,10.414416310,-0.031591950,-0.028984250,0.008575620
1640787232.989189,0.196063010,0.428713350,9.141244890,-0.028114030,-0.057074430,0.000485780
1640787232.989859,-0.112046440,0.386538480,9.984970090,0.058205430,0.054915250,-0.007952750
1640787232.994920,-0.109233280,0.528080050,9.272416110,0.108820200,0.077427920,-0.023418660
1640787232.996240,-0.158364730,0.295282190,10.071458820,0.071796780,-0.076252230,-0.002428890
1640787232.999110,-0.593924400,0.406276430,10.001044270,-0.010569390,-0.047796960,0.008849800
1640787232.999660,-0.171271310,0.452956800,9.004734040,-0.087106230,-0.073705620,0.021342940
1640787233.004170,-0.207993810,0.275374470,10.301784520,-0.050352520,0.047725450,0.031487640
1640787233.004930,-0.017262640,0.350519120,10.043115620,0.025492910,0.139500200,-0.003822150
1640787233.009220,0.152300480,0.438153680,10.765319820,0.066025560,-0.046126540,-0.013624130
1640787233.009719,-0.137182730,0.387418030,10.176279070,-0.000889600,-0.053006410,-0.004211070
1640787233.014109,0.022505230,0.151667740,8.518926620,-0.058071330,-0.091689840,-0.013548140
1640787233.014500,-0.254842130,-0.020559460,9.408288000,-0.028727950,-0.017888850,0.000554320
1640787233.019070,-0.289656700,-0.102083060,9.230954170,0.023505090,0.106726590,0.002464650
1640787233.019600,-0.034165050,-0.023788630,10.210941310,0.062993160,0.006033480,0.010165570
1640787233.025830,-0.140515580,0.260161430,10.848360060,0.013673310,0.027857730,0.010602180
1640787233.026759,0.154556330,0.389815270,9.597537040,-0.066544120,-0.036957860,0.015106800
1640787233.029140,-0.006860960,0.310348270,10.123909000,-0.038445000,-0.035762790,0.015831000
1640787233.029620,-0.153271320,0.181588410,9.277258870,0.044028460,0.046379860,-0.028775630
1640787233.034070,-0.186377630,0.170916020,9.262011530,0.109672550,-0.047087670,-0.026793780
1640787233.034469,-0.631084200,0.183824730,10.131666180,0.064900520,0.001755360,-0.011807680
1640787233.039219,-0.484776320,0.081984630,9.451322560,-0.037337840,-0.026550890,-0.006133320
1640787233.040619,-0.499926570,0.278744250,10.420277600,-0.042501090,-0.073742870,0.025099520
1640787233.044469,-0.245229690,0.372209520,9.958993910,-0.027790660,0.061996280,0.014418360
1640787233.045179,0.348648940,0.412815870,9.727917670,0.026650730,0.016041100,0.011798740
1640787233.049100,0.064955440,0.711483240,10.681337360,0.057818000,0.043036050,-0.001606350
1640787233.049559,0.160553260,0.686558190,9.408595090,-0.028315180,-0.042140480,-0.030992930
1640787233.054190,-0.064537180,0.581028220,9.516722680,-0.049793720,-0.147658560,0.004361570
1640787233.054839,-0.399264040,0.466932090,9.209348680,-0.062997640,0.001214440,-0.008662050
1640787233.059899,-0.134083720,0.118771630,9.173772810,-0.039327140,0.021131340,0.015887620
1640787233.061149,-0.422676060,0.022856880,10.900441170,0.033967200,0.045859820,0.042091310
1640787233.064100,-0.084332410,-0.119419840,10.235988620,0.009277460,0.039795030,-0.004419680
1640787233.064479,0.124593890,-0.018969220,10.002443310,-0.027944150,-0.080464790,0.024521350
1640787233.069110,-0.187082990,0.038269420,9.709512710,-0.059953330,-0.012901430,0.008921320
1640787233.069670,0.149662050,-0.068042390,8.494051930,-0.042511520,-0.019603970,-0.045229490
1640787233.074470,-0.315540760,0.313322070,9.731722830,0.039182600,-0.010101500,-0.024293360
1640787233.075830,-0.378755930,0.369353350,9.704218860,0.022469460,0.043149290,-0.045649700
1640787233.079100,-0.281208160,0.312753380,10.242249490,-0.009791550,-0.075164440,-0.013718010
1640787233.079690,-0.563520550,0.523555160,10.622082710,-0.021928550,-0.033591680,0.024050470
1640787233.084110,-0.018897270,0.090998010,9.429938320,-0.030425190,0.008027250,0.034283090
1640787233.084519,-0.099820130,0.022446950,10.267133710,0.040346380,0.011217590,0.029341870
1640787233.090489,-0.083343220,0.273916480,9.729264260,0.045540920,0.031301380,-0.008200110
1640787233.091120,0.191075700,0.240440090,9.337430000,-0.008584560,-0.063107910,-0.009630620
1640787233.094390,-0.277993260,0.514436190,9.914986610,-0.053274640,-0.045214590,-0.011849400
1640787233.095120,-0.127087030,0.590806780,9.193271640,-0.080794100,-0.018800800,-0.028844180
1640787233.099130,-0.188358380,0.518803780,10.181072240,-0.041235980,-0.019475820,0.011663140
1640787233.099500,-0.331247150,0.376421330,10.276023860,0.024710600,0.060270730,0.010921060
1640787233.104169,-0.025526100,0.181376960,10.066397670,0.026302040,-0.029787430,-0.004427140
1640787233.104840,-0.291475710,0.123583420,10.290579800,-0.013436380,-0.040513280,0.031429530
1640787233.109779,-0.004140500,-0.084400170,8.851784710,-0.059258930,-0.041361150,0.006340440
1640787233.110720,0.149382440,-0.091870130,9.180397990,-0.053714220,-0.011390450,-0.009237230
1640787233.114110,-0.064039620,0.118570240,9.580861090,-0.022140150,0.086250910,-0.009319190
1640787233.114550,0.137136910,0.095489250,9.937134740,0.005386770,-0.003944340,-0.017151240
1640787233.119079,-0.238678320,0.218536530,10.922607420,0.016134980,-0.038804120,-0.025698540
1640787233.119690,-0.171970580,0.241500850,9.616533280,-0.017961860,-0.053137540,0.007840990
1640787233.124840,-0.197165280,-0.103367080,9.852847100,-0.002661350,-0.040929020,0.022685530
1640787233.125540,-0.475046220,-0.149643990,9.753344540,0.051349400,0.082765500,-0.000797210
1640787233.129109,-0.224212180,0.106481790,9.308044430,0.065787120,-0.017669800,-0.012323260
1640787233.129629,-0.410772680,0.486166510,10.099588390,0.000721220,-0.034457440,-0.010749700
1640787233.134100,-0.262910720,0.816908360,9.289381980,-0.096701090,-0.022669140,-0.015795230
1640787233.134460,-0.093059010,1.032611970,9.911601070,-0.104984660,-0.056721280,-0.001177190
1640787233.139230,-0.133613810,0.810569050,10.464833260,-0.029508770,0.077790020,0.008128580
1640787233.142170,0.220746960,0.354530480,10.018425940,0.055953860,0.002960860,-0.002434850
1640787233.144110,-0.060543150,0.124603510,10.709531780,0.081020600,-0.057975960,0.002393130
1640787233.144600,-0.043866960,-0.243257760,9.126326560,-0.027169290,-0.019857290,0.006528200
1640787233.149129,-0.042126800,-0.398688440,8.965433120,-0.079277170,-0.086909530,0.015096370
1640787233.149629,-0.331026460,-0.105691350,9.471086500,-0.081619630,0.042031710,0.001196560
1640787233.154260,0.026823170,0.104312800,9.065663340,-0.055569420,0.037479400,-0.006975230
1640787233.155040,-0.155769240,0.511467810,10.713802340,0.007422270,0.009739400,-0.004561250
1640787233.160400,-0.244051040,0.559731070,10.518977170,-0.005131960,0.037376580,-0.030083960
1640787233.161170,-0.185223460,0.381772910,10.059288020,-0.003813210,-0.115130830,-0.000590090
1640787233.164100,-0.619434360,0.127251000,10.014323230,0.016009800,-0.063034900,0.007410350
1640787233.164460,-0.182961360,-0.425316210,8.384195330,0.029590730,0.021837660,-0.016649070
1640787233.169119,-0.319473360,-0.197773010,9.624287610,0.061076870,0.004045660,0.004850330
1640787233.169570,-0.323974910,0.079884040,9.934782980,-0.013042990,0.047910210,-0.009828810
1640787233.175069,0.297210280,0.270834830,9.604978560,-0.077354890,-0.071184330,-0.001412630
1640787233.175560,-0.022052310,0.854641740,10.700366970,-0.076439980,-0.015909970,0.016248230
1640787233.179080,0.269002470,0.586864890,9.811089520,-0.031344590,0.044907640,0.003740190
1640787233.179580,-0.008147390,0.327144830,10.443389890,0.082372140,-0.057667500,-0.003695490
1640787233.184059,-0.575494410,0.364601490,10.052406310,0.096815830,-0.036282840,-0.025762620
1640787233.184409,-0.345932660,-0.049382180,8.812852860,0.008811060,-0.103591390,-0.010465090
1640787233.189220,-0.748140930,0.043684690,9.562620160,-0.060690950,-0.060963640,0.014309590
1640787233.189910,-0.382695170,0.175520600,9.089824680,-0.095449390,0.046889490,0.002343950
1640787233.194500,0.134755100,0.332078580,10.039686200,-0.040756170,0.037369130,0.032381720
1640787233.194990,0.092677970,0.687985960,10.820700650,0.016774230,0.055064260,0.005872550
1640787233.199110,0.572299960,0.560882870,9.974350930,-0.015796720,-0.047470630,-0.006763640
1640787233.199630,0.277776540,0.374516990,9.901093480,-0.021898740,-0.080610810,0.021712480
1640787233.204259,0.029716060,-0.149595170,8.944945340,0.001609330,-0.020591920,-0.004306440
1640787233.204910,-0.074623540,-0.578536210,9.087884900,0.050382320,-0.023299460,-0.010034440
1640787233.209190,-0.602505800,-0.362838120,9.722599030,0.056242950,0.039877000,-0.005924700
1640787233.210100,-0.396812980,-0.214850660,9.771002770,-0.022847950,-0.007462500,-0.013956430
1640787233.214089,-0.433459970,0.289615930,10.499508860,-0.061906870,-0.021056830,0.006128850
1640787233.214540,-0.298583950,0.820513250,9.954963680,-0.071856390,0.023810570,0.018413360
1640787233.219240,0.071175610,0.744876560,10.071790700,-0.012739000,0.004129110,0.021532180
1640787233.220650,-0.114224660,0.712691720,10.177008630,0.069250170,0.032611190,0.004969540
1640787233.225139,-0.003471790,0.514897170,9.355686190,0.071206700,-0.038701300,-0.006197390
1640787233.225900,-0.273411390,0.139770790,10.003159520,0.017583370,-0.068223480,-0.001108650
1640787233.229130,-0.369036610,0.025852350,9.188416480,-0.045795740,-0.025136770,0.005140900
1640787233.229679,-0.053160460,0.074849500,9.508170130,-0.076679870,-0.032973290,0.020661950
1640787233.234110,-0.062039650,0.226802500,10.275940900,-0.059576330,0.108814250,0.036323070
1640787233.234540,0.293120560,0.409813730,9.945810320,-0.023065510,0.056704880,0.011704860
1640787233.239189,0.150808770,0.638095260,10.820336340,-0.006896260,-0.041025880,0.001199540
1640787233.240310,-0.072321850,0.506992520,9.523444180,-0.045263770,-0.036357340,0.000841920
1640787233.244099,-0.093600540,0.084892140,8.933578490,-0.028997670,-0.095880030,0.004795190
1640787233.244570,-0.607077960,-0.275303480,9.743803980,0.028552110,0.040426850,-0.003729760
1640787233.249110,-0.434266870,-0.404179930,9.180472370,0.055111950,0.052759060,-0.007447600
1640787233.249539,-0.455537800,-0.169933420,10.558289530,0.025650860,-0.037607550,0.001619760
1640787233.254190,-0.260795060,0.237190810,10.085656170,-0.074283780,0.047840180,0.002297760
1640787233.255139,0.296555880,0.487016320,9.501009940,-0.096328570,-0.013463200,0.035026670
1640787233.259290,0.024930220,0.551540370,10.582033160,-0.008696320,0.043155250,0.026530030
1640787233.260890,0.262898470,0.448909130,9.325152400,0.070528690,0.028441850,-0.014467540
1640787233.264109,-0.074587320,0.346868460,9.942871090,0.102855270,-0.089120860,-0.002360340
1640787233.264520,-0.594661950,0.132965530,9.958386420,0.027313830,-0.002150240,-0.012712180
1640787233.269189,-0.361454340,-0.022926040,9.199425700,-0.050082810,-0.058333590,0.005887450
1640787233.269830,-0.619567390,0.250581060,10.434569360,-0.052656230,0.001324710,0.034533440
1640787233.274089,-0.161744400,0.224695190,9.786645890,-0.052213670,0.103907290,0.013853610
1640787233.276100,0.197527510,0.474734600,10.180706020,0.019404290,-0.003126260,0.031490630
1640787233.279100,0.057852670,0.739006340,10.341058730,0.023996830,0.011985000,0.016301870
1640787233.279590,0.443885210,0.400663080,8.872289660,-0.028812890,-0.034974520,0.014382600
1640787233.284160,-0.022736600,0.215766120,9.741433140,-0.009237230,-0.050112610,0.029583280
1640787233.284670,-0.269485830,-0.123111320,9.511264800,0.003618000,0.050199040,-0.000755490
1640787233.289250,-0.168260350,-0.272415160,9.677844050,0.031657520,-0.015749040,0.011633340
1640787233.290710,-0.667076770,-0.097806630,10.690456390,0.031226870,0.018942350,-0.000891090
1640787233.294070,-0.246947630,0.039262230,9.656713490,-0.033015020,0.007098910,-0.011296570
1640787233.294430,-0.249856640,0.406802770,9.941047670,-0.041899090,-0.025916100,0.046557190
1640787233.299320,-0.196433860,0.307705400,9.661451340,-0.007389490,0.055231160,0.028505920
1640787233.300540,0.169627990,0.277569530,9.390613560,0.065225360,-0.000023840,0.006550550
1640787233.304149,-0.272862700,0.524834510,10.220400810,0.086133170,-0.014384090,0.020802020
1640787233.304829,-0.097224180,0.320319860,9.695984840,-0.009764730,-0.022192300,-0.013110040
1640787233.309670,-0.125547140,0.376286570,10.130185130,-0.044524670,-0.038814540,0.011183320
1640787233.310540,-0.365342470,0.405113640,10.279067040,-0.031538310,0.032787020,0.018025930
1640787233.314080,0.016433680,0.197202740,9.830490110,0.005872550,0.007486340,0.011882190
1640787233.314770,-0.181286810,0.468651590,10.151530270,0.041235980,-0.002880390,0.014542040
1640787233.319049,-0.135859400,0.494802470,9.417608260,-0.018222630,-0.011983510,0.001151860
1640787233.319610,-0.076672670,0.378474000,9.458952900,-0.068671990,-0.034354620,0.026169420
1640787233.324190,-0.313284010,0.289632890,9.710730550,-0.045113270,0.008884070,0.023430590
1640787233.325080,-0.105569160,0.089452180,9.827884670,0.005602840,0.004847350,0.011086470
1640787233.329110,-0.281379310,0.120931430,10.583460810,0.042906410,0.013795500,0.012424590
1640787233.329650,-0.203684670,0.112202390,9.926014900,-0.004014370,-0.010052320,-0.009904800
1640787233.334139,-0.046736780,0.119037610,9.718935010,-0.056368110,-0.043892860,-0.001095240
1640787233.334600,-0.189804420,-0.016056280,9.495888710,-0.026585160,0.039097670,0.026290120
1640787233.340070,-0.001313220,-0.069452780,9.234094620,0.033760070,-0.006654860,0.003263350
1640787233.340740,-0.127052980,0.171641980,9.970522880,0.061093280,-0.007341800,0.004805620
1640787233.344050,-0.058282890,0.303376850,9.670660970,0.003686550,0.028720500,0.009818380
1640787233.344810,-0.014813360,0.477866740,10.396471980,-0.047528750,-0.001610820,-0.001461800
1640787233.349110,-0.373503420,0.662319240,10.744462970,-0.055773560,0.018332900,0.000518560
1640787233.349640,-0.163529320,0.665317420,9.642836570,-0.023214520,-0.058291860,0.009199980
1640787233.354169,-0.432981910,0.478623240,10.034041400,0.026741630,-0.039815910,0.000599030
1640787233.354840,-0.357859520,0.381727580,9.218650820,0.029137740,0.028820340,-0.002694130
1640787233.359310,-0.052886020,0.324539720,9.224283220,-0.025020540,-0.025054810,0.023934240
1640787233.360479,-0.031820670,0.139954340,9.992369650,-0.072970990,0.060567260,0.020669400
1640787233.364130,0.333575100,0.021088900,9.881755830,-0.069646540,0.063085560,0.008603930
1640787233.364499,0.132129370,0.281544890,10.827786450,-0.016446410,-0.033177440,0.016517940
1640787233.369069,0.036881930,0.191218940,10.038262370,-0.012584030,-0.003750620,-0.012840330
1640787233.369530,0.099809890,0.192649590,9.114459040,-0.031808010,-0.047069780,-0.020039080
1640787233.374150,-0.453557340,0.228979230,9.706933020,-0.033286210,0.037264830,-0.005981330
1640787233.376109,-0.388814390,-0.246677500,9.237921710,-0.019592050,0.060661140,0.001841780
1640787233.379190,-0.436887380,-0.148257690,9.959758760,0.073248130,-0.047555570,0.019083910
1640787233.380440,-0.531410460,0.019771560,10.154503820,0.036567450,0.016650560,0.006155670
1640787233.384080,0.043394000,0.150304360,9.475914000,-0.048729780,0.028231740,0.023894010
1640787233.384500,-0.192329590,0.454867870,10.761254310,-0.056536500,0.036281350,0.016786160
1640787233.390020,0.075784440,0.452155560,9.985862730,-0.031694770,0.050936640,-0.027084350
1640787233.390650,0.080527160,0.691366080,9.731151580,0.060419740,-0.067739200,-0.011283160
1640787233.394100,-0.468802210,0.711071790,9.871603970,0.046107180,-0.046226380,-0.024692720
1640787233.394580,-0.124151240,0.472330060,8.675333980,-0.044794370,-0.029002130,-0.003282730
1640787233.399140,-0.320870280,0.406338630,9.786458020,-0.062978280,0.011016430,0.035852200
1640787233.399789,-0.150676190,0.054703810,10.306511880,-0.052033360,0.116713350,0.011353200
1640787233.404179,0.180625450,0.047174540,10.478134160,0.017896300,0.032164170,0.014178460
1640787233.404770,-0.277165140,0.409739140,10.940059660,0.008745490,-0.060231990,0.005970900
1640787233.409430,0.058109320,0.275531230,9.099523540,-0.079473860,-0.060027850,0.008830430
1640787233.410140,-0.118635300,0.294909060,8.831067090,-0.073930620,-0.040601200,0.007355210
1640787233.414070,-0.342518420,0.133998660,9.397871970,-0.031216450,0.081025060,-0.011911990
1640787233.414470,0.024405780,-0.130791570,9.542133330,0.044445690,0.071467460,0.006502870
1640787233.419060,-0.234300270,-0.073177780,10.793408390,0.069612270,-0.012552740,-0.003410880
1640787233.419620,-0.044857460,-0.007562480,10.268230440,-0.017838180,-0.007006530,0.002732870
1640787233.424100,0.025495450,-0.010119320,9.793606760,-0.059516730,-0.027149910,0.024703150
1640787233.426169,-0.246974860,0.118843320,9.797850610,-0.030018390,0.029687590,-0.010064240
1640787233.429139,0.021703980,0.377611670,9.092961310,0.010356310,0.052133210,-0.024299330
1640787233.429800,-0.348489670,0.492305870,9.878828050,0.057452920,0.006820260,-0.012639170
1640787233.434090,-0.419277430,0.600691680,9.784591670,0.013923650,-0.031626230,-0.027295950
1640787233.434440,-0.264199350,0.619194150,9.676649090,-0.043962890,-0.044049320,-0.000299510
1640787233.440209,-0.359342190,0.303778980,10.203430180,-0.051569950,0.033558910,0.015671550
1640787233.440820,0.018415020,0.096354360,10.220840450,0.003395980,0.076831880,-0.002478060
1640787233.444419,-0.042210840,0.149206890,10.623017310,0.068444010,0.019325320,-0.011211630
1640787233.445109,-0.048655120,0.359760730,9.825641630,0.010879340,-0.039321180,-0.000149010
1640787233.449100,0.030706260,0.508951430,8.948285100,-0.094032310,-0.067806260,0.014813250
1640787233.449620,-0.194403220,0.421220990,9.082859990,-0.123718390,0.009894370,0.018292670
1640787233.454130,-0.102276240,0.317109140,9.397433280,-0.040805340,0.065962970,0.021687150
1640787233.454800,-0.111220610,0.120699440,10.540882110,0.078092520,0.054611280,-0.005505980
1640787233.459669,-0.124576290,0.049527920,10.657946590,0.063540030,0.019055600,-0.012183190
1640787233.461160,-0.020881460,0.103840310,9.997813220,-0.030897560,-0.042039170,0.008818510
1640787233.464089,-0.347238000,-0.311061380,9.880739210,-0.083458420,-0.005649030,0.009876490
1640787233.464510,-0.154177010,-0.221164760,8.723661420,-0.014154610,0.002549590,-0.007767970
1640787233.469139,-0.315433890,0.150463390,9.210867880,0.055640930,0.010065740,-0.018082560
1640787233.469699,-0.183334160,0.244917880,9.506355290,0.033895680,0.087872130,-0.009718540
1640787233.474130,-0.054705360,0.633624910,10.164083480,-0.020974880,0.011874730,0.002205370
1640787233.477200,-0.217608600,0.556476710,11.008605000,-0.057181730,-0.011461970,0.014616550
1640787233.479080,0.081056530,0.152999940,9.888704300,-0.008633730,0.020003320,0.031094250
1640787233.479660,-0.264671270,0.133878680,10.250001910,0.100027040,-0.032097100,-0.008250770
1640787233.484120,-0.405583350,0.028538280,9.554108620,0.081256040,0.003845990,-0.015796720
1640787233.484580,-0.216724960,0.211098130,8.769809720,0.003790860,-0.034831460,-0.006102020
1640787233.490300,-0.490190090,0.430009600,9.822105410,-0.082319980,0.000491740,-0.001168250
1640787233.490960,-0.027363500,0.507079360,9.471676830,-0.096738350,0.066795950,0.011849400
1640787233.494350,0.031464730,0.737024490,10.381639480,0.000350180,0.016313790,0.025694070
1640787233.495509,0.063735750,0.579956650,10.812139510,0.029686090,0.045277170,0.001704690
1640787233.499130,0.331277880,0.377693860,9.677653310,0.034107270,-0.005948540,0.006674230
1640787233.499750,-0.255305500,0.142390580,10.093778610,0.004193190,-0.067226590,0.003896650
1640787233.504230,-0.157663550,-0.343489080,8.869809150,-0.039197500,0.003957750,-0.001177190
1640787233.504930,-0.180720400,-0.390548910,8.846052170,-0.001111630,-0.005409120,0.011739140
1640787233.509549,-0.382742700,-0.202522350,10.030472760,0.014150140,0.088465210,-0.007142130
1640787233.511099,0.072238720,0.041506590,9.634526250,0.001533330,0.075252350,-0.014820690
1640787233.514089,-0.115346070,0.424160420,10.645047190,-0.002226230,-0.025062260,-0.015491250
1640787233.514500,0.033587370,0.495990930,10.061487200,-0.033821170,0.040292740,-0.014102460
1640787233.519090,0.138161420,0.375652220,9.318483350,0.035181640,-0.007729230,0.009085240
1640787233.519820,-0.435186270,0.213924750,9.946777340,0.097818700,-0.011523070,-0.013616680
1640787233.524350,-0.222674250,0.111716950,8.861595150,0.065208990,0.021752720,-0.014752150
1640787233.525889,-0.428251740,0.134205300,9.568459510,0.029082600,-0.026622420,-0.010043380
1640787233.529029,-0.374365690,0.236589760,10.072147370,-0.043848170,0.060330340,-0.022864340
1640787233.529569,0.116533320,0.474297430,9.758361820,-0.050157300,0.052066150,-0.004263220
1640787233.534099,-0.073597510,0.524357260,10.847419740,0.017845630,0.031256680,0.011813640
1640787233.534420,0.217118900,0.516681130,9.904512410,0.044713920,0.046510990,-0.010512770
1640787233.539260,-0.019535270,0.498764040,9.627795220,0.049951680,-0.051887340,-0.000029800
1640787233.542240,-0.431253190,0.209590820,9.593804360,0.000472370,-0.029058760,0.008875130
1640787233.544070,-0.232685690,0.004177510,8.837617870,-0.024417050,0.008137530,-0.006370250
1640787233.544499,-0.536945820,-0.018207930,10.091616630,0.007563830,0.021396580,0.000889600
1640787233.549110,-0.201210920,0.087835100,10.052882190,0.006075200,0.096261510,0.007970630
1640787233.549530,0.073580270,0.222280090,10.187483790,0.009663400,0.034382940,-0.003896650
1640787233.554119,0.012929480,0.551691770,10.319823270,-0.016739960,0.007030370,0.007073580
1640787233.554750,0.264630140,0.612684610,9.077353480,-0.060579170,0.006543100,0.017426910
1640787233.560639,-0.117948110,0.114443070,9.484815600,-0.007151070,-0.014781950,0.016374890
1640787233.561390,-0.292072860,-0.076214950,9.353843690,0.074425340,0.016471750,0.002142790
1640787233.564110,-0.326872410,-0.245623570,9.486059190,0.095078350,0.002117460,-0.022535030
1640787233.564460,-0.516462500,-0.320771550,10.306927680,0.042328240,0.024397670,-0.025489930
1640787233.569150,-0.204872710,0.107879240,9.801830290,-0.052127250,0.036998090,-0.018240510
1640787233.569730,-0.115147170,0.270817490,10.244205470,-0.059017540,0.027464330,0.004544850
1640787233.574600,-0.033552860,0.391267750,9.838208200,0.011980530,0.044812260,0.028532740
1640787233.575549,0.038809120,0.608458580,9.492484090,0.090241440,-0.036598750,-0.006385150
1640787233.579090,-0.201288850,0.501186850,9.674562450,0.076009340,-0.025361780,-0.002765660
1640787233.579680,-0.119304680,0.421892460,9.095049860,0.008805090,0.006489460,0.004249810
1640787233.584030,-0.377306250,0.185980310,10.366405490,-0.021240120,0.002379720,-0.027376420
1640787233.584450,-0.186654670,0.216997650,10.135501860,-0.013822320,0.055129830,-0.001044570
1640787233.589219,-0.009018320,0.312938450,9.922989850,0.019790230,0.010976190,-0.002589820
1640787233.590150,-0.156089950,0.331793580,10.255706790,0.001695750,0.009812410,-0.024013220
1640787233.594390,0.091254880,0.559535500,8.762582780,-0.026939810,0.003813210,0.012953580
1640787233.594859,-0.145482820,0.273355390,9.425409320,-0.025355820,-0.036874420,0.010941920
1640787233.599079,-0.189913270,-0.122508930,9.587669370,0.013390180,0.072063510,0.007107850
1640787233.599560,-0.124755770,-0.109559980,9.726954460,0.067326430,0.001068410,0.004003940
1640787233.604210,-0.398481490,-0.292580720,10.870208740,0.047752260,-0.008940700,-0.033622990
1640787233.604840,0.019643390,-0.073393270,9.471166610,-0.006724890,0.037187350,-0.043591870
1640787233.609390,-0.141892080,0.334266870,9.788296700,-0.029559440,-0.025841600,-0.033003090
1640787233.610649,-0.186662320,0.312719640,9.671222690,-0.035412610,0.062754760,-0.008986890
1640787233.614060,-0.010185140,0.386472310,8.906134610,0.059759620,-0.013633070,0.014150140
1640787233.614460,-0.436565040,0.383394300,10.174685480,0.104409460,-0.053285060,0.007158520
1640787233.619360,-0.090446800,0.295194030,9.235479350,0.040782990,0.047926610,0.009676810
1640787233.620479,-0.202124480,0.207097170,10.205307960,-0.006991630,-0.000016390,0.000838940
1640787233.624270,-0.315236390,0.240121650,10.966213230,-0.038686400,0.058774650,-0.025294720
1640787233.625079,0.032858360,0.342268020,9.579728130,-0.005273520,-0.007002050,-0.016823410
1640787233.629099,-0.316021890,0.469073330,10.065637590,0.039872530,-0.071910030,-0.021708010
1640787233.629700,-0.170359690,0.678260150,8.890936850,-0.012694300,0.011442600,-0.020870560
1640787233.634080,-0.047094160,0.571534400,8.715767860,-0.044840580,-0.019447510,0.024248660
1640787233.634510,-0.291484090,0.193564180,10.375844960,-0.038681930,0.060187280,0.024771690
1640787233.639170,0.244510410,0.101187220,9.747013090,0.009776650,0.066192450,0.015267730
1640787233.640370,0.038853190,-0.104506460,10.846601490,0.056701900,-0.044210260,0.014640390
1640787233.644130,0.031950230,-0.088499670,10.136557580,-0.003315510,0.016818940,-0.023335220
1640787233.644450,0.176072390,0.029531720,8.778854370,-0.050912800,-0.031068920,-0.028051440
1640787233.649080,-0.433036420,-0.153981920,9.676490780,-0.031086800,0.007070600,-0.003926460
1640787233.649590,-0.362469670,-0.105962250,8.982922550,0.039134920,0.049339240,-0.012944640
1640787233.654790,-0.584322040,-0.053269830,9.875561710,0.110130020,-0.077494960,-0.001482670
1640787233.655490,-0.599805530,0.171635000,10.183100700,0.050102170,0.022205710,0.002323090
1640787233.659390,-0.056752740,0.247693810,9.648174290,-0.025883320,0.032849610,-0.005735460
1640787233.660750,-0.137799190,0.242498230,10.842707630,-0.013701620,0.034402310,-0.004082920
1640787233.664029,0.087037930,0.518370450,9.849219320,0.043497990,0.036512320,-0.012077390
1640787233.664500,-0.044004510,0.426290240,9.629079820,0.097031880,-0.104393070,-0.013178590
1640787233.669099,-0.374308740,0.613524140,9.347764970,0.052538510,-0.077687210,-0.004592540
1640787233.669550,-0.190132250,0.621465980,8.674632070,-0.055222210,-0.016520920,0.007641310
1640787233.674059,-0.392250150,0.150208850,10.438893320,-0.052985550,0.052052740,0.035634640
1640787233.674680,-0.210296740,0.179770450,10.605640410,0.029750170,0.075320900,0.001563130
1640787233.679090,-0.152335480,0.339629470,10.633793830,0.064963110,-0.072728100,-0.021326540
1640787233.679550,-0.211689370,0.468394520,9.888037680,-0.004757940,-0.072035200,0.003376600
1640787233.684170,-0.055713660,0.578215420,8.551224710,-0.099365410,-0.051730870,-0.007165970
1640787233.684549,-0.231786490,0.334485470,9.265522960,-0.077170140,-0.020039080,0.012832880
1640787233.689900,-0.111566610,0.243660670,9.268893240,0.011761490,0.053145000,0.037561360
1640787233.690869,-0.030461290,0.067936740,10.258629800,0.059014560,-0.019410250,-0.002634520
1640787233.694110,-0.107341400,-0.028471660,10.850197790,0.014206770,0.001260640,0.013211370
1640787233.694540,0.075934130,-0.024053200,9.698491100,-0.053936250,-0.050555170,0.001695750
1640787233.699149,-0.118301830,-0.279857310,9.857598300,-0.040830680,-0.065751370,-0.028952960
1640787233.700340,0.041491450,0.071430270,8.603727340,0.004360080,0.061081340,-0.015619400
1640787233.704190,-0.193841800,0.241485520,9.323649410,0.037743140,-0.019958610,-0.012937190
1640787233.704840,-0.494945730,0.293791290,10.180269240,0.019842390,-0.010612610,-0.003492830
1640787233.709230,-0.294163820,0.617303190,9.365645410,-0.030836460,-0.085394090,0.019502640
1640787233.709730,-0.397298430,0.267380680,10.535573010,-0.048176940,-0.038638710,0.023525960
1640787233.714100,-0.189230020,-0.016012550,10.134847640,0.016111140,0.113041700,0.000667570
1640787233.714550,-0.142955810,0.128148260,10.262042050,0.097994510,-0.041574240,-0.017878410
1640787233.719060,-0.226999160,0.117376240,10.213557240,0.067268320,-0.060044230,-0.007356700
1640787233.719590,0.191924440,0.389167250,8.203638080,-0.035844740,-0.047110020,0.002945960
1640787233.724089,-0.068386900,0.625612970,9.334089280,-0.104700020,-0.058133890,0.011372570
1640787233.725580,0.075046570,0.571318570,9.587268830,-0.102099780,0.110237300,0.033347310
1640787233.729060,0.251182350,0.497387080,10.113588330,0.029174990,0.006295740,0.010114910
1640787233.729509,-0.185571770,0.399188640,11.517193790,0.074692080,-0.026395920,-0.013701620
1640787233.734099,-0.060069760,0.223984850,9.595107080,0.016704200,-0.016459820,0.007720290
1640787233.734580,-0.383801460,-0.234233380,9.512903210,-0.031006340,-0.133316230,0.011543930
1640787233.739300,-0.539843860,-0.500067110,9.024384500,-0.035271050,0.040037930,-0.003692510
1640787233.740430,-0.149297550,-0.280547560,8.335608480,0.019329780,0.037270790,0.005660950
1640787233.744089,-0.476639450,-0.106440400,10.622720720,0.040763610,0.004915890,-0.001780690
1640787233.744490,0.027225640,0.472039550,9.859169010,-0.023736060,0.030481820,-0.021439790
1640787233.749159,0.126031220,0.696496010,10.378430370,-0.052092980,-0.087805090,0.011327860
1640787233.749750,-0.138260390,0.400930080,10.737146380,-0.015747550,0.026145580,-0.002968310
1640787233.754109,0.056055360,0.290978880,9.153931620,0.088945030,-0.015087430,-0.027947130
1640787233.754680,-0.493179440,0.174190710,10.057193760,0.133822860,-0.100658830,-0.005537270
1640787233.759400,-0.445267740,0.245358230,8.851726530,0.023940210,0.000888110,0.007498270
1640787233.760120,-0.324550450,0.367267730,9.069303510,-0.094790760,-0.074483450,0.013794000
1640787233.764410,-0.473643900,0.542659580,10.412548070,-0.138069690,0.029429800,0.036169590
1640787233.764880,0.144418060,0.539609910,9.750072480,-0.058872990,0.056639310,-0.004611910
1640787233.769029,-0.006899960,0.419494510,11.187255860,0.074937950,-0.045271210,-0.040152670
1640787233.769520,-0.077842280,0.590007600,10.193273540,0.063861910,-0.038389860,-0.036005680
1640787233.774220,-0.006110540,0.112670600,8.917945860,-0.016835330,-0.126273940,-0.010575350
1640787233.775640,-0.337233900,-0.295401810,9.307384490,-0.050483640,-0.036644930,0.020338600
1640787233.779080,-0.066300070,-0.248662960,8.603237150,-0.044922540,0.056496270,0.013841690
1640787233.780840,-0.029500260,-0.288325820,10.049736020,0.017739830,0.010573860,0.014469030
1640787233.784109,0.024115200,0.242948230,10.403988840,0.017604230,0.038929290,-0.012406710
1640787233.784680,0.320728690,0.652333020,9.932435990,-0.060808670,-0.048206750,-0.034630300
1640787233.789330,-0.006828100,0.514409070,10.339379310,-0.073437390,-0.015924870,-0.007522110
1640787233.790340,-0.079641980,0.244051680,9.303646090,0.017958880,0.011183320,-0.029973690
1640787233.794129,-0.460566490,-0.153873250,9.757577900,0.137643530,-0.073890390,-0.036017600
1640787233.794629,-0.679883720,-0.113535840,9.346965790,0.120891640,-0.020003320,-0.000327830
1640787233.799110,-0.558697460,-0.077518700,9.292157170,-0.017298760,-0.054538260,-0.017303230
1640787233.799670,-0.485217630,0.148588990,10.336073880,-0.118474680,0.023263700,0.013357400
1640787233.804190,0.071145370,0.518073800,9.811699870,-0.089208790,0.055044890,0.017166140
1640787233.804790,0.272580800,0.528560280,10.760884280,0.050465770,-0.009112060,-0.025536120
