timestamp,accel_x,accel_y,accel_z,gyro_x,gyro_y,gyro_z
1640781891557760000,-0.257619020,0.058600150,10.937044140,-0.032576920,-0.098253790,-0.000786780
1640781891561299968,0.044067400,0.208850910,9.785035130,0.052414830,0.006464120,-0.013598800
1640781891562599936,0.197872070,0.507916330,9.447600360,0.038111210,-0.103002790,-0.026914480
1640781891566360064,-0.372487280,0.421177360,10.432054520,-0.069840270,-0.037466000,-0.016531350
1640781891567940096,0.039962380,0.441135560,9.114659310,-0.100384670,-0.031352050,-0.001527370
1640781891572039936,-0.126634780,0.164459880,10.343756680,-0.012761360,-0.081136830,0.002855060
1640781891573489920,0.081377370,0.010750640,9.849908830,0.064051160,0.049412250,-0.001166760
1640781891576300032,0.372090370,0.288338690,9.531376840,0.062760700,-0.043071800,-0.014780460
1640781891577639936,0.019468370,0.276600090,10.396499630,-0.071120260,0.005467240,0.009368360
1640781891581629952,0.306351960,0.172034250,9.114201550,-0.131687540,-0.009316210,0.023573640
1640781891583510016,-0.180347320,-0.034498810,10.358773230,-0.015687940,-0.091050550,-0.010243060
1640781891586889984,-0.220896540,-0.105523130,9.543853760,0.102104250,0.027112660,-0.027719140
1640781891587699968,-0.132336040,0.140273870,9.263734820,0.117680430,-0.071029370,-0.039303300
1640781891591470080,-0.590066490,0.325632150,10.665637020,-0.025472040,0.033940370,-0.028482090
1640781891592649984,-0.072599800,0.451016690,9.279821400,-0.149947400,0.049144030,-0.010254980
1640781891596349952,-0.470547140,0.316612060,10.919176100,-0.062026090,-0.124995410,-0.016331670
1640781891597789952,-0.285026250,0.353177190,9.871855740,0.088801980,0.002539160,-0.019986930
1640781891603909888,0.061725370,0.526744840,8.867741580,0.119759160,-0.091640660,-0.027462840
1640781891605419776,-0.535526990,0.504016340,10.875240330,0.000384450,0.001926720,-0.008238850
1640781891606789888,0.093499020,0.417912240,9.286029820,-0.129339100,0.046044600,0.004942720
1640781891608189696,-0.052733340,0.170349510,10.513754840,-0.076036160,-0.132694860,0.009149310
1640781891616299776,-0.095699740,0.261211900,10.342470170,0.035484140,0.013181570,0.003921990
1640781891617299968,0.370225220,0.395143030,8.902439120,0.037224590,-0.027537350,-0.032237180
1640781891617760000,-0.377851040,0.388966740,10.867330550,-0.042489170,-0.060053170,-0.016005340
1640781891618099968,-0.137087910,0.300294100,9.621454240,-0.103491540,0.019559270,0.011043250
1640781891621369856,-0.246744770,-0.211173390,9.903697010,-0.040049850,-0.119051350,-0.006376210
1640781891622669824,-0.624181690,-0.182464120,10.347631450,0.063829120,-0.036534670,-0.001616780
1640781891626380032,-0.031946380,0.111897200,8.883726120,0.047902770,-0.016419600,-0.019147990
1640781891627620096,-0.247757000,0.248583080,10.244041440,-0.074358280,-0.022454560,-0.021022560
1640781891632019968,0.052609210,0.473334490,9.928200720,-0.150175380,0.043988220,0.012733040
1640781891632699904,0.161250070,0.118507650,10.219641690,-0.062638520,-0.057590010,-0.011622910
1640781891636269824,-0.114606230,-0.005730760,10.489706990,0.103960940,-0.076644120,-0.017718970
1640781891637719808,0.051245270,0.245123310,9.166975980,0.130926090,-0.098003450,-0.022366640
1640781891642530048,-0.351225760,0.097671190,9.999846460,-0.028820340,-0.038172300,-0.024504960
1640781891643469824,-0.220504120,0.258015840,9.656554220,-0.153598170,0.059366230,-0.000122190
1640781891646720000,-0.246756970,0.259370480,10.385005950,-0.090298060,-0.066949430,-0.005172190
1640781891647640064,-0.242954670,0.303983870,10.449240680,0.034202640,-0.029957290,-0.018301610
1640781891651269888,0.156235980,0.739649770,9.109334950,0.069698690,-0.055597730,-0.020585960
1640781891652659968,-0.380509530,0.727789220,10.449717520,-0.039383770,-0.073698160,-0.022643810
1640781891656349952,-0.080940700,0.473643900,9.429235460,-0.137791050,0.028537210,0.006335970
1640781891657719808,0.101929570,0.160039470,9.581004140,-0.067363690,-0.090017910,0.002974270
1640781891661819904,-0.011774470,-0.125936840,10.528023720,0.025227660,0.025467570,-0.019465380
1640781891662929920,0.660161500,0.143572820,9.104340550,0.039473180,0.054626170,-0.028096140
1640781891666289920,0.156317830,0.261145200,10.539608960,-0.077980740,-0.055158130,-0.009545680
1640781891667680000,0.276478350,-0.000003640,10.029137610,-0.167983790,0.069805980,0.017058850
1640781891671350016,0.345903160,-0.279785160,9.545236590,-0.043101610,-0.027576090,0.004126130
1640781891673859840,-0.425168810,-0.469523250,10.754886630,0.118276480,-0.024504960,-0.025092070
1640781891676460032,-0.016147750,-0.092878980,9.011456490,0.118176640,0.041063130,-0.026868290
1640781891677779968,-0.352884020,0.283970740,9.885963440,-0.047364840,-0.004985930,-0.014974180
1640781891681259776,-0.353734970,0.324669570,10.325645450,-0.186562550,0.112494830,0.016900900
1640781891682849792,-0.017285850,0.475020020,9.946523670,-0.075484810,0.032168630,0.005599860
1640781891686249984,-0.307264890,0.604486640,10.750293730,0.096896310,-0.034426160,-0.006808340
1640781891687660032,0.167004660,0.778174760,9.348003390,0.076562170,0.037704410,0.001731520
1640781891691609856,0.097515580,0.764265480,9.967888830,-0.077477080,0.056062640,0.014917550
1640781891692790016,-0.014661230,0.325835760,10.617313390,-0.183930960,0.131380570,0.045870240
1640781891696399872,0.405589550,0.051078760,9.940823550,-0.084152830,0.021217760,0.050129000
1640781891697669888,0.164218800,-0.060090760,10.320971490,0.039991740,0.026112800,0.024311240
1640781891701269760,0.362396450,0.168340410,9.097253800,-0.017607210,0.129818900,0.019507110
1640781891702599936,-0.112702590,0.255015020,10.108158110,-0.130012630,0.046253210,0.034736100
1640781891706459904,-0.418140680,-0.105172490,10.486453060,-0.160135340,0.092267990,0.058977310
1640781891707810048,-0.105313500,-0.236484570,9.353219030,-0.048322980,0.057880590,0.046560170
1640781891712169984,-0.551512660,-0.194621340,10.677896500,0.077080730,0.072057550,0.033523140
1640781891712859904,-0.083743460,0.259404780,9.325280190,0.003282730,0.175957410,0.031282010
1640781891716549888,0.045401290,0.600370880,9.628601070,-0.159080360,0.057777770,0.053073480
1640781891717759744,-0.077087860,0.397905710,10.580135350,-0.214537990,0.157240030,0.080733010
1640781891721390080,0.469523340,0.242639150,9.384478570,-0.082266330,0.121638190,0.056153550
1640781891724589824,-0.088817720,0.011456800,10.746370320,0.112873320,0.019367040,0.036945940
1640781891726400000,-0.034438830,0.090568000,9.783667560,0.072437510,0.156536680,0.039415070
1640781891727759872,0.001993290,0.276746300,9.458942410,-0.137524310,0.088551630,0.049106780
1640781891731299840,-0.590594530,0.064477120,10.892272000,-0.249356050,0.129953010,0.083689390
1640781891732590080,-0.130858840,0.237166750,9.396574970,-0.163012740,0.139513630,0.063611570
1640781891736290048,-0.405733020,0.448743850,10.139129640,0.010338430,0.030849880,0.039768220
1640781891737659904,-0.446144070,0.690859680,10.152544980,0.011199710,0.156891350,0.050137950
1640781891741459968,-0.161057260,0.867483200,9.553476330,-0.151221440,0.129517930,0.052236010
1640781891742759936,-0.504092630,0.354349940,10.898429870,-0.230222940,0.081586850,0.101563330
1640781891746259968,0.040472180,0.102984680,9.748521800,-0.137244160,0.144425050,0.105537480
1640781891747609856,0.182021810,0.027316510,9.669554710,-0.033913560,0.101989510,0.071641810
1640781891751289856,0.040757470,0.204946340,9.995779040,-0.076849760,0.161312520,0.084237760
1640781891752589824,0.237861280,0.348615910,9.472252850,-0.216007250,0.136014820,0.087425120
1640781891756399872,-0.073933740,-0.178275560,10.336896900,-0.246961400,0.108319510,0.100615610
1640781891758359808,-0.177426560,-0.305702120,9.992342950,-0.097487860,0.141575900,0.085154170
1640781891761260032,-0.506306410,-0.101525640,10.104478840,0.013875960,0.071942810,0.051964820
1640781891762599936,-0.601185560,0.150953840,9.735811230,-0.064556310,0.114886460,0.077411540
1640781891766599936,-0.378308000,0.561672330,9.249275210,-0.230954600,0.144208970,0.100949410
1640781891767639808,-0.594528200,0.359754770,10.508045200,-0.281956820,0.158172850,0.090695910
1640781891771289856,-0.248098660,0.238622470,9.987248420,-0.125876050,0.118479130,0.091862680
1640781891774939904,-0.181606980,0.301899160,10.037347790,0.047820810,0.018720330,0.065031650
1640781891776269824,-0.281119320,0.275353640,9.944223400,-0.031489130,0.110031670,0.042685870
1640781891777929984,0.021180330,0.573506770,9.233862880,-0.235924090,0.114829830,0.087688850
1640781891781260032,-0.338404630,0.242425500,10.671356200,-0.310267540,0.073078270,0.098668020
1640781891784009984,-0.101061910,0.106148900,9.838412280,-0.193358930,0.124426160,0.089433770
1640781891786249984,-0.079643610,0.407039700,9.583799360,-0.030304500,0.015430150,0.082191840
1640781891787629824,-0.645703200,0.407402160,10.466562270,-0.084736930,0.068256250,0.061926240
1640781891793269760,-0.321390150,0.460229750,9.079982760,-0.235699160,0.083932290,0.099536790
1640781891793890048,-0.609184620,0.109305200,10.275815960,-0.259570810,0.001446900,0.106108200
1640781891796279808,-0.519574940,-0.109355860,10.203580860,-0.168707970,0.116986040,0.078932950
1640781891797629952,0.038249490,0.275813730,8.888128280,-0.085236140,0.043082240,0.084500020
1640781891801280000,-0.350467740,0.474246440,10.443284030,-0.153365730,0.028571490,0.062146790
1640781891802609920,0.015543990,0.525928020,9.316137310,-0.282362070,0.119172040,0.087851290
1640781891809999872,-0.130722510,0.227419900,9.808243750,-0.258933040,-0.040771070,0.089688600
1640781891810809856,-0.597150440,-0.229368080,10.601261140,-0.117936750,0.024278470,0.055213280
1640781891811379968,-0.146189570,-0.094631080,8.714768410,-0.020851200,0.029478970,0.045043230
1640781891812620032,-0.644440000,0.128002790,10.242552760,-0.114323210,-0.030769400,0.049707290
1640781891816689920,-0.554541470,0.209324930,9.830830570,-0.309938130,0.111775110,0.081379720
1640781891817720064,-0.224917290,0.132618770,9.462268830,-0.305697350,-0.030972070,0.073803970
1640781891821459968,-0.761003140,-0.063686190,11.071276660,-0.120420750,-0.047810370,0.045122200
1640781891822979840,-0.297679250,0.128501120,9.148528100,0.007872280,-0.006546080,0.029657780
1640781891826400000,-0.434549300,0.358664240,9.833574300,-0.061804060,-0.113898520,0.026193260
1640781891827630080,-0.614243570,0.362951460,10.324077610,-0.255753100,0.044547030,0.064553320
1640781891831279872,0.054348850,0.330976430,9.080854420,-0.306798520,-0.026457010,0.081668800
1640781891832659968,-0.343914960,0.185653980,10.877756120,-0.170353060,-0.092443830,0.074560940
1640781891836269824,-0.095587020,0.378236830,9.548897740,-0.072017320,0.005485120,0.051125890
1640781891838119936,-0.050998850,0.522379160,9.420866970,-0.115449730,-0.134922560,0.039526820
1640781891842099968,-0.662165220,0.233644830,10.623914720,-0.222505660,-0.050839790,0.056020920
1640781891842739712,-0.214009400,-0.090024370,8.981528280,-0.231622200,-0.043588880,0.055213280
1640781891846289920,-0.456037460,-0.383958700,10.276595120,-0.112727300,-0.128807140,0.053697840
1640781891847810048,-0.432023320,-0.193954050,9.767667770,-0.061413660,0.006866460,0.041471430
1640781891855759872,0.002971090,0.191797110,8.984293940,-0.155443000,-0.104045890,0.041791800
1640781891856289792,-0.416505600,0.184598360,10.604615210,-0.233888630,-0.084906820,0.067183380
1640781891856689920,-0.119842480,-0.028873230,9.295267110,-0.205226210,-0.047247110,0.039517880
1640781891857699840,-0.217562740,-0.236742320,10.020709040,-0.037439170,-0.172889200,0.006292760
1640781891861250048,-0.496700760,-0.176624330,10.090350150,0.056652720,-0.065216420,0.007621940
1640781891862619904,-0.069463570,0.137025670,8.902084350,-0.064025820,-0.106769810,0.005036590
1640781891866259712,-0.504740180,0.202939730,10.468312260,-0.224068780,-0.104537610,0.053969030
1640781891867990016,-0.280301060,0.194985350,9.621722220,-0.231692210,-0.050045550,0.052082540
1640781891871409920,-0.217902320,0.247350100,10.043028830,-0.075535480,-0.203023870,0.017790500
1640781891872699904,-0.545992140,0.426820730,10.309936520,0.045789770,-0.120168930,0.011536480
1640781891876459776,-0.192409310,0.592223760,8.982040410,-0.036770110,-0.126479570,-0.009725990
1640781891877669888,-0.491595950,0.571959260,10.451293950,-0.191523100,-0.145073250,0.016403190
1640781891881270016,-0.293563570,0.480911550,9.656165120,-0.220923130,-0.071717800,0.043115020
1640781891882599936,0.105869070,0.375843640,9.408572200,-0.128242390,-0.201423500,0.019097330
1640781891886669824,-0.120731030,0.469454800,10.131112100,-0.051462650,-0.090441120,0.022222100
1640781891888049920,0.084708490,0.580300990,9.135768890,-0.105211160,-0.111240160,0.014261900
1640781891892199936,-0.284470260,0.248430180,10.579191210,-0.193010290,-0.210744160,0.025649370
1640781891892619776,-0.298697860,-0.256046300,9.832528110,-0.167687250,-0.107526790,0.024725500
1640781891896250112,-0.051290270,-0.449200450,9.272870060,-0.061480710,-0.179493430,-0.009624660
1640781891897659904,-0.433044730,-0.319412290,10.354804990,-0.009417530,-0.105449560,-0.008702280
1640781891901389824,-0.114264880,0.137319240,8.976215360,-0.109702350,-0.098566700,0.007508690
1640781891902919936,-0.295647260,0.322236090,10.113456730,-0.224202890,-0.225599140,0.034174330
1640781891906349824,-0.413376180,0.007913450,10.108683590,-0.179007650,-0.097839540,0.032345950
1640781891908150016,-0.133514330,-0.072693130,9.411053660,0.021146240,-0.200092790,-0.006224220
1640781891911320064,-0.626792310,0.119141320,10.781144140,0.111933050,-0.199095890,-0.032389160
1640781891912619776,-0.248972150,0.375479310,9.038845060,-0.028839710,-0.105494280,-0.016094750
1640781891916270080,-0.219854180,0.528899970,9.841720580,-0.214332310,-0.227865560,0.004476310
1640781891918149888,-0.421404240,0.425001230,10.345812800,-0.224661870,-0.102737560,0.012752420
1640781891921339904,0.133680430,0.442081120,8.913262370,-0.053998830,-0.192365050,0.003778940
1640781891922639872,-0.428076650,0.468869600,10.799460410,0.075215110,-0.263221560,-0.013379750
1640781891926279936,-0.392987520,0.409435090,9.525075910,-0.015477840,-0.121672460,-0.020234280
1640781891927689984,-0.299130650,0.186860520,9.626140590,-0.142328460,-0.286859270,0.012888020
1640781891931269888,-0.681338190,-0.230029300,10.737104420,-0.155404220,-0.178055480,0.025570390
1640781891932649728,0.161285470,-0.217182440,8.630786900,-0.077015170,-0.136013330,-0.009304290
1640781891936770048,-0.026143060,0.154775460,10.266626360,0.009790060,-0.230526940,-0.011678040
1640781891938079744,-0.084282150,0.421480420,9.960574150,-0.070789450,-0.102595980,-0.015921890
1640781891942710016,0.329276920,0.278158340,9.198066710,-0.154311970,-0.267234470,-0.004078450
1640781891943419904,-0.409235480,-0.111693580,10.799115180,-0.069737440,-0.226493180,0.004598500
1640781891946269952,-0.065120220,-0.312473210,9.079359050,0.044324990,-0.144808010,-0.039528320
1640781891947670016,-0.204190690,-0.069200380,9.803525920,0.063984100,-0.252880190,-0.022909050
1640781891951360000,-0.572254600,0.201409470,10.090394020,-0.076788660,-0.120431180,-0.012905900
1640781891952639744,-0.020031780,0.127602440,9.048377040,-0.206017510,-0.175273420,0.000658630
1640781891956450048,-0.569622340,-0.096960890,10.739901540,-0.076861680,-0.235620160,0.003707410
1640781891958079744,-0.415276320,-0.298522860,9.475791930,0.120146570,-0.205366360,-0.047561530
1640781891961279744,-0.156440140,-0.156632110,9.321716310,0.159212930,-0.281277270,-0.059688090
1640781891962599936,-0.569775220,0.127700050,10.169703480,0.002124910,-0.122672330,-0.031484660
1640781891966349824,-0.038969670,0.077714710,9.547784810,-0.171864050,-0.163242220,-0.022393470
1640781891967719936,-0.018414690,0.188437030,10.452278140,-0.087025750,-0.262427360,0.000599030
1640781891973739776,0.170825240,0.403223750,9.426354410,0.067427770,-0.162994890,-0.016093260
1640781891974700032,0.273411450,0.629373730,9.460071560,0.087465350,-0.212512910,-0.047044460
1640781891976339712,-0.363001790,0.675981460,10.305781360,-0.013843180,-0.184989020,-0.014859440
1640781891978009856,-0.122972600,0.179360030,9.478681560,-0.091385860,-0.229324430,-0.001196560
1640781891981560064,-0.262094860,-0.184553680,10.095017430,-0.015866760,-0.227800040,-0.016090280
1640781891983340032,-0.321538420,-0.159397800,9.489703180,0.076763340,-0.132979450,-0.037285690
1640781891986349824,-0.088273850,0.108368490,9.400219920,0.041012470,-0.214284690,-0.038945670
1640781891988009984,-0.310271710,0.301346570,10.032406810,-0.075961650,-0.168187930,-0.028976800
1640781891991940096,0.005426260,0.065007060,9.355016710,-0.094714770,-0.171944510,-0.010710950
1640781891992600064,-0.170385600,-0.154946980,10.362613680,0.054977840,-0.242863600,-0.037740170
1640781891996249856,-0.224706900,-0.138866840,9.655416490,0.175529730,-0.167368350,-0.061440470
1640781891998089984,0.111940420,0.331789020,9.086037640,0.098757450,-0.240974140,-0.056688480
1640781892001260032,-0.225458880,0.562263070,10.099787710,-0.088161220,-0.123062740,-0.025548040
1640781892002660096,0.103687480,0.405551580,9.309597970,-0.159834340,-0.111506890,-0.008928780
1640781892006529792,-0.176644400,0.381168720,10.573468210,0.021617120,-0.279603900,-0.031310320
1640781892007779840,-0.386730670,0.340795960,9.898727420,0.171698670,-0.179952410,-0.047720980
1640781892012130048,-0.071600970,0.404586580,8.993515010,0.110855720,-0.229871290,-0.057709220
1640781892012839936,-0.754842460,0.392448750,10.729474070,-0.039969380,-0.162369030,-0.031927230
1640781892016269824,-0.254522530,0.067084960,9.480277060,-0.131125760,-0.120186820,-0.024348500
1640781892017710080,0.000014100,0.154298950,10.027935030,-0.013767190,-0.258791450,-0.017227230
1640781892021400064,-0.120769250,0.312359210,10.021759990,0.084769730,-0.129826370,-0.041669600
1640781892022689792,0.523161530,0.544966040,8.854693410,0.022676590,-0.148466240,-0.054508460
1640781892026279936,-0.028504650,0.630776580,10.541499140,-0.059287260,-0.199726250,-0.008903440
1640781892027649792,0.152783290,-0.012614840,9.747622490,-0.080741960,-0.125165300,-0.010903180
1640781892031329792,0.422741830,-0.249418850,9.472404480,0.051584840,-0.195978580,-0.025561450
1640781892032630016,-0.282687400,-0.083526750,10.227899550,0.129997730,-0.119672740,-0.043103100
1640781892036539904,0.191200320,0.187739580,8.796464920,-0.013999640,-0.125268120,-0.051870950
1640781892037730048,0.009921970,0.445111420,9.631092070,-0.142525140,-0.131814200,-0.015144050
1640781892041699840,-0.171173560,0.110038350,9.955846790,-0.125756860,-0.031325220,-0.020702190
1640781892043340032,-0.010020580,-0.116844130,9.975479130,0.081262000,-0.159636140,-0.038564210
1640781892046520064,-0.517930870,-0.121051820,10.284673690,0.237903000,-0.191411390,-0.056590140
1640781892047680000,-0.114944470,-0.041425960,8.944988250,0.086562340,-0.134992600,-0.059118870
1640781892051299840,-0.182822060,0.131220880,9.788558960,-0.114156320,-0.057742000,-0.027367480
1640781892052669952,-0.181665940,0.009402860,10.136989590,-0.121885560,-0.028610230,-0.029261420
1640781892056320000,0.296526880,0.286946590,9.902742390,0.051352370,-0.178924190,-0.043414530
1640781892058299904,0.146596430,0.699364780,9.889092450,0.156129910,-0.113511100,-0.054781150
1640781892061410048,0.328831110,0.891930160,9.150902750,0.038149950,-0.066277380,-0.055305670
1640781892062660096,-0.029499960,0.728057620,10.358972550,-0.099152350,-0.082828100,-0.029905150
1640781892066229760,-0.103740790,0.120668930,10.037915230,-0.050467250,-0.049385420,-0.014522670
1640781892067659776,0.194524940,-0.003289400,9.609374050,0.078842040,-0.129964960,-0.029155610
1640781892071399936,-0.180265750,0.094622310,9.937699320,0.103233760,-0.041776900,-0.043630600
1640781892072739840,0.198599790,0.287274540,8.799587250,-0.054150820,-0.020642580,-0.030420720
1640781892076499968,-0.045756950,0.172149520,10.152294160,-0.127300630,-0.063027430,-0.001706180
1640781892077730048,-0.184286010,-0.291970790,10.173810960,-0.040659310,-0.001797080,-0.026758020
1640781892081260032,0.097554540,-0.320585580,9.579633710,0.140763830,-0.124187770,-0.051459670
1640781892082619904,-0.394153650,-0.139117380,10.119378090,0.185333190,-0.072053080,-0.070270900
1640781892086659840,0.096270730,0.157548000,8.678215980,-0.003361700,0.016354020,-0.059373680
1640781892087859968,0.044854320,0.355832640,9.920835490,-0.127048810,-0.008656080,-0.024762760
1640781892091729920,-0.169137280,0.186463550,10.406726840,-0.065299870,0.045537950,-0.022357700
1640781892092630016,0.267710210,0.249553960,9.474390030,0.130920110,-0.110490630,-0.026443600
1640781892096259840,-0.297487080,0.342946140,10.097905160,0.217506290,-0.099830340,-0.027169290
1640781892097689856,-0.081244810,0.266040300,9.033632280,0.048896670,0.043804940,-0.032685700
1640781892101209856,-0.267818090,0.259489000,10.161792760,-0.072903930,-0.000888110,-0.011029840
1640781892102680064,-0.608088020,0.054880780,10.579785350,-0.042062990,-0.013342500,-0.019118190
1640781892106429696,0.131059540,0.257964100,9.056436540,0.068984930,-0.082239510,-0.039415060
1640781892107889920,-0.223739770,0.617237090,9.773233410,0.119075200,-0.001822410,-0.041714310
1640781892112699904,-0.144979700,0.731867730,9.515209200,-0.015905500,0.047348440,-0.041012470
1640781892113199872,-0.012639390,0.545587660,10.171370510,-0.071869810,-0.059120360,0.005435950
1640781892116299776,-0.161773310,-0.052363380,10.246945380,0.016769770,0.003053250,-0.002822280
1640781892117679872,0.268913480,-0.281120270,9.505089760,0.129701180,-0.006358320,-0.015614930
1640781892121289984,0.036761500,-0.085498710,10.163734440,0.155390800,0.010339920,-0.017364330
1640781892122680064,0.301932690,0.116665880,9.038668630,-0.019097330,0.054882470,-0.021161140
1640781892126479872,0.435729680,0.202918340,9.578342440,-0.119763610,0.005622210,-0.001028180
1640781892127650048,0.018854540,-0.012942830,10.240750310,-0.005246700,0.095404680,-0.010642410
1640781892131239936,0.121749260,-0.068990950,9.737871170,0.187024470,-0.016099210,-0.046390300
1640781892132679936,-0.457420890,0.173398960,10.400908470,0.250054930,-0.066612660,-0.043374300
1640781892136799744,-0.338758590,0.324622420,8.868772510,0.043517350,0.076937680,-0.037218630
1640781892138059776,-0.322278770,0.307233840,9.651451110,-0.117050100,0.059932470,-0.013926620
1640781892142210048,-0.645156090,0.116842180,10.631658550,-0.014863910,0.098116710,-0.014270840
1640781892144780032,0.134489610,0.299405490,9.175098420,0.159093740,-0.014370680,-0.029557950
1640781892146279936,-0.120249220,0.571056660,10.085188870,0.197534280,-0.023883580,-0.023083390
1640781892147709952,-0.049486200,0.523976980,9.504467010,0.028079750,0.134339930,-0.008493660
1640781892151229952,0.076730460,0.306542400,10.039137840,-0.079952180,0.019003450,0.001947580
1640781892152689920,-0.372898820,0.023450940,10.845211030,0.019924340,0.021563470,0.005003810
1640781892156319744,0.212615220,0.115509250,8.913400650,0.137560070,0.025951860,-0.021985180
1640781892160559872,-0.090256880,0.570085350,9.633050920,0.109858820,0.020451840,-0.037549430
1640781892161239808,-0.286414530,0.766000270,9.599642750,-0.065591940,0.125519950,-0.003108380
1640781892162669824,0.025036410,0.605303820,9.577030180,-0.124382990,0.025989120,0.022813680
1640781892166309888,-0.497929100,0.086373560,10.635187150,0.019492210,0.033444170,0.015001000
1640781892167769856,-0.224825830,-0.074823690,9.454607960,0.173819080,0.036498900,-0.006601210
1640781892171340032,-0.332207680,0.083355860,9.705262180,0.144359470,-0.021247570,-0.020423530
1640781892178799872,-0.369372810,0.051628130,9.373209950,-0.071081520,0.107432920,-0.005078320
1640781892179319808,0.161299300,-0.053383590,9.441967010,-0.157985090,0.099980840,0.023782260
1640781892179630080,-0.156266360,-0.324805890,10.737281800,0.018510220,0.099609810,0.004014370
1640781892181229824,0.036379810,-0.257604930,9.804702760,0.204946150,-0.006251040,-0.016631190
1640781892182629888,-0.072725590,0.126885980,9.849433900,0.214749590,-0.069727000,-0.007341800
1640781892186279936,-0.339390430,0.113870020,9.235126500,-0.008797650,0.120830560,-0.004938250
1640781892187889920,-0.223108950,0.058964710,9.614035610,-0.100153680,0.071640320,0.016097720
1640781892191340032,-0.658764720,0.031739010,10.956594470,0.052157050,0.067996980,0.008089840
1640781892194340096,-0.244062480,0.286155070,9.254722600,0.188978030,-0.003844500,-0.006884340
1640781892196249856,-0.404615010,0.785400990,9.883302690,0.151774290,-0.065219410,0.007584690
1640781892197659904,-0.580838020,0.682443920,9.636803630,-0.040839620,0.120045270,0.013074280
1640781892201229824,-0.185110690,0.267740700,9.601956370,-0.071597080,0.013770160,0.035828350
1640781892202669824,-0.531215130,0.077712540,11.194845200,0.120636830,0.002539160,0.024940080
1640781892206650112,0.080707720,0.090046790,9.078525540,0.200930240,0.042867660,-0.007003550
1640781892207990016,0.114460570,0.503069460,9.527422900,0.088414550,-0.045827030,0.005541740
1640781892212049920,-0.219631570,0.734232130,9.930016520,-0.110435490,0.105817620,0.018316510
1640781892212709888,0.385432420,0.351425320,8.986045840,-0.146208720,0.035329160,0.040444740
1640781892216249856,-0.295950380,0.091242160,10.932978630,0.094220040,-0.008635220,0.030893090
1640781892217690112,-0.284450050,0.001509280,9.727163310,0.235523280,0.049218540,-0.005805490
1640781892221309952,-0.221919060,0.021810410,9.376780510,0.148051990,-0.087739530,0.009699170
1640781892222800128,-0.793916940,0.108985170,10.021151540,-0.072482240,0.048434740,0.031054030
1640781892226699776,-0.145331920,-0.163704250,8.895903590,-0.148446830,0.095021720,0.030963120
1640781892227699968,-0.435127500,-0.303686500,10.589241030,0.067728770,0.010256470,0.005747380
1640781892231219968,-0.340109740,0.139598890,9.952392580,0.249984880,0.009116530,-0.033076110
1640781892232689920,0.097900570,0.348399310,9.194937710,0.168299670,-0.068517040,-0.015521050
1640781892236610048,-0.468119830,0.256906600,10.130460740,-0.019396840,0.050160300,0.006067750
1640781892242349824,-0.176050540,0.084258070,9.750660900,-0.053499640,0.061334670,0.013013180
1640781892243449856,-0.312855540,-0.030493660,10.537894250,0.114250170,-0.051032010,0.000290570
1640781892243789824,-0.244935110,0.316219990,9.623155590,0.208860670,-0.011849400,-0.000967090
1640781892246289920,0.118107920,0.741855440,9.202940940,0.097209220,-0.008831920,-0.009240210
1640781892247680000,-0.357226220,0.567534570,10.284408570,-0.071491300,0.076836360,-0.000767410
1640781892251229952,-0.198737740,0.252165470,10.060983660,-0.026515130,-0.003500280,0.014784930
1640781892252899840,-0.367899630,-0.025136030,10.612113000,0.164018570,-0.099194060,-0.014053290
1640781892256439808,-0.348659010,-0.013244910,9.306003570,0.223016740,-0.013466180,-0.024671850
1640781892257740032,-0.089770880,0.454668520,9.141633990,0.064659120,-0.028163190,-0.005464260
1640781892261209856,-0.252812980,0.448383870,10.139944080,-0.115902730,0.097595150,0.021646920
1640781892262629888,0.336093870,0.146518510,9.416747090,-0.092464690,0.043949480,0.028806930
1640781892266279936,0.132481920,0.169540150,10.747240070,0.145241630,-0.055748220,-0.007371600
1640781892267659776,0.011710170,0.245953400,9.701478960,0.233465480,0.019070510,-0.027054550
1640781892271680000,0.160824730,0.259776060,8.958653450,0.108750170,-0.094796720,0.006541610
1640781892272749824,-0.481607760,0.126969950,10.098078730,-0.058689710,0.048290200,0.002983210
1640781892277139968,0.025598730,-0.085425180,8.811765670,-0.084669890,0.116381060,0.003057720
1640781892277689856,-0.223756160,0.048667120,10.505623820,0.113146010,-0.025659800,-0.006128850
1640781892281219840,-0.421623560,0.324981030,10.183454510,0.194081660,0.036746260,-0.035110120
1640781892282680064,0.078385580,0.429017040,8.808800700,0.065167260,-0.055427850,-0.010406970
1640781892286829824,-0.589570520,0.218347550,10.524366380,-0.019516050,0.012418630,0.003202260
1640781892288889856,-0.202865450,-0.243718850,9.551739690,0.022120780,0.098951160,-0.022025410
1640781892291259904,-0.003987490,-0.134559560,10.027063370,0.192283090,-0.059525670,-0.011588630
1640781892292669952,-0.264539420,0.330260870,10.185619350,0.183664230,0.047643480,-0.027696780
1640781892296310016,0.434598800,0.721448720,8.862726210,-0.038029250,0.039234750,-0.018438700
1640781892297669888,-0.103759560,0.836356340,10.414012910,-0.118784610,0.004409250,0.026439130
1640781892301729792,-0.052508670,0.444875090,9.975810050,0.002786520,0.063461070,0.000214580
1640781892302739968,0.132164150,0.300984410,9.731813430,0.202679650,-0.037696960,-0.027216970
1640781892310129920,-0.435939850,0.491013650,10.121118550,0.209696590,0.026939810,-0.020627680
1640781892310659840,-0.006663160,0.458799660,9.046483040,-0.032460690,0.064340230,-0.003959240
1640781892311219968,-0.207551430,0.384952250,9.980557440,-0.176572810,0.056113310,0.027976930
1640781892312630016,-0.110196160,0.063096780,9.810337070,-0.080020730,0.098797690,0.025182970
1640781892316279808,0.076457650,0.041206290,9.932298660,0.123555960,0.008702280,-0.017000740
1640781892318119936,-0.271318110,0.167292220,10.107044220,0.194381190,0.015516580,-0.026765470
1640781892321580032,0.016915210,0.100462660,9.154157640,0.034303970,0.026397410,-0.017766660
1640781892322700032,-0.210065230,-0.051474720,10.015499110,-0.096340480,0.064669560,-0.026404860
1640781892326239744,-0.138908740,-0.244695780,9.829106330,-0.039899340,0.128120200,-0.011433660
1640781892327709952,0.064113240,0.012064480,10.133186340,0.118935120,-0.002473590,-0.021956860
1640781892331219968,-0.193688750,0.340223550,10.146277430,0.152744350,0.040851530,-0.012201070
1640781892333149952,0.233963700,0.413509280,8.970010760,0.020562110,0.067032870,0.010336930
1640781892336709888,-0.197478290,0.147887050,10.530862810,-0.035876040,0.089646880,0.009691720
1640781892337769984,-0.310471390,-0.193694520,10.301568980,0.073143840,0.104424360,0.003202260
1640781892341529856,-0.082095240,0.028735760,9.757120130,0.199744140,-0.072774290,-0.010856990
1640781892343119872,-0.474011210,0.353854210,9.904685970,0.129243750,0.036261970,-0.015267730
1640781892346299904,-0.004587050,0.609066130,8.841836930,-0.060036780,0.139993430,-0.009426470
1640781892347719936,-0.288834270,0.750557960,10.673943520,-0.090646750,0.076116620,0.004521010
1640781892351239936,-0.365213990,0.448326440,10.667715070,0.043232740,0.080521400,0.008256730
1640781892352659968,0.183760340,0.459825340,9.433435440,0.180578230,-0.042431060,-0.005283950
1640781892356359936,-0.321999790,0.442954330,10.088463780,0.150458500,0.026534500,-0.001743440
1640781892357740032,0.063674170,0.301772510,8.971822740,-0.044506780,0.131937850,0.017680220
1640781892361239808,0.206962470,0.132496570,9.855299000,-0.111284860,0.078195340,0.031600890
1640781892362669824,0.025414790,-0.256279170,10.373989110,-0.007873780,0.134138760,0.022752590
1640781892366249984,0.390535560,-0.230264540,9.684753420,0.146141650,0.048495830,-0.020599370
1640781892367749888,-0.283153300,-0.015837840,10.352210040,0.178407150,0.004702810,-0.023561720
1640781892371320064,-0.363852830,-0.110119920,9.240192410,0.020934640,0.052982580,-0.020968920
1640781892372730112,-0.391241310,-0.063533390,9.585042000,-0.051335980,0.052653250,-0.010673700
1640781892376439808,-0.622914970,-0.109083330,10.178791050,0.032904750,0.147901480,-0.013937060
1640781892377799936,-0.089280290,0.169609700,9.785388950,0.146801770,0.068795690,-0.019742550
1640781892381389824,-0.188311800,0.757857740,10.436190610,0.153389570,0.050374870,0.000084940
1640781892382809856,0.031033020,0.719943400,9.542391780,-0.021088120,0.095111140,0.010415910
1640781892386530048,0.005421850,0.523232700,10.126553540,-0.057706250,0.025533140,0.009484590
1640781892387749888,-0.299800570,0.165488150,10.329003330,0.072097790,0.085417940,-0.016342110
1640781892391520000,0.134274780,0.041248400,9.283254620,0.176990050,0.029480460,-0.038823490
1640781892392740096,-0.241284490,0.497952160,10.297589300,0.124560300,0.061057510,-0.024536250
1640781892396299776,-0.057373780,0.504768070,9.585437770,-0.099951040,0.149419900,-0.004690890
1640781892398020096,0.055833390,0.416373460,9.954472540,-0.152012690,0.037592640,0.018502770
1640781892401249792,-0.380909950,0.305978030,10.776227950,0.025957830,0.086350740,0.001665950
1640781892402860032,0.008453350,0.142344970,9.316126820,0.158271190,0.070497400,-0.021979210
1640781892407990016,-0.476680520,0.388166070,10.167123790,0.134338440,-0.011689960,-0.022059680
1640781892409379840,-0.450032290,0.341844350,9.647874830,-0.062014170,0.106713180,-0.000487270
1640781892411199744,0.145547000,0.085299060,9.048977850,-0.154960160,0.099037600,0.017134850
1640781892412729856,-0.311705620,0.014440390,10.744417190,-0.013703110,0.120836500,0.003461540
1640781892416270080,0.041304230,0.148672100,9.875548360,0.103753820,0.091817980,-0.015817580
1640781892417729792,-0.011987160,0.364027320,9.696366310,0.098775330,-0.053791700,-0.012357530
1640781892421270016,-0.379769000,0.256071030,9.758968350,-0.038570160,0.062774130,-0.015951690
1640781892422689792,-0.116010050,0.027649290,9.169831280,-0.114966930,0.120121250,-0.021667780
1640781892426289920,-0.614107370,-0.307163390,10.520127300,0.038667030,0.060209630,-0.035308300
1640781892427709696,-0.430964200,0.018601290,9.949638370,0.142629440,0.036548080,-0.041209160
1640781892431269888,-0.142540250,0.540377560,9.234165190,0.067444150,-0.002096590,-0.015051660
1640781892432659968,-0.441097470,0.432113950,9.939740180,-0.114093710,0.074174990,0.001916290
1640781892436579840,-0.134438190,0.332018260,9.853105550,-0.115571920,0.092217330,0.000840430
1640781892437690112,-0.277645050,-0.017982550,10.417738910,0.084987290,0.009460750,-0.028556590
1640781892442179840,-0.210922960,0.082139830,9.964246750,0.206610560,-0.003921990,-0.041957200
1640781892442819840,-0.035591240,0.546663520,9.317450520,0.074066230,0.015121700,-0.035478180
1640781892446259968,-0.215782060,0.464347240,9.665470120,-0.155668010,0.081707540,-0.015297530
1640781892447739904,0.054584000,0.450677040,9.817859650,-0.167928640,0.075711320,0.018140670
1640781892451239936,-0.063103820,0.236201210,10.379881860,0.039134920,0.040787450,-0.015059110
1640781892452859904,-0.022605060,0.159679820,9.836719510,0.182312770,0.021317600,-0.038573150
1640781892456270080,-0.128210740,0.470858810,9.737560270,0.115388620,-0.009405610,-0.023417170
1640781892457999872,-0.380632790,0.093180120,9.835233690,-0.091816500,0.063280780,-0.013850630
1640781892461619968,-0.019099280,-0.123213670,9.279223440,-0.134609640,0.067016480,0.009791560
1640781892462699776,-0.294563440,-0.143063780,10.423016550,0.029669710,0.054998700,-0.014817720
1640781892466219776,-0.112566600,-0.096731840,9.783413890,0.134484470,0.083856290,-0.037732720
1640781892467749888,0.058938640,0.333770720,9.645756720,0.097855930,-0.036901240,-0.021715460
1640781892471350016,-0.444913390,0.063548110,10.280511860,-0.050541760,0.051850080,-0.018586220
1640781892472739840,-0.009317940,-0.227066590,9.158915520,-0.059710440,0.087006380,-0.020501010
1640781892476889856,-0.474405470,-0.266656100,10.463937760,0.119930510,0.000497700,-0.019232930
1640781892477730048,-0.443798070,-0.066299570,9.984365460,0.183798370,0.056844950,-0.037263330
1640781892481230080,-0.060237420,0.480719270,9.163901330,0.078359260,-0.014279780,0.004729630
1640781892482720000,-0.632474840,0.485593020,10.550416950,-0.085583340,0.053831940,0.002676250
1640781892486240000,-0.247898560,0.336630520,9.881466870,-0.082695480,0.083979970,-0.009970370
1640781892487729920,-0.401186590,0.296104460,10.449827190,0.153122840,-0.078609590,-0.012111660
1640781892491549952,-0.539187070,0.317695620,10.108544350,0.228412450,-0.011985000,-0.048421330
1640781892492760064,0.051443640,0.749877390,8.786098480,0.061617790,0.002796950,-0.021904710
1640781892496259840,-0.236768230,0.613081750,10.058074950,-0.131934900,0.048547980,0.006522240
1640781892497689856,0.181640740,0.409669580,10.061411860,-0.154905050,0.105990490,0.014722350
1640781892501550080,0.272216800,0.318965670,10.481986050,0.066024060,-0.015597050,0.006233160
1640781892502720000,-0.068006070,0.159198550,10.429910660,0.185123070,-0.031137460,-0.026473400
1640781892506399744,0.124421510,0.396021520,9.201966290,0.076812510,-0.029374660,-0.017550590
1640781892507719936,-0.271924110,0.131323170,9.654930110,-0.082187360,0.018243490,0.010499360
1640781892511350016,-0.120657850,-0.144879460,9.532114030,-0.127300630,0.115498910,0.004290040
1640781892512719872,-0.138079140,-0.051833750,10.199390410,0.039620710,0.055339940,0.004275140
1640781892516229888,-0.436411530,0.076724360,10.514938350,0.163492550,-0.000853840,-0.015504660
1640781892517779712,-0.143818300,0.503574790,9.368008610,0.066748270,-0.049579140,-0.007183850
1640781892521349888,-0.529786940,0.388448690,9.970708850,-0.071536010,-0.007523600,0.000168380
1640781892522719744,-0.348165720,-0.001211120,9.693892480,-0.085107980,0.099736470,-0.014767050
1640781892526350080,-0.209651860,0.033210220,10.177614210,0.093300630,0.006373230,-0.040179490
1640781892527809792,-0.380923720,0.294786960,10.490170480,0.187110920,-0.016553700,-0.026401880
1640781892531219968,0.179022580,0.689331050,9.007295610,0.013673310,-0.005728010,0.001263620
1640781892532649984,-0.245009390,0.714901150,10.112900730,-0.160519790,-0.010429320,0.013320150
1640781892536259840,-0.232596740,0.389152620,10.231817250,-0.146749620,0.071288650,0.028499960
1640781892537730048,-0.008452570,0.112493110,10.063983920,0.082966690,-0.020593410,-0.000731650
1640781892545309952,-0.583933710,0.037040200,10.892205240,0.217327490,-0.048920520,-0.022627410
1640781892545799936,-0.182253700,0.408783200,9.235360150,0.051066280,-0.001223390,-0.004883110
1640781892546239744,-0.283198240,0.376015480,9.404647830,-0.193569060,-0.045949220,0.012362000
1640781892547729920,-0.320661340,0.209709550,9.986095430,-0.229468960,0.063367190,0.026445100
1640781892551630080,0.163778720,0.213109730,9.545948030,-0.011514130,0.048656770,0.014792380
1640781892552729856,-0.291941910,0.164157580,10.722493170,0.171704610,-0.054799020,-0.017441810
1640781892556320000,-0.092407140,0.357280820,9.769211770,0.084120030,-0.034482770,0.002416970
1640781892558310144,-0.011763480,0.084454570,9.289588930,-0.121894500,-0.032322110,0.013279920
1640781892561240064,-0.320168230,-0.442385580,10.205945970,-0.167642580,0.062297300,0.019712750
1640781892562690048,0.049274710,-0.270121510,9.708303450,0.017695130,0.042849780,-0.003576280
1640781892566210048,-0.055204730,0.031498310,9.964926720,0.126861070,-0.047504910,-0.029349330
1640781892568709888,0.084618320,0.535862450,9.524865150,0.023622810,0.011017920,0.016097720
1640781892571290112,-0.108003900,0.552578630,9.931818010,-0.143821540,0.017355380,0.009657440
1640781892572749824,-0.498045890,0.053667920,10.536064150,-0.116071110,0.006867950,0.004392860
1640781892576400128,-0.355230840,0.079662320,9.966261860,0.092147300,-0.062000750,-0.000470880
1640781892579609856,-0.602117840,0.131621390,9.991160390,0.157603640,-0.029429790,-0.035797060
1640781892581240064,-0.285646560,0.553027750,9.158079150,-0.009332600,0.028507420,0.004155930
1640781892582739712,-0.236665530,0.726076070,9.892472270,-0.199772460,-0.005601350,0.022466480
1640781892586540032,-0.098701880,0.315548210,10.281285290,-0.183865440,0.051003690,0.026336310
1640781892587729920,0.339358780,0.225362090,9.827091220,0.047920640,-0.008317830,0.028346480
1640781892591320064,-0.177316340,0.247454550,10.783637050,0.176185350,-0.059665740,-0.025425850
1640781892594339840,0.047117550,0.339031490,9.277500150,0.019271670,-0.002928080,-0.002673270
1640781892596219904,0.120606610,0.319118050,9.112594600,-0.173443570,-0.030142070,0.038826470
1640781892597750016,-0.213725820,-0.102940430,10.287443160,-0.203321890,0.087468330,0.019858780
1640781892601229824,0.218778060,-0.046572510,9.409676550,-0.003610550,0.073441870,0.014342370
1640781892602720000,-0.362439010,0.236285780,10.593269350,0.139407800,-0.095419570,-0.001464780
1640781892611559936,-0.437107680,0.319523540,9.721729280,0.014035410,-0.013071300,-0.005896390
1640781892612599808,-0.275593160,0.251885710,8.841893200,-0.129418080,-0.031767790,0.003093480
1640781892613090048,-0.863421500,-0.133820180,10.659786220,-0.120207690,0.030043730,-0.021684170
1640781892613390080,-0.223150850,0.042406260,9.463307380,0.038088860,0.041572750,-0.027763850
1640781892616240128,-0.117826820,0.489959630,9.783672330,0.106340670,-0.077523290,-0.015552340
1640781892617699840,-0.089906160,0.738018270,10.078777310,-0.070838630,0.045858330,0.010025500
1640781892621319936,0.254501250,0.694808600,9.410417560,-0.193460260,0.014600160,0.026872760
1640781892623079936,-0.296476100,0.141593370,10.848074910,-0.095759320,-0.057588520,0.009052460
1640781892626749952,-0.035210710,0.032006030,9.702499390,0.083044180,-0.015191730,-0.015427170
1640781892627689728,-0.207350490,0.284430860,9.576962470,0.115901240,-0.065323710,-0.034055120
1640781892631229952,-0.462793320,0.501914320,9.966591840,-0.111652920,0.024497510,-0.025795400
1640781892632689920,-0.067948700,0.692834970,9.171788220,-0.270831530,0.008988380,0.009168680
1640781892636549888,-0.280320790,0.405187100,10.364619260,-0.185236350,-0.008729100,0.011838970
1640781892637889792,-0.043527950,0.318322000,9.806598660,0.001892450,0.031901900,-0.011676550
1640781892641360128,-0.142615650,0.435461460,9.868723870,0.105944280,-0.093181440,-0.019983950
1640781892642839808,-0.254569200,0.216185760,9.892323490,-0.047992170,-0.019356610,0.000698860
1640781892646240000,0.212776170,-0.054794150,8.931093220,-0.206738730,0.027152900,0.016735490
1640781892647779840,-0.140403550,-0.418525130,10.545728680,-0.159144420,0.039258600,0.000928340
1640781892651259904,0.152817610,-0.227755170,9.702416420,-0.018638370,0.048714890,-0.029192870
1640781892653019904,0.114189660,0.284345330,9.461248400,0.037167970,-0.111694630,-0.036893790
1640781892656369920,-0.219823580,0.440132440,9.937506680,-0.081789490,0.012722610,-0.012142960
1640781892657739776,0.032072990,0.394360130,9.026677130,-0.189484660,0.050283970,-0.004014370
1640781892661229824,-0.559183420,0.046580320,11.005145070,-0.088833290,-0.026652220,-0.021627550
1640781892662679808,-0.201826920,0.184605840,9.908712390,0.049895040,0.048005580,-0.031341600
1640781892666220032,-0.026076050,0.627149940,9.317712780,0.015245380,-0.072081380,-0.024870040
1640781892667779840,-0.339209440,0.755180900,10.269707680,-0.175866500,0.039893390,0.006075200
1640781892671510016,0.219540370,0.776226520,8.957438470,-0.281837580,0.062720480,0.010390580
1640781892672899840,-0.093066890,0.272171290,10.528103830,-0.130225720,-0.050610310,-0.004528460
1640781892677329920,-0.078940590,0.135139610,10.263876910,0.070586810,0.041802230,-0.036823750
1640781892677860096,0.050281430,0.376886930,9.365500450,0.029049820,-0.059218720,-0.049372020
1640781892681239808,-0.436327870,0.277263970,10.342602730,-0.179770620,-0.010819730,-0.005315250
1640781892682689792,0.084151770,0.424398960,9.108951570,-0.316460460,0.078226630,0.017765170
1640781892686369792,-0.067470830,0.144336610,10.122958180,-0.213782490,0.016607350,0.012686850
1640781892688209920,-0.131544520,0.186381940,10.269824030,-0.003091990,0.049340740,0.000365080
1640781892692000000,0.038591150,0.562703370,9.537667270,0.025357310,-0.059579320,-0.033149120
1640781892692659968,-0.213796560,0.208632980,9.881013870,-0.138150170,-0.011223550,-0.007145110
1640781892696219904,0.009553500,0.145609800,9.261830330,-0.256831970,0.082248430,0.005127490
1640781892697759744,-0.166641680,-0.244266610,10.364946370,-0.178636610,0.048552460,-0.022093950
1640781892701400064,-0.054595540,-0.157813210,9.937855720,-0.024469200,0.041638320,-0.029474500
1640781892702999808,0.001478020,0.413543220,9.456506730,-0.008061530,-0.060804180,-0.029975170
1640781892706289920,-0.325354250,0.219534010,9.827067380,-0.184829530,0.034952160,-0.003518160
1640781892709009920,-0.164109570,0.026729620,9.297028540,-0.228425860,0.060279680,0.003270810
1640781892712059904,-0.670437990,-0.290860000,10.839972500,-0.062134870,-0.011210140,-0.034530460
1640781892712829952,-0.402627800,-0.226496230,9.933500290,0.058896850,0.023569170,-0.036460160
1640781892716290048,-0.121215510,0.315224020,9.413496020,0.003035370,-0.056083500,-0.022856890
1640781892717829888,-0.338751380,0.410438270,10.332799910,-0.217811760,0.066620120,-0.013490020
1640781892721299968,0.249446600,0.498919100,9.264808650,-0.269836190,0.087815520,0.006844100
1640781892722800128,-0.058098430,0.303790900,10.727545740,-0.080065440,-0.053600970,-0.003701450
1640781892726249984,-0.087096590,0.094835190,10.170318600,0.071467450,0.028395650,-0.031821420
1640781892727729920,0.084525060,0.382160480,9.101666450,0.047892340,-0.059667220,-0.030167400
1640781892731259904,-0.561353800,0.202328410,10.356826780,-0.152675820,-0.004912910,0.001256170
1640781892732709888,-0.087714270,-0.011552470,9.191965100,-0.258901720,0.087387870,0.027091800
1640781892736310016,-0.171147320,-0.145871910,10.140653610,-0.121895970,0.004601480,0.003020470
1640781892737759744,-0.338386570,-0.057676290,10.539277080,0.022965670,0.051924590,-0.028210880
1640781892741359872,-0.016463710,0.306410190,9.267890930,0.034031260,-0.048434730,-0.026723740
1640781892742849792,-0.427525250,0.053401900,9.945599560,-0.079435110,-0.043946510,-0.007158520
1640781892746249984,-0.109720580,-0.201258360,9.286341670,-0.156837720,0.066059830,-0.014822190
1640781892747709952,-0.119701490,-0.331337060,9.989230160,-0.026644770,0.030729180,-0.030054160
1640781892751269888,-0.153561260,-0.160088520,10.337321280,0.068651130,0.030781330,-0.031927220
1640781892752709888,0.224802480,0.449791730,9.448705670,0.024209920,-0.019116710,-0.016762320
1640781892756470016,-0.120176400,0.441979050,9.949662210,-0.121472780,0.005555150,-0.005760790
1640781892757750016,-0.053433370,0.254599390,9.675380710,-0.148390230,0.052753090,-0.005161760
1640781892761220096,-0.399613650,0.014322910,10.323461530,0.053940710,-0.027740000,-0.027278070
1640781892762739968,-0.469848100,0.088719690,9.860701560,0.153580320,-0.015263260,-0.043089690
1640781892766289920,-0.258022100,0.475372640,9.242836000,0.039066370,-0.020347540,-0.029155620
1640781892767699968,-0.558568600,0.479532840,10.245971680,-0.149096550,0.042943670,-0.008517500
1640781892771379968,-0.047172830,0.436352250,9.668944360,-0.195412350,0.055614120,0.012230870
1640781892772829952,-0.049622860,0.195196960,10.378350260,0.005480650,-0.032070280,-0.011442600
1640781892776859904,-0.059860270,0.248417000,10.192919730,0.143204640,0.034078950,-0.030867750
1640781892777740032,0.190407680,0.543382880,9.295619960,0.057537860,-0.033469500,-0.014883280
1640781892781339904,-0.192169030,0.236894310,10.067968370,-0.123646860,-0.033541020,0.017459690
1640781892782749952,0.352521030,-0.018163940,9.159525870,-0.174362970,0.105308000,0.030617420
1640781892786779904,0.142843530,-0.158734690,10.110053060,-0.010518730,0.052165990,-0.005660950
1640781892787969792,-0.260384230,0.032786900,10.636879920,0.111198430,0.020831820,-0.021781020
1640781892791489792,0.023520090,0.377335130,9.181414600,0.042651600,-0.053828970,-0.008080900
1640781892792699904,-0.565593720,0.048201660,9.792642590,-0.096844120,-0.015638770,-0.005616250
1640781892796259840,-0.439965370,-0.134321810,9.639471050,-0.081989170,0.095450890,0.000178810
1640781892797979904,-0.348653910,-0.145991830,10.006043430,0.075802210,0.040483470,-0.023943190
1640781892801219840,-0.239496630,0.126088530,10.154257770,0.121478740,0.027403240,-0.022250410
1640781892802749952,0.272492380,0.647784530,9.648633000,-0.002235170,0.038579110,0.006477540
1640781892806370048,-0.018974900,0.333105180,10.138667110,-0.133401160,0.049071030,0.008623300
1640781892807859968,0.151482940,0.005198490,9.810513500,-0.036221750,0.000099840,0.012467800
1640781892811259904,-0.014003990,-0.145528790,9.996356010,0.166845320,-0.014352800,-0.037816170
1640781892812829952,-0.118573000,-0.010891680,9.508785250,0.169645250,0.047281390,-0.058846180
1640781892816239872,-0.124218460,0.482362870,9.875793460,-0.006122890,0.036734350,-0.011055170
1640781892817819904,-0.458110810,0.377195060,10.524289130,-0.165943820,0.070348380,0.001798570
1640781892823750144,-0.017490410,0.354167760,9.622507100,-0.099515940,0.014886260,0.017954410
1640781892824620032,-0.248045850,0.483425110,10.386918070,0.109072040,-0.007021430,-0.008785730
1640781892826220032,-0.212698940,0.357634630,9.581348420,0.139595580,0.106537340,-0.032304230
1640781892827709952,-0.008804440,0.344610720,9.627964970,0.044828660,0.002065300,0.015249850
1640781892831290112,-0.383281350,-0.175710870,10.622847560,-0.056964160,0.047869980,0.008824470
1640781892832739840,0.350311910,-0.521333870,9.085533140,-0.035581000,0.083276630,0.004914400
1640781892836570112,0.163247510,-0.247595550,10.035840030,0.095202010,0.024603310,-0.009088220
1640781892837789952,0.053346060,-0.002753600,9.827715870,0.084248190,0.132960100,-0.032457710
1640781892841420032,0.422356840,0.215996180,9.260329250,0.010989610,0.041843950,-0.008215010
1640781892844369920,-0.434356870,-0.015115190,10.837006570,0.013780590,0.044672190,-0.008496640
1640781892846469888,-0.198157640,-0.312688980,9.410641670,0.105260310,0.048261880,-0.023931270
1640781892847749888,-0.377912550,-0.189537530,9.633609770,0.230307920,-0.019277630,-0.035956510
1640781892851249920,-0.709089160,0.138947020,9.734795570,0.142349320,0.121170290,-0.046446920
1640781892852800000,-0.138696790,0.366324750,9.374622340,-0.015394390,0.099049500,-0.006487970
1640781892856359936,-0.458200190,0.227763950,10.719155310,-0.004643200,0.060696890,-0.003528590
1640781892858109952,-0.013505730,0.139712270,9.720858570,0.140036640,0.033238530,-0.023579600
1640781892861389824,0.029102770,0.239912090,9.793474200,0.287789140,-0.018027430,-0.034449990
1640781892862809856,-0.366026520,0.357388200,9.756336210,0.187790410,0.074188400,-0.050130490
1640781892866240000,-0.024603410,0.345913080,9.506656650,0.017735360,0.018532580,-0.012899940
1640781892867769856,-0.329287350,0.155056450,10.316592220,0.038120150,0.047238170,-0.013005740
1640781892871320064,0.008639780,0.342961460,9.408788680,0.127522650,0.049760940,-0.035689770
1640781892872900096,-0.087505740,0.707711580,10.100774770,0.194382680,-0.011037290,-0.033092500
1640781892876439808,-0.324383740,0.879071180,9.805069920,0.097030410,0.075384970,-0.039483610
1640781892877750016,-0.038711230,0.720590890,9.606851580,-0.007170440,-0.001114610,-0.000518560
1640781892881280000,-0.452343110,0.206106320,10.654880520,0.077211860,0.032883890,0.004431610
1640781892882749952,-0.071828330,-0.048308600,9.208548550,0.168649840,0.044961270,-0.040869410
1640781892886439936,0.049151840,0.178392050,9.557467460,0.179760170,-0.019840900,-0.030095880
1640781892887769856,-0.067605300,0.366960730,9.611547470,0.026701390,0.132367010,-0.030340260
1640781892891689984,0.452047680,0.218108550,9.256095890,-0.086340300,0.070352840,-0.009185070
1640781892893359872,-0.121736900,-0.000710580,10.951571460,0.065982330,0.024832780,-0.005885960
1640781892896250112,-0.079486640,-0.124104200,9.629787450,0.245265690,0.019466880,-0.055935980
1640781892897769984,-0.138281290,0.103753410,9.313880920,0.247159600,-0.076060000,-0.044539560
1640781892901579776,-0.689840440,0.291905580,9.729578970,0.059786430,0.107489510,-0.035828350
1640781892902710016,-0.126678660,0.133259210,9.157646180,-0.076463800,0.117389870,-0.040200350
1640781892906380032,-0.407812330,0.168615400,10.707633020,0.073538720,0.017763680,-0.025159130
1640781892907939840,-0.084355110,0.417875980,9.744182590,0.226199640,0.030076500,-0.043161220
1640781892912359936,0.184300390,0.667467950,9.445199010,0.194145710,-0.016102190,-0.044146180
1640781892913019904,-0.424034830,0.701846120,10.278053280,0.044511260,0.061054540,-0.020535290
1640781892916250112,-0.035749010,0.260403630,9.613904000,-0.026337810,0.025880340,-0.021307170
1640781892917999872,-0.195968940,0.000856450,10.297504430,0.112316020,-0.006914140,-0.029364230
1640781892925679872,-0.187309250,0.207637820,9.610113140,0.211314860,0.055317590,-0.050057470
1640781892927009792,-0.004100390,0.580345270,9.606254580,0.107429930,-0.003474950,-0.049130620
1640781892927749888,-0.276650760,0.721775890,9.970651630,-0.061465800,0.059942900,-0.035017730
1640781892928179968,0.102223200,0.513641360,9.586207390,-0.082983080,0.041009490,-0.008839370
1640781892931229952,-0.167518230,0.107985270,10.759501460,0.110587480,0.016294420,-0.030502680
1640781892932780032,-0.178412590,0.190281410,9.650490760,0.234904890,0.024347010,-0.052353740
1640781892936280064,-0.035060140,0.474112960,9.345187190,0.108313560,-0.068026790,-0.039128960
1640781892937799936,-0.158954470,0.318983380,9.521116260,-0.094755000,0.110924260,-0.016140940
1640781892941409792,0.295848490,0.094192140,9.081948280,-0.115960820,0.125054990,-0.012345610
1640781892944320000,-0.121141990,-0.100501020,11.076888080,0.091730070,0.011259320,-0.048252940
1640781892946249984,-0.029702050,0.099965480,9.607811930,0.230088860,0.012798610,-0.063803810
1640781892947759872,0.026775190,0.312356530,9.061245920,0.115820770,-0.093874340,-0.050933660
1640781892951269888,-0.622760710,0.048693020,10.046790120,-0.061078370,0.108692060,-0.043290850
1640781892952689920,-0.121745340,-0.061331720,8.912892340,-0.064167390,0.100292270,-0.056853890
1640781892956349952,-0.388702030,-0.028857690,10.698713300,0.127203750,-0.029577310,-0.069397690
1640781892959659776,-0.125426860,0.396971880,9.525270460,0.194428860,0.085051370,-0.056408350
1640781892961239808,0.214093600,0.699152170,9.203908920,0.055137280,-0.013230740,-0.038008400
1640781892962689792,-0.510819970,0.414324940,10.894407270,-0.074744230,0.055304180,-0.015260280
1640781892966279936,0.035030310,0.085857390,9.248950960,0.002606210,0.040985640,-0.024840240
1640781892967959808,-0.212160080,-0.084624530,10.291826250,0.185531390,-0.059346850,-0.061845780
1640781892971360000,-0.416991290,0.232941610,9.687854770,0.199593620,0.082072610,-0.062510360
1640781892973340160,0.027778060,0.640384200,9.003616330,-0.004982950,-0.016909840,-0.038987400
1640781892976539904,-0.400804250,0.572086930,10.494017600,-0.160796960,0.044293710,-0.011858350
1640781892977939968,0.144980820,0.471930860,9.389173510,-0.058744840,0.086492310,-0.003224610
1640781892981259776,-0.062042330,0.334306120,10.567132000,0.158981990,-0.036400560,-0.052469970
1640781892982849792,-0.417038200,0.487030860,10.051301000,0.192511100,0.018025930,-0.036470600
1640781892986249984,-0.040787600,0.532273890,8.871040340,0.008302930,-0.080877540,-0.008744000
1640781892987949824,-0.386680190,0.109586860,9.970704080,-0.161997990,0.066214800,-0.005503000
1640781892991379968,0.161628590,-0.092574190,8.952186580,-0.085309160,0.132679950,0.000795720
1640781892993989888,-0.028163830,-0.001045210,10.663797380,0.113838930,-0.022770460,-0.044173010
1640781892996249856,-0.098750450,0.307659980,9.933771130,0.136747960,0.046660000,-0.048056250
1640781892997730048,0.157026620,0.472933140,8.952407840,-0.019785760,-0.080335150,-0.004825000
1640781893001760000,-0.537187760,0.022225820,10.485954280,-0.115567450,0.030028820,-0.008192660
1640781893002679808,-0.045060030,-0.264528390,8.782279010,0.005942580,0.098863270,-0.021179020
1640781893006459904,-0.269382120,-0.089387790,10.304622650,0.183169560,-0.060616440,-0.056928400
1640781893007879936,-0.369656320,0.397736160,9.908612250,0.113475350,0.101542490,-0.042293970
1640781893011350016,0.193087350,0.670027550,8.756180760,-0.098271670,-0.028389690,0.001500550
1640781893012749824,-0.534850360,0.414306160,11.060624120,-0.147885100,-0.013990700,0.000473860
1640781893016269824,0.020131000,0.276545700,9.160264970,0.020445890,0.075244900,-0.012774770
1640781893017979904,-0.097429330,0.323737680,9.947778700,0.192674960,-0.085508820,-0.042366970
1640781893021740032,-0.555479710,0.514496740,10.386891370,0.099998720,0.073052940,-0.036141270
1640781893022879744,0.082306280,0.636425380,8.725838660,-0.120636830,-0.012695790,0.000891090
1640781893026309888,-0.470556500,0.276226310,10.736270900,-0.187623500,-0.048401960,0.015032290
1640781893027760128,-0.042212340,0.182959810,9.350015640,-0.035069880,0.078657280,0.005377830
1640781893031289856,0.027230370,0.342042480,9.813367840,0.132870670,-0.065459310,-0.027558210
1640781893032780032,-0.482517120,0.476369590,10.576286320,0.052261360,0.025409460,-0.021135810
1640781893036279808,0.129797280,0.486777400,8.891228680,-0.110641140,-0.014764070,0.030863290
1640781893038390016,-0.248269740,0.000796090,10.396810530,-0.139400380,-0.032614170,0.023482740
1640781893041479936,0.013115450,-0.061816690,9.233284000,-0.021195410,0.077061360,0.006057320
1640781893042789888,0.190082270,0.384528250,9.352397920,0.071932380,-0.056968630,-0.012180210
1640781893046239744,-0.144591930,0.455927940,10.085140230,-0.034900010,0.066553060,0.010557470
1640781893047760128,0.188992350,0.406714800,9.172612190,-0.132302950,0.020022690,0.044919560
1640781893051269888,-0.450607540,-0.100391070,10.916435240,-0.083130610,-0.067359220,0.020061430
1640781893052780032,-0.191410930,-0.257292420,9.154025080,0.048831110,0.022596120,-0.012324750
1640781893056329984,-0.188006060,0.105871650,9.229014400,0.094084440,-0.074104970,-0.023689870
1640781893057809920,-0.529112220,0.296401680,10.087622640,-0.071360170,0.106146940,-0.009559090
1640781893061219840,0.076801570,0.396455080,8.907929420,-0.183111440,0.038692360,0.022305550
1640781893062759936,-0.424386920,0.200870380,10.949323650,-0.080521400,-0.084848720,0.023818020
1640781893066560000,-0.069857220,0.192836390,9.461744310,0.072178250,0.035396220,0.004650650
1640781893067849984,-0.068737660,0.423863020,9.348017690,0.098180790,-0.093576330,-0.017863510
1640781893071339776,-0.594882130,0.535576400,10.659325600,-0.078116360,0.037693980,0.008258220
1640781893072779776,0.104206510,0.396687210,8.924576760,-0.190268440,0.041016930,0.038793690
1640781893076419840,-0.246973750,0.164416790,10.577311520,-0.081568960,-0.083412240,0.023412710
1640781893077809920,0.000450290,0.343602780,9.593070980,0.012670460,0.051634010,0.009037560
1640781893081280000,0.170127590,0.562143450,9.071186070,-0.000607970,-0.052766510,-0.004616380
1640781893082749952,-0.401488690,0.404730260,10.681897160,-0.117081410,-0.008089840,0.029972200
1640781893086499840,0.081751350,0.096381190,9.273951530,-0.147417220,0.029613080,0.043511400
1640781893087749888,-0.240967600,-0.240161180,10.237039570,-0.029549010,-0.071695470,0.024789580
1640781893091359744,-0.229198440,-0.115388900,9.754545210,0.024008750,0.021567940,0.018008050
1640781893092759808,0.119014810,0.331017820,8.811218260,-0.047542160,-0.028777120,0.014515220
1640781893096259840,-0.231919620,0.323784050,10.093539240,-0.177131610,0.033321980,0.039559600
1640781893097789952,0.002396260,0.142956540,9.658107760,-0.161153080,0.044870370,0.045929840
1640781893101299968,-0.222511350,-0.095140140,10.361555100,0.019219520,-0.081335020,0.017130370
1640781893103020032,-0.226170200,-0.157244320,9.644207000,0.106517990,-0.022713840,-0.000953670
1640781893106400000,-0.144693290,0.060971130,9.133810040,0.024825330,-0.043444340,0.002522770
1640781893107919872,-0.497239140,0.034004540,10.097911830,-0.146998480,0.035740440,0.031717130
1640781893111269888,-0.149644690,-0.028118270,9.464244840,-0.165328400,0.003205240,0.045004490
1640781893112759808,-0.362317710,-0.046498140,10.335790630,0.017735360,-0.095890470,0.026372080
1640781893116559872,-0.107951130,0.222327140,9.477303500,0.103779140,-0.003327430,0.017035010
1640781893119239680,-0.148827140,0.451101870,9.606544490,0.031378870,-0.060367590,0.014361740
1640781893121270016,-0.524540720,0.343312590,10.587329860,-0.099933150,-0.011943280,0.032070280
1640781893122759936,-0.026721280,0.266916660,9.340448380,-0.115963820,-0.048248470,0.043469670
1640781893126230016,-0.207961920,0.143126500,10.097103120,0.016385320,-0.111348930,0.037021930
1640781893127779840,0.043095920,0.385263030,9.436713220,0.055545570,0.041332840,0.024129450
1640781893131259904,0.131472290,0.642388940,9.439945220,-0.049456950,-0.042033200,0.022117790
1640781893133219840,-0.350781920,0.442714720,10.677648540,-0.146512700,-0.053864720,0.050015750
1640781893136269824,0.117887780,0.082182630,9.418829920,-0.100554510,-0.056017930,0.056900080
1640781893137769984,-0.189408880,-0.234929190,9.886647220,0.052139170,-0.086921440,0.040270390
1640781893143030016,-0.192694830,-0.073731440,9.684751510,0.083290040,-0.001028180,0.032013660
1640781893143640064,0.155161350,0.285777420,9.080227850,-0.065124040,-0.036801400,0.038212540
1640781893146230016,-0.029495450,0.155883070,9.987557410,-0.184318440,-0.000074510,0.077958410
1640781893147810048,0.239223060,0.003710570,9.857638360,-0.114069880,0.013338030,0.058127940
1640781893151559936,-0.091703500,-0.096622440,10.220106120,0.090041760,-0.095225890,0.012017790
1640781893152740096,-0.183931800,0.036964230,9.506414410,0.151927780,-0.117929280,0.010186430
1640781893156329984,-0.118650330,0.309377610,9.047916410,-0.015096360,-0.050371890,0.004751980
1640781893157799936,-0.377644240,0.149362770,9.730786320,-0.176027420,0.063543030,0.033874810
1640781893161259776,-0.148549990,0.110946450,10.151136400,-0.112204260,-0.017340480,0.055439770
1640781893162749952,-0.270857720,0.164070100,10.422488210,0.075042250,-0.102391850,0.029355290
1640781893166429952,-0.010574310,0.373860720,9.132689480,0.103977330,-0.078959760,0.028572980
1640781893168140032,-0.198590670,0.567054090,9.662957190,-0.037804250,-0.061972450,0.037167970
1640781893171320064,-0.433735880,0.129295770,10.139810560,-0.139124690,0.030453500,0.049076980
1640781893172809728,0.006100230,-0.055315170,9.672842030,-0.039745870,-0.099708150,0.046765800
1640781893176280064,-0.294470190,0.071006470,10.380501750,0.104945910,-0.115390140,0.024071340
1640781893177760000,0.137391020,0.429166200,8.863000870,0.034245850,-0.015793740,0.020429490
1640781893181509888,0.137732830,0.793635130,9.524190900,-0.134447230,-0.064815590,0.035436450
1640781893182999808,-0.260812670,0.454659100,10.548932080,-0.185982900,0.012530390,0.064297030
1640781893186289920,0.234509770,0.135162290,9.525908470,-0.031249220,-0.086577220,0.057940180
1640781893187859968,-0.270533680,0.008493010,10.314669610,0.140954550,-0.148141400,0.026990470
1640781893191429888,-0.105391320,0.017854630,8.973042490,0.070810320,-0.028193000,0.022809210
1640781893192770048,0.126767400,0.121532010,9.053373340,-0.121539830,-0.054854160,0.033861390
1640781893196260096,-0.289272130,-0.156590100,10.304377560,-0.199764980,0.042831900,0.057137020
1640781893198009856,0.219280450,-0.251530260,9.630919460,-0.048486890,-0.041995950,0.042615830
1640781893201550080,-0.168945120,-0.164518000,10.330542560,0.144271540,-0.145870460,0.004768370
1640781893202720000,-0.165569980,0.076359000,9.267852780,0.114986290,-0.079232460,-0.000852350
1640781893206409984,-0.008145200,0.274406020,9.198071480,-0.060755020,-0.050279500,0.021559000
1640781893207889920,-0.548998480,-0.034089730,10.265348430,-0.137688220,0.018402940,0.032685700
1640781893211249920,-0.024609240,-0.006614480,9.687034610,-0.004933770,-0.077365340,0.029987090
1640781893212819712,-0.196172550,0.291604940,10.224405290,0.143098800,-0.121599440,0.018373130
1640781893216280064,-0.137148380,0.554303110,9.129546170,0.065600860,-0.050553670,0.024709110
1640781893218009856,-0.084134480,0.641947690,9.602756500,-0.088216360,-0.104542080,0.035281480
1640781893221359872,-0.418890540,0.291237210,10.327193260,-0.126384200,-0.007240470,0.028090180
1640781893222779904,0.092018110,0.081324870,9.643546100,0.022284690,-0.099165740,0.028567010
1640781893226249984,-0.198660490,0.321722300,10.535650250,0.150123250,-0.133796040,0.007867810
1640781893227779840,0.063211970,0.519663750,8.950074200,0.008347630,-0.036022070,0.009107590
1640781893231289856,0.154016870,0.697508570,9.466676710,-0.177080940,-0.110283520,0.037005540
1640781893232800000,-0.287968810,0.327858180,10.533301350,-0.181601940,-0.006191430,0.039678810
1640781893236259840,0.227202400,-0.055436970,9.318908690,0.013443830,-0.110284990,0.035114590
1640781893240160000,-0.197182940,0.061857560,10.484741210,0.183561490,-0.170698760,0.020878020
1640781893242749952,-0.015428000,0.082710680,9.115193370,0.033853950,0.001052020,0.018309060
1640781893243229952,0.340157390,0.227666480,9.197969440,-0.176903610,-0.090700400,0.052182380
1640781893246279936,-0.231154960,0.063108880,10.712256430,-0.188012420,0.006006660,0.058409580
1640781893247789824,0.435007360,-0.239187600,9.045462610,-0.020217900,-0.051121420,0.018203250
1640781893251249920,-0.008510000,0.114125860,10.276189800,0.173810090,-0.182893840,-0.000905990
1640781893252800000,-0.191001040,0.151316840,9.325388910,0.089645390,-0.027109690,-0.011011960
1640781893256339968,0.234655860,0.038529030,8.848981860,-0.091114640,-0.077219310,0.007396940
1640781893258149888,-0.466225860,-0.077816980,10.803487780,-0.119061790,0.012303890,0.030609970
1640781893261379840,0.116424100,-0.294952750,9.576834680,0.001293420,-0.019019840,0.021627550
1640781893262699776,0.039619160,0.090448220,10.091732030,0.151234870,-0.165595130,0.028647490
1640781893266269952,-0.160007510,0.356438930,9.383027080,0.072281060,-0.022064150,0.015819070
1640781893268019968,0.250190200,0.302977710,8.934809680,-0.100989650,-0.063067670,0.012548270
1640781893271309824,-0.299166740,0.128743920,10.680625920,-0.068683910,-0.000701840,0.018569830
1640781893272879872,0.082585190,-0.084284830,9.758946420,0.076478720,-0.034490230,-0.008982420
1640781893276419840,-0.014336440,0.195007470,10.216406820,0.178021160,-0.152589370,-0.001426040
1640781893277839872,-0.167052390,0.649984720,9.386714940,0.027126080,-0.025434790,0.007779900
1640781893281260032,0.119440360,0.633480250,9.158239360,-0.182488610,-0.056448590,0.033535060
1640781893282799872,-0.312193100,0.407703820,10.561518670,-0.126454200,0.013068320,0.049924840
1640781893286269952,-0.025030870,0.104136310,9.605010990,0.076699260,-0.065976380,0.016674400
1640781893287799808,-0.089533210,0.150276150,10.110536580,0.196816030,-0.155393790,0.013633070
1640781893292009728,-0.041159160,0.345538230,9.164875030,0.040194400,0.019493700,0.010868910
1640781893292769792,0.273812830,0.288697120,9.325381280,-0.194422890,-0.037507710,0.036674740
1640781893296259840,-0.036473020,0.021764920,10.767139430,-0.168810780,0.017440320,0.059793890
1640781893297809920,0.358777460,-0.149724570,9.365571980,0.032307210,-0.024674840,0.016804040
1640781893301609984,0.092336850,0.022344970,10.108039860,0.177797690,-0.154157000,-0.001774730
1640781893302739968,-0.126643450,0.220749480,9.240210530,0.077301260,-0.003278260,0.000502170
1640781893310319872,0.209790750,0.082699510,8.695728300,-0.149168090,-0.046047570,0.003074110
1640781893311960064,-0.374665320,-0.105348520,10.754201890,-0.135412830,0.033688550,0.033433740
1640781893312700160,0.064092150,-0.193502380,9.546658520,0.047115990,0.029020010,-0.000979010
1640781893313079808,-0.109761870,0.102037580,10.324012760,0.168402490,-0.171850640,-0.003248450
1640781893316829952,-0.355854120,0.396700620,9.650476460,0.063233080,-0.025434790,0.015850370
1640781893317869824,0.135843860,0.165072110,8.601395610,-0.125466290,-0.033260890,-0.002549590
1640781893321339904,-0.473044010,-0.147562490,10.860560420,-0.065971900,-0.013503430,0.018350780
1640781893322749952,-0.006759780,-0.150363240,9.595902440,0.118088740,0.003801290,-0.018787380
1640781893326419712,0.193181600,0.161624250,9.826174740,0.172585260,-0.158914920,-0.021846590
1640781893327790080,-0.062608970,0.658908130,9.802129750,0.008100270,0.007171930,0.005227330
1640781893331239936,0.358256970,0.648662980,8.981519700,-0.191906060,0.005133450,0.003241000
1640781893332739840,-0.261324020,0.269475550,10.994858740,-0.102722650,-0.049178300,0.029182440
1640781893336259840,-0.142731890,0.068183200,9.765848160,0.145705060,-0.062212360,-0.009612740
1640781893337879808,-0.019490220,0.115301420,9.397173880,0.211770800,-0.142784430,-0.035862620
1640781893343849984,-0.420748170,0.284490260,9.685304640,0.018048280,0.018624960,0.006958840
1640781893344780032,0.117455710,0.243990360,8.985424040,-0.191916530,0.006669760,0.018750130
1640781893346240000,0.025399310,-0.048631330,10.662030220,-0.149303670,-0.004215540,0.028289860
1640781893347759872,0.215248900,-0.089988510,9.847686770,0.077885400,0.020262600,0.014005600
1640781893351480064,0.245722500,0.028759190,9.955319400,0.199246420,-0.149135310,-0.029528140
1640781893352849920,-0.083162370,0.101098540,9.670842170,0.077944990,-0.039060420,-0.018332900
1640781893356369920,0.290820420,0.040379770,8.494356160,-0.093092020,-0.001575050,-0.002190470
1640781893360369920,-0.194637570,-0.364606200,10.712231640,-0.084239240,0.036758190,-0.015674530
1640781893361250048,-0.065939070,-0.165657940,9.857000350,0.088723000,0.037314000,-0.021830200
1640781893362720000,-0.012991770,0.171985880,9.846600530,0.179079160,-0.184993420,-0.023528940
1640781893366279936,-0.318180950,0.258776280,9.845268250,0.058780620,-0.001679360,-0.017011170
1640781893368120064,0.054545230,0.353349920,8.759939190,-0.075092920,0.033918020,-0.008136030
1640781893371289856,-0.553528430,-0.022316710,11.346838000,-0.029726330,-0.037428740,-0.024312740
1640781893372879872,-0.125786320,-0.073787700,9.786338810,0.138442220,0.019373000,-0.033895670
1640781893376349952,0.133139400,0.358109380,9.404194830,0.182501990,-0.174751880,-0.034925340
1640781893379099904,-0.222207280,0.536275270,10.170791630,0.015835460,0.017724930,-0.015902520
1640781893381270016,0.390066680,0.637390910,8.566967010,-0.136084850,0.044135750,0.003473460
1640781893382799872,-0.096647030,0.321276840,11.087813380,-0.064021350,-0.087983910,0.001081820
1640781893386269696,0.087387640,0.093545260,10.063583370,0.128349680,0.032748270,-0.014390050
1640781893387810048,0.344449460,0.279873880,9.253781320,0.202117880,-0.135396420,-0.038601460
1640781893392930048,-0.357397170,0.324866240,10.472152710,0.022406880,-0.038057570,-0.032745310
1640781893393920000,0.338765080,0.475134850,8.361612320,-0.172308090,0.052420800,-0.018975140
1640781893396239872,0.096079350,0.203083410,10.218792920,-0.144875060,-0.028446320,-0.017218290
1640781893397829888,-0.046926890,-0.031018150,10.397286420,0.046433500,0.079880650,-0.024786590
1640781893401530112,0.248305050,0.116454320,9.454625130,0.197690740,-0.111185020,-0.046665970
1640781893402799872,-0.440415410,-0.103738750,10.376453400,0.105294590,-0.110912330,-0.041759010
1640781893406619904,0.038908940,-0.144083170,8.413898470,-0.089420390,0.034767380,-0.025548040
1640781893410179840,-0.102048140,-0.302462670,9.958559040,-0.109271730,0.021542610,-0.032801930
1640781893411299840,-0.179220500,-0.350783170,10.409489630,0.062413520,0.088506940,-0.042141970
1640781893412779776,0.285063680,0.277363330,9.454919820,0.195054720,-0.109405820,-0.053052610
1640781893416319744,-0.069277640,0.619749720,10.100595470,0.070355840,-0.070038440,-0.044606630
1640781893418069760,0.191895530,0.598561050,8.785284040,-0.105693950,0.044758620,-0.029189890
1640781893421459968,-0.198626240,0.279957000,10.562045100,-0.064210590,-0.019429620,-0.042659050
1640781893422880000,-0.290233170,0.014482000,10.430467610,0.112627470,0.026674570,-0.066225250
1640781893426489856,0.086300460,0.340766040,9.192213060,0.196613390,-0.127565830,-0.056476890
1640781893427789824,-0.252956960,0.567389250,10.037061690,0.017133360,-0.014272330,-0.047145780
1640781893431249920,0.232783120,0.633544920,8.610917090,-0.205369310,0.077307230,-0.019748510
1640781893432780032,-0.075495130,0.334027350,10.545014380,-0.150156040,-0.058266530,-0.011979040
1640781893436319744,0.027580030,-0.072804090,10.374534610,0.080212960,0.049191720,-0.039181110
1640781893438169856,0.333807890,0.010142370,9.198684690,0.220939530,-0.086013970,-0.058554120
1640781893441540096,-0.388664310,0.129301820,10.580570220,0.080363460,-0.071439150,-0.057436530
1640781893442790144,0.264901550,0.065331180,8.359248160,-0.178480150,0.055617100,-0.031648580
1640781893446249984,0.109051210,-0.155958500,9.681869510,-0.166690360,-0.024320190,-0.030983980
1640781893447789824,-0.105833200,-0.259740500,10.498764040,0.049732630,0.111149260,-0.051064790
1640781893451569920,0.372905340,0.046828490,9.215370180,0.209410460,-0.059396030,-0.077491990
1640781893452770048,-0.288398410,0.214838310,10.509225850,0.123663250,-0.105054680,-0.059267880
1640781893456369920,0.004496850,0.138682600,8.986965180,-0.096569940,0.065258140,-0.043822820
1640781893457839872,-0.190934400,-0.169665010,9.896533970,-0.107762230,-0.020317740,-0.059287260
1640781893461259776,-0.437544940,-0.192995430,10.586801530,0.069554150,0.028076770,-0.071495780
1640781893462779904,0.239740220,0.350960200,8.922307970,0.182981820,-0.042696310,-0.075452040
1640781893466249984,-0.113900790,0.615304710,10.049142840,0.067093960,-0.034083420,-0.058349960
1640781893468349952,0.046100800,0.656540930,9.585543630,-0.134396570,0.070315600,-0.032135850
1640781893472209920,0.006312630,0.223451810,10.131296160,-0.090622910,-0.039796530,-0.032125410
1640781893473399808,-0.210181010,-0.190088210,10.592861180,0.121933230,-0.017258520,-0.059542070
1640781893477349888,0.153097760,0.169783160,9.270986560,0.204871590,-0.046363480,-0.081790990
1640781893477929728,-0.090703240,0.318933840,9.755220410,0.033581260,-0.022408370,-0.083571680
1640781893481279744,0.181759940,0.441171140,9.182537080,-0.186520790,0.060379500,-0.060220060
1640781893482810112,0.175624330,0.280346270,9.971721650,-0.138872880,-0.000217560,-0.042544310
1640781893486359808,0.092516530,-0.015380590,10.301860810,0.076200070,0.021687150,-0.059390070
1640781893487849984,0.164787770,0.166391550,9.654619220,0.209574420,-0.059515250,-0.075699400
1640781893491889920,-0.275761840,0.147134990,10.048500060,0.105153050,-0.061105200,-0.060567260
1640781893492780032,0.127280270,0.082081220,8.757463460,-0.129079820,0.041082500,-0.057376910
1640781893496249856,-0.033750060,-0.106319930,9.838853840,-0.149703030,0.041112310,-0.053344670
1640781893497789952,-0.025438640,-0.169740010,10.339601520,0.028854610,0.086787340,-0.076788670
1640781893501679872,0.220132250,0.258410720,9.636519430,0.174489620,-0.070120390,-0.096331540
1640781893503059968,-0.242346970,0.375851690,9.995974540,0.111344470,-0.097374630,-0.072190170
1640781893506409984,0.039938860,0.305279110,8.978922840,-0.081975770,0.043652960,-0.062084210
1640781893510049792,-0.283763970,0.020522780,10.158367160,-0.088971860,0.030516090,-0.073732440
1640781893511350016,-0.378591750,-0.104810260,10.604907990,0.065299860,0.036290280,-0.073778630
1640781893512770048,0.042342940,0.358943280,9.590090750,0.150141120,-0.064919900,-0.101250410
1640781893516249856,-0.200533820,0.712467910,9.601911540,0.034597520,-0.045308480,-0.071883220
1640781893518240000,0.104077080,0.833626870,9.147747040,-0.161413860,0.042001900,-0.061662490
1640781893521279744,-0.001833760,0.529381750,10.054105760,-0.140251220,0.024311250,-0.054471210
1640781893524049920,-0.007673070,0.066821730,10.423869130,0.068841870,0.006854530,-0.049111250
1640781893526239744,0.129856940,0.118300360,10.197405820,0.176338870,-0.061544780,-0.079157950
1640781893527799808,-0.117229670,0.179971590,9.685167310,0.048369170,-0.021444260,-0.066298250
1640781893531249920,0.170939130,0.260710210,8.969923020,-0.184416760,-0.010786950,-0.052182380
1640781893533030144,-0.023006560,0.111633980,9.939933780,-0.205189000,0.056713820,-0.050418090
1640781893536499968,0.111241360,-0.095359730,9.670913700,-0.000873210,0.065875050,-0.060306500
1640781893537789696,-0.054768330,0.009528940,10.403022770,0.179399560,-0.093200800,-0.089062760
1640781893542519808,-0.295955810,0.099093440,9.857276920,0.125327710,-0.023821000,-0.088836260
1640781893543079936,0.016687040,0.131162930,8.770601270,-0.093486910,-0.039644540,-0.058034070
1640781893546249984,-0.549310560,-0.089792140,10.612621310,-0.167271540,0.027209520,-0.056687000
1640781893547829760,-0.089273620,-0.033307640,9.357948300,-0.017473100,0.069443870,-0.067728740
1640781893551239936,0.055768360,0.291689720,10.034987450,0.127744690,-0.118479140,-0.076426570
1640781893553159936,-0.211251350,0.564896050,9.976815220,0.089721400,0.010052320,-0.063566860
1640781893556339968,0.304750410,0.633435730,8.836499210,-0.086703900,-0.040394070,-0.056649750
1640781893557819904,-0.436600480,0.149622960,11.021761890,-0.122188040,-0.039415050,-0.041307510
1640781893561270016,-0.098550570,-0.042911140,9.546321870,0.026899580,0.013716520,-0.048466030
1640781893562779904,0.046035740,0.059991140,9.834893230,0.134180470,-0.126367780,-0.071878720
1640781893566340096,-0.319823830,0.414855090,9.895948410,0.038154420,0.028708580,-0.053933260
1640781893568429824,0.209994000,0.740078090,8.683777810,-0.164121390,-0.031791630,-0.059893730
1640781893571269888,-0.196389410,0.393002630,10.549905780,-0.186187030,-0.046053530,-0.026892130
1640781893572819968,0.053986470,0.116469830,9.495917320,0.004711750,0.029432770,-0.027555230
1640781893576339968,-0.045655340,0.016687000,10.228631970,0.166666520,-0.136762860,-0.071324410
1640781893577849856,-0.284366580,0.070237000,9.887853620,0.086323920,-0.032423440,-0.043497980
1640781893581669888,0.249628810,0.113700910,8.500311850,-0.123243030,-0.048039850,-0.031103200
1640781893582769920,-0.208216580,-0.207906040,10.472725870,-0.213713970,0.029370190,-0.023978950
1640781893586279936,0.111204300,-0.257392560,9.554641720,-0.029072170,0.043365360,-0.025707490
1640781893587770112,-0.112412460,-0.132231030,10.326251030,0.188489260,-0.201734950,-0.063331430
1640781893591490048,-0.248135460,0.148988400,9.560022350,0.131614510,-0.056888160,-0.053994360
1640781893592759808,0.028987550,0.310412440,8.545052530,-0.065508480,-0.055007650,-0.029471520
1640781893596429824,-0.660646560,-0.002935200,11.124062540,-0.153102010,-0.008116670,-0.032861540
1640781893598080000,-0.026588510,0.197332400,9.644372940,-0.003643330,0.009630620,-0.034496180
1640781893601609984,-0.152837110,0.511061190,10.092347150,0.139392910,-0.212308790,-0.049285590
1640781893602749952,-0.113659870,0.807839990,9.638080600,0.043712560,-0.028888880,-0.034685440
1640781893606400000,0.313241810,0.923914670,8.646227840,-0.117398810,-0.029754640,-0.022271280
1640781893609230080,-0.433477940,0.311553270,11.033427240,-0.141824800,-0.079083440,-0.003862380
1640781893611269888,0.113673110,-0.040009360,9.676597600,0.023265180,-0.057442490,-0.002475080
1640781893612829952,0.034448180,-0.079787160,9.626683240,0.140273590,-0.167685750,-0.040331490
1640781893616279808,-0.099909890,0.044540110,9.807485580,0.019373000,-0.029753150,-0.026178360
1640781893618109952,0.296008740,0.278327380,9.039196970,-0.150322930,-0.046807530,-0.012183190
1640781893621319936,-0.055872710,-0.051141850,10.189351080,-0.185081360,-0.054740910,-0.008104740
1640781893622789888,0.245114700,-0.117403040,9.816761020,0.016957520,-0.054235760,-0.002142790
1640781893626279936,-0.220529120,-0.054610830,10.124515530,0.188311950,-0.144499540,-0.030513110
1640781893627810048,-0.309431140,0.085086610,9.348025320,0.090292100,-0.144059960,-0.021862990
1640781893631289856,-0.234308000,0.387796910,9.174284930,-0.103394690,-0.109665100,0.003963710
1640781893632819968,-0.362166610,0.050801860,9.850420950,-0.195021940,0.038559730,-0.007350740
1640781893636250112,0.077412190,0.076871140,10.052422520,-0.018255410,-0.059866920,0.005978350
1640781893637879808,-0.224986490,0.366113280,10.732623100,0.180697460,-0.168257950,-0.019006430
1640781893641469952,0.361460000,0.487531900,8.728224750,0.081548090,-0.119900700,-0.004975500
1640781893643960064,0.112071070,0.465431960,9.613998410,-0.101254900,-0.116926450,0.025115910
1640781893646359808,-0.249706790,0.032115440,10.303411480,-0.161544980,0.005821880,0.021061300
1640781893647840000,0.188085300,-0.232512130,9.755295750,0.021605190,-0.152093140,0.018811220
1640781893651239936,-0.360885830,0.007584650,10.456022260,0.174729530,-0.183199380,-0.011746590
1640781893652740096,0.105371350,0.448168460,8.665040020,0.031526390,-0.080616760,-0.013904270
1640781893656319744,-0.023743880,0.648274480,9.631904600,-0.162851800,-0.110504020,0.029398500
1640781893658180096,-0.285967020,0.351976130,10.190105440,-0.172971190,-0.021098550,0.050620730
1640781893661629952,0.152548670,0.042178770,9.966877940,0.041261320,-0.165736690,0.032727420
1640781893662749952,-0.249491590,0.093084710,10.253397940,0.192311420,-0.171647970,0.028163200
1640781893666630144,0.205022500,0.170420540,8.536870000,0.057140000,-0.125004370,0.020734970
1640781893667879936,0.059286510,0.156559110,9.690003400,-0.139054660,-0.090803210,0.023777780
1640781893671340032,0.183240150,0.002871130,9.655557630,-0.190649930,0.031974910,0.041605540
1640781893672920064,0.288141880,-0.246484410,10.241779330,0.008423620,-0.159291910,0.020146370
1640781893677149952,-0.171079840,0.053846990,10.525010110,0.181372450,-0.159125030,0.004932280
1640781893678169856,0.126093020,0.310498710,8.499906540,0.087003410,-0.192999850,0.021764640
1640781893681189888,-0.498456330,0.115312570,10.123395920,-0.088460740,-0.133135930,0.032639500
1640781893682829824,-0.348348080,0.092728020,9.635628700,-0.143307460,0.015661120,0.029815740
1640781893686279936,-0.171005110,0.023196950,10.229206090,0.026297570,-0.197611750,0.027133520
1640781893687849984,-0.266039100,0.344118770,10.460613250,0.149151670,-0.152318180,0.019109250
1640781893691549952,0.476925080,0.821182790,8.412039760,0.034436590,-0.124736140,0.019329790
1640781893692799744,0.049242380,0.662422900,10.221810340,-0.132638190,-0.124003000,0.060538950
1640781893696310016,0.252465840,0.416504770,9.872735980,-0.142438710,-0.042435540,0.068566210
1640781893697829888,0.379053980,-0.076787720,9.849825860,0.039112570,-0.186727940,0.053350630
1640781893701299968,0.035600760,-0.146266030,10.244509700,0.155524890,-0.144898910,0.044900180
1640781893702800128,0.262744670,0.092611480,8.984302520,0.039307780,-0.113146010,0.022740660
1640781893706400000,-0.091322400,0.029635880,9.656766890,-0.144501050,-0.123739230,0.034785270
1640781893709479936,0.037243770,0.043657080,9.593475340,-0.161421310,-0.051987170,0.067086530
1640781893711209984,-0.120479780,-0.287650050,10.116423610,0.024624170,-0.102333710,0.036169590
1640781893712979968,-0.226191060,-0.208502930,10.062696460,0.193165240,-0.149954870,0.039142370
1640781893716600064,-0.210713030,0.099867940,9.563987730,0.153085590,-0.193044590,0.044463580
1640781893717870080,-0.311859970,0.045256880,9.481884000,-0.060801210,-0.082840030,0.058290370
1640781893721349888,0.152054860,0.115215290,9.503923420,-0.142231580,-0.046761330,0.064663600
1640781893722800128,-0.109517240,0.053525890,10.718711850,0.015810130,-0.099439930,0.044678160
1640781893726719744,0.408892180,0.400824490,9.485339160,0.161056220,-0.134807840,0.044262410
1640781893727799808,0.460573850,0.751680730,9.416409490,0.118838270,-0.177249330,0.058518350
1640781893731279872,-0.078532570,0.575327580,9.902462010,-0.074967760,-0.048500300,0.070251530
1640781893732950016,0.195085470,0.306066900,9.597763060,-0.116232060,-0.101465000,0.081065300
1640781893736290048,-0.460227190,-0.204934420,10.794882770,0.044783950,-0.155240300,0.071887670
1640781893737880064,-0.146797060,-0.052716630,9.387416840,0.149557010,-0.128999350,0.060382500
1640781893745869824,-0.031616280,0.272431970,9.420008660,0.067256390,-0.148668890,0.055038940
1640781893746369792,-0.147635940,0.262334590,9.516737940,-0.108394010,-0.012896950,0.066198390
1640781893746719744,0.417608710,0.325756430,9.564833640,-0.123833130,-0.079694390,0.104986130
1640781893747849984,0.016716180,-0.139221790,10.723219870,0.044484440,-0.087389360,0.094398860
1640781893751299840,0.302239890,-0.121800880,9.283491130,0.181591530,-0.150521110,0.070433320
1640781893752780032,0.067589620,0.030613390,9.757970810,0.156109050,-0.186142330,0.067482900
1640781893756359936,0.068255420,-0.083918670,8.842303280,-0.052396960,0.003595650,0.065957010
1640781893760269824,0.226894260,-0.057923280,9.567279820,-0.098246340,-0.065906350,0.080893920
1640781893761169920,-0.321799870,-0.144802390,11.000877380,0.032429390,-0.015345210,0.063359740
1640781893762779904,0.155053690,0.153729360,9.114635470,0.161769990,-0.163169220,0.061252710
1640781893766500096,-0.326435770,0.422637160,10.143056870,0.155510010,-0.209412020,0.080850740
1640781893767879936,-0.240545760,0.341026130,8.994062420,-0.013513860,0.036409500,0.066190960
1640781893771279872,-0.056943260,0.275336920,9.761982920,-0.052738180,-0.091804560,0.074432780
1640781893778560000,-0.412008910,0.112235880,11.094074250,0.066655870,-0.062789030,0.068695840
1640781893779179776,0.550878050,0.223352150,8.682089810,0.150136660,-0.099402670,0.054016700
1640781893779569920,0.260340780,0.524144290,9.964999200,0.117745990,-0.143586100,0.076629230
1640781893781179904,0.313385430,0.663559620,9.276064870,-0.067035850,0.036910180,0.078761590
1640781893783000064,0.605910000,0.398555870,9.353592870,-0.103153300,-0.084924720,0.105331850
1640781893786229760,0.000848090,-0.039880100,10.865859990,0.049203630,-0.037091970,0.103423010
1640781893787859968,0.304316130,-0.132828820,9.375608440,0.178994240,-0.053472820,0.061698260
1640781893791319808,-0.145882320,-0.020840460,10.037785530,0.153030460,-0.140295920,0.068964070
1640781893793890048,-0.079614160,0.118308850,8.900692940,-0.048381090,-0.001113120,0.076311830
1640781893796259840,0.172517340,0.062578930,9.181353570,-0.124423220,-0.008942190,0.080901390
1640781893797819904,-0.097453150,-0.126387180,10.476735120,0.027616320,0.074519220,0.084030640
1640781893801209856,0.249429840,0.021868960,9.577159880,0.208812970,-0.070914630,0.065141920
1640781893802789888,-0.022705550,0.165741610,10.149352070,0.212387790,-0.132943690,0.068780790
1640781893810060032,0.182608380,0.306750150,8.743911740,0.004839900,0.033214690,0.073198970
1640781893810540032,0.035228770,0.119170340,9.724855420,-0.101624440,-0.013460220,0.069382790
1640781893811589888,-0.071815830,-0.031266570,10.348532680,0.033062700,0.092817850,0.061829400
1640781893812839936,0.419294000,0.349390750,9.238301280,0.182852150,-0.053550310,0.036932530
1640781893816300032,-0.027485830,0.526238020,10.351235390,0.166131530,-0.056749590,0.069394700
1640781893817819904,0.266108480,0.617370960,8.913340570,-0.016908350,0.079849370,0.081504870
1640781893821420032,-0.061137340,0.217375000,10.063205720,-0.088118000,-0.024950500,0.093241040
1640781893823040000,-0.288918260,-0.180890040,10.590401650,0.061304870,0.051163140,0.094102320
1640781893826949888,0.265245850,-0.013166390,9.002200130,0.193609300,-0.013551120,0.044812270
1640781893827809792,-0.170869950,0.158047480,10.063429830,0.135645270,-0.019818550,0.047679250
1640781893831229952,0.285355660,0.548587320,8.809860230,-0.058473650,0.107772660,0.051957370
1640781893833099776,0.312353610,0.320573600,9.609910960,-0.121968970,0.040449200,0.061389800
1640781893836349952,0.139291870,-0.020187590,10.524918560,0.041389470,0.103268030,0.095397240
1640781893837939968,0.287251800,-0.095246280,9.724642750,0.233143570,0.014680620,0.054925680
1640781893841280000,-0.070330940,-0.131169890,9.882249830,0.202332450,-0.042371460,0.057087840
1640781893842909696,0.178756480,0.046384450,8.631563190,-0.001342590,0.080440940,0.081238160
1640781893846190080,0.015529730,-0.217897940,9.592730520,-0.107328620,0.146093960,0.052125760
1640781893847810048,0.003720370,-0.263569950,10.153635980,0.030156970,0.152741370,0.057265170
1640781893851279872,0.180644540,0.157184410,9.869429590,0.234271590,-0.015193220,0.034493210
1640781893853029888,-0.052439970,0.284924000,9.824656490,0.204911840,0.037120280,0.042185190
1640781893856389888,0.111494350,0.483613880,9.037693020,0.034193690,0.115560000,0.077478600
1640781893858340096,-0.474010500,0.197715970,10.553092960,-0.051380690,0.074671190,0.068901470
1640781893861189888,-0.172649030,-0.104731840,9.850608830,0.074501320,0.112104420,0.057031220
1640781893862779904,0.166870390,0.246141810,9.312994000,0.234092760,0.017324090,0.038005410
1640781893866550016,-0.126869040,0.505678890,10.029295920,0.151200560,0.120849900,0.034444030
1640781893867869952,0.502598170,0.792288240,8.858577730,-0.037607550,0.157986550,0.063124290
1640781893871269888,0.091248390,0.525655330,10.423435210,-0.094808650,0.063872340,0.082278250
1640781893873199872,0.168865070,-0.039109650,10.254123690,0.064612930,0.162209590,0.089314580
1640781893876539904,0.275873010,0.035289290,9.415265080,0.255934860,0.034950670,0.061607350
1640781893877869824,-0.358111680,0.071640770,10.094634060,0.174574550,0.048080090,0.047875940
1640781893881239808,0.245995980,0.254902090,8.438036920,-0.053568190,0.175437350,0.076332690
1640781893882959872,0.041733440,0.089351500,9.777692790,-0.127249970,0.160032510,0.078970200
1640781893886289920,-0.049906160,-0.183107440,10.655012130,0.031651560,0.205892320,0.061382350
1640781893887859712,0.285836010,0.131817730,9.695919990,0.252579120,0.050997730,0.031918290
1640781893891369728,-0.207425730,0.236135150,9.896321300,0.209914150,0.025099520,0.029797860
1640781893892760064,0.090919050,0.324374170,8.775089260,-0.008341670,0.170218960,0.060114270
1640781893896219904,-0.204867450,0.123680400,9.815011980,-0.095468770,0.189863150,0.048823650
1640781893897850112,-0.157456230,-0.147929980,10.260640140,0.033105910,0.186567020,0.045922400
1640781893901239808,0.191818000,0.354411130,9.724761010,0.225576790,0.080946090,0.046718130
1640781893903009792,-0.065402890,0.532382190,9.854689600,0.143618900,0.120101880,0.047825290
1640781893906349824,0.138380780,0.582116310,9.251446720,-0.054830310,0.166864680,0.073361400
1640781893908029952,-0.325856330,0.299399910,10.429965970,-0.063177940,0.131014000,0.083506110
1640781893911209728,-0.233865860,-0.232409270,10.026312830,0.087787200,0.137951990,0.061793630
1640781893912819968,0.069528200,0.107209150,9.382768630,0.243160130,0.068841870,0.041577220
1640781893916270080,-0.249435310,0.431604830,9.838422780,0.108139220,0.163537260,0.019641220
1640781893918319872,0.336988960,0.580631140,8.786145210,-0.129207980,0.197973880,0.057022280
1640781893921219840,0.026620310,0.561413170,10.299617770,-0.130227220,0.130330040,0.076909360
1640781893922860032,0.075861040,0.002110070,10.138791080,0.044927000,0.185459850,0.062213840
1640781893926220032,0.270069690,0.020244880,9.398479460,0.249648120,0.071851930,0.057961060
1640781893927889920,-0.390933190,0.014738090,10.105764390,0.182086240,0.098118190,0.035701700
1640781893931279872,0.063637490,-0.082317640,8.613563540,-0.069779170,0.203590110,0.054737930
1640781893932829952,-0.211589070,-0.067812970,9.954019550,-0.139166410,0.154705360,0.067038830
1640781893936359936,-0.386294340,-0.247026520,10.540332790,0.002001230,0.209070760,0.049582130
1640781893937889792,0.148389580,0.207994850,9.226453780,0.211682920,0.070212790,0.038917360
1640781893941469952,-0.367248060,0.554967050,10.115466120,0.183779000,0.069057940,0.034476820
1640781893943189760,0.005184780,0.558387220,9.166817670,-0.043949490,0.220358370,0.055891280
1640781893946189824,-0.102468490,0.384646180,9.952152250,-0.088851150,0.144246240,0.066478560
1640781893947869952,-0.364841910,0.092046880,10.644441600,0.033767530,0.121706720,0.053466860
1640781893951539968,0.348125640,0.388510350,8.772722240,0.157126800,0.097806770,0.047357380
1640781893952859904,-0.017687330,0.666761640,9.501874920,0.085759160,0.109984000,0.038996340
1640781893956339712,0.120062600,0.731832800,9.485074040,-0.127720850,0.217707460,0.052873790
1640781893957929728,0.141722740,0.426040680,9.857892990,-0.132465360,0.139161960,0.075365600
1640781893961210112,-0.222671820,-0.181832150,10.598457340,0.028723480,0.088872040,0.053209070
1640781893962779904,0.152356620,-0.227380950,9.265789990,0.169809130,0.130359810,0.033015010
1640781893966739968,-0.190236120,-0.052533810,9.444760320,0.113958120,0.120613000,0.023363530
1640781893968219904,-0.208113580,-0.002525840,9.358502390,-0.116738680,0.180533530,0.051672760
1640781893971299840,-0.022274920,-0.091332000,9.396529200,-0.148056450,0.151398780,0.064365570
1640781893972879872,-0.218838950,-0.203547580,10.089077000,0.008574130,0.146320480,0.034004450
1640781893976569856,-0.000617500,-0.012353500,9.696685790,0.188203160,0.110979400,0.038507580
1640781893979539968,-0.204194250,0.229229210,9.864176750,0.188405800,0.078335390,0.020864600
1640781893981459968,-0.105986020,0.359324100,9.456820490,-0.048878790,0.162753480,0.033462050
1640781893982889984,-0.159822810,0.435324100,9.755853650,-0.134530660,0.148639100,0.056713830
1640781893986249984,-0.314035530,0.402100800,10.176283840,-0.029255450,0.111952420,0.032106040
1640781893987869952,0.216482070,0.641327560,8.919041630,0.090406840,0.091418620,0.035969920
1640781893992019968,0.091290390,0.819186330,9.482320790,0.092062380,0.133249210,0.037729750
1640781893992829952,0.099541130,0.612396540,9.861456870,-0.078256430,0.227521370,0.051680210
1640781893996219904,0.114905690,0.228325520,10.038797380,-0.106844310,0.097095950,0.091406690
1640781893997979904,-0.320626080,-0.338433650,10.555176730,0.001984830,0.055378680,0.063088540
1640781894001299968,0.062200650,-0.346613680,8.746754650,0.074875340,0.120204670,0.030705330
1640781894002859776,-0.183784810,0.032464770,9.207768440,0.051644450,0.103363390,0.016090270
1640781894006379776,-0.150020180,0.274423360,9.532123570,-0.117462900,0.219233330,0.019869210
1640781894008760064,0.269762640,0.255938470,9.270915030,-0.156700630,0.188836460,0.064244870
1640781894011190016,-0.348602240,-0.001200560,11.153406140,0.019283590,0.082238020,0.050561130
1640781894012879872,-0.089356590,0.040782620,9.478137020,0.144217910,0.080336640,0.050212440
1640781894016710144,-0.131070270,0.153228720,8.903750420,0.108806800,0.022664670,0.057929750
1640781894017880064,-0.480999110,0.168960360,9.927935600,-0.093992050,0.227309810,0.046074390
1640781894021260032,0.067502450,0.229483070,9.293947220,-0.169183310,0.214807720,0.055445730
1640781894022840064,-0.233749910,0.219403650,10.640107150,-0.012265150,0.035198030,0.036372240
1640781894026219776,0.136227670,0.567453560,9.446625710,0.077620150,0.127063710,0.028058890
1640781894027869952,0.314265970,0.811407090,8.884353640,0.030601020,0.087361050,0.034157930
1640781894031239936,-0.375036360,0.655325650,10.552691460,-0.099845250,0.143258270,0.059586770
1640781894033009920,-0.004418290,0.287038180,9.348849300,-0.147421660,0.150758010,0.073334570
1640781894036219904,-0.162749410,-0.107551020,9.999841690,-0.013358890,0.020551680,0.058174140
1640781894037959936,-0.238276780,-0.120534900,9.874559400,0.068473820,0.163981330,0.040358300
1640781894041400064,0.231655610,0.252323150,8.553824420,-0.003899630,0.126570480,0.032742320
1640781894042830080,-0.217252020,0.313000320,10.165951730,-0.153051320,0.104042910,0.058901320
1640781894046700032,0.178835360,0.114325050,9.351851460,-0.195704400,0.207470370,0.089490410
1640781894047940096,0.114673730,-0.236571210,9.867204670,-0.008356570,0.081388650,0.071647770
1640781894051229952,-0.423697800,-0.305403680,10.557128910,0.149007160,0.089021030,0.050590930
1640781894052790016,-0.019526630,-0.025932030,8.517725940,0.071381050,0.071819130,0.039647530
1640781894056380160,-0.343797300,0.037357020,9.508414270,-0.117690860,0.100897270,0.047568980
1640781894058109952,-0.247512890,0.053759970,9.717442510,-0.192141530,0.264498620,0.054274510
1640781894061469952,0.025109030,0.214780990,9.819993020,-0.017794970,0.090070070,0.039669880
1640781894062850048,-0.258658650,0.481574980,10.511127470,0.120922950,0.035554180,0.034894050
1640781894066409728,0.182076710,0.790546060,8.690876010,0.044536590,0.117652120,0.061175230
1640781894067889920,-0.255755280,0.629322050,9.971698760,-0.125309810,0.098155420,0.063891700
1640781894071280128,-0.515739140,0.216885420,10.338492390,-0.164175050,0.156924170,0.084714590
1640781894072919808,-0.028165110,-0.033729200,9.209784510,-0.013087690,0.032730400,0.063012540
1640781894076920064,-0.295245800,0.037612490,10.109610560,0.082227600,0.082449620,0.037766990
1640781894077879808,-0.041544660,0.371249710,8.908274650,-0.028732420,0.167779640,0.043985250
1640781894081779968,0.007703530,0.411045370,9.576570510,-0.183676170,0.049592560,0.072897960
1640781894083840000,-0.178980260,-0.024998600,10.166203500,-0.174866620,0.151982920,0.088447330
1640781894086230016,0.083139630,-0.301651180,9.463940620,0.007787350,0.080418590,0.073216860
1640781894087919872,-0.446274190,-0.401347280,10.573750500,0.161148590,0.006021560,0.039555130
1640781894091970048,-0.296034600,-0.117477360,8.833906170,0.053547330,0.074949870,0.033630430
1640781894092839936,-0.151668350,0.128376170,8.891242980,-0.153826190,0.049869720,0.041152540
1640781894096249856,-0.361328840,0.098328980,10.153301240,-0.208352490,0.202529100,0.060883160
1640781894097869824,-0.060205270,0.156442610,9.612296100,-0.029896200,0.090798740,0.050246720
1640781894101500160,-0.269018590,0.429230270,10.526419640,0.153037910,-0.067795810,0.054907800
1640781894102789888,-0.213554080,0.544191360,9.117261890,0.070765610,0.069980330,0.062207880
1640781894106419968,-0.207933600,0.414672400,9.168617250,-0.136132540,0.042259700,0.068944700
1640781894108409856,-0.612969820,0.048964360,10.669057850,-0.157326460,0.114157820,0.073641540
1640781894112000000,-0.101274870,-0.228886510,9.304411890,-0.004278120,0.055028500,0.045338270
1640781894112849920,-0.065172370,0.197470490,9.867779730,0.116771470,-0.053793200,0.027336180
1640781894116229888,-0.041819620,0.489358600,9.223918910,-0.010374190,0.122283410,0.053188200
1640781894118229760,0.096138550,0.441922190,9.025211330,-0.189913810,0.047208370,0.070205330
1640781894121229824,-0.310831100,0.227256030,10.742374420,-0.150984510,0.023759900,0.096149730
1640781894122880000,-0.070618120,-0.228546530,9.422913550,0.023600460,0.059272350,0.067654250
1640781894126309888,-0.184597660,-0.075879490,9.807537080,0.139835490,-0.066617130,0.042554740
1640781894127869952,-0.526231170,0.142142580,9.700664520,0.031256680,0.053203110,0.042593480
1640781894131259904,-0.051753570,0.145459040,8.392810820,-0.196322800,0.042581560,0.049883130
1640781894132849920,-0.340315400,0.169733110,10.267923360,-0.188150990,0.039802480,0.068737570
1640781894136240128,-0.263022450,-0.073781170,9.818988800,-0.000004470,0.083106760,0.050881510
1640781894137910016,-0.048112040,0.151819930,9.557817460,0.154188250,-0.117734080,0.050222870
1640781894144189952,-0.437843140,0.309972580,10.037061690,0.075681520,-0.012379890,0.077070300
1640781894144780032,-0.124402800,0.077813240,8.861691470,-0.148881990,0.069798530,0.063036390
1640781894146179840,-0.354442690,0.052166480,10.375092510,-0.150300560,-0.022906070,0.074838110
1640781894147889920,-0.337701470,-0.064142430,10.036991120,0.016915800,0.018925970,0.045734640
1640781894151490048,0.275121120,0.280974120,8.668043140,0.110809510,-0.065837810,0.036686660
1640781894152879872,-0.177873390,0.791373670,9.904825210,0.023397800,-0.008894500,0.056786840
1640781894156399872,-0.078817230,0.713689980,9.318347930,-0.185546310,0.068613890,0.076030200
1640781894160209920,-0.066083040,0.420702760,9.865774150,-0.171804440,-0.072813030,0.111696130
1640781894161159936,-0.427400590,0.025604020,10.470170020,0.022640830,-0.029213730,0.073654950
1640781894162819840,-0.053126490,-0.049599070,8.932179450,0.112541030,-0.036256020,0.045837460
1640781894166210048,-0.249172030,0.207484480,9.441649440,0.024420030,-0.066047910,0.061181200
1640781894168239872,-0.186651290,0.013513470,9.301258090,-0.187136200,0.064659130,0.054474170
1640781894171299840,0.194534300,-0.229429330,9.236231800,-0.178509970,0.008006390,0.089579820
1640781894172960000,-0.270943050,-0.298655810,10.682117460,0.032065800,-0.051389630,0.063273300
1640781894177169920,-0.216182440,-0.218567820,9.515634540,0.131285190,-0.071427230,0.037625440
1640781894179659776,-0.253511880,0.184796070,8.971410750,0.050285450,-0.140278030,0.050640100
1640781894181179904,-0.668092430,0.165804430,9.741812710,-0.140099240,-0.001093750,0.031466780
1640781894182859776,-0.247855740,0.056876960,9.195614810,-0.162380900,0.037181370,0.044935930
1640781894186329856,-0.349342110,0.266210050,10.226382260,0.049726680,-0.108715910,0.043155250
1640781894187970048,-0.194731530,0.421966520,9.807506560,0.131395470,-0.072583560,0.033386060
1640781894193469952,0.193898170,0.778029500,8.665679930,0.008815530,-0.086699420,0.078436730
1640781894193989888,-0.320783880,0.634394110,10.189780240,-0.172866880,-0.062631080,0.085076690
1640781894196280064,-0.162307250,0.109880130,9.837267880,-0.163486610,-0.018335880,0.078934430
1640781894197860096,-0.046750980,0.029321670,9.551925660,0.048741700,-0.140237820,0.053299960
1640781894201560064,-0.392710240,0.085307720,10.174436570,0.107011180,-0.109435620,0.003610550
1640781894202859776,0.063923630,0.393306050,8.546524050,-0.041063140,-0.038619350,0.037349760
1640781894206720000,-0.107756500,0.351948830,9.502982140,-0.202474010,-0.107364370,0.070793930
1640781894208160000,-0.121650820,-0.081092780,10.197907450,-0.169281680,0.003519650,0.077635060
1640781894212100096,0.167509020,-0.120601340,9.321772580,0.041954210,-0.087903440,0.065657490
1640781894212839936,-0.403036360,0.041532910,10.470268250,0.126504900,-0.209556530,0.026555360
1640781894216219904,-0.159428610,0.206761880,8.858024600,-0.030323870,-0.062988710,0.037932400
1640781894217880064,-0.078930880,0.236889750,8.848098750,-0.195267800,-0.095145410,0.034894050
1640781894221419776,-0.499566470,-0.009269270,10.706196780,-0.156427930,-0.015975540,0.030122700
1640781894223359744,0.071768610,0.042429480,9.103554730,0.045688450,-0.076788660,0.032544140
1640781894226400000,-0.090847810,0.362335950,9.781916620,0.126399100,-0.237470880,0.032788510
1640781894227919872,-0.201398600,0.393111680,9.587089540,-0.039623680,-0.037579230,0.053392350
1640781894231170048,-0.006047020,0.250761450,9.022242550,-0.188255310,-0.083449480,0.063082580
1640781894232849920,-0.560845790,-0.083489780,11.091461180,-0.114336630,-0.145573940,0.045064100
1640781894236300032,-0.112264170,-0.044799010,9.291020390,0.061778720,-0.091171270,0.004756450
1640781894238200064,-0.000516590,0.497919830,9.137269020,0.080910330,-0.204513980,0.002577900
1640781894241499904,-0.347948880,0.716126500,10.084051130,-0.099693250,-0.056050720,0.032538180
1640781894243640064,0.129266620,0.707350730,8.790113450,-0.236448680,-0.075382000,0.065238770
1640781894246209792,-0.155935840,0.345734950,10.523119930,-0.132671000,-0.185954590,0.079345700
1640781894247910144,-0.177072510,-0.008398840,10.043461800,0.055250530,-0.082686570,0.042353580
1640781894251539968,0.061010010,0.223795070,8.943656920,0.091484200,-0.194476560,0.024090710
1640781894252950016,-0.347178880,0.291030500,10.001912120,-0.096990170,-0.148294880,0.032126900
1640781894256290048,0.170387360,0.145124640,8.643087390,-0.273102550,-0.005950030,0.043204430
1640781894258089984,0.204405890,-0.057039820,9.863173480,-0.178013760,-0.104370730,0.050061950
1640781894261189888,-0.274772970,-0.102834790,10.685476300,0.055246060,-0.104440760,0.030910970
1640781894262820096,-0.001172660,0.155796290,8.917163850,0.097118320,-0.216093670,0.031434000
1640781894266199808,-0.497595640,0.284426180,9.563087460,-0.073345000,-0.238637600,0.042796130
1640781894268369920,-0.637334820,0.054290140,9.405100820,-0.231727990,-0.014244020,0.031751390
1640781894271329792,-0.376370850,0.099956100,9.776758190,-0.142356750,-0.112846490,0.016462800
1640781894272889856,-0.544208590,0.436685410,10.706372260,0.035834310,-0.195553900,-0.001102690
1640781894277129984,0.117688790,0.809149800,8.957619670,0.010168550,-0.148074330,0.007581710
1640781894277859840,0.141036080,1.019352440,9.308649060,-0.159016240,-0.153432760,0.037099420
1640781894281219840,-0.270242180,0.598893460,10.284395220,-0.251275300,-0.102750960,0.066018110
1640781894282860032,0.111323530,0.008472470,9.567927360,-0.125955020,-0.185321260,0.067451580
1640781894286399744,-0.184551540,-0.182416100,9.962212560,0.056080520,-0.249534830,0.029589230
1640781894287959808,-0.218093900,-0.051813530,9.580266950,0.005172190,-0.128912930,0.003789370
1640781894291980032,-0.060162970,0.319908590,9.070141790,-0.190034480,-0.145027010,0.026699900
1640781894292870144,-0.283945170,0.329615680,10.127405170,-0.310975310,-0.177025840,0.035472220
1640781894296279808,0.091062240,0.093775510,9.691057210,-0.186379220,-0.100402540,0.039781630
1640781894297869824,0.049385470,0.256799430,9.635869030,0.049766900,-0.199097410,0.017105040
1640781894301509888,-0.385124860,0.340750720,10.260275840,0.055956850,-0.225962710,0.016479190
1640781894303160064,0.009998540,0.346659480,8.655492780,-0.153715910,-0.154098850,0.041367110
1640781894309679872,-0.277392630,0.099103990,9.694097520,-0.283783700,-0.168348820,0.040471550
1640781894310220032,-0.349569290,-0.228294190,10.332370760,-0.181092320,-0.091947610,0.036646430
1640781894311219968,0.091900100,0.099104350,9.075746540,0.023625790,-0.218616410,0.026118760
1640781894312849920,-0.230224550,0.312063930,10.230293270,0.011309980,-0.245383400,0.021554530
1640781894316349952,-0.007847990,0.433658120,9.257201190,-0.177803650,-0.071513650,0.036431840
1640781894318039808,-0.170928810,0.280828300,9.910501480,-0.243915620,-0.212885450,0.042010840
1640781894321229824,-0.576632140,-0.035857620,10.883772850,-0.126512360,-0.214350240,0.023072950
1640781894322870016,0.022755350,0.286107360,8.533772470,0.022885200,-0.212557610,0.007510190
1640781894326190080,-0.217085080,0.647406580,9.735933300,-0.053882600,-0.237211590,-0.001820920
1640781894327889920,-0.113716800,0.811464550,9.600743290,-0.254687670,-0.050695240,0.036144260
1640781894331159808,0.316373530,0.593226190,9.366687770,-0.295753870,-0.178697750,0.062513350
1640781894332989952,-0.161630690,0.006209340,11.285338400,-0.125098210,-0.220714510,0.041870780
1640781894336589824,0.093358200,-0.073702890,9.119826320,0.040070720,-0.185972450,0.014920530
1640781894337869824,-0.090959680,-0.003952960,9.147500990,-0.024144350,-0.326193900,0.011040270
1640781894342459904,-0.353517000,-0.094880950,9.516542430,-0.240044310,-0.095869610,0.025267900
1640781894343329792,0.141372950,-0.221879290,8.842955590,-0.295645030,-0.087611380,0.027330220
1640781894346220032,-0.269314710,-0.244087220,11.167896270,-0.107561050,-0.210964690,0.006879870
1640781894347909888,-0.137255970,0.068197120,9.703047750,0.039625170,-0.195863860,0.005380810
1640781894351320064,0.095978210,0.371445570,8.825416560,-0.021214780,-0.312703850,0.006085630
1640781894353080064,-0.578002270,0.388153310,10.301803590,-0.200805070,-0.139704360,0.016315280
1640781894356329984,-0.217958880,0.211857130,9.154126170,-0.227873060,-0.120837990,0.017854570
1640781894358049792,-0.197326350,0.157468380,10.362357140,-0.070582320,-0.289139090,0.006876890
1640781894361169920,-0.116242240,0.476431670,9.856224060,0.005699690,-0.150252880,-0.011803210
1640781894362829824,0.456102250,0.814176080,8.712227820,-0.127993520,-0.196200590,0.000919400
1640781894366319872,-0.160701330,0.729391160,10.577445980,-0.256247820,-0.182174160,0.034451490
1640781894367889920,-0.036542290,0.138139800,9.612185480,-0.232325480,-0.148770180,0.041204690
1640781894371229952,0.124434640,-0.283337350,9.600603100,-0.027471780,-0.307482480,0.029520690
1640781894372920064,-0.440538820,-0.301541090,10.092676160,0.063020000,-0.178709630,-0.010623040
1640781894376999936,0.085288060,-0.122677370,8.542081830,-0.102202590,-0.171789540,-0.009250640
1640781894377849856,-0.135261730,0.124164250,9.858263970,-0.260357590,-0.201477080,0.014466050
1640781894381629952,-0.137641240,0.040695650,10.109024050,-0.273866950,-0.079172850,-0.003461540
1640781894382860032,0.280531350,0.009317830,9.660693170,-0.060066580,-0.220723450,-0.005687770
1640781894386530048,-0.350288420,0.182454630,10.473233220,0.126160700,-0.275354090,-0.016033650
1640781894387939840,0.021850920,0.181136760,8.707838060,0.004808600,-0.193932670,-0.017523770
1640781894391579904,-0.069908280,0.169632940,9.199525830,-0.181543830,-0.176727770,0.005927680
1640781894392839936,-0.498816640,-0.038401720,10.651706700,-0.222285120,-0.101245960,-0.007882710
1640781894396189952,0.124852850,0.036195610,9.524662970,-0.087273130,-0.216251610,-0.005194540
1640781894398039808,-0.141591280,0.403568090,9.997172360,0.061069430,-0.292687120,-0.025726860
1640781894401559808,-0.092885560,0.665798010,9.510663030,-0.051958860,-0.130838160,-0.034101300
1640781894402870016,0.075212020,0.569209160,9.241985320,-0.192548300,-0.169038760,0.005152820
1640781894406380032,-0.436855490,0.066481140,10.851401330,-0.143039230,-0.227372390,-0.001582500
1640781894408000000,0.147578030,-0.171430020,9.359310150,-0.014589730,-0.184993450,-0.017806890
1640781894411209728,0.166296870,0.044080940,9.234389310,0.057269630,-0.241000980,-0.025334960
1640781894413009920,-0.093996250,0.360082240,9.960501670,-0.096896290,-0.133420540,-0.035285950
1640781894416219904,0.448349710,0.514119800,8.901199340,-0.255216660,-0.127691050,-0.009724500
1640781894417899776,0.081609190,0.120824750,10.515841480,-0.162751970,-0.208485140,0.003741680
1640781894421380096,0.007927760,-0.143468680,10.206933980,0.032912190,-0.152511890,-0.018878280
1640781894422880000,0.149312410,-0.054283200,8.949514390,0.126285870,-0.251063700,-0.044716900
1640781894426189824,-0.412246530,-0.014901620,9.945488930,-0.023522970,-0.203599040,-0.034219030
1640781894427909888,0.051306640,0.139825400,8.794219970,-0.225152110,-0.051417960,-0.013928120
1640781894431180032,-0.085498360,-0.134934860,10.091612820,-0.177785750,-0.181338190,-0.021578370
1640781894432849920,-0.188215090,-0.032773390,10.529020310,0.043654440,-0.151754920,-0.040727860
1640781894436290048,0.352572200,0.401828590,8.801956180,0.137452780,-0.201299800,-0.055813790
1640781894437889792,-0.257031080,0.379882250,10.342211720,0.000034270,-0.196617890,-0.041146580
1640781894443049984,-0.099701620,0.460642100,9.536704060,-0.168490440,-0.073240710,-0.026378040
1640781894443650048,0.004352490,0.091379040,9.847741130,-0.131745650,-0.214652720,-0.035455830
1640781894446369792,-0.217469170,0.134193850,10.491950990,0.045959660,-0.151868160,-0.046217440
1640781894447879936,0.375191150,0.636425440,8.738361360,0.083839900,-0.132507090,-0.071392980
1640781894451559936,0.004261200,0.784129920,10.141404150,-0.092829770,-0.167253630,-0.053174790
1640781894452879872,-0.024256960,0.734133600,9.795415880,-0.210995990,-0.083935260,0.004905460
1640781894456319744,0.237010330,0.001171820,9.775279050,-0.113579640,-0.186522310,-0.013034050
1640781894458099968,-0.135372240,-0.172125030,10.469828610,0.089885290,-0.146743670,-0.026188790
1640781894461459968,0.161298020,0.115519110,8.958250050,0.105571750,-0.130043940,-0.048030910
1640781894462839808,0.089441760,0.174851340,9.603425030,-0.110958520,-0.155690310,-0.057895490
1640781894466199808,0.174655870,0.266994270,9.447150230,-0.250886410,-0.007428230,-0.018012520
1640781894467879936,0.283877490,-0.046138140,9.927024840,-0.130541640,-0.109954180,-0.049304970
1640781894471289856,-0.131438580,-0.037099280,10.598559380,0.109106310,-0.171199460,-0.075653200
1640781894472999936,0.044928460,0.342078180,8.752824780,0.143025830,-0.177489190,-0.062026080
1640781894476559872,-0.179159880,0.267592580,9.539224620,-0.061364480,-0.114026680,-0.064553320
1640781894480219904,-0.250351220,0.071985730,9.792867660,-0.201571000,0.032895800,-0.027278070
1640781894481189888,0.023892760,-0.094391610,10.046592710,-0.075598060,-0.129190090,-0.029402970
1640781894482849792,-0.050876890,0.009904270,10.507651330,0.119566920,-0.127172480,-0.058853630
1640781894486259968,0.331474420,0.429458650,8.722630500,0.094038230,-0.088883940,-0.044550010
1640781894487899904,-0.011130250,0.465751110,10.107002260,-0.082734230,-0.118592380,-0.036159160
1640781894491539968,-0.107848750,0.057588010,9.963856700,-0.144365440,-0.006827710,-0.022305550
1640781894492979968,0.247983430,-0.200179930,9.470515250,0.011612480,-0.165416300,-0.031481690
1640781894496259840,-0.149893940,-0.025014970,10.682391170,0.155977930,-0.082647820,-0.058063880
1640781894497910016,0.312205640,0.470599440,8.686627390,0.040261450,-0.005391240,-0.051860520
1640781894501619712,0.148459060,0.717850030,9.950898170,-0.151482240,-0.127135230,-0.024248660
1640781894502889984,0.140310290,0.417414490,10.044879910,-0.167574000,0.046087810,0.007602570
1640781894506389760,0.618514960,0.043738670,9.069251060,0.019219520,-0.072544820,-0.019377470
1640781894507959808,-0.096035030,0.062133740,10.880516050,0.209613160,-0.097680090,-0.031387810
1640781894511269888,0.207338020,0.054105090,8.768194200,0.086125720,0.009660420,-0.041233000
1640781894512849920,0.246453110,-0.073915420,9.300676350,-0.122232740,-0.081805870,-0.027954580
1640781894516179968,-0.179611360,-0.272351180,10.471048360,-0.131414850,0.102120640,-0.023935740
1640781894518070016,0.423851250,-0.319461260,8.997927670,0.037062170,0.015680490,-0.064197190
1640781894521199872,-0.077529450,0.222091410,10.537639620,0.184884640,-0.107835220,-0.042307370
1640781894522889728,0.076711970,0.381201360,9.098930360,0.074929010,0.065998730,-0.031284990
1640781894526269952,0.259347530,0.161969710,9.311073300,-0.072065000,-0.000470880,-0.022487340
1640781894527940096,-0.480081410,0.063179310,11.137406350,0.004930790,0.059966750,-0.006486480
1640781894531289856,0.240558060,0.005820080,9.088851930,0.115235170,0.017824770,-0.051054360
1640781894532869888,0.070540610,0.546988010,9.838871000,0.125260670,-0.053080920,-0.049398840
1640781894536259840,-0.102003410,0.896858330,9.516972540,-0.023479760,0.133983810,-0.033245980
1640781894537959936,0.375801150,0.648724620,9.266040800,-0.129854690,0.035454330,-0.022855400
1640781894541329920,-0.125062330,0.371433440,10.751724240,-0.001458820,0.024899840,-0.004403290
1640781894543059712,0.223753560,0.048148710,9.485306740,0.147709250,0.068539390,-0.035704670
1640781894546289920,0.050697500,0.075542140,10.021824840,0.149413960,-0.000430640,-0.038197640
1640781894547859968,-0.224247570,0.187277090,9.853046420,-0.015929340,0.078946360,-0.003056230
1640781894551329792,0.428789200,-0.094742190,8.903648380,-0.137722510,0.083050140,-0.001189110
1640781894552969984,0.185999320,-0.173076210,10.083364490,-0.011707840,0.138449680,-0.014491380
1640781894556369920,0.239119020,0.097546730,9.710018160,0.144056990,0.115628540,-0.038959090
1640781894558369792,0.195556460,0.417786090,9.815656660,0.148203940,-0.001394750,-0.033289190
1640781894561219840,-0.220071200,0.410374520,9.774141310,-0.008834900,0.074462600,-0.014823680
1640781894562870016,-0.007150870,0.181128680,9.335917470,-0.082142660,0.106404720,-0.000809130
1640781894566210048,-0.322146920,-0.136057200,10.297565460,0.049401830,0.133590420,-0.029648850
1640781894567989760,-0.083707030,0.085755930,9.441941260,0.167575450,0.117544840,-0.034236900
1640781894571239936,0.115719680,0.470429060,9.757535930,0.101180390,0.080670430,-0.016772750
1640781894572949760,-0.065386510,0.220835910,9.922278400,-0.050914290,0.169661660,0.000479820
1640781894577750016,0.168114130,-0.014700410,9.725324630,-0.031808020,0.068642210,0.022181870
1640781894579020032,-0.140373440,-0.235890880,10.440354350,0.151960570,0.069895390,-0.023193660
1640781894581169920,-0.004608710,-0.015262920,9.233500480,0.202535110,0.124359140,-0.055061280
1640781894582850048,-0.005107710,0.595171210,9.935586930,0.075644260,0.081814810,-0.032033030
1640781894586429952,-0.202017190,0.584276140,10.158286090,-0.085821760,0.194275380,-0.012703240
1640781894587950080,0.351798000,0.554864650,9.339759830,-0.057016310,0.083565700,0.005429980
1640781894592559872,-0.059150860,0.607653920,10.612459180,0.126835720,0.092390190,-0.006373230
1640781894593240064,-0.020317720,0.520882310,9.402426720,0.156629090,0.167816890,-0.018040840
1640781894596169984,-0.059285100,0.519472540,9.776542660,0.071768470,0.028985740,0.029742720
1640781894597859840,-0.384569820,0.061892470,10.270482060,-0.030307470,0.159011800,0.033618510
1640781894601239808,0.302466150,-0.423863440,8.921394350,-0.014288730,0.159320250,0.008091330
1640781894603159808,-0.002692700,-0.114833980,10.427523610,0.130340440,0.116719310,-0.014819210
1640781894606329856,0.153284120,0.192256730,9.539068220,0.103521350,0.193092230,-0.032863020
1640781894608009728,0.525373100,0.374853400,9.215755460,-0.002749260,0.084680330,0.001855190
1640781894611500032,-0.199438930,0.248992930,10.732121470,-0.013338030,0.157609580,0.001512470
1640781894612890112,0.121730380,-0.065055590,9.276139260,0.077968840,0.151549280,-0.021795930
1640781894616219904,-0.130539120,0.148082970,9.849693300,0.203573700,0.039193040,-0.014999510
1640781894617879808,-0.328157690,0.375883970,9.736742970,0.113049160,0.232000690,-0.020681320
1640781894621409792,0.160299050,0.374694080,9.225605960,-0.057832900,0.190348940,0.014419850
1640781894623509760,-0.420677840,0.211053740,10.953339580,-0.019299990,0.119689090,0.020585960
1640781894626839808,0.025676100,-0.000186560,9.589228630,0.118745870,0.145019590,-0.008891520
1640781894627929856,0.088538810,0.136371480,9.512521740,0.217276830,0.097246470,-0.011631850
1640781894631209728,-0.501442730,0.320849060,10.521381380,0.125224900,0.201794550,-0.019517540
1640781894632879872,0.051406390,0.318246630,9.384912490,-0.028894840,0.153033450,0.014582280
1640781894636590080,-0.109165440,0.261126820,10.109475140,-0.003916030,0.088518860,0.031195580
1640781894638069760,0.123742450,0.357384200,9.800520900,0.088068840,0.219667000,0.016815960
1640781894641289984,0.355204820,0.781658290,9.535592080,0.126148780,0.162164880,0.000204150
1640781894643209984,-0.204102980,0.777743220,10.541046140,0.054369870,0.128827970,0.026954710
1640781894646189824,0.143601300,0.501025020,9.577650070,-0.025017560,0.161579270,0.039896370
1640781894647879936,-0.051762410,0.084773970,9.884099960,0.035269560,0.128357110,0.023661560
1640781894651219968,-0.304681360,-0.094065530,10.114861490,0.135351720,0.166335700,0.009386240
1640781894653309696,0.034265190,0.270385350,9.070854190,0.090737660,0.142946850,0.005331640
1640781894656409856,-0.117470860,0.245373000,9.669949530,-0.040344890,0.159846260,0.028832260
1640781894657920000,0.086665150,-0.020620090,9.954517360,-0.066906210,0.251132280,0.056523080
1640781894661159936,0.005406580,-0.244045910,10.297391890,0.102558750,0.145311670,0.022557380
1640781894662899968,-0.188893510,-0.349409910,10.123542790,0.243333000,0.066196920,0.006730850
1640781894666230016,0.051007970,0.064940790,9.004649160,0.170813490,0.141687690,-0.005692240
1640781894667949824,-0.288533360,0.192561400,9.689972880,-0.025238100,0.218950230,0.000137090
1640781894674799872,-0.277754750,0.212805110,10.171424870,-0.051739820,0.187577320,0.030431160
1640781894675789824,-0.102877900,0.519715670,9.970587730,0.104106970,0.099091230,0.010804830
1640781894676299776,-0.096963060,0.596430780,9.783769610,0.181171300,0.139829500,0.000445540
1640781894677870080,-0.016409740,0.836365460,9.788345340,0.119771070,0.185331700,0.022265320
1640781894681159936,-0.353877930,0.524985250,10.586957930,0.026310980,0.171147270,0.027775760
1640781894682839808,-0.106988210,0.012740880,9.822750090,0.035612280,0.101666160,0.041575730
1640781894686550016,0.011130240,0.102426200,9.501598360,0.134335470,0.098218020,0.018180910
