# timestamp,accel_x,accel_y,accel_z,gyro_x,gyro_y,gyro_z
1640840811.627710,-0.274482730,0.314996660,10.094326020,0.018347800,0.014239550,0.043360890
1640840811.628370,-0.258588790,0.676844600,9.521876340,-0.017073750,0.064638240,0.035727020
1640840811.632060,-0.216423260,0.079384650,10.177131650,-0.081007180,0.037255890,0.036679210
1640840811.633450,-0.377759900,0.300884600,10.350000380,-0.014494360,0.075365600,0.044180460
1640840811.637030,-0.376195550,0.265919090,9.656514170,0.040304660,-0.011295080,0.009988250
1640840811.638400,-0.550028860,0.076803820,10.185527800,-0.007329880,-0.046168270,0.038354100
1640840811.642090,-0.393655630,0.411351350,9.308221820,-0.041872260,0.065685810,0.028933590
1640840811.643350,-0.117223520,-0.003981970,9.699329380,-0.043337050,0.072719160,0.004917380
1640840811.647160,-0.230911200,0.161217170,10.774512290,0.025312600,0.091351570,0.034926840
1640840811.648500,-0.055713890,0.427692060,9.849588390,0.044158100,0.015567240,0.017151240
1640840811.652150,-0.139647830,0.096940530,10.202010150,-0.015044210,-0.061482190,0.022038810
1640840811.653360,-0.375695790,0.311008540,9.621782300,-0.018762050,0.045926870,0.046329200
1640840811.657170,-0.241393640,0.208352830,9.279102330,-0.005415080,0.043910750,0.008735060
1640840811.658670,-0.543099340,0.240286860,10.810891150,0.023394820,0.061993300,0.001589950
1640840811.662360,-0.521800040,0.769961300,10.131473540,0.005914270,0.053730610,0.018022950
1640840811.663650,-0.361622420,0.587756630,10.052270890,-0.031313300,-0.056445600,0.027734040
1640840811.667120,-0.592196940,0.457304950,10.122524260,-0.020924210,0.045230980,0.035780670
1640840811.668450,-0.329146410,0.702554760,9.389676090,0.005875530,0.050814450,0.028915710
1640840811.672140,-0.471501530,0.515373710,10.473815920,-0.017282360,0.004486740,0.031766290
1640840811.673440,-0.322760190,0.387187960,9.959426880,-0.045532000,0.022038820,0.048510730
1640840811.677160,0.094389790,0.333481100,9.537616730,-0.017203400,0.004436080,0.033751130
1640840811.679360,-0.201726200,0.229624490,10.367235180,-0.017219780,0.049841410,0.017471610
1640840811.682760,-0.001287180,0.410816250,9.782431600,-0.056175900,0.034414230,0.042007870
1640840811.684250,-0.130691500,0.176758360,10.128246310,-0.047470630,-0.002865490,0.032706550
1640840811.687470,-0.397030200,-0.220376700,10.043077470,0.005112590,0.022014970,0.020359460
1640840811.690990,-0.269554200,0.188975690,9.452183720,0.043953950,-0.007262830,0.031849750
1640840811.692000,-0.510948420,0.353564620,9.753574370,-0.038298960,0.043845170,0.023263690
1640840811.693390,-0.316147000,0.162873980,9.824830060,-0.099514450,0.043119490,0.043867540
1640840811.697210,-0.304247050,0.203728270,10.303389550,0.010222200,0.042122610,0.045159460
1640840811.699110,-0.294007000,-0.035905110,9.967854500,0.084879990,0.014567370,0.018295640
1640840811.702110,-0.255790440,0.221365390,10.020038600,0.071394440,-0.028106570,0.036329030
1640840811.703340,-0.328384340,0.490751800,9.602573390,-0.041170420,0.044366720,0.023999810
1640840811.707050,-0.078454960,0.051620220,9.488698960,-0.096112500,0.019648670,0.028966370
1640840811.708440,-0.249234410,0.177578660,10.347721100,0.043387710,0.070910160,0.042693320
1640840811.712120,-0.252858460,0.295716430,9.907190320,0.119948390,0.048635900,-0.004191700
1640840811.713350,-0.475168050,0.436051700,10.502922060,0.044426330,-0.075113800,0.028187040
1640840811.717300,-0.633475240,0.651321770,9.858245850,-0.070947420,0.027772790,0.037734210
1640840811.718400,-0.352905360,0.196828930,9.332557680,-0.080579520,0.009268520,0.019103290
1640840811.722020,-0.602037550,0.373132850,10.659438130,0.065290930,0.034575170,0.041191280
1640840811.723390,-0.304151540,0.807871100,9.670268060,0.062777110,0.054386260,0.013087690
1640840811.731940,-0.086404230,0.545531090,10.056612010,-0.038012870,-0.049507620,0.034713750
1640840811.732630,-0.261869970,0.501066030,10.320893290,-0.080628690,0.051021580,0.063525150
1640840811.733140,0.047171000,0.245987330,9.315742490,-0.027053060,0.026994950,0.023789710
1640840811.733490,-0.318715660,0.223206450,10.496088980,0.029017030,-0.038737060,0.030530990
1640840811.737020,-0.147092310,0.591855700,9.417982100,-0.018076590,0.054764740,0.037594130
1640840811.738390,0.127957930,0.127251270,9.372292520,-0.055657320,0.030834970,0.018414850
1640840811.742070,-0.528767650,0.073743910,10.889908790,-0.024810430,0.081846110,0.042930250
1640840811.743530,-0.346346350,0.376609980,9.571613310,0.009922680,0.001129510,0.033275780
1640840811.747180,-0.463118880,0.086395700,9.977355000,-0.011225050,-0.092202430,0.019352140
1640840811.749380,-0.422584860,0.332341310,9.429497720,-0.055444240,0.097258400,0.033424800
1640840811.752010,-0.055282030,0.384093370,9.227246280,-0.028221310,0.105582190,0.017589330
1640840811.753430,-0.495346160,0.101146730,10.994483950,0.007507210,0.050289930,0.014403460
1640840811.757010,-0.169678870,0.458587800,9.739957810,-0.001959500,-0.005182620,0.017870960
1640840811.758370,-0.185979140,0.069994670,9.660818100,-0.004111230,-0.066527730,0.010396540
1640840811.762210,-0.421693350,-0.097296280,9.790992740,-0.005702670,0.067095440,0.021593270
1640840811.763390,-0.121443900,0.249952330,9.303867340,0.014725330,0.070753690,0.011442600
1640840811.767080,-0.432199510,0.127163350,10.565982820,-0.002607700,0.035955010,0.005668400
1640840811.768410,-0.343737900,0.304089010,10.242479320,-0.015789270,0.014838580,0.024275490
1640840811.772010,-0.335930080,0.319728020,9.787664410,0.032286350,-0.034973030,0.027735540
1640840811.773320,-0.606555940,0.292256390,9.898890500,0.016376370,0.014914570,0.005866590
1640840811.777160,-0.460561100,0.672768060,9.786389350,0.001692770,0.030422210,0.019662080
1640840811.778540,-0.517676230,0.685847520,10.132662770,-0.042495140,0.025081630,0.017163160
1640840811.782110,-0.248230160,0.483650540,9.987303730,-0.048147140,0.002050400,0.017116960
1640840811.784080,-0.144142900,0.516548450,10.069229130,0.039146840,0.019931790,0.018548970
1640840811.787080,-0.228828760,0.666955230,9.876109120,0.003206730,0.020465250,0.002431870
1640840811.788370,-0.198205520,0.504787500,10.037457470,-0.082278250,-0.043885410,0.032371290
1640840811.792160,-0.129919100,0.301563200,9.809127810,-0.080029670,0.049310920,0.039935110
1640840811.793680,0.079356860,0.014911840,9.552145960,-0.018963220,0.032490490,0.006970760
1640840811.798770,-0.181432230,0.193545340,10.482877730,0.036208330,0.040183970,0.017353890
1640840811.799340,-0.159868050,0.513525430,9.731764790,-0.047786540,0.047202410,0.019758940
1640840811.802000,-0.355396900,0.063248570,9.997767450,-0.103044520,-0.055050860,0.016413630
1640840811.803340,-0.559766710,0.078842790,9.988841060,-0.026032330,0.009632110,0.032764680
1640840811.807030,-0.163421010,0.241777350,8.815719600,0.025026500,0.061242280,-0.000464920
1640840811.808380,-0.395066560,0.274744540,10.417003630,-0.002360340,0.066241610,0.010867420
1640840811.812370,-0.227227320,0.482823880,10.273271560,-0.065904860,0.108046840,0.025320050
1640840811.813370,-0.034384890,0.107190920,9.802629470,-0.037103890,-0.034180280,0.014168030
1640840811.817090,-0.339764180,-0.067107970,10.128450390,0.044287740,-0.019498170,0.028105080
1640840811.818400,-0.030503710,0.376443000,8.846287730,0.027619300,0.081379720,0.014446680
1640840811.822200,-0.290162620,0.109476390,9.954311370,-0.032673780,0.034734610,-0.004056100
1640840811.823320,-0.369864700,0.107296380,10.441575050,-0.051587830,0.075502710,0.014698510
1640840811.827120,-0.093021590,0.244706690,9.464198110,0.026687980,0.031869120,0.000725690
1640840811.828560,-0.549026370,0.227841270,10.545888900,0.045716770,0.000134110,-0.007815660
1640840811.832130,-0.485828610,0.753083710,9.870468140,-0.018556420,0.064058600,0.021167100
1640840811.833390,-0.512832940,0.522552250,9.636944770,-0.046426050,-0.012989340,0.006391110
1640840811.837060,-0.536604050,0.299675520,10.226531030,-0.021621580,0.033847980,-0.000196700
1640840811.838450,-0.117223540,0.688542010,9.466921810,0.044298170,0.110951070,0.005935130
1640840811.842310,-0.230504620,0.660016420,10.342109680,-0.003978610,0.020104650,-0.003777440
1640840811.843320,-0.112548970,0.619605000,10.290007590,-0.095544760,0.025752190,0.017522280
1640840811.847160,0.031985930,0.443561550,9.368038180,-0.068083410,0.023534890,0.015141070
1640840811.848480,-0.224599380,0.114286390,10.143813130,-0.004453960,0.017519290,0.000262260
1640840811.851970,-0.178762080,0.383865180,9.872349740,0.007389490,0.086234520,0.017263000
1640840811.853540,-0.127981070,0.272494490,9.615126610,-0.055405500,0.034402310,0.026856360
1640840811.856990,-0.169349070,-0.003626860,10.086054800,-0.089319050,0.052016980,0.005224350
1640840811.858790,-0.192168670,0.126371190,9.718190190,-0.016787650,0.089435280,-0.000043210
1640840811.862460,-0.387908370,0.188941540,9.903325080,0.004625320,0.008477270,-0.012807550
1640840811.863330,-0.453012760,0.159276080,9.964897160,-0.021013620,0.021496410,-0.016221400
1640840811.867000,-0.323817370,0.251383720,9.339586260,-0.039948520,0.086157030,-0.009734930
1640840811.868420,-0.206971450,0.271425010,9.814908980,-0.040157140,0.093978650,-0.001426040
1640840811.872040,-0.280271320,0.125009120,10.449583050,0.006781520,0.099448870,0.002774600
1640840811.873740,-0.129744750,0.191833230,9.882749560,0.029057260,0.025762620,0.015304980
1640840811.877350,-0.252730400,0.012854950,9.741847040,0.034545370,-0.000208620,0.005178150
1640840811.878580,-0.308613120,-0.077710930,9.486474040,0.009600820,0.070726880,0.008280580
1640840811.882000,-0.281313420,0.214847740,9.619715690,-0.009576980,0.102637730,-0.016011300
1640840811.883370,-0.492669730,0.179457630,10.450586320,-0.005076830,0.072956070,-0.032730400
1640840811.887080,-0.342316600,0.383104920,10.179923060,0.020387770,0.041079520,-0.004985930
1640840811.888360,-0.433254420,0.549750150,9.777537350,0.048434740,0.012959540,-0.021225210
1640840811.892020,-0.516537370,0.422641810,9.884961130,0.019751490,0.038312380,-0.015537440
1640840811.893650,-0.406721140,0.717604280,9.811429980,-0.021874900,0.087256720,0.011947750
1640840811.897750,-0.415323110,0.433948460,9.964092250,-0.021652880,0.049680470,-0.000149010
1640840811.898440,-0.192241250,0.155292730,10.142400740,0.019352140,0.026589630,0.005878510
1640840811.902030,-0.039927900,0.566224930,9.563937190,0.047573450,0.084711620,-0.004111230
1640840811.903370,-0.125751940,0.367454500,10.000435830,-0.031810990,0.042659040,-0.017780070
1640840811.907090,-0.238153590,0.301546220,10.300705910,-0.067529070,0.048804280,0.018204750
1640840811.908410,-0.248859870,0.243106600,9.442487720,0.003162030,0.029484930,-0.009630620
1640840811.912120,-0.331853000,0.081666360,9.958599090,0.033935900,0.014448170,-0.010113420
1640840811.913390,-0.283427600,0.600696330,9.664079670,0.004950170,0.112405440,0.017328560
1640840811.917080,-0.217283860,0.306515750,9.716004370,-0.056701910,0.070326030,-0.012332200
1640840811.918470,-0.330943470,0.114379600,10.508394240,-0.032544140,0.047078730,0.008338690
1640840811.922390,-0.281559910,0.344445140,9.435918810,0.050525380,0.052130230,0.002831220
1640840811.924800,-0.355592880,0.071083510,9.775918960,0.031429530,-0.012734530,-0.027053060
1640840811.927420,-0.356045960,0.272819190,9.751358990,-0.021098560,0.093443690,0.005124510
1640840811.928650,-0.141183940,0.210543690,9.181086540,-0.039193040,0.098854300,-0.011990960
1640840811.931990,-0.241081130,-0.075412670,10.416778560,0.015889110,0.070239610,-0.005646050
1640840811.933340,-0.365132720,0.101909620,10.078737260,0.087414690,0.083427120,0.013513860
1640840811.937140,-0.339863120,0.104374480,9.653178220,0.064726170,-0.044631960,-0.006546080
1640840811.938620,-0.510239720,0.077062140,9.849093440,0.005623700,0.033025450,0.012393300
1640840811.942020,-0.365753860,0.211444330,9.190329550,0.000554320,0.128805640,0.002180040
1640840811.943580,-0.398428230,0.326970730,10.393424990,0.042217970,0.059111410,-0.032731880
1640840811.947230,-0.558174130,0.542441010,10.548132900,0.064279150,0.048874330,-0.008104740
1640840811.948440,-0.224988860,0.755315840,9.353164670,0.046235330,-0.024342540,-0.004315380
1640840811.952020,-0.376152310,0.629024090,9.876625060,0.002570450,0.035247210,-0.018456580
1640840811.953830,-0.372597720,0.644147160,9.731540680,-0.013704600,0.115111460,0.012283030
1640840811.957060,-0.299467980,0.615787570,10.121803280,0.009392200,0.013831260,0.009028610
1640840811.958400,-0.408851180,0.146138710,10.296720500,0.030407310,0.018776960,0.004006920
1640840811.962110,-0.079962600,0.165468630,9.409506800,0.054880980,0.030507150,0.013062360
1640840811.963380,-0.270111620,0.269827190,9.904459000,0.020051000,0.055463620,-0.007118280
1640840811.967030,-0.423812180,0.083510470,10.031520840,-0.048761070,0.055582810,-0.000582640
1640840811.968460,-0.373740820,0.233156840,9.985735890,-0.011309980,-0.021566450,0.003771480
1640840811.972030,-0.405898630,0.163429810,9.586605070,0.050844260,0.029522190,-0.026261810
1640840811.973360,-0.227716940,0.333610830,9.495678900,0.041009490,0.051094590,-0.007630890
1640840811.977460,-0.305355100,0.664329650,10.027090070,0.001589950,0.102908920,0.002576410
1640840811.978410,-0.212495400,0.165642410,10.012758260,-0.037050250,0.027826430,-0.013685230
1640840811.982030,-0.283238320,0.066910800,10.159284590,0.047159190,-0.045490270,0.023691360
1640840811.983400,-0.375642210,0.087076600,9.183094020,0.103457280,0.036799910,-0.015603010
1640840811.987090,-0.428197590,0.041242940,9.485910420,0.029730800,0.004614890,-0.015990440
1640840811.988430,-0.596280100,0.344910090,10.178077700,-0.023038690,0.064787280,0.002636020
1640840811.992020,-0.270051030,-0.006876790,9.434893610,-0.008644160,0.049057610,-0.031206010
1640840811.993570,-0.436503620,-0.060174140,10.504166600,0.114555680,-0.026223070,-0.012283030
1640840811.997300,-0.466347870,0.478570430,9.884860040,0.138521190,0.039941080,-0.023058060
1640840811.998430,-0.335474160,0.433134140,9.562034610,0.010813770,-0.051119930,-0.017888850
1640840812.002300,-0.577284570,0.510632990,10.308281900,-0.031998750,0.000284610,0.013794000
1640840812.003420,-0.120889860,0.488677200,9.075744630,0.024881960,0.072692340,-0.025565920
1640840812.007000,-0.249178540,0.419676720,10.405631070,0.112882260,-0.019277630,-0.024864080
1640840812.008360,-0.392759410,0.938448130,10.450914380,0.078198320,0.047211350,-0.008003410
1640840812.012100,-0.064202600,0.821706530,9.362580300,-0.055709480,-0.037962190,-0.027494130
1640840812.013380,-0.479159410,0.397536640,10.476407050,-0.054074820,-0.041471420,0.000905990
1640840812.017050,-0.328391520,0.464188400,9.383432390,0.035375360,0.082589690,-0.009791550
1640840812.019040,-0.344455600,0.436921510,9.933169360,0.069089240,-0.047093640,-0.017832220
1640840812.022150,-0.492305960,0.477827910,10.307814600,-0.012862680,0.006002190,0.018559400
1640840812.023480,0.044699670,0.419282560,8.883825300,-0.072500100,0.042387850,-0.003957750
1640840812.027490,-0.218630160,0.015725080,10.573226930,-0.017446280,0.010378660,-0.004366040
1640840812.028760,-0.327173380,0.272531210,10.285576820,0.040432810,0.066606700,-0.002042950
1640840812.032060,-0.046910930,0.392403510,9.345891950,0.025732820,-0.090223550,-0.024443870
1640840812.033400,-0.283066000,0.236755430,9.847254750,-0.035414100,0.010642410,-0.006449220
1640840812.037040,0.013222800,0.510891560,8.930269240,-0.051437320,0.129351030,-0.009706610
1640840812.038380,-0.280114860,0.199428110,10.400991440,0.003078580,0.007650260,-0.025084610
1640840812.041990,-0.555301550,0.113424290,10.393510820,0.040343410,-0.007423760,-0.010447210
1640840812.043520,-0.291435510,0.185925250,9.097946170,0.058668860,-0.052605580,-0.006513300
1640840812.047110,-0.609875200,-0.099269380,9.826665880,0.001779200,0.023509560,-0.019446010
1640840812.048870,-0.451757010,0.084299740,9.735840800,-0.031010800,0.109913950,-0.011725720
1640840812.052110,-0.340935140,0.098757700,10.123313900,0.029101970,0.017271940,-0.026404860
1640840812.053460,-0.411216830,-0.004369260,10.227973940,0.065955520,-0.023593010,-0.023083390
1640840812.057020,-0.190014150,0.306425660,9.415928840,0.092236700,-0.019964570,-0.007271770
1640840812.058440,-0.373781000,0.418159960,9.638823510,0.026912990,0.018665200,-0.020457810
1640840812.062130,-0.447320940,0.469340650,10.056470870,-0.032308700,0.007461010,-0.012874600
1640840812.063370,-0.289010410,0.572154280,9.897022250,0.021117930,0.000892580,-0.000809130
1640840812.067200,-0.214911390,0.500648680,9.883930210,0.062531260,0.018510230,-0.025814780
1640840812.068400,-0.410619200,0.641552630,10.327404980,0.073921690,0.001503530,-0.014713410
1640840812.071960,-0.446958660,0.826489930,9.927733420,-0.001308320,-0.025853520,-0.008280580
1640840812.073350,-0.388441180,0.430405380,9.601350780,-0.069779170,-0.053003430,-0.005882980
1640840812.078610,-0.479022030,0.291953560,9.929103850,0.003775950,0.021497910,-0.000247360
1640840812.079440,-0.283717690,0.524724070,9.591301920,0.038896500,0.034637750,-0.011771920
1640840812.081980,-0.231350350,0.473861660,10.231404300,-0.005899370,-0.026243930,0.001123550
1640840812.083900,-0.066422660,0.383960630,10.074214940,-0.048930950,0.041349230,0.023835900
1640840812.087070,0.000796760,0.203615100,9.723223690,-0.038266190,0.000754000,-0.002937020
1640840812.088420,-0.412700590,0.135013640,10.362343790,0.033260880,-0.054994230,0.005587940
1640840812.092070,-0.155999050,0.561860920,9.076140400,-0.005248190,-0.006702540,0.009277470
1640840812.094700,-0.155239110,0.371674840,9.244410510,-0.064106290,0.020632150,-0.011524560
1640840812.097060,-0.374958600,0.260278430,10.305288310,-0.043676800,0.084862130,0.001698730
1640840812.098470,-0.180875550,0.460186000,9.773490910,0.017847130,0.024870040,-0.010019540
1640840812.102030,-0.512529610,0.229885300,10.289085390,0.025534630,-0.071614990,-0.013212860
1640840812.103360,-0.429558280,0.312685400,9.702990530,-0.035242730,0.006049870,0.012983380
1640840812.106980,-0.386940540,0.124474780,9.183227540,-0.031133000,0.016602880,0.001949070
1640840812.108400,-0.487627000,-0.136320220,10.066064830,0.009508430,0.009419020,-0.009205940
1640840812.112080,-0.166076260,0.267580630,9.687776570,0.039592380,0.076319280,0.010168550
1640840812.113430,-0.320641550,0.128538270,10.056366920,0.016202030,-0.023886560,-0.008890030
1640840812.117180,-0.357658360,0.074372650,10.294976230,-0.013931100,-0.059451160,0.005419550
1640840812.118430,-0.250380400,0.414014190,9.129086490,0.021058320,0.007715820,0.003969670
1640840812.121980,-0.442181620,0.316629050,9.944386480,0.014685100,-0.012063980,-0.030775370
1640840812.123380,-0.432116960,0.685148120,10.309510230,0.002014640,0.058904290,-0.005184110
1640840812.127410,-0.360390370,0.748784180,9.628567700,0.001312790,-0.026749070,-0.014291700
1640840812.128480,-0.432748080,0.482741560,10.313193320,-0.004042690,-0.065669420,-0.010570880
1640840812.132230,-0.455684130,0.805687370,9.634701730,0.004144010,0.030720240,0.006023050
1640840812.133640,-0.542741480,0.604250310,9.747543330,-0.042843820,-0.050048530,-0.002069770
1640840812.137000,-0.509724500,0.281151320,10.480356220,-0.051550570,-0.023108720,0.032542650
1640840812.138420,-0.227015210,0.211206660,9.394882200,0.023965540,0.034727160,0.022748110
1640840812.141990,-0.209991540,0.145186780,10.221998210,0.011157990,-0.050996250,-0.006119910
1640840812.143620,-0.258016230,0.494733180,10.186946870,-0.057411200,0.017152730,0.016134980
1640840812.147260,-0.151497100,0.387415140,9.342134480,-0.099000330,-0.045938790,0.006152690
1640840812.148500,-0.406730350,0.084668500,10.314745900,-0.026619440,-0.071872770,0.001062450
1640840812.153670,-0.361804070,0.455738870,9.372393610,0.052480400,0.021339950,0.006487970
1640840812.154290,-0.244958520,0.749935450,9.393779750,-0.026011470,-0.043253600,0.007502730
1640840812.157000,-0.425258010,0.525235350,10.465402600,-0.128164890,0.027793650,0.025010110
1640840812.158420,-0.221460970,0.248368370,9.696369170,-0.080668930,0.006799400,0.025548040
1640840812.162100,-0.401256140,-0.082437460,10.206861500,0.061973930,-0.105720770,0.005792080
1640840812.163460,-0.603395040,-0.032112560,9.726436610,0.072740030,-0.028443340,-0.005292890
1640840812.167110,-0.230767320,0.186855840,8.930309300,-0.057205560,-0.048130740,0.004915890
1640840812.168440,-0.453933150,-0.076968600,10.126052860,-0.113657120,0.024545190,0.002819300
1640840812.172000,-0.231642410,-0.176611380,9.873761180,-0.014457110,0.037872790,0.004115700
1640840812.173390,-0.279183480,0.020574540,10.263816830,0.128555300,-0.092858080,0.003497300
1640840812.177390,-0.515918970,0.142393160,10.019557000,0.095979860,-0.057671960,-0.003457070
1640840812.178440,-0.291983190,0.355617050,9.264492990,-0.030674050,-0.068172810,0.023075940
1640840812.182220,-0.597385640,0.353834810,9.834936140,-0.056767460,-0.008453430,0.023150440
1640840812.183960,-0.411186550,0.186473530,9.875507350,0.022880730,-0.005468730,-0.004100800
1640840812.187080,-0.452837440,0.612121280,10.360981940,0.119392600,-0.078704950,0.005626680
1640840812.188420,-0.648835180,0.687485040,9.960232730,0.054207440,-0.067327920,-0.009535250
1640840812.192050,-0.446555080,0.374436830,9.729803090,-0.027428570,-0.115123390,0.010681150
1640840812.193990,-0.571324470,0.516558710,9.877125740,-0.001251700,-0.019197170,0.009819870
1640840812.197110,-0.326599120,0.314359610,9.742999080,0.013194980,-0.042307380,-0.000993910
1640840812.198440,-0.263951150,0.359264730,10.390244480,0.050807000,-0.084739920,0.046844780
1640840812.202010,-0.136244130,0.360125180,9.613988880,0.044132770,-0.026372080,0.017791990
1640840812.203370,-0.162714750,0.172985120,10.041923520,0.004337730,-0.107109550,0.011888150
1640840812.207000,-0.507062200,0.537041600,10.338771820,-0.016617780,-0.057190660,0.031423570
1640840812.208490,-0.337562350,0.463278500,9.330543520,-0.037287180,-0.107975310,-0.005832310
1640840812.212430,-0.320994230,0.407900570,9.976312640,0.000265240,-0.106953080,0.009246170
1640840812.213440,-0.240153030,0.754801750,9.453674320,0.027830900,0.048419840,-0.006319580
1640840812.217070,-0.167565730,0.609971460,10.073874470,-0.013995170,-0.057604910,-0.008833410
1640840812.218470,-0.447149310,0.566895840,10.787914280,-0.052277750,-0.082387030,0.042003390
1640840812.222020,-0.141815130,0.313454300,9.058643340,-0.042861690,-0.109882660,0.029402970
1640840812.223380,-0.198312890,-0.134919930,9.664533620,0.022648280,-0.102680940,0.028458240
1640840812.227110,-0.266540970,0.050722640,9.623406410,0.025339420,0.060456990,0.040961800
1640840812.228900,0.009273220,-0.106328060,9.658126830,-0.004160400,-0.023506580,0.009766220
1640840812.233050,-0.345039010,-0.337277260,10.864378930,-0.009469690,-0.072290000,0.016660990
1640840812.233450,-0.217301280,-0.000428720,9.296612740,0.024402140,-0.062550600,0.010088090
1640840812.237030,-0.367207170,0.000615730,9.498218540,0.060839960,-0.121705250,-0.019876660
1640840812.238420,-0.557841480,0.301045840,9.755064960,0.015337770,0.015716250,-0.015604500
1640840812.242440,-0.256343420,0.679317410,9.262415890,0.009733440,-0.002850590,-0.011833010
1640840812.243380,-0.397908870,0.337674080,10.461884500,0.040732320,-0.052681560,-0.008530910
1640840812.247120,-0.288192180,0.503786090,9.881451610,0.073271990,-0.017094610,0.021442770
1640840812.248470,-0.337144080,0.432015150,9.835483550,0.074110930,-0.111883860,0.016869600
1640840812.252010,-0.505598010,0.045983800,9.950892450,0.012759870,-0.065746890,0.016689300
1640840812.253500,-0.227404310,0.103568110,9.200680730,0.026763980,-0.024287400,0.026814640
1640840812.257180,-0.339198620,0.046984300,10.018542290,0.069430480,-0.005251170,-0.007696450
1640840812.258710,-0.361232880,0.212689910,10.292541500,0.046220420,-0.019551820,-0.013762710
1640840812.262060,-0.331092800,0.619825960,10.021565440,0.030098860,-0.117681940,-0.006990140
1640840812.263430,-0.377637210,0.512176570,9.667065620,-0.013099610,-0.073076780,-0.024703150
1640840812.267030,-0.424525620,0.688370590,9.758418080,0.016863640,-0.037813180,0.002267960
1640840812.268400,-0.447335420,0.938937780,10.064708710,0.050310790,-0.020319230,0.017261510
1640840812.272020,-0.219210940,0.716909050,9.834413530,-0.009754300,-0.042486180,0.017485020
1640840812.273530,-0.180192890,0.629136030,9.983293530,-0.004675980,-0.058732930,0.040611620
1640840812.277390,-0.084735100,0.483127680,9.520668030,-0.009343030,-0.003230570,0.019280610
1640840812.278660,-0.236016420,0.165433030,9.986382480,-0.016906850,-0.057943160,0.018866360
1640840812.282010,-0.443315330,0.201067700,10.107339860,-0.009551640,-0.061610350,0.021760170
1640840812.283410,-0.120050550,0.006007730,9.109291080,-0.018458070,-0.047081710,-0.010825690
1640840812.287140,-0.224404870,0.024176900,9.916160580,-0.007736680,-0.017352400,-0.006483490
1640840812.288440,-0.153719160,0.381229370,9.894577030,-0.025208290,0.071932380,0.004576150
1640840812.292080,-0.217100890,0.103493470,10.062876700,-0.016725060,-0.073455280,-0.011892620
1640840812.293680,-0.498679850,0.101087760,10.164519310,0.034910440,-0.119534130,0.018508730
1640840812.297100,-0.159763220,0.273523960,8.577253340,0.031290950,-0.013132390,0.016866620
1640840812.298700,-0.382959490,0.021836980,9.773084640,0.003217160,0.015360120,0.002796950
1640840812.301980,-0.470468580,0.229441300,10.467435840,-0.011406840,0.049991910,0.009837750
1640840812.303410,-0.120065340,0.269717310,9.564867020,0.020922720,-0.072374950,-0.017444790
1640840812.307220,-0.329106120,-0.045028780,10.002925870,0.051343440,-0.082506230,0.000096860
1640840812.308450,-0.239047070,0.355556460,9.399538040,0.051842630,0.044147670,0.010833140
1640840812.312070,-0.335683670,0.288346350,9.825277330,0.020606820,-0.025512280,0.004045670
1640840812.313440,-0.532311860,0.238297810,10.477531430,-0.006021560,-0.042101730,0.018779930
1640840812.317040,-0.205185550,0.615536630,9.214568140,0.035934150,-0.015129150,0.000412760
1640840812.318540,-0.377409250,0.471332340,9.990592000,0.041536990,-0.040151180,-0.010199850
1640840812.322470,-0.388443350,0.822174190,10.205106740,0.003701450,0.025124850,0.019027290
1640840812.323480,-0.231116970,0.775685430,9.530483250,-0.017809870,-0.031439960,-0.014355780
1640840812.327430,-0.377313550,0.395644840,10.275055890,-0.014407930,-0.074030460,-0.004565720
1640840812.328480,-0.226389110,0.716430070,9.636284830,0.024928160,0.033642350,0.023931260
1640840812.332030,-0.221778450,0.490177690,9.775177000,-0.024557110,-0.015082960,0.009259580
1640840812.333420,-0.285689060,0.220231500,10.314628600,-0.057449940,-0.018268820,0.035503510
1640840812.337040,-0.036693650,0.190004740,9.308977130,-0.006079680,0.014965240,0.015771390
1640840812.338950,-0.124940340,-0.006413260,9.802661900,0.016471740,-0.014229120,0.005880000
1640840812.342050,-0.380061660,0.140410210,10.263126370,-0.002096590,0.019799170,0.024773190
1640840812.343760,-0.217206270,0.188707920,9.485499380,-0.031569600,-0.036789480,0.005862120
1640840812.347150,-0.195029420,0.139602600,9.715471270,-0.031825900,-0.022186340,0.001417100
1640840812.348380,-0.201449630,0.360142290,9.692380910,0.012338160,0.100824240,0.008241830
1640840812.352060,-0.226158740,0.412071410,9.924221990,0.018697980,0.027829410,-0.007520620
1640840812.353530,-0.519550800,0.298337550,10.367446900,0.015842910,-0.064375990,-0.000719730
1640840812.357070,-0.332938310,0.225630800,9.126111980,0.022283200,-0.018727780,0.016234820
1640840812.358440,-0.288034710,0.128259570,9.305608750,0.011280180,0.037099410,0.011260810
1640840812.362100,-0.542085050,0.045684430,10.418320660,0.017654900,0.082133710,0.006289780
1640840812.364270,-0.175416100,0.181550710,10.002893450,0.025638940,0.014676150,0.021530690
1640840812.367010,-0.253000350,0.050451410,9.979153630,0.065910820,-0.032563510,0.013820830
1640840812.368450,-0.320861010,0.002959380,9.786729810,0.064182280,0.007930400,0.007744130
1640840812.372030,-0.259386900,0.434528290,9.542142870,0.044335420,0.008682910,-0.006315110
1640840812.373440,-0.483675360,0.449934960,9.882131580,0.010211760,0.012725590,-0.018596650
1640840812.377080,-0.288766470,0.542143940,9.915084840,0.005456810,0.020660460,-0.000250340
1640840812.378540,-0.332206640,0.766475800,9.938147540,0.064499660,0.027282530,-0.004036730
1640840812.382040,-0.393606390,0.684997620,10.253532410,0.046253200,-0.015339250,-0.014509260
1640840812.383390,-0.371747200,0.892564830,10.099242210,-0.016275050,0.009195510,0.035040080
1640840812.387240,-0.450854180,0.562914670,9.551681520,-0.028778610,-0.002452730,0.014330450
1640840812.388480,-0.399025380,0.200658780,10.063877110,0.016565620,-0.016613300,0.018124280
1640840812.392330,-0.231866450,0.599403380,9.531311040,0.039048490,0.089237090,0.031898910
1640840812.393430,-0.136462910,0.313757780,9.884528160,-0.033171470,0.013136860,0.005967920
1640840812.397020,-0.072902870,0.283985470,10.454840660,-0.054498010,0.039985770,0.027370450
1640840812.398440,-0.047022510,0.421645400,9.418484690,-0.017881400,0.033696000,0.000248850
1640840812.402120,-0.313446520,0.217066030,10.172406200,-0.003521140,-0.047962370,-0.002579390
1640840812.403480,-0.351104290,0.562467280,9.577776910,-0.007869300,0.058370820,0.033758580
1640840812.407010,-0.184246810,0.432920100,9.082844730,-0.049377980,0.032967330,0.000607970
1640840812.408750,-0.347571020,0.354401770,10.431021690,-0.051063300,0.065813970,0.014835600
1640840812.412100,-0.286712020,0.429120300,9.776624680,-0.006268920,0.097791840,0.026170910
1640840812.413780,-0.414226770,0.040907770,10.189071660,0.017885860,-0.061587990,0.004300480
1640840812.417110,-0.537758230,0.048320460,9.957969670,0.018063190,0.012055040,0.023879110
1640840812.418600,-0.210549940,0.064698520,8.567078590,-0.015400350,0.047230720,0.010755660
1640840812.422040,-0.289646060,-0.175400810,10.105556490,-0.016212460,0.080765780,0.002861020
1640840812.423450,-0.288348730,-0.003964170,10.311128620,0.024309760,0.138013080,0.006552040
1640840812.427120,-0.130387740,0.112437100,9.974620820,0.065870590,-0.050762300,0.004215540
1640840812.428460,-0.465125680,0.042485610,10.139061930,0.071436170,-0.033314530,0.010816750
1640840812.432010,-0.324838460,0.296620880,8.891860960,0.034168360,0.058193500,0.009544190
1640840812.433480,-0.496147480,0.448316160,9.922607420,0.013053420,0.049355630,-0.001747910
1640840812.437040,-0.629309360,0.441870600,10.422575000,0.023487210,0.078447150,0.007271770
1640840812.438440,-0.266827580,0.570883990,9.702955250,0.082889200,-0.004771350,0.009799000
1640840812.442250,-0.518974960,0.635822590,10.242719650,0.087951120,0.001788140,-0.006999080
1640840812.443440,-0.423099190,0.703136210,9.720770840,0.005242230,0.043194000,0.013010200
1640840812.447050,-0.350344600,0.680193600,9.861362460,-0.030280660,-0.002081690,0.032648450
1640840812.448580,-0.356266140,0.291983810,9.959273340,0.009050970,0.047910210,0.013045970
1640840812.452040,-0.060959130,0.331144630,9.702858920,0.076727560,0.034022320,0.023216010
1640840812.453510,-0.244553270,0.707155050,10.102287290,0.050845740,0.042343140,0.024253130
1640840812.457000,-0.289404930,0.346621810,9.968987460,-0.065553180,0.007411840,0.013063850
1640840812.458820,-0.313349900,0.333412710,9.932785990,-0.041517620,-0.023761390,0.032967330
1640840812.462710,-0.389391090,0.344512790,9.508900640,0.034847860,0.062857570,-0.002007190
1640840812.463430,-0.332358120,0.370427250,9.941266060,0.038251280,0.031785670,0.013528770
1640840812.467040,-0.407803330,0.743870200,10.105896000,-0.009660420,0.059306620,0.033140190
1640840812.468460,-0.205948290,0.347718860,9.464970590,-0.070311140,0.019779800,0.007756060
1640840812.472010,-0.232076780,0.260247680,9.976848600,-0.009569530,0.015275180,0.044840580
1640840812.473410,-0.300721940,0.341418800,9.505750660,0.053584570,0.095802550,0.015379490
1640840812.477120,-0.329281870,0.005729880,9.983507160,0.017291310,-0.017589330,0.006583330
1640840812.479470,-0.462546590,0.191758320,9.980390550,-0.001889470,0.018440190,0.034123660
1640840812.482080,-0.113070650,0.018842900,8.884652140,-0.027546290,0.064162910,-0.000728670
1640840812.483450,-0.361086250,-0.172647630,10.511872290,0.024271020,0.048320010,0.029924520
1640840812.487120,-0.513245460,0.130298320,10.031988140,0.083971030,0.080406670,0.019082430
1640840812.488440,-0.368771230,0.045547360,9.379719730,0.069312750,-0.090864310,-0.000680980
1640840812.492420,-0.630577270,0.208548250,9.769052510,0.023357570,0.018851460,0.033611060
1640840812.493490,-0.399084660,0.456099570,8.983269690,0.006613140,0.108854490,-0.000701840
1640840812.497020,-0.557004750,0.421594740,10.698527340,0.037248430,0.002269450,0.007331370
1640840812.499100,-0.571372390,0.691550910,10.315613750,0.072066500,0.022386020,0.025796900
1640840812.502030,-0.145291880,0.651571870,9.193502430,0.065241750,-0.040939450,0.000742080
1640840812.503420,-0.461170910,0.473409890,10.302044870,0.032053890,0.027593980,0.018124280
1640840812.507040,-0.372415300,0.604360340,9.562624930,0.000381470,0.062464180,0.033999980
1640840812.508750,-0.251249520,0.278264140,9.862615590,0.013150270,-0.063452110,0.024369360
1640840812.512070,-0.381093560,0.116456280,10.004934310,0.053958600,0.018495320,0.035630160
1640840812.513560,-0.040006470,0.465752360,9.293011670,0.049023330,0.049364570,0.012502080
1640840812.517080,-0.519518260,0.511577370,10.676347730,-0.018076600,-0.009147820,0.015532970
1640840812.518520,-0.509606420,0.416015090,10.039852140,-0.054655970,-0.014390050,0.032313170
1640840812.522020,-0.294248190,0.504695000,9.407180790,0.021904710,-0.054502490,0.010873380
1640840812.523410,-0.536005020,0.578181150,9.794781680,0.033023960,0.032837690,0.009001790
1640840812.527100,-0.133287640,0.825276850,9.380976680,-0.028434400,0.054278970,0.042207540
1640840812.528540,-0.146844010,0.659374000,10.136726380,-0.073465710,0.045420230,0.031681360
1640840812.532330,-0.108308460,0.060004690,10.076229100,-0.030554830,0.021731860,0.027547780
1640840812.533430,-0.043393310,0.057218680,9.756443980,0.074827680,-0.024968380,0.026933850
1640840812.537000,-0.272055480,0.126946870,9.408796310,0.031054020,0.011168420,0.014029450
1640840812.538480,-0.097867800,-0.074059870,9.450778010,-0.076800590,0.030665100,0.030523540
1640840812.542400,-0.261702870,0.060061490,9.930333140,-0.045938790,0.116902600,0.018186870
1640840812.543480,-0.330385060,-0.256633370,9.953461650,0.043907760,0.028595330,-0.008954110
1640840812.547040,-0.601153850,0.081635390,10.333639140,0.126181540,-0.048610570,0.012858210
1640840812.548510,-0.614745560,0.596859870,9.076671600,0.034877660,0.002336500,-0.001201030
1640840812.552060,-0.470979780,0.376320300,9.261075020,-0.082539020,0.002692640,0.013580920
1640840812.553450,-0.532470290,0.571466570,10.125387190,-0.018566840,0.135932830,0.031685830
1640840812.557010,-0.179322390,0.504384820,9.766581540,0.084164740,0.064003480,-0.000549850
1640840812.558930,-0.372021170,0.446652770,10.876415250,0.113527500,-0.063262880,0.019256770
1640840812.562180,-0.313797830,0.628336070,9.450839040,0.023488700,0.022682550,0.024197990
1640840812.564310,-0.213566420,0.183795180,9.131111150,-0.066316130,-0.033432250,0.018900630
1640840812.567000,-0.552208540,0.149375070,10.379629140,-0.013861060,0.061084340,0.027330220
1640840812.568460,-0.225209610,0.376392280,9.349277500,0.054138910,0.075137620,-0.001655520
1640840812.571990,-0.344106440,0.299016950,10.478301050,0.064112250,-0.057269640,0.006601220
1640840812.573430,-0.485151260,0.561226900,10.111266140,0.014275310,0.052893170,0.023137030
1640840812.577190,-0.312190230,0.651009980,9.262604710,-0.049346690,-0.021377210,0.000467900
1640840812.578820,-0.824372650,0.591819580,10.765795710,-0.040198870,-0.028458240,0.027066470
1640840812.582190,-0.400120380,0.784439030,9.257702830,-0.015439090,0.042973460,0.023706260
1640840812.583430,-0.127778380,0.551923570,9.532183650,0.033986580,-0.014770030,0.009912260
1640840812.587030,-0.365560770,0.625056740,10.408107760,0.019869210,0.090065610,0.035303840
1640840812.588430,0.116832640,0.704789820,9.307102200,-0.065332660,0.007154050,0.037822130
1640840812.592080,-0.241916300,0.058100230,10.447929380,-0.081205350,-0.056386000,0.043796000
1640840812.593730,-0.280359150,-0.219205420,9.585053440,0.004401800,0.036890810,0.023324790
1640840812.597130,-0.047991940,-0.135337810,9.129540440,0.081276890,0.000554320,-0.007221100
1640840812.598520,-0.630073550,0.003887600,10.438119890,0.003124770,0.068245830,-0.005494060
1640840812.602020,-0.294541180,0.201725010,9.572364810,-0.086398420,0.049890590,0.005860630
1640840812.603440,-0.536319260,0.078422930,10.189693450,-0.027070940,-0.052711370,0.008356570
1640840812.607040,-0.703955470,0.111832100,9.693731310,0.072620820,0.001549720,0.003547970
1640840812.608490,-0.409833430,0.569384160,9.231992720,0.096283860,-0.007748600,0.005692240
1640840812.612290,-0.674376430,0.711766000,10.058040620,-0.004795190,0.043483070,0.006182490
1640840812.613450,-0.179397400,0.562742770,9.750151630,-0.088033080,0.036896760,0.021137300
1640840812.617030,-0.110711010,0.382685120,10.225008010,0.012569130,0.028613220,0.021755700
1640840812.618470,-0.255715910,0.356885310,10.115298270,0.092990700,-0.001633170,-0.019685930
1640840812.622030,-0.162591520,0.525139930,9.730375290,0.048172490,-0.067594650,0.003646310
1640840812.623460,-0.442069200,0.556132560,9.391217230,-0.061178210,0.029729300,0.013718010
1640840812.627220,-0.400696640,0.107505050,9.689697270,-0.080962490,0.013676290,-0.003574790
1640840812.628970,-0.570813780,0.419536050,10.446022990,0.039216880,0.034369530,0.011022390
1640840812.632050,-0.555899440,0.808679400,9.756483080,0.020793080,-0.027287010,-0.018027420
1640840812.633430,-0.398461430,0.586888250,10.005079270,-0.061592460,-0.074784470,0.005836780
1640840812.637030,-0.465457620,0.692824600,9.716758730,-0.061503060,0.068536410,0.011953710
1640840812.638540,-0.321448360,0.459532350,9.769907950,-0.029335920,-0.012791160,-0.007769470
1640840812.642290,-0.412828530,0.483381000,10.554466250,-0.009183590,-0.015938280,0.026154520
1640840812.643480,-0.121289160,0.653257250,9.134893420,-0.060784820,0.000104310,0.005301830
1640840812.647140,0.048252050,0.154838290,9.675478940,-0.086541480,-0.039069350,0.012224920
1640840812.648520,-0.175405930,0.222755060,9.951412200,-0.044870370,0.108775480,0.019066030
1640840812.651960,-0.182846840,0.226515400,9.630551340,-0.021491940,-0.030364100,-0.002756710
1640840812.653490,-0.458299100,0.031957390,10.539447780,-0.023996830,-0.076232860,0.013700130
1640840812.657110,-0.422282430,0.292947890,8.998328210,-0.064210600,0.022129720,0.010424850
1640840812.658730,-0.399276970,0.155584590,9.440105440,-0.062504410,-0.010889770,-0.010477010
1640840812.662200,-0.744630220,0.120001700,10.482163430,-0.023519990,0.083309410,0.001117590
1640840812.663450,-0.426125790,0.405518710,9.489752770,-0.005407630,-0.023759900,-0.009585920
1640840812.667030,-0.549593870,0.098606490,10.195424080,-0.001831350,-0.088021160,0.001107160
1640840812.668440,-0.483364220,0.121905800,9.314773560,-0.018545990,0.041030350,0.023981930
1640840812.671960,-0.157922300,0.268299880,9.242725370,-0.018975140,-0.011441110,-0.002820790
1640840812.673600,-0.402643920,0.186628670,10.497723580,-0.032061340,0.028850140,0.007475910
1640840812.677070,-0.093976200,0.304807870,9.527175900,-0.004829470,-0.008146470,0.014525650
1640840812.678880,-0.251940820,0.167721440,9.994832990,0.052495300,-0.079208600,-0.010183450
1640840812.682360,-0.568494200,0.353168250,9.891991620,0.018629430,-0.006726380,-0.023044640
1640840812.683450,-0.478362710,0.736415390,9.446349140,-0.050450870,-0.053933260,0.004422670
1640840812.687040,-0.734960020,0.488803150,10.215380670,-0.071820620,-0.015401840,-0.008818510
1640840812.688510,-0.501418590,0.498652820,9.675877570,-0.017674270,-0.010128320,-0.010457640
1640840812.692010,-0.365872500,0.764750780,9.872765540,0.052620470,-0.026537480,-0.006586310
1640840812.693460,-0.439671810,0.674566090,10.059824940,-0.037243970,0.000339750,-0.007919970
1640840812.697130,-0.244800630,0.596516130,9.827331540,-0.107517850,-0.076660510,0.029031930
1640840812.698570,-0.307829980,0.359645900,9.702634810,-0.074782960,-0.036278370,0.007024410
1640840812.701990,-0.173940350,0.098736790,9.508781430,-0.023120640,-0.024306770,-0.006926060
1640840812.703430,-0.219702680,0.449072390,10.031761170,0.001256170,-0.015881660,0.016915800
1640840812.707080,-0.129568280,0.368978410,9.728423120,-0.087960070,0.021493430,-0.014488400
1640840812.708450,-0.178734350,0.243930120,10.095250130,-0.124901560,-0.056113310,0.007298590
1640840812.712050,-0.432591890,0.496821940,9.940722470,-0.058954970,-0.017587840,0.003843010
1640840812.713440,-0.425104890,0.265395310,9.294058800,-0.038668520,-0.067450110,-0.024186070
1640840812.717000,-0.471322150,0.500683960,9.769343380,-0.048112870,-0.048883260,-0.000163910
1640840812.718460,-0.237121690,0.507509830,9.127939220,-0.089277330,0.090821090,-0.022065640
1640840812.722130,-0.180314140,0.107652070,10.237116810,-0.092080220,-0.000764430,-0.021292270
1640840812.723470,-0.453398290,0.252702680,10.760457040,-0.041927400,-0.008666520,-0.006820260
1640840812.727400,-0.236800070,0.003118590,9.176723480,-0.034548350,-0.098620370,-0.038188700
1640840812.728580,-0.479984190,-0.118332340,9.683903690,-0.025087590,-0.102612370,-0.004820530
1640840812.731990,-0.410797060,0.143612410,8.936437610,-0.054183610,0.097203270,-0.015963620
1640840812.733440,-0.223493070,-0.018175700,9.864396100,-0.067375610,0.006553530,-0.027909880
1640840812.737090,-0.616274890,0.080323380,11.180581090,-0.005537270,-0.015591080,0.003844500
1640840812.738580,-0.219323440,0.288719560,9.176061630,0.022539500,-0.080312800,-0.028675800
1640840812.741980,-0.498728280,0.225543190,9.873316760,0.009669360,-0.123058270,-0.024630130
1640840812.743420,-0.685056630,0.600468870,9.605793950,-0.052671130,0.053684420,-0.020346050
1640840812.747160,-0.375237730,0.637562040,9.416313170,-0.069932640,-0.040902200,-0.048497310
1640840812.748530,-0.613725070,0.443407740,10.675207140,-0.016210970,-0.063720350,-0.023038690
1640840812.751990,-0.130301510,0.655011830,9.309251790,0.025194890,0.014548010,-0.029714410
1640840812.753640,-0.366020530,0.615553260,10.233794210,-0.013345480,-0.086519130,-0.032603740
1640840812.757040,-0.733675180,0.558920380,10.501698490,-0.096423930,-0.048455600,0.009754300
1640840812.758490,-0.203722270,0.417639050,8.978326800,-0.100889820,-0.089702010,0.001557170
1640840812.762060,-0.500181850,0.013018210,10.157279970,-0.005568560,-0.055742270,-0.010392070
1640840812.763510,-0.364797470,0.371952060,9.733534810,0.026541950,0.037147100,-0.014130770
1640840812.767000,-0.195424050,0.633663120,9.916476250,-0.060652200,-0.089868900,-0.020661950
1640840812.768470,-0.502235000,0.370555850,10.422060010,-0.151976960,-0.075875220,-0.017538670
1640840812.771990,-0.156512470,0.387588740,9.344954490,-0.083576130,-0.068645170,-0.027564160
1640840812.773470,-0.350499030,0.476006600,9.793811800,0.017824770,-0.071704400,-0.037723780
1640840812.777340,-0.254740030,0.705833440,9.608550070,-0.046239800,-0.004898010,-0.013589860
1640840812.778560,-0.073851060,0.625401260,9.729024890,-0.117436060,-0.027114150,0.004579130
1640840812.782040,-0.338270660,0.155393620,10.067699430,-0.105136640,-0.039853160,0.004784760
1640840812.783460,-0.366518830,-0.075542040,9.832782750,-0.020441410,-0.097095970,0.002929570
1640840812.787080,-0.554583430,0.003274020,9.617547990,0.019262730,-0.076691810,-0.010360780
1640840812.788550,-0.546362040,-0.176669610,9.385340690,-0.073757770,-0.044994060,-0.034418710
1640840812.792020,-0.469639390,-0.057598940,9.911368370,-0.094927830,-0.019726160,-0.024712080
1640840812.793510,-0.372909810,0.069272880,9.682477950,-0.044700500,0.013265010,-0.034561760
1640840812.797110,-0.419352020,-0.047096910,10.232113840,0.020651520,-0.105687980,-0.040684640
1640840812.798760,-0.460633040,0.394822060,9.964257240,0.039909780,-0.090412800,-0.013665860
1640840812.802380,-0.284521610,0.392048630,8.908787730,-0.032058350,-0.086823100,-0.019641220
1640840812.803490,-0.433832760,0.196519320,10.128225330,-0.043481590,-0.042553250,-0.009991230
1640840812.807030,-0.368573900,0.548109290,9.925177570,-0.004942720,0.043615700,-0.025501840
1640840812.808440,-0.402026680,0.473715630,10.297722820,0.011272730,-0.134460630,-0.043539700
1640840812.812120,-0.581182240,0.482636780,10.278983120,-0.002765660,-0.122226780,-0.020641090
1640840812.814580,-0.366570470,0.548382100,8.726794240,-0.034841900,-0.065563630,-0.040392580
1640840812.817020,-0.609123590,0.330904010,10.232624050,-0.033113360,-0.094158950,-0.036709010
1640840812.818850,-0.527049360,0.429234650,10.161319730,-0.041383500,0.008861720,-0.013555590
1640840812.822030,-0.224931540,0.347321000,9.678563120,-0.026685010,-0.132565230,-0.030183800
1640840812.823440,-0.322580160,0.139225680,10.451293950,-0.002388660,-0.111655900,-0.024513900
1640840812.827470,-0.018403860,0.545536460,8.979301450,-0.042219460,-0.006797910,-0.022955240
1640840812.828530,-0.328054490,0.403441010,10.168899540,-0.076660500,-0.126443790,-0.027781720
1640840812.832000,-0.480762690,0.207700450,10.276354790,-0.070087610,-0.064386430,-0.012677910
1640840812.833550,-0.056210200,0.385421990,8.845031740,-0.005386770,-0.098849860,-0.038529930
1640840812.837060,-0.381727580,0.417130620,10.224922180,-0.013637550,-0.073629620,-0.028730930
1640840812.838520,-0.176720690,0.641366180,9.602525710,-0.095552210,0.042709710,-0.010374190
1640840812.841950,-0.208939820,0.418552760,10.014970780,-0.092719500,-0.114680830,-0.022798780
1640840812.843680,-0.509451450,0.016319390,10.370800970,-0.015205150,-0.092040010,-0.018307570
1640840812.847060,-0.210536970,0.047051030,8.798658370,0.046269610,-0.077547130,-0.021438300
1640840812.848720,-0.552965520,0.075409890,9.797733310,0.004310910,-0.077840680,-0.034585590
1640840812.852020,-0.338482920,0.073804730,9.711699490,-0.105258830,0.017467140,-0.027216970
1640840812.853530,-0.155084070,0.031582390,9.768037800,-0.059162080,-0.059950340,-0.030088430
1640840812.857020,-0.386994510,-0.108644890,10.361550330,0.036329030,-0.068107250,-0.045911980
1640840812.858530,-0.187729870,0.181824580,9.504883770,0.074252490,-0.080497570,-0.049501660
1640840812.862110,-0.434745100,0.499508710,9.638008120,0.012132530,-0.086878250,-0.035004320
1640840812.866340,-0.322840450,0.312577810,9.406786920,-0.099010760,-0.023493170,-0.040568400
1640840812.867040,-0.354161020,0.321018990,9.953829770,-0.027540320,-0.032371280,-0.033448640
1640840812.868620,-0.456650910,0.512412850,10.087287900,0.051081180,-0.036714970,-0.049629810
1640840812.871970,-0.426613930,0.458147620,10.060565950,0.037148600,-0.112096970,-0.051935020
1640840812.873440,-0.613627020,0.605983910,9.890209200,-0.020077820,-0.091575090,-0.021278860
1640840812.877460,-0.362899150,0.403381320,9.217473030,-0.084331630,-0.046411160,-0.057816510
1640840812.878520,-0.415557800,0.314026710,10.221952440,-0.034062570,-0.037793820,-0.045995410
1640840812.882060,-0.328660190,0.621267020,9.953156470,-0.001178680,-0.016228850,-0.049053140
1640840812.883620,-0.039713490,0.309950260,9.734869000,-0.008791690,-0.115415460,-0.062052900
1640840812.887060,-0.214415090,0.386783810,10.039961810,-0.026877230,-0.052765020,-0.025112930
1640840812.888490,-0.103230470,0.438321230,9.309974670,-0.059761110,-0.013914700,-0.035500530
1640840812.891970,-0.387165760,0.124362360,10.440371510,-0.055007640,-0.097244980,-0.028103600
1640840812.893640,-0.307357640,0.340936630,9.740243910,-0.035540760,-0.043646990,-0.016507500
1640840812.897220,-0.000023240,0.258598030,9.003490450,-0.008854270,-0.042627760,-0.054147840
1640840812.898470,-0.355842380,0.253618000,10.331730840,-0.024364890,-0.002101060,-0.042705240
1640840812.902000,-0.226223390,0.564265130,9.612215040,-0.069427500,0.006006660,-0.032767660
1640840812.903460,-0.394611540,0.051134700,10.116519930,-0.056599080,-0.128281130,-0.053322320
1640840812.906980,-0.495496960,0.028892870,9.754088400,-0.008010860,-0.050289930,-0.027911370
1640840812.908480,-0.146495550,0.221911890,8.704006200,0.028279430,-0.011935830,-0.058628630
1640840812.912060,-0.459225540,0.043148860,10.376173970,-0.029653310,0.017681720,-0.071525570
1640840812.913500,-0.203486580,0.344816540,9.926793100,-0.074549030,0.026968130,-0.035169720
1640840812.917270,-0.155370560,-0.010791670,9.780488970,-0.001224880,-0.102116150,-0.053538380
1640840812.918530,-0.358377930,-0.081381210,9.863410950,0.053307410,-0.053015360,-0.053350630
1640840812.921980,-0.234553170,0.414632530,8.999280930,0.049033760,-0.001811980,-0.053693350
1640840812.923450,-0.540308540,0.129499880,10.101933480,-0.037345290,-0.027127570,-0.067429250
1640840812.927380,-0.387062940,0.279725850,9.935724260,-0.062324110,-0.003296140,-0.043495000
1640840812.928540,-0.261222480,0.293932290,9.685468670,0.038775810,-0.025318560,-0.062637030
1640840812.933650,-0.485694830,0.156193490,10.412883760,0.064408790,-0.025537610,-0.070564460
1640840812.934120,-0.438823550,0.626100480,9.758312230,0.031711160,-0.045542410,-0.041086970
1640840812.937000,-0.469753380,0.488196580,9.526490210,-0.044859940,-0.069034090,-0.055482980
1640840812.938520,-0.355439630,0.309110760,9.736156460,-0.054462250,-0.006021560,-0.049710280
1640840812.941970,-0.303963480,0.620890620,9.810701370,0.029893230,0.020803510,-0.053808100
1640840812.943750,-0.339236740,0.641815840,10.279735570,0.004588070,-0.040660790,-0.069814930
1640840812.947360,-0.217382270,0.609282310,9.968084340,-0.041168940,-0.049333290,-0.046709180
1640840812.948600,-0.216112750,0.545843060,9.621847150,-0.049428640,-0.020584470,-0.068812080
1640840812.951990,-0.324997250,0.312732760,10.051351550,-0.037549440,-0.021593270,-0.064851350
1640840812.953520,-0.324248760,0.409328610,9.814447400,-0.019921360,-0.041104850,-0.029771040
1640840812.956990,-0.082146210,0.317007660,9.419740680,-0.042617320,-0.014726820,-0.045292080
1640840812.958540,-0.125946970,0.124495800,9.955101010,-0.043953960,0.029425330,-0.048291690
1640840812.962030,-0.204966780,0.385619550,9.974326130,-0.041662160,0.018441680,-0.040565430
1640840812.963600,-0.297834340,0.234567200,10.055207250,-0.049828000,-0.055059790,-0.055949400
1640840812.966990,-0.432308200,0.027576260,9.843109130,-0.026121740,-0.057716680,-0.047510870
1640840812.968460,-0.262014510,0.328782140,9.066120150,-0.002242620,0.007358190,-0.063559410
1640840812.971960,-0.315972630,0.316811470,9.592267040,-0.035020710,0.055524720,-0.067763030
1640840812.973430,-0.299538940,0.194997430,10.162499430,-0.052768000,0.045996920,-0.039368870
1640840812.977380,-0.220926060,0.245710700,9.922355650,-0.011529030,-0.030513110,-0.060376540
1640840812.978560,-0.343459490,-0.166061640,9.706855770,0.030817100,-0.061573100,-0.048379610
1640840812.982590,-0.282702920,0.056778360,9.315168380,0.029256940,0.010181960,-0.037810210
1640840812.983620,-0.383055060,0.217619090,9.664796830,-0.017413500,0.054059920,-0.074769560
1640840812.987080,-0.378168200,0.007892760,10.151124950,-0.060524040,0.013360380,-0.057534870
1640840812.988490,-0.272498130,0.303734330,9.907369610,0.021946430,0.003848970,-0.044052300
1640840812.992020,-0.369320570,0.107316170,9.597495080,0.081560000,-0.013256070,-0.068753940
1640840812.993640,-0.547356370,0.377539400,9.993823050,0.047318650,-0.028832260,-0.038051610
1640840812.997360,-0.608108220,0.690777120,9.505268100,-0.032867490,0.004540380,-0.050161780
1640840812.998600,-0.410912010,0.147046970,9.558730130,-0.066174570,-0.021138790,-0.053954130
1640840813.001980,-0.394689470,0.426206170,10.185805320,0.050826380,0.056572270,-0.046028200
1640840813.003470,-0.330894350,0.612798810,9.929359440,0.078125310,0.028817350,-0.085125850
1640840813.006960,-0.394947500,0.623854280,10.425109860,-0.020109120,-0.097039340,-0.040195890
1640840813.008500,-0.412269030,0.836679340,9.485444070,-0.088161240,-0.020211940,-0.027526920
1640840813.012460,-0.161636070,0.191250590,9.175555230,-0.064353650,-0.021433830,-0.056134180
1640840813.013540,-0.395713090,0.406294640,10.449448590,0.040467080,0.051361320,-0.020734970
1640840813.017010,-0.183090000,0.632990300,9.733533860,0.025762620,0.041377540,-0.039494040
1640840813.018480,-0.180038110,0.245122780,10.324049000,-0.070419890,-0.075685990,-0.030210620
1640840813.022050,-0.336886170,0.533985380,9.812111850,-0.098502640,0.014622510,-0.026462970
1640840813.023500,-0.232767400,0.310549110,9.170598030,-0.069375330,-0.009623170,-0.068211560
1640840813.027020,-0.574358340,0.306555990,10.479270940,-0.013540690,-0.005206470,-0.032885370
1640840813.028710,-0.337939110,0.578501280,9.242927550,-0.010950860,0.034117700,-0.043295320
1640840813.033320,-0.115263460,0.307517620,9.602637290,-0.061601400,-0.024412570,-0.041177870
1640840813.033800,-0.331674370,0.415287080,10.256773950,-0.095336140,0.097723310,-0.001844760
1640840813.036980,-0.151749570,0.210132580,9.640147210,-0.067177410,0.010536610,-0.031083830
1640840813.038460,-0.452048750,-0.152375980,10.579366680,0.008042160,-0.082576270,-0.021737810
1640840813.042270,-0.228070380,0.208514140,8.820096970,0.017212330,0.028979780,-0.018896160
1640840813.043490,-0.088121090,0.151452210,9.108174320,-0.049421190,0.030432640,-0.047135350
1640840813.047080,-0.301104010,0.050342250,10.549930570,-0.096966310,0.130707010,-0.023062520
1640840813.048540,-0.106998840,0.155439090,9.791876790,-0.017464160,0.044707950,-0.043027100
1640840813.051980,-0.383924960,-0.063884270,10.404956820,0.075253850,-0.100973250,-0.052122780
1640840813.053500,-0.395386100,0.273539160,9.161350250,0.043177600,0.039961930,-0.028133400
1640840813.057150,-0.362953390,0.482429470,9.018143650,-0.048604620,0.048446670,-0.045542420
1640840813.058610,-0.716070000,0.202927620,10.585549350,-0.081919130,0.068081920,-0.038945680
1640840813.062220,-0.315579590,0.394721750,9.525505070,0.015181300,0.030797720,-0.032773610
1640840813.063460,-0.368209540,0.350913350,9.945557590,0.100117920,-0.037254390,-0.052672630
1640840813.066970,-0.532622640,0.468911170,10.088856700,0.019416220,0.071586680,-0.022010510
1640840813.068480,-0.439002600,0.640502390,9.584000590,-0.058044500,-0.010016560,-0.017394130
1640840813.071960,-0.522196170,0.113418040,10.128338810,-0.065737970,-0.027535860,-0.019846860
1640840813.073650,-0.191448820,0.303317040,9.354536060,0.026348240,0.073869520,-0.015345220
1640840813.076960,-0.340350540,0.671495200,10.018865590,0.055962800,0.024624170,-0.020840770
1640840813.079080,-0.348879580,0.512158750,10.378503800,-0.063154100,0.010944900,-0.007627900
1640840813.083120,-0.143966360,0.587215900,9.387338640,-0.074991580,-0.007998940,-0.004218520
1640840813.083570,-0.288007410,0.304571270,9.862792970,-0.032569470,0.010327990,-0.030501190
1640840813.087070,-0.379506140,0.410105620,9.958314900,0.010837620,0.070674700,-0.031238790
1640840813.088510,-0.437602040,0.729672130,9.730715750,-0.019714240,-0.017239160,-0.015674530
1640840813.092000,-0.302128580,0.338347230,9.822544100,-0.115224740,0.005912780,-0.023977460
1640840813.093520,-0.207459050,0.326024650,9.466327670,-0.071589660,0.075562310,0.001178680
1640840813.097090,-0.338369280,0.243550240,9.851646420,-0.008590520,0.028030570,-0.010928510
1640840813.099640,-0.441716130,0.071861390,10.363634110,-0.018620490,0.006531180,-0.009278950
1640840813.101970,-0.365192230,0.168302010,9.438614850,-0.035269560,-0.008077920,0.013169650
1640840813.103460,-0.140949470,-0.074716920,9.251430510,-0.061656530,0.008249280,-0.019824510
1640840813.107010,-0.218140360,-0.010714470,9.794618610,-0.031629200,0.137278450,-0.018197300
1640840813.108470,-0.135095340,0.198564810,9.785112380,0.002586840,0.077433890,-0.017200410
1640840813.112070,-0.292372760,-0.023395120,10.392064090,0.010660290,-0.031594940,-0.028631090
1640840813.113540,-0.402835670,0.094381660,9.445510860,0.022913510,0.007972120,-0.000961120
1640840813.116970,-0.360596600,0.212881950,9.126177790,-0.001358990,0.010506810,-0.020726030
1640840813.118570,-0.713989680,0.060070120,10.260001180,-0.025892260,0.091020760,-0.035056460
1640840813.122160,-0.479716150,0.323503700,9.749187470,0.010931490,0.065566610,-0.028832260
1640840813.123560,-0.475797980,0.262253430,10.164806370,0.054313240,-0.017707050,-0.028754770
1640840813.127020,-0.507945950,0.206062330,9.786646840,0.052528090,0.045199700,-0.019235910
1640840813.128760,-0.267994200,0.557167290,9.423962590,0.012049080,-0.003311040,-0.013059380
1640840813.132120,-0.510946090,0.297296760,10.151083950,-0.025995080,0.032900270,-0.019612910
1640840813.133450,-0.180116010,0.221900820,9.495185850,0.006321070,0.047700110,-0.005203490
1640840813.137040,-0.223522560,0.358693030,10.003562930,0.084404650,0.010949370,-0.026103860
1640840813.138530,-0.402507100,0.459863310,10.040860180,0.033806270,0.039260090,-0.042249260
1640840813.141960,-0.240174440,0.753117740,9.589121820,-0.053299970,-0.017634040,-0.014252960
1640840813.143500,-0.539643410,0.468691380,9.956370350,-0.066204380,0.027276580,-0.031676890
1640840813.147120,-0.413118030,0.358275800,9.656949040,0.014744700,0.037895150,-0.034764410
1640840813.149540,-0.479986430,0.817384600,9.969610210,0.063636910,0.020904840,-0.008590520
1640840813.152040,-0.518200160,0.594669700,9.852025990,-0.044673680,0.025890770,-0.006332990
1640840813.153840,-0.202307980,0.349838050,9.538972850,-0.085160160,-0.005805490,0.021229690
1640840813.157000,-0.323702540,0.152536870,9.642050740,-0.016696750,0.061269110,-0.007647280
1640840813.158570,-0.250660480,-0.065759720,9.832284930,0.027559700,0.037211180,-0.021956860
1640840813.162170,-0.326399830,0.170221970,10.052323340,0.024014710,-0.006069240,-0.005452330
1640840813.163540,-0.245275690,0.000865910,9.363677980,-0.055648390,0.013852120,-0.040563940
1640840813.167010,-0.161797110,-0.005790100,9.622840880,-0.044345860,0.032481550,-0.021150710
1640840813.168470,-0.300649080,0.275724350,9.660425190,0.008845330,0.100401040,-0.023652610
1640840813.172020,-0.407824580,0.222024190,10.082085610,0.019203130,-0.000119210,-0.033479940
1640840813.173490,-0.581315160,0.316176620,10.151453970,0.036706030,-0.033658750,0.001420080
1640840813.177000,-0.435530870,0.228954020,8.957706450,-0.002604720,0.008338690,-0.016969440
1640840813.178830,-0.528933640,-0.008082610,9.823801040,0.007131700,0.043779610,-0.015439090
1640840813.182680,-0.535794260,0.291437690,10.008790020,0.026690960,0.105211140,-0.021955370
1640840813.183520,-0.388591050,0.187553230,9.914525990,0.017000740,-0.047095120,-0.045856830
1640840813.187020,-0.342766400,0.151763190,9.951888080,0.037541990,-0.029288230,-0.014355780
1640840813.188520,-0.115505110,0.340263520,9.019504550,0.028376280,0.068140030,-0.033426280
1640840813.191970,-0.474830150,0.228552730,10.400470730,0.024656950,0.021445750,-0.039072330
1640840813.193520,-0.524325790,0.468862470,10.224173550,0.015819070,0.010235610,-0.017166140
1640840813.197070,-0.282065180,0.458918010,9.324704170,0.009165700,-0.055000190,-0.035305320
1640840813.198620,-0.480255130,0.341907740,10.032494540,0.042347620,0.013588370,-0.022813680
1640840813.202060,-0.270642580,0.795815710,9.562732700,0.019009410,0.082233550,-0.022345780
1640840813.203480,-0.507089560,0.621954500,10.345965390,-0.020280480,-0.036476560,-0.029842560
1640840813.206980,-0.458968910,0.479071200,10.087246890,-0.008976460,-0.022961200,-0.016649070
1640840813.208490,-0.248872620,0.678553580,9.089387890,0.009325150,-0.018276280,-0.030146540
1640840813.212300,-0.501042780,0.500240740,10.023283960,-0.011463470,0.007063150,-0.015947220
1640840813.213510,-0.135764450,0.542204260,9.698266030,-0.051462650,0.065396730,0.002287330
1640840813.217020,-0.215800550,0.189085930,9.838457110,-0.031307340,-0.007469950,-0.027082870
1640840813.218700,-0.258760300,0.018237570,10.096265790,0.008943680,-0.020617240,-0.010283290
1640840813.222040,-0.186499280,0.268028110,9.348855970,0.007964670,0.029470030,-0.007388000
1640840813.223450,-0.614385660,-0.027562610,10.005524640,-0.042815510,-0.046421590,-0.033181910
1640840813.227030,-0.418995170,0.087509390,9.661846160,-0.037942830,-0.013087690,-0.020472710
1640840813.228780,-0.305983780,0.270658310,9.017270090,0.004753470,0.036014620,-0.047165160
1640840813.232120,-0.357543950,0.137154460,10.194641110,0.015021860,0.041201710,-0.030286610
1640840813.233540,-0.376435610,0.459264580,10.333743100,0.026538970,0.048153100,-0.014050300
1640840813.237010,-0.488041400,0.159926520,9.796298980,0.006268920,-0.111153710,-0.022101400
1640840813.238560,-0.437590660,0.066528010,9.569808960,0.016601380,-0.076316300,0.004962090
1640840813.241980,-0.310723630,0.205179800,8.871998790,0.030882660,0.099828840,-0.026704370
1640840813.243470,-0.497872200,0.038182940,10.351194380,0.021441280,0.012105700,-0.033801790
1640840813.247070,-0.488949480,0.294395860,10.576514240,0.045618410,-0.005646050,-0.009430950
1640840813.249830,-0.279084830,0.261176850,9.211102490,0.030320880,-0.084860630,-0.050485140
1640840813.252010,-0.448741760,0.329653020,10.065874100,0.028817360,-0.071847450,-0.026859350
1640840813.254170,-0.516483010,0.635693010,9.543721200,0.019970540,0.069357460,-0.029394030
1640840813.257030,-0.506157160,0.407358830,10.024474140,0.008051100,-0.080779210,-0.039355460
1640840813.258540,-0.548220400,0.496735810,10.472718240,0.055067240,-0.052492320,0.011073050
1640840813.262220,-0.088221010,0.513469460,8.965476990,0.035116080,-0.001265110,-0.031536820
1640840813.263530,-0.374743100,0.496071100,10.470658300,-0.003319980,-0.059093540,-0.009533760
1640840813.267170,-0.399750200,0.549800570,10.094174390,-0.021581350,0.003643330,-0.002323090
1640840813.268530,-0.060429540,0.192596900,9.267244340,0.000616910,-0.103098150,-0.038774310
1640840813.271970,-0.370959580,0.321969810,10.334765430,0.051654880,-0.037541990,0.004273650
1640840813.273470,-0.068342450,0.631413160,9.145738600,-0.003196300,0.057391830,-0.006821750
1640840813.277000,-0.232821170,0.297715070,10.261642460,-0.055341420,-0.081028050,-0.005240740
1640840813.281160,-0.347817090,0.348998280,10.163153650,-0.022704900,-0.012899940,0.006702540
1640840813.282430,-0.074339480,0.278747500,8.968959810,0.032508380,-0.046370920,-0.038848820
1640840813.283530,-0.644259330,0.298746050,10.298202510,0.030058620,-0.061215460,-0.009500980
1640840813.287100,-0.321424480,0.584976020,9.227585790,-0.049099330,0.030633810,-0.002108510
1640840813.288560,-0.149201200,0.117271430,9.560368540,-0.055438280,-0.032877920,-0.013038520
1640840813.291990,-0.380934770,0.180959030,10.423669820,0.012831390,0.027470290,0.011207160
1640840813.293510,-0.056926930,0.295819280,9.288404460,0.058798490,0.000678000,0.007164480
1640840813.297050,-0.547912120,-0.122776810,10.348261830,0.036470600,-0.096914170,0.000754000
1640840813.298740,-0.452543140,0.191958760,9.446020130,-0.015190240,-0.021545590,0.018528110
1640840813.302070,-0.304104090,-0.023538380,8.923007970,-0.012733040,-0.033563370,-0.019024310
1640840813.303480,-0.476167620,-0.026936890,10.131883620,0.025154650,0.021614140,-0.015820560
1640840813.306980,-0.330426450,0.530503390,9.839846610,0.070519750,0.043609740,-0.024183100
1640840813.308510,-0.571329710,0.284941880,10.289513590,0.039847200,-0.120158500,-0.023496150
1640840813.312220,-0.611568510,0.498821110,9.775472640,0.013487040,-0.096724910,0.015558300
1640840813.313610,-0.407758830,0.527070820,8.715690610,0.019249320,-0.026655200,-0.009135900
1640840813.317220,-0.525451720,0.251923410,10.089642520,0.015240910,-0.012323260,-0.012546780
1640840813.318520,-0.452689320,0.589850660,10.305103300,0.051578880,0.020132960,0.013571980
1640840813.321990,-0.271691650,0.243520830,9.787243840,0.039677330,-0.096555040,-0.016276540
1640840813.323500,-0.371930270,0.328300270,10.258112910,0.017611680,-0.116400440,0.011937320
1640840813.326960,-0.359901040,0.651070300,9.248824120,-0.019036240,-0.013163690,0.002045930
1640840813.328810,-0.388607410,0.207419460,9.844856260,-0.039470200,-0.088022650,-0.011058150
1640840813.332970,-0.506137010,0.521788540,10.266120910,0.033958260,-0.031319260,0.011156500
1640840813.334130,-0.127459500,0.662256060,9.233922000,0.044012070,-0.043033060,-0.024573510
1640840813.337000,-0.278102520,0.705791120,10.440213200,-0.039599840,-0.080108650,0.021432340
1640840813.338580,-0.302089900,0.982938530,9.697485920,-0.088012230,0.001294910,0.029058760
1640840813.341970,-0.171182650,0.371005000,9.519359590,-0.060662630,-0.127570350,-0.006614630
1640840813.343470,-0.487701180,0.421102580,10.127665520,0.033684080,-0.055250530,0.020574030
1640840813.347170,-0.231943410,0.662977990,8.866065980,-0.001861150,-0.024428970,0.001832840
1640840813.349980,-0.246120690,0.227063330,10.191747670,-0.094334790,-0.071538980,0.020842250
1640840813.351940,-0.190874290,0.260111960,9.828850750,-0.104278330,0.045542420,0.030602520
1640840813.353600,0.037559840,-0.053072590,9.552136420,-0.021517280,-0.071719300,-0.006949900
1640840813.356980,-0.423743580,-0.148843690,10.545757290,0.046692790,-0.058841710,0.026069580
1640840813.358570,-0.217039420,0.254241850,8.813224790,-0.003080070,-0.037164980,0.022920960
1640840813.362300,-0.286362920,-0.113976620,9.617498400,-0.064119700,-0.095315270,0.004523990
1640840813.363570,-0.372571770,0.121762190,9.614293100,-0.061419620,0.060959170,0.012686850
1640840813.368750,-0.034017800,0.361276660,9.377808570,-0.001710650,0.005868080,-0.007641320
1640840813.369370,-0.485301820,0.204126510,11.011585240,0.036904220,-0.047110020,-0.008338690
1640840813.371970,-0.320816370,0.683684710,9.377109530,0.012274090,-0.055870420,0.014670200
1640840813.373460,-0.355476620,0.371448580,9.323421480,-0.016288460,-0.114670400,0.009576970
1640840813.377040,-0.572271230,0.199314860,9.749261860,-0.033248960,0.054471210,0.018535550
1640840813.379190,-0.356521280,0.491593600,9.431092260,0.009745360,0.015662610,0.007806720
1640840813.382040,-0.596145330,0.179714550,10.618576050,0.021542610,-0.083830960,0.000603500
1640840813.384330,-0.280705900,0.329645600,9.615910530,0.002628570,-0.037764020,0.014881790
1640840813.387160,-0.221391260,0.365845860,9.508356090,0.011371080,-0.056092440,-0.006465610
1640840813.388540,-0.473339590,0.270993740,10.422943120,-0.042250740,0.000001490,-0.010524690
1640840813.393680,-0.245181190,0.588869210,9.606759070,-0.026197740,-0.030779840,0.013750790
1640840813.395010,-0.382094830,0.389548030,9.788128850,0.024451320,-0.102598970,-0.006634000
1640840813.397570,-0.461201730,0.765952940,9.341669080,0.008572640,-0.029833620,0.010241570
1640840813.398610,-0.773601170,1.374472260,8.954234120,-0.076970450,-0.100617100,0.028406080
1640840813.402020,-1.425389410,1.024114850,9.882554050,-0.184044230,-0.138951840,0.038094810
1640840813.403600,-1.889404300,1.208239790,9.357654570,-0.122608250,-0.164996100,0.053197150
1640840813.407140,-2.370773550,1.261783960,9.399303440,-0.085698070,-0.311453670,0.029182440
1640840813.414900,-2.201664920,1.408354040,9.206566810,-0.181111680,-0.239579350,0.042100240
1640840813.415860,-1.426571490,1.545663600,8.461359020,-0.280238690,-0.204539310,0.027994810
1640840813.416430,-0.679205420,0.782198550,9.746304510,-0.299292830,-0.171761230,0.012503570
1640840813.416970,0.393640160,0.608906330,9.053197860,-0.170144450,-0.145028530,0.008478760
1640840813.419440,0.753386860,-0.015416250,9.258899690,-0.115624080,-0.326840580,-0.005148350
1640840813.422010,0.798917350,-0.274142270,8.900669100,-0.194326040,-0.291727510,0.017812850
1640840813.423540,0.564123810,-0.264200090,7.703290940,-0.305514070,-0.326199860,-0.011616940
1640840813.427970,-0.216210310,-0.485396060,8.989594460,-0.334416390,-0.297702940,-0.021852550
1640840813.429280,-0.717113260,0.001666560,8.849545480,-0.209276410,-0.205960910,-0.065049540
1640840813.432100,-1.480273720,0.275362220,9.998094560,-0.159594430,-0.374825300,-0.107049950
1640840813.433560,-1.613441820,0.715217890,9.550782200,-0.181360560,-0.334583250,-0.042599440
1640840813.437000,-1.269873620,0.678801660,8.285058020,-0.249516950,-0.327579620,-0.037373610
1640840813.438600,-0.809004250,0.295801850,9.190117840,-0.252336260,-0.249835890,-0.003094970
1640840813.442150,0.050217290,0.234712210,8.554039000,-0.161336360,-0.158926860,-0.001366440
1640840813.444140,0.655057790,-0.373631570,9.164836880,-0.108584760,-0.309324260,-0.034517050
1640840813.447380,0.891831990,-0.378934030,9.040926930,-0.088420520,-0.251992050,-0.012670460
1640840813.448520,0.982472000,-0.204516920,8.047678950,-0.182090710,-0.321580470,-0.081379710
1640840813.452040,0.257993970,-0.161672980,9.489395140,-0.250165190,-0.300309060,-0.088846690
1640840813.453760,-0.103107610,0.337502840,8.363797190,-0.186994690,-0.222553330,-0.100430860
1640840813.458080,-0.665968060,0.402319670,9.325081830,-0.108163070,-0.347718690,-0.134973230
1640840813.459410,-1.115963100,0.984115420,9.219770430,-0.087876620,-0.203900050,-0.089566420
1640840813.462000,-0.918816390,1.210902570,8.504109380,-0.205802920,-0.284297790,-0.078192350
1640840813.464020,-1.129477380,0.599428770,9.918010710,-0.247661810,-0.256003470,-0.038601460
1640840813.467000,-0.276506720,0.363263130,8.278183940,-0.162205110,-0.198036430,-0.037422780
1640840813.468600,0.106540580,-0.198116730,9.351981160,-0.055100020,-0.259904590,-0.061132020
1640840813.472350,0.438849270,-0.098685940,9.057791710,-0.091031220,-0.119270380,-0.038616360
1640840813.474390,0.987427120,-0.107858540,8.509866710,-0.209826230,-0.259038810,-0.070942950
1640840813.477190,0.401219670,-0.526657760,9.437436100,-0.230194670,-0.210399930,-0.093932460
1640840813.478650,0.392480460,-0.019022150,8.043910030,-0.117552300,-0.201346010,-0.129590930
1640840813.482050,-0.631568670,0.374455510,9.384787560,-0.071410830,-0.296682210,-0.167845190
1640840813.483520,-0.929588740,0.900470730,8.630023000,-0.163690730,-0.209331530,-0.144842270
1640840813.487090,-1.061841370,1.085893150,8.675999640,-0.228242620,-0.262160600,-0.147506610
1640840813.489320,-1.425543070,0.738890230,9.524598120,-0.194799910,-0.176961720,-0.132986900
1640840813.492120,-0.773791130,0.661910410,8.888116840,-0.095571580,-0.233241900,-0.115408000
1640840813.493620,-0.821088370,0.172523570,9.510590550,-0.074797870,-0.257070300,-0.112785410
1640840813.497090,0.041708580,-0.391396310,8.471265790,-0.125178690,-0.231891890,-0.083097820
1640840813.499130,0.461207810,-0.707372960,8.564805030,-0.131739680,-0.207942740,-0.087156900
1640840813.502020,0.820206760,-1.073591350,8.712900160,-0.113998360,-0.123904660,-0.133550180
1640840813.503640,0.691885050,-0.860431490,9.478585240,-0.030227010,-0.208076830,-0.140811520
1640840813.507670,0.037164930,-0.534541610,9.033120160,-0.000186260,-0.269964280,-0.175766630
1640840813.508620,-0.378494920,-0.233872610,8.413616180,-0.027011330,-0.351102680,-0.174574540
1640840813.512200,-1.331087590,0.534994600,8.506423950,-0.054110590,-0.219985860,-0.174787640
1640840813.513700,-1.533255340,0.666065870,8.553727150,-0.081473600,-0.247719930,-0.211752980
1640840813.517060,-1.804069280,0.945434990,9.741832730,-0.011554360,-0.273184510,-0.180870260
1640840813.518570,-1.123919730,0.989011470,8.501111980,0.036525730,-0.235342950,-0.191847950
1640840813.522600,-0.783551570,0.432424070,9.713551520,0.033442680,-0.319913120,-0.168168570
1640840813.526680,-0.215805440,0.398447690,8.886229520,-0.012084840,-0.217740280,-0.147692860
1640840813.527310,0.607426580,-0.553594350,8.547941210,-0.035360470,-0.345230160,-0.170125110
1640840813.531270,0.509822430,-0.759585260,9.324848180,0.050905350,-0.221817200,-0.139389930
1640840813.533640,0.996326860,-0.555173100,8.108250620,0.079581130,-0.241580580,-0.198568390
1640840813.534190,0.106619340,-0.446668450,10.206459050,0.042729080,-0.329779060,-0.175927550
1640840813.537040,-0.142817840,0.330132280,8.535455700,-0.006358330,-0.262256000,-0.200268660
1640840813.538610,-0.664496960,0.407245670,8.928922650,-0.007659200,-0.417958200,-0.241698320
1640840813.542180,-1.399382110,1.100464110,9.145791050,0.051464130,-0.207364570,-0.216308210
1640840813.543620,-1.100520010,1.538500670,8.425949100,0.037892170,-0.291985300,-0.247122380
1640840813.547720,-1.559186940,1.267636060,10.217567440,-0.006967780,-0.321462750,-0.196909950
1640840813.549080,-0.635202170,1.210188150,8.160700800,-0.018295650,-0.262229140,-0.188678500
1640840813.552040,-0.441824590,0.459574580,9.345251080,-0.005069380,-0.364235040,-0.215409710
1640840813.553770,-0.198958200,0.102363820,9.169898990,0.003086030,-0.225943370,-0.178302820
1640840813.557010,0.505510090,-0.458341780,8.564013480,0.008660550,-0.368647370,-0.199186830
1640840813.558680,0.252119030,-1.033056500,9.541467670,0.025193400,-0.308844450,-0.192771880
1640840813.562070,0.823606250,-0.674576220,8.056949620,0.048416860,-0.246220830,-0.198213770
1640840813.563580,0.086483290,-0.567880630,9.617500310,0.036357340,-0.314056870,-0.224947940
1640840813.567060,-0.332380090,-0.081595630,9.328980450,0.011709330,-0.288800950,-0.229300600
1640840813.569510,-0.710263970,0.324684890,8.711154940,0.064815580,-0.410485360,-0.259332390
1640840813.572200,-1.441068170,0.632973970,8.839366910,0.100459180,-0.353382590,-0.272318750
1640840813.573540,-1.178861500,1.179662820,8.155992510,0.074522200,-0.299035040,-0.252869670
1640840813.577030,-1.372327330,1.008023380,9.260090830,0.010925530,-0.289234550,-0.256879630
1640840813.579460,-0.707696080,0.364842470,9.258046150,0.054441390,-0.320801170,-0.244623440
1640840813.582050,-0.228844240,-0.088560990,9.078950880,0.180451590,-0.351969900,-0.237710790
1640840813.583540,0.122895450,-0.632588680,8.870803830,0.183500380,-0.339390400,-0.250513940
1640840813.587960,0.499409680,-0.888978060,8.931135180,0.122611210,-0.345411930,-0.230585040
1640840813.589790,0.450524840,-0.938171270,8.459659580,0.080454360,-0.316357550,-0.264039640
1640840813.591980,0.501743080,-1.122733120,8.855244640,0.160349910,-0.370040570,-0.273716450
1640840813.593530,-0.117206680,-0.333819540,9.168433190,0.265578990,-0.283488690,-0.274913100
1640840813.597150,-0.585377630,0.205230130,9.056215290,0.234432560,-0.418578150,-0.305280120
1640840813.599100,-1.245532040,0.747555020,9.304948810,0.167538260,-0.460994330,-0.270514280
1640840813.602090,-1.089735750,1.236455080,7.735705380,0.123178960,-0.340215890,-0.303189460
1640840813.603910,-1.177129270,0.887529250,9.388500210,0.187230110,-0.328411160,-0.306020710
1640840813.607080,-1.093919160,1.180402990,9.522517200,0.266280800,-0.281880800,-0.301656160
1640840813.608570,-0.421138380,0.604277430,8.890630720,0.243222760,-0.496008990,-0.324465330
1640840813.612030,-0.346528650,0.113710610,9.056237220,0.182570520,-0.408737450,-0.264829400
1640840813.614310,0.323742750,-0.227094400,7.841349600,0.152102140,-0.338628950,-0.294905930
1640840813.617070,0.056081760,-0.815230610,9.879420280,0.193300860,-0.400608840,-0.282768930
1640840813.618870,0.201349030,-0.390803310,8.940759660,0.268077850,-0.345410440,-0.275269180
1640840813.622770,0.165865850,-0.361619740,9.052889820,0.262120460,-0.511328940,-0.327764540
1640840813.624350,-0.558330600,0.384585740,9.454065320,0.196489720,-0.375303690,-0.302349120
1640840813.627000,-0.524800300,1.125788090,8.348265650,0.129809990,-0.436608550,-0.336308810
1640840813.628540,-1.210220340,1.162073020,9.724597930,0.122934600,-0.481699470,-0.348918200
1640840813.632120,-0.698696610,1.727374670,8.115961070,0.201250660,-0.370247660,-0.331904020
1640840813.633800,-0.595937550,1.478955510,9.035963060,0.209288330,-0.404851200,-0.352141350
1640840813.637920,-0.557425140,1.337760090,9.526425360,0.121507070,-0.327394900,-0.304283230
1640840813.638830,0.090657170,0.721398770,8.750477790,0.074878350,-0.466302130,-0.300122890
1640840813.642120,-0.051686870,-0.551244680,9.346167560,0.111362350,-0.456442090,-0.293947820
1640840813.643640,0.395007070,-0.717852060,8.155000690,0.222983990,-0.360716880,-0.309081410
1640840813.647150,0.159202280,-0.849337580,8.861824040,0.200837900,-0.419211390,-0.329119000
1640840813.648620,0.217900130,-0.774454470,8.913089750,0.104647890,-0.374123540,-0.322550620
1640840813.652250,0.051928560,-0.547638480,8.953635220,0.119715940,-0.390872450,-0.348655940
1640840813.654180,-0.620593430,-0.375224380,9.469275470,0.217808830,-0.442716570,-0.381767810
1640840813.657240,-0.697675110,0.496791990,8.730993270,0.283835860,-0.473123850,-0.371633560
1640840813.658620,-0.813128530,1.141041400,8.214301110,0.178070370,-0.408890870,-0.366318260
1640840813.662160,-0.541200040,0.995788810,8.795828820,0.107115520,-0.345994560,-0.334903600
1640840813.667730,-0.335982320,0.837768970,9.094274520,0.195790870,-0.299175110,-0.327149030
1640840813.668320,-0.037329820,0.385927770,9.030435560,0.298117130,-0.431638960,-0.354091910
1640840813.668850,-0.020643020,-0.011359640,9.066929820,0.293624430,-0.436422230,-0.322905240
1640840813.672190,0.153180210,-0.359388110,7.799903870,0.189810990,-0.385703180,-0.346729220
1640840813.673670,-0.005281570,-0.958017350,8.887297630,0.167645530,-0.403143500,-0.353144110
1640840813.677160,-0.009465220,-0.593327280,8.628745080,0.247898740,-0.274893640,-0.368583290
1640840813.679520,-0.178458790,-0.500189420,9.292668340,0.304706480,-0.434987310,-0.408136900
1640840813.682680,-0.651539740,0.020114120,9.639142040,0.308527050,-0.406475390,-0.362214450
1640840813.683770,-0.511919800,0.449601470,7.899922370,0.267928810,-0.450114940,-0.374861000
1640840813.688700,-0.825532970,0.360441000,9.184730530,0.255639850,-0.412394200,-0.367105010
1640840813.689570,-0.423414530,1.001630660,8.266201970,0.281743740,-0.261773170,-0.364662710
1640840813.692010,-0.360467230,0.836008790,9.559134480,0.294488730,-0.421968190,-0.390067760
1640840813.693590,-0.193622480,0.879549680,9.365659710,0.282229480,-0.346261260,-0.347413210
1640840813.697420,0.270691370,0.850878300,8.204373360,0.256158410,-0.433431660,-0.377020240
1640840813.698660,-0.147997050,0.379651810,9.410380360,0.198067770,-0.364503260,-0.356841090
1640840813.702120,0.166903880,0.485219420,8.065658570,0.211869180,-0.316917930,-0.357021390
1640840813.703570,-0.244480510,-0.126380650,9.353891370,0.252138170,-0.447492390,-0.375650880
1640840813.707190,-0.315741240,-0.118740980,8.699593540,0.284242630,-0.329943030,-0.362634660
1640840813.708590,-0.406656560,0.008797610,8.563880920,0.255864860,-0.433033790,-0.400197540
1640840813.712040,-1.022074700,-0.155192720,9.652956010,0.190781100,-0.375941460,-0.384098380
1640840813.713890,-0.612362440,0.158155520,8.361371990,0.233407330,-0.408421550,-0.392280580
1640840813.717030,-0.783414780,0.199063700,9.245627400,0.267002020,-0.444310900,-0.414332780
1640840813.718580,-0.072554080,0.836177830,8.228068350,0.259754060,-0.304967250,-0.383450180
1640840813.722100,0.320766810,1.073406930,8.701476100,0.192190750,-0.338691530,-0.370432530
1640840813.726750,0.438652750,0.643510580,9.338663100,0.172585250,-0.284037050,-0.356404570
1640840813.727400,0.584475040,0.502128120,8.729278560,0.272519920,-0.394867420,-0.354406270
1640840813.729360,-0.007859900,0.128646640,8.853824620,0.287394230,-0.446035060,-0.362162380
1640840813.732640,0.004092760,0.006439980,7.772155760,0.230491210,-0.370039110,-0.358539910
1640840813.733580,-0.418920490,-0.199989350,8.466960910,0.152848710,-0.291207460,-0.386603240
1640840813.737020,-0.627166210,-0.547858890,9.309634210,0.212052510,-0.282336770,-0.409945940
1640840813.738640,-0.623636190,-0.339223000,9.124784470,0.347037670,-0.382424980,-0.414835010
1640840813.742070,-0.723987400,-0.021472040,8.796804430,0.328223500,-0.407522980,-0.436550470
1640840813.743520,-0.437520120,0.256983340,8.299444200,0.232423840,-0.364302100,-0.391353700
1640840813.747980,-0.261016460,0.335793410,8.307231900,0.202438270,-0.295922250,-0.402653280
1640840813.749260,0.122112320,0.272241380,8.707136150,0.297831000,-0.310196010,-0.397346940
1640840813.751980,0.297991070,0.565644380,8.973435400,0.373573630,-0.285261870,-0.374130990
1640840813.753590,0.282785450,0.448402820,9.083541870,0.316365120,-0.346052710,-0.385744960
1640840813.757080,0.179970340,0.358323870,8.796312330,0.256896050,-0.380112230,-0.338210200
1640840813.759860,0.102306020,0.281063590,8.083613400,0.236821220,-0.311194360,-0.376711850
1640840813.762140,-0.206025020,0.005274200,8.794384000,0.286953240,-0.279268680,-0.405833210
1640840813.764610,-0.502318500,0.431360960,8.994814870,0.337526290,-0.265236230,-0.410786330
1640840813.767020,-0.769245090,0.244509550,9.062727930,0.306342570,-0.395929810,-0.433114200
1640840813.768680,-0.827791630,0.456358760,8.583502770,0.258249040,-0.372585740,-0.408342570
1640840813.772000,-0.728143330,0.518992600,8.260958670,0.240930960,-0.319957730,-0.428037430
1640840813.773560,-0.617921890,0.497392800,9.207658770,0.246758770,-0.285048810,-0.404322210
1640840813.777120,-0.111936530,0.864233910,8.882640840,0.278893200,-0.284178610,-0.389282490
1640840813.779300,0.318450870,0.485283610,8.923072810,0.269722970,-0.341241060,-0.390571360
1640840813.782390,0.645463110,0.750913800,8.590209960,0.255137680,-0.269632070,-0.378711520
1640840813.783570,0.565689380,0.748742220,8.446957590,0.198787500,-0.288908270,-0.388725160
1640840813.787230,0.342115400,0.448813020,9.007945060,0.158965600,-0.306387250,-0.363770160
1640840813.788630,0.130313220,0.452143850,8.350387570,0.234304410,-0.280571040,-0.401733880
1640840813.792100,-0.272828280,0.275352540,8.782841680,0.240883280,-0.303579930,-0.413462610
1640840813.793600,-0.449674730,0.613716070,8.523540500,0.206512240,-0.226213070,-0.384356170
1640840813.797220,-0.576649730,0.285026130,8.637727740,0.136561710,-0.258599220,-0.408622710
1640840813.798860,-0.630193290,0.060792700,9.174485210,0.191088050,-0.259558950,-0.391554920
1640840813.802070,-0.458730490,0.086322550,8.260007860,0.271202650,-0.274014470,-0.413505820
1640840813.803550,-0.259366150,0.053218200,8.564609530,0.251391620,-0.294573690,-0.404386280
1640840813.807030,0.100741330,0.505043690,8.254446030,0.173544910,-0.172406480,-0.394760130
1640840813.808560,0.409030110,0.143175710,8.880013470,0.114816440,-0.205928130,-0.405866000
1640840813.812100,0.334833470,0.137309310,9.308529850,0.243909700,-0.199852910,-0.382669360
1640840813.814010,0.520483610,0.310387610,8.158605580,0.312994480,-0.261771680,-0.397297830
1640840813.817380,0.175935330,0.254989480,8.889623640,0.236128300,-0.229808730,-0.366863670
1640840813.818720,0.031717700,0.409323330,8.003338810,0.161859410,-0.140486660,-0.369890030
1640840813.822090,-0.188078940,-0.161682250,8.832983020,0.184278220,-0.227193580,-0.406293630
1640840813.823650,-0.472042860,0.153772130,8.746989250,0.293685530,-0.135393460,-0.416845140
1640840813.827070,-0.391229660,0.287197620,8.600628850,0.282502170,-0.222793270,-0.462438230
1640840813.828620,-0.845913410,0.311904760,9.371336940,0.222125690,-0.186933610,-0.419348540
1640840813.832300,-0.443324180,0.497908200,7.995863440,0.190328090,-0.203637820,-0.429450040
1640840813.833540,-0.464781850,0.257356820,9.072472570,0.208856210,-0.223265630,-0.420698580
1640840813.837020,0.009218050,0.761765300,8.195423130,0.260235430,-0.077615700,-0.393462240
1640840813.838670,0.173794140,0.620114090,9.254781720,0.231745870,-0.210098940,-0.392960040
1640840813.842220,0.208297330,0.662310780,9.035612110,0.198632480,-0.147466380,-0.351807480
1640840813.843530,0.539171280,0.616622150,8.237555500,0.176113840,-0.227004320,-0.397336570
1640840813.849600,-0.057468520,0.458665430,9.383651730,0.169192270,-0.120991480,-0.390584800
1640840813.850160,0.052300110,0.816424070,8.323830600,0.175464150,-0.145511340,-0.402534040
1640840813.852010,-0.472928080,0.456736420,9.419055940,0.146755590,-0.238284500,-0.421771440
1640840813.853650,-0.239588900,0.792446550,7.980385300,0.155782710,-0.100544100,-0.406599040
1640840813.857110,-0.419193660,0.814782440,8.822650910,0.110146430,-0.174184170,-0.429467950
1640840813.859080,-0.587727900,0.798015120,9.229219440,0.074271850,-0.068667520,-0.392255130
1640840813.862870,-0.178720640,0.686245440,8.450145720,0.112862910,-0.220544670,-0.410674600
1640840813.863760,-0.370637150,0.490834060,9.096353530,0.130242080,-0.157637860,-0.394669200
1640840813.867190,0.364146230,0.803115670,7.597154620,0.096900770,-0.074866410,-0.371471080
1640840813.868580,0.183516800,0.355732530,9.256919860,0.011822580,-0.103981800,-0.380340250
1640840813.872120,0.459671170,0.156928270,8.761309620,0.060266270,-0.026680530,-0.367052940
1640840813.873620,0.394018680,-0.035986130,8.809878350,0.137493030,-0.188131680,-0.392180740
1640840813.877040,-0.018820590,0.017239040,8.866125110,0.132931780,-0.097584720,-0.372095440
1640840813.878900,0.157833650,0.225200060,7.777797220,0.060196220,-0.099240240,-0.378578900
1640840813.882060,-0.340597060,0.019817390,9.174447060,0.000178810,-0.054460770,-0.390468540
1640840813.883640,-0.135654290,0.214574930,8.331419940,0.101298100,-0.002606210,-0.391975050
1640840813.887200,-0.359710370,0.282525030,9.019018170,0.163906810,-0.135020930,-0.417277220
1640840813.888680,-0.472049330,0.597230550,8.748193740,0.134985160,-0.042031710,-0.391930340
1640840813.892230,-0.232079250,0.654765010,8.055480960,0.031687320,-0.115817800,-0.396135480
1640840813.893640,-0.305285750,0.310141650,8.912813190,0.030826040,-0.046360490,-0.375144210
1640840813.897570,0.283737870,0.422747910,7.918719290,0.129252670,0.036574900,-0.386001170
1640840813.898570,0.135897160,0.303148630,9.595951080,0.138878840,-0.052821630,-0.386305090
1640840813.902140,0.274962960,0.315674720,8.872720720,0.114090740,0.004933770,-0.345276300
1640840813.904010,0.298702870,0.061606000,8.404566760,0.055409970,-0.138588250,-0.372476910
1640840813.907350,-0.162720990,-0.072318120,8.833011630,0.076994300,0.000642240,-0.369441510
1640840813.908580,0.054528420,0.229990390,7.878675940,0.110937660,0.013445320,-0.408518310
1640840813.912020,-0.613616700,0.395568310,9.784905430,0.104585280,-0.042940670,-0.411137910
1640840813.913680,-0.247093620,0.867761550,8.263913150,0.069969910,0.028178100,-0.370502530
1640840813.916990,-0.324079250,0.765790880,9.031408310,0.039754810,-0.098440060,-0.390490890
1640840813.918700,-0.446412150,1.182569270,8.766485210,0.045149030,0.082981590,-0.357756050
1640840813.924430,-0.064759780,1.219654320,8.352141380,0.015065080,-0.055086620,-0.357504220
1640840813.925240,-0.434429440,0.765701000,9.520146370,0.011032820,-0.012192130,-0.338926850
1640840813.927020,0.440475430,0.713211720,7.556243420,0.030253830,0.023072960,-0.352440770
1640840813.928580,0.065407050,0.340595360,9.357818600,0.011415780,0.004996360,-0.349512760
1640840813.932010,0.434235300,0.534673750,8.293919560,-0.050514940,0.116825130,-0.334265890
1640840813.933570,0.413485530,-0.014448990,8.995435710,-0.062987210,-0.040344890,-0.366617770
1640840813.937080,-0.013274720,-0.102769730,9.020666120,0.024826820,0.082294650,-0.352528690
1640840813.938870,0.242040810,0.134114100,7.881857400,0.059813260,-0.023776300,-0.373327760
1640840813.942130,-0.450498040,0.284482480,9.043062210,-0.021743780,0.060981510,-0.340834290
1640840813.943560,0.053071940,0.613038060,7.743157390,-0.086575760,0.126898320,-0.345210820
1640840813.947660,-0.278103320,0.297142510,9.412099840,-0.066767660,0.059187420,-0.362645180
1640840813.949740,-0.163953990,0.628485080,8.713555340,0.063709910,0.136451470,-0.331194790
1640840813.952000,-0.053879410,0.590741690,8.496788020,0.050759320,-0.003392990,-0.349640850
1640840813.954380,-0.283013940,0.579444230,8.797727580,-0.056928400,0.111331050,-0.333052840
1640840813.957090,0.133401720,0.433925630,7.816237450,-0.110814000,0.102043170,-0.352873000
1640840813.958690,0.002693810,-0.079335260,9.087596890,-0.045339770,0.114482660,-0.342115820
1640840813.962050,0.263371410,0.138346960,8.480364800,0.076577070,0.193072870,-0.344757740
1640840813.963750,0.105588580,-0.019936430,9.182230950,0.029845540,0.054863100,-0.365386990
1640840813.967020,-0.106389120,0.079214420,8.895997050,-0.033986560,0.102211530,-0.321978270
1640840813.968590,0.147586380,-0.010884940,7.810673240,-0.068940230,0.093287230,-0.347778200
1640840813.972060,-0.178957600,-0.032224950,9.102385520,0.002051890,0.178866070,-0.354166330
1640840813.973560,-0.097770330,0.549881040,8.591700550,0.060929360,0.220206390,-0.371539590
1640840813.977020,-0.287173090,0.673939700,9.459241870,0.003784900,0.053626300,-0.363926620
1640840813.978620,-0.278845370,1.058451410,8.487949370,-0.054061410,0.133039070,-0.317081840
1640840813.982200,-0.064606600,0.936833680,8.174243930,-0.116394450,0.123970200,-0.353690920
1640840813.983770,-0.448507640,0.905489090,9.450767520,-0.051705540,0.213843600,-0.327333810
1640840813.987110,0.071195110,0.988480450,8.413753510,-0.026534500,0.148940130,-0.329965350
1640840813.988620,0.090951060,0.472606630,9.307883260,-0.045859820,0.121986870,-0.316016380
1640840813.992150,0.338018890,0.679281890,8.225059510,-0.089643900,0.256058570,-0.313735040
1640840813.993780,0.254219350,0.180729780,9.164105420,-0.146129730,0.144487620,-0.336250750
1640840813.997420,-0.075211790,0.087919380,9.088457110,-0.109305980,0.206799820,-0.324220960
1640840813.999270,0.113090250,0.041639270,8.202990530,-0.060594090,0.111661870,-0.362868700
1640840814.002280,-0.434248750,0.165672200,9.059322360,-0.045503680,0.194324550,-0.336176190
1640840814.003560,-0.075224950,0.923878910,7.835312370,-0.145424920,0.230139510,-0.325535180
1640840814.006990,-0.205963720,0.591402950,9.474115370,-0.212810920,0.202794340,-0.309625240
1640840814.008580,0.009595520,0.761995020,8.752510070,-0.121511530,0.293427710,-0.296600160
1640840814.012220,0.176664530,0.596349420,8.978621480,-0.031614300,0.129929200,-0.332911310
1640840814.013940,-0.013108060,0.665710570,8.819275860,-0.075179340,0.262872870,-0.288973780
1640840814.017140,0.341957450,0.554904220,7.896794320,-0.186659410,0.213204350,-0.316579670
1640840814.019030,-0.039979230,-0.091868490,9.315161710,-0.216825320,0.261078770,-0.311020020
1640840814.022050,0.288882080,0.004651470,8.043270110,-0.088988260,0.290457990,-0.331664140
1640840814.023590,-0.064418030,-0.353181000,9.310280800,-0.024315710,0.206814720,-0.345025900
1640840814.027060,-0.153982800,0.077089700,8.868292810,-0.072194640,0.314192470,-0.316213160
1640840814.029790,-0.230915280,-0.015829180,8.657542230,-0.156529250,0.173237930,-0.325785610
1640840814.032350,-0.364785100,-0.117382990,8.890792850,-0.151363030,0.277954340,-0.304149060
1640840814.033570,-0.038309920,0.385107430,8.021793370,-0.039555140,0.321441950,-0.314289420
1640840814.037510,-0.304127870,0.442065780,9.679000850,-0.038130580,0.278970630,-0.332072380
1640840814.039180,-0.037087400,0.935463250,8.804776190,-0.079889600,0.289306040,-0.302591920
1640840814.042000,0.083085160,0.693377440,8.694747920,-0.148011740,0.205312680,-0.311832130
1640840814.043560,0.148868380,0.698976930,8.963877680,-0.130116940,0.355844260,-0.296790990
1640840814.047310,0.218196140,0.829352440,8.634653090,-0.092439370,0.334154160,-0.311857520
1640840814.049180,0.112950200,0.555076480,9.587133410,-0.106571620,0.270025430,-0.305585560
1640840814.052310,0.335975410,0.549349900,8.297257420,-0.101141650,0.347498150,-0.291888480
1640840814.053780,0.121496310,0.167923180,8.924634930,-0.155162810,0.288338960,-0.337125390
1640840814.057180,-0.336022350,0.298221050,9.468134880,-0.142496850,0.376036850,-0.308710400
1640840814.058650,-0.423614350,0.276692060,8.678658490,-0.145354870,0.252978530,-0.332438980
1640840814.062260,-0.574013470,0.206961620,9.322218890,-0.140038120,0.264519450,-0.321742860
1640840814.063600,-0.167040350,0.784102920,7.846339230,-0.141008240,0.410798280,-0.311985670
1640840814.067180,-0.046397510,0.714262190,9.187787060,-0.187397000,0.356784550,-0.313869120
1640840814.068930,0.159606400,0.937586550,9.367864610,-0.184439170,0.450787010,-0.282476900
1640840814.071940,0.586180090,0.780247810,8.769931790,-0.184795310,0.286018910,-0.305688470
1640840814.073660,0.372614650,0.421828600,9.379343030,-0.136233880,0.350110320,-0.272256140
1640840814.077020,0.646367970,0.591668370,7.657437800,-0.161220160,0.427390720,-0.305035770
1640840814.079590,0.139559780,0.038951650,9.412486080,-0.210726290,0.358574120,-0.297124710
1640840814.082250,0.071011270,0.006558600,8.609253880,-0.184389990,0.482215050,-0.287084370
1640840814.083580,-0.123576540,-0.271532000,8.886507030,-0.132778290,0.306916240,-0.329102610
1640840814.087100,-0.621460860,-0.080528470,9.363383290,-0.105789330,0.419029650,-0.297568770
1640840814.088640,-0.098580320,0.318800390,7.790243630,-0.168679670,0.398142640,-0.328224900
1640840814.092160,-0.457508120,0.180512980,9.744315150,-0.204291980,0.436061680,-0.310973910
1640840814.093630,0.095351650,0.665196180,8.365540500,-0.151406270,0.527365620,-0.297823550
1640840814.097060,-0.013227660,0.426037010,9.485265730,-0.093163560,0.334009620,-0.314876500
1640840814.098840,-0.090905350,0.701948520,9.080623630,-0.095908360,0.456333250,-0.258953960
1640840814.102760,0.165540290,0.645690860,8.147415160,-0.160793990,0.348226760,-0.287267630
1640840814.103580,-0.200514570,0.203260780,9.438011170,-0.193782180,0.442624150,-0.273475080
1640840814.107020,0.397097470,0.457060430,8.140633580,-0.142408910,0.534828010,-0.291505460
1640840814.108670,-0.041573100,0.149781470,10.109586720,-0.106138010,0.433401850,-0.316591650
1640840814.112280,-0.044587620,0.548479910,9.412087440,-0.131079550,0.479936690,-0.298747420
1640840814.113590,-0.093265290,0.486252520,8.545489310,-0.188691960,0.306829900,-0.320185780
1640840814.117160,-0.454573990,0.373426050,9.000019070,-0.204964030,0.448012410,-0.295873020
1640840814.118690,-0.181032640,0.828628420,8.196655270,-0.157797370,0.535389960,-0.309014410
1640840814.122620,-0.526393950,0.740554990,10.089435580,-0.171467690,0.434960510,-0.297041300
1640840814.123620,-0.005935720,1.021577600,9.091099740,-0.192426190,0.491775660,-0.257842300
1640840814.127040,0.210817250,0.816644070,8.715602870,-0.215847830,0.403589070,-0.289502830
1640840814.128660,0.107176460,0.775688710,9.385785100,-0.235079270,0.517188070,-0.259836080
1640840814.131980,0.352348830,0.720376310,8.491753580,-0.226403770,0.507383050,-0.262682140
1640840814.133530,0.111756430,0.053195360,9.527051930,-0.223530870,0.408099680,-0.284318630
1640840814.137140,0.329304750,0.215664370,8.555933000,-0.179468140,0.532950520,-0.266829160
1640840814.138930,0.215462300,0.104084700,8.654841420,-0.229412360,0.497865740,-0.294554290
1640840814.142760,-0.121177880,0.118118090,9.856076240,-0.267967610,0.550355080,-0.277386700
1640840814.143570,-0.124658090,0.263833190,8.776564600,-0.237014900,0.504019920,-0.293296580
1640840814.147150,-0.363628240,0.048082410,9.329213140,-0.181436570,0.395731720,-0.293171470
1640840814.148740,-0.360890090,0.612770380,8.421339990,-0.161729800,0.566056490,-0.274948840
1640840814.151940,-0.299194870,0.617156920,8.578688620,-0.246448890,0.519019480,-0.296373750
1640840814.154230,-0.523678120,0.525139210,10.035909650,-0.266334440,0.533843100,-0.263559820
1640840814.157060,-0.050526230,0.542228040,8.563694000,-0.213526230,0.501361610,-0.280620250
1640840814.158670,-0.111401640,0.067670810,9.598989490,-0.150841470,0.432169470,-0.278686020
1640840814.162210,0.038911060,0.455002840,8.875753400,-0.148865600,0.605978130,-0.260669020
1640840814.166590,0.199719980,0.297014090,8.930325510,-0.248444130,0.474330810,-0.293599070
1640840814.166980,0.043780930,0.179627360,9.816596980,-0.252302020,0.541281820,-0.249679430
1640840814.168630,0.439864960,0.413478310,8.222671510,-0.200976480,0.552508350,-0.295502010
1640840814.172090,-0.037565010,0.418212950,9.883010860,-0.162969530,0.482368560,-0.299811360
1640840814.173640,-0.094030410,1.068100330,8.981445310,-0.219026250,0.594790400,-0.285303590
1640840814.177150,-0.187065050,0.887196300,9.038231850,-0.307498900,0.431637470,-0.307956370
1640840814.178900,-0.553033950,0.851283190,9.735713010,-0.272603390,0.550347750,-0.271569280
1640840814.182040,-0.087062340,1.087539910,8.282322880,-0.247550060,0.583763480,-0.299175170
1640840814.183580,-0.375879080,0.850978670,10.258113860,-0.258436830,0.515008030,-0.248910520
1640840814.187070,0.084597280,0.935617210,8.937261580,-0.302329720,0.616072240,-0.227646560
1640840814.188660,0.286712880,0.376128350,9.054450990,-0.332370490,0.488019050,-0.277890260
1640840814.192010,-0.049090970,0.255384650,9.833976750,-0.286114310,0.600884910,-0.254717560
1640840814.193660,0.368980470,0.299123350,8.356503490,-0.287903930,0.547698320,-0.290244880
1640840814.198700,-0.020146470,0.017295550,9.814754490,-0.300379100,0.488370750,-0.293923910
1640840814.199250,0.273929120,0.472146870,8.381360050,-0.337086650,0.676129820,-0.288657840
1640840814.202040,0.148614180,0.348611770,9.218051910,-0.333744380,0.570848580,-0.302074880
1640840814.203600,-0.383108850,0.479496330,10.395290370,-0.295378330,0.626394270,-0.260557320
1640840814.207090,0.028222640,0.662315310,8.498286250,-0.285019070,0.517650010,-0.279326830
1640840814.208620,-0.352435020,0.328805890,9.367658620,-0.283624320,0.503721950,-0.255492330
1640840814.212650,0.091291220,0.787078680,8.074648860,-0.329132470,0.725723860,-0.253851800
1640840814.214940,0.228594780,0.483903020,9.283779140,-0.359813930,0.658345340,-0.277204840
1640840814.217210,-0.027237510,0.082914990,10.618858340,-0.300438700,0.667497690,-0.267492290
1640840814.218690,0.369510200,0.134105790,8.739603040,-0.212082310,0.546594020,-0.295919240
1640840814.222030,-0.075332980,-0.211366560,9.295234680,-0.219866680,0.521589880,-0.282837540
1640840814.223560,0.120334130,0.184216350,8.376785280,-0.336304370,0.743267060,-0.278066190
1640840814.227310,-0.075164470,0.084285310,9.262550350,-0.354357150,0.664669390,-0.303770630
1640840814.228920,-0.327427000,-0.024615510,10.128335950,-0.250117570,0.624892230,-0.285320040
1640840814.232360,0.117304670,0.543407740,8.441736220,-0.154086960,0.621788140,-0.293175910
1640840814.233600,-0.413149180,0.600753430,9.611403470,-0.221489400,0.612926600,-0.296291800
1640840814.237050,-0.379039200,0.931106330,9.452294350,-0.350399430,0.684689340,-0.264446500
1640840814.238690,-0.261912730,0.796117070,8.962776180,-0.350602060,0.582641480,-0.287261660
1640840814.242190,-0.111831580,0.372159540,9.520509720,-0.255614610,0.656345610,-0.281590310
1640840814.243640,0.149332510,0.788476880,9.158175470,-0.158162440,0.761565690,-0.286379550
1640840814.247170,-0.190565300,0.735618170,10.145440100,-0.270678190,0.591470360,-0.299006790
1640840814.250170,0.077682760,0.631363510,9.447024350,-0.400255680,0.586688700,-0.256426720
1640840814.252100,0.202671570,0.426381470,8.388127330,-0.357806740,0.645130930,-0.281241600
1640840814.253620,-0.004409940,0.166183410,9.672966000,-0.256483320,0.706252570,-0.303055440
1640840814.257880,-0.029253830,0.814083040,9.598361970,-0.222601040,0.734208700,-0.280903370
1640840814.259060,-0.167953890,0.740521190,9.671109200,-0.347188120,0.573915300,-0.294607910
1640840814.262090,-0.252086940,0.554145510,9.664119720,-0.430691330,0.621274230,-0.263865320
1640840814.263630,-0.395687520,0.761936600,8.784639360,-0.350803230,0.673946920,-0.286917390
1640840814.267150,-0.594726620,0.493882270,9.721956250,-0.303515790,0.600116070,-0.298999250
1640840814.268600,-0.229373530,0.871939660,9.144458770,-0.308302070,0.683441760,-0.272914770
1640840814.272050,0.059309270,0.734031500,8.990889550,-0.387770060,0.671522680,-0.294885160
1640840814.274040,0.155041250,0.417883600,10.110082630,-0.422623810,0.701879140,-0.265932170
1640840814.276950,0.120746430,0.457100330,9.496370320,-0.352497400,0.674772320,-0.271566210
1640840814.279480,-0.068587500,-0.070407110,9.682134630,-0.314369890,0.516691800,-0.294215980
1640840814.282590,-0.142115380,-0.024138200,9.021348000,-0.294335250,0.625102340,-0.264601410
1640840814.283640,-0.149682570,0.059705380,8.371322630,-0.344775710,0.691589890,-0.309906960
1640840814.287040,-0.204719350,0.110869970,10.045901300,-0.396432100,0.699541270,-0.300566910
1640840814.288710,-0.200860990,0.545066240,10.051589010,-0.359311790,0.707866430,-0.288803940
1640840814.292230,-0.115604940,0.327335450,9.728177070,-0.306424590,0.555804490,-0.327339860
1640840814.293580,-0.386378940,0.496578810,9.694841380,-0.260359110,0.585717080,-0.290457990
1640840814.297070,-0.360214740,0.793425740,8.420535090,-0.309066500,0.660833720,-0.308369130
1640840814.298740,-0.398480240,0.449077520,9.543989180,-0.402276310,0.620494840,-0.304648280
1640840814.302080,-0.465696720,0.482205360,9.898834230,-0.363251630,0.691555560,-0.277370270
1640840814.303740,-0.080469470,0.171685460,9.329940800,-0.266887250,0.591780300,-0.310207990
1640840814.307250,-0.234431270,0.208503830,10.336490630,-0.248286170,0.571684600,-0.298498660
1640840814.308620,-0.123963800,0.676419680,9.330522540,-0.344842670,0.663620290,-0.289563860
1640840814.312330,0.080867770,0.237991240,9.471921920,-0.426848290,0.580969630,-0.300242070
1640840814.313600,-0.151579770,0.254215690,10.093705180,-0.336918260,0.648771230,-0.287947060
1640840814.316990,0.199227740,0.690696360,8.821530340,-0.248001560,0.637437460,-0.325644110
1640840814.318650,-0.126390580,0.872248590,10.036901470,-0.310234730,0.563986720,-0.320057600
1640840814.322550,-0.384001110,1.174865960,9.769924160,-0.436946810,0.652793230,-0.296475050
1640840814.325200,-0.242947440,0.660804870,9.247061730,-0.432944450,0.557936970,-0.314746920
1640840814.327030,-0.576238330,0.445041330,10.331455230,-0.301209180,0.591465950,-0.290197220
1640840814.328870,-0.169731990,0.859632070,9.063336370,-0.298622340,0.684718850,-0.302314820
1640840814.332010,0.037562420,0.541577340,9.740906720,-0.407555700,0.605651800,-0.299614670
1640840814.333590,-0.101993170,0.236830250,10.169000630,-0.455376570,0.670656680,-0.286468950
1640840814.337540,0.234369930,-0.015088430,8.905688290,-0.367523820,0.597494960,-0.330136810
1640840814.338920,-0.327347700,-0.206423550,10.172257420,-0.267061590,0.517602380,-0.324453440
1640840814.342110,-0.376696530,0.238716350,9.165373800,-0.325912240,0.630001840,-0.317104220
1640840814.343610,-0.143551770,0.316593890,9.018061640,-0.433139590,0.586989700,-0.331811670
1640840814.347010,-0.431648160,0.233908710,10.529856680,-0.425332840,0.659851970,-0.310576020
1640840814.348620,-0.032680860,0.481788340,9.512342450,-0.310531290,0.667901400,-0.330086050
1640840814.352180,-0.299071880,0.534568190,10.298587800,-0.243648960,0.494012360,-0.341434870
1640840814.353700,-0.498012540,0.640456320,9.733551980,-0.327837560,0.561687530,-0.305126670
1640840814.357260,-0.118097170,0.531721350,8.354763030,-0.404001860,0.579372170,-0.325614300
1640840814.358690,-0.671212490,0.140391250,10.432611470,-0.370636670,0.581380720,-0.339095350
1640840814.361980,-0.482563020,0.220536780,10.044607160,-0.298146990,0.636926410,-0.331282650
1640840814.364200,-0.359703540,0.158505380,9.950230600,-0.245782780,0.477340910,-0.339964090
1640840814.367020,-0.523278120,-0.012579040,10.535015110,-0.284937110,0.525856140,-0.324684470
1640840814.368710,-0.112846410,0.358371850,9.163426400,-0.352069820,0.594382050,-0.316058160
1640840814.372280,-0.368892190,0.378790230,10.260713580,-0.358593550,0.510636090,-0.330877390
1640840814.373620,-0.305041970,0.497706560,10.329486850,-0.326359330,0.538463950,-0.326053890
1640840814.377010,0.085735100,0.910934150,9.107127190,-0.255353810,0.504197300,-0.331810180
1640840814.379260,-0.416782500,0.934580270,10.529189110,-0.282828570,0.502952990,-0.351458880
1640840814.382040,-0.375080380,1.206368570,10.142510410,-0.398437830,0.548504470,-0.324209120
1640840814.383580,-0.387416780,1.032255050,9.943607330,-0.402855960,0.442499010,-0.320132140
1640840814.387310,-0.528007860,0.395431880,10.654944420,-0.353434770,0.489530030,-0.329257640
1640840814.388860,-0.098976870,0.589592040,9.364977840,-0.274537500,0.562414710,-0.323565330
1640840814.392080,-0.195111780,0.629378020,10.142354970,-0.333632620,0.476567510,-0.323693540
1640840814.393620,-0.074559050,0.327488090,10.451040270,-0.470490780,0.538872300,-0.327470900
1640840814.397190,-0.027618270,0.231148700,9.704044340,-0.422531460,0.492973690,-0.324024290
1640840814.398730,-0.460025760,-0.205818100,10.516007420,-0.271515640,0.407791200,-0.356169100
1640840814.401990,-0.541618760,0.205939730,9.793638230,-0.254648950,0.455980060,-0.346912530
1640840814.403660,-0.434936020,0.770673750,9.354121210,-0.372214670,0.438796040,-0.327861340
1640840814.407120,-0.331757870,0.428346220,10.464632990,-0.498923720,0.541934430,-0.334855910
1640840814.408610,-0.044898490,0.571974580,10.434898380,-0.397886430,0.558751940,-0.331614970
1640840814.411980,-0.091257140,0.641669570,10.599626540,-0.226742060,0.420349930,-0.353671670
1640840814.414990,-0.266978500,0.530576050,10.309889790,-0.277794990,0.379774060,-0.362899960
1640840814.417100,-0.337195400,0.702168760,9.136150360,-0.401401580,0.396725620,-0.326454700
1640840814.419370,-0.413372310,0.117680430,9.284959790,-0.446200460,0.451755580,-0.349304080
1640840814.421960,-0.502718870,-0.324214220,10.472563740,-0.336188170,0.520275590,-0.366965030
1640840814.423660,-0.566613670,0.015354290,10.939850810,-0.191856970,0.460545810,-0.355795090
1640840814.427090,-0.573677120,-0.104168360,10.841878890,-0.235724480,0.321018730,-0.350019400
1640840814.428690,-0.545522270,0.073403810,10.211812970,-0.354889040,0.341746240,-0.325216380
1640840814.432050,-0.363410650,0.359158310,9.327455520,-0.374494580,0.431291820,-0.333590890
1640840814.433640,-0.308225930,0.288821490,10.240774150,-0.303064290,0.436337350,-0.370687280
1640840814.437070,-0.414369910,0.752213060,10.923518180,-0.216464740,0.403915410,-0.366579090
1640840814.438660,-0.218043190,0.987528090,9.997185710,-0.231000830,0.319832620,-0.364676180
1640840814.448210,-0.371439550,0.851971570,10.474573140,-0.334458080,0.300400020,-0.360435280
1640840814.448710,-0.551552470,0.883426310,10.550791740,-0.390473100,0.394690130,-0.339439570
1640840814.449030,-0.433035280,0.522106170,10.222535130,-0.325092730,0.349840550,-0.340944530
1640840814.449600,-0.413316130,0.147759570,10.805826190,-0.224234190,0.316804680,-0.348342980
1640840814.452060,-0.235559250,0.335135760,10.193330760,-0.214204220,0.385992260,-0.338685510
1640840814.453640,-0.156359510,0.461377560,10.053936000,-0.334231640,0.323380620,-0.333441850
1640840814.456950,-0.296548690,0.279829260,10.829648020,-0.416286380,0.297434630,-0.338828590
1640840814.458660,-0.222556200,0.198078390,10.194298740,-0.320257280,0.321687760,-0.344952940
1640840814.461960,-0.099985670,0.339881690,10.100676540,-0.190293820,0.298807110,-0.375486970
1640840814.463720,-0.245447590,0.827799560,10.839429860,-0.236316060,0.357335870,-0.366343590
1640840814.467210,-0.064627710,1.030913830,10.238428120,-0.389638600,0.363899860,-0.329358940
1640840814.468720,-0.022651330,0.581122820,10.431973460,-0.402517620,0.282423230,-0.331607490
1640840814.471990,-0.324160430,0.135290280,10.748330120,-0.259584220,0.302067400,-0.348615680
1640840814.473660,-0.278265740,0.238318410,9.695129390,-0.167784120,0.289140700,-0.351686870
1640840814.477020,-0.340117100,0.222398000,10.187739370,-0.260859820,0.287811520,-0.362473820
1640840814.478780,-0.372231780,-0.067132290,10.796673770,-0.385581050,0.374628660,-0.362366500
1640840814.482370,-0.179312380,-0.096692230,10.420599940,-0.323696430,0.339208630,-0.360687080
1640840814.484380,-0.326614020,-0.139911440,10.999937060,-0.170615350,0.256720240,-0.376765520
1640840814.487230,-0.458485450,0.128528300,10.589765550,-0.156129910,0.259736240,-0.372281760
1640840814.488700,-0.257506490,0.472452220,9.621856690,-0.239767180,0.261196550,-0.347627760
1640840814.491930,-0.328237980,0.248469320,10.503064160,-0.298887490,0.317102700,-0.361153480
1640840814.493610,-0.319383980,0.280958440,10.817149160,-0.245951120,0.348956880,-0.364598600
1640840814.497520,-0.162067820,0.637256560,10.810564990,-0.143955650,0.251655310,-0.381876530
1640840814.498820,-0.510843280,0.562850060,11.325116160,-0.164465640,0.209969330,-0.400203560
1640840814.502280,-0.465451270,0.648083690,10.221793170,-0.243513330,0.227296350,-0.374338060
1640840814.503620,-0.502245430,0.545580570,10.069410320,-0.246025650,0.242985810,-0.376056220
1640840814.507060,-0.740656200,0.245051830,11.108734130,-0.207605990,0.275382490,-0.387691020
1640840814.508610,-0.537117900,0.518421770,10.741959570,-0.177161430,0.245538400,-0.362193670
1640840814.511990,-0.246177580,0.480723380,10.683474540,-0.186513380,0.176268820,-0.354671510
1640840814.513730,-0.247719930,0.197327880,11.092814450,-0.218521090,0.260098280,-0.372852470
1640840814.517240,-0.216518970,0.465860640,10.764328000,-0.213533670,0.249430580,-0.374855100
1640840814.518660,-0.379424750,0.544078350,11.115320210,-0.196835440,0.131663710,-0.392659070
1640840814.522770,-0.415875910,0.416754450,10.717508320,-0.216834290,0.158810620,-0.389032160
1640840814.523600,-0.152545240,0.650281790,9.882897380,-0.199849950,0.233081030,-0.389651950
1640840814.526990,-0.335305660,0.719171640,10.957994460,-0.199335840,0.221450670,-0.386831160
1640840814.529030,-0.381890540,0.617516990,11.259354590,-0.245812580,0.213117930,-0.365242420
1640840814.532310,-0.205807340,0.324166450,10.741526600,-0.218647750,0.149209810,-0.360764620
1640840814.533660,-0.307306710,-0.064896110,10.931818960,-0.133982300,0.150983040,-0.370438430
1640840814.537000,-0.401331340,-0.049893870,10.552765850,-0.130969300,0.196038220,-0.371335480
1640840814.539050,-0.183134420,0.096681480,10.167286870,-0.199762030,0.179417460,-0.377868180
1640840814.542440,-0.259595630,0.008579640,10.884426120,-0.236646880,0.200200110,-0.391827550
1640840814.543580,-0.316556810,-0.082939020,11.040640830,-0.159871620,0.184880240,-0.406327900
1640840814.547460,-0.359362870,0.018557880,10.746726040,-0.041496750,0.117112700,-0.396205430
1640840814.548730,-0.568873580,0.350663750,10.773650170,-0.063474480,0.116375090,-0.401708480
1640840814.552160,-0.518750130,0.467843500,10.518511770,-0.179235680,0.159652560,-0.397634600
1640840814.553650,-0.481231780,0.350369450,10.721701620,-0.175155740,0.167939080,-0.378803910
1640840814.557030,-0.409437210,0.331857710,11.003134730,-0.066146250,0.154457970,-0.381986740
1640840814.559250,-0.344457240,0.285619020,11.043184280,-0.004388390,0.134964270,-0.402073590
1640840814.562160,-0.536534310,0.405738170,11.022041320,-0.040112430,0.080025200,-0.378599760
1640840814.565300,-0.466627150,0.362146910,10.635218620,-0.127376620,0.075154020,-0.372067180
1640840814.567050,-0.422753480,0.125055880,10.593820570,-0.144293920,0.120505710,-0.390392570
1640840814.568780,-0.367147120,0.410767050,10.892990110,-0.052838030,0.147062550,-0.400567080
1640840814.571970,-0.146678840,0.806609990,11.140202520,-0.038003910,0.128537430,-0.407694280
1640840814.573710,-0.211255700,0.815376460,11.291231160,-0.086604070,0.081959370,-0.401933490
1640840814.577130,-0.190201240,0.796905160,10.719140050,-0.110706690,0.057525930,-0.387711850
1640840814.578740,-0.247617990,0.745319370,10.682890890,-0.105638810,0.088720010,-0.395461920
1640840814.581960,-0.596001390,0.541766820,11.245902060,-0.088483100,0.098894540,-0.386075680
1640840814.583580,-0.515129450,0.446310070,10.967697140,-0.081700090,0.060629840,-0.369952650
1640840814.587910,-0.336987790,0.335234760,10.808982850,-0.084044050,0.075024370,-0.389897790
1640840814.588760,-0.345275220,0.259840190,11.045960430,-0.105713320,0.110079350,-0.397370760
1640840814.592860,-0.187465640,0.336966250,11.010726930,-0.125205530,0.103168190,-0.387525530
1640840814.593660,-0.157608760,0.273622870,11.222448350,-0.101646790,0.061877080,-0.399525460
1640840814.597150,-0.174776430,0.215477620,10.941918370,-0.055046390,0.048218670,-0.400438990
1640840814.598720,0.013065720,0.468939040,10.205293660,-0.069490080,0.067165500,-0.398065180
1640840814.602800,-0.046756750,0.615928770,10.733333590,-0.119906670,0.127260360,-0.399862260
1640840814.603760,-0.274901000,0.313775240,11.306764600,-0.127156050,0.116914510,-0.394842060
1640840814.607500,-0.271429060,0.121378410,11.060625080,-0.034084920,0.030179330,-0.395579730
1640840814.608670,-0.467104080,0.235063750,10.945941930,0.023286040,0.017191470,-0.397188990
1640840814.614820,-0.553878430,0.271734240,10.580840110,-0.059485440,0.086680060,-0.399367510
1640840814.615520,-0.395792250,0.238352640,10.712680820,-0.131954250,0.105938330,-0.406141670
1640840814.618600,-0.379614060,0.030306970,11.267254830,-0.063368690,0.093995020,-0.415127010
1640840814.619130,-0.188336880,0.052292760,10.937304500,0.049793720,0.055862960,-0.434201900
1640840814.622770,-0.036420230,0.418007140,10.876335140,0.055497890,0.056844940,-0.416997100
1640840814.623690,-0.327017460,0.590187670,11.406822200,-0.055935990,0.070239610,-0.404836300
1640840814.627200,-0.307199480,0.513998690,11.029871940,-0.119262940,0.024870040,-0.408911790
1640840814.628710,-0.196648420,0.394653350,10.727651600,-0.018218160,0.031395250,-0.415669410
1640840814.632190,-0.307210980,0.683904890,11.020420070,0.061970950,0.112293670,-0.423608720
1640840814.633620,-0.422224400,0.952113810,11.222648620,-0.010214750,0.072798130,-0.417648290
1640840814.637050,-0.496888010,0.702831750,11.322834010,-0.089521690,-0.028721990,-0.404135820
1640840814.638660,-0.487140510,0.591096820,10.944328310,-0.096185510,0.000451510,-0.420577820
1640840814.643000,-0.316773950,0.581960740,10.766333580,-0.037835540,0.067542490,-0.433139590
1640840814.644350,-0.416208120,0.625549140,11.737875940,-0.003054740,0.067478430,-0.414967600
1640840814.647190,-0.304263800,0.810987950,11.680850980,-0.062711540,0.030487780,-0.389401640
1640840814.648660,-0.009317390,0.613381620,10.828066830,-0.116510710,-0.004984440,-0.390935000
1640840814.652330,-0.009624860,0.410011230,10.912544250,-0.077359390,0.021682680,-0.380139080
1640840814.653690,-0.154406190,0.526199640,11.032030110,-0.040584800,0.068855290,-0.382204380
1640840814.657100,-0.305592150,0.418645200,11.111866000,-0.054454810,0.005686280,-0.399814640
1640840814.658870,-0.363382100,0.226831440,11.362700460,-0.065161300,-0.016891960,-0.396522880
1640840814.661940,-0.249137240,0.503187120,10.930523870,-0.087836380,0.057120630,-0.389471650
1640840814.663610,-0.236878950,0.543160500,11.077058790,-0.094987470,0.073562580,-0.389294420
1640840814.667040,-0.309455540,0.376293000,11.697729110,-0.071145610,0.046221920,-0.374236760
1640840814.668900,-0.247169360,0.385968420,11.192445760,-0.023166840,0.007128720,-0.361973080
1640840814.671940,-0.203638430,0.302915660,10.632576940,-0.012335180,-0.023658580,-0.364634450
1640840814.674170,-0.219837010,0.135622980,10.799577710,-0.058570510,0.052019960,-0.347563710
1640840814.678280,-0.184243200,0.260129750,11.173699380,-0.087274620,0.089967250,-0.357830550
1640840814.679040,-0.291762980,0.127242330,11.656457900,-0.054378820,0.021830200,-0.371632040
1640840814.682200,-0.185265900,-0.004702010,11.316624640,0.013396150,0.003202260,-0.366225900
1640840814.683830,-0.247614460,0.347697380,11.090456960,0.037091980,0.024802990,-0.353117380
1640840814.687000,-0.549719390,0.391133040,11.492232320,-0.027212500,0.025071210,-0.345510240
1640840814.688750,-0.398292570,0.323621780,10.996175770,-0.059296190,0.016416610,-0.328244300
1640840814.692100,-0.305776150,0.471424910,10.895737650,-0.005671380,0.020164250,-0.336590350
1640840814.693670,-0.340868980,0.463597740,11.406436920,0.040051340,0.066763170,-0.349587200
1640840814.697070,-0.222582000,0.563944040,11.471843720,0.024366380,0.054416060,-0.335139130
1640840814.698710,-0.315807490,0.700766380,11.687532420,-0.015342240,-0.031213460,-0.322103500
1640840814.702240,-0.344059320,0.482420470,11.398221020,-0.056877740,-0.012452900,-0.321164760
1640840814.703720,-0.245401500,0.409526880,10.938567160,-0.025717920,0.040893270,-0.319410920
1640840814.707080,-0.466517180,0.498986390,11.690280910,0.029039390,0.031182170,-0.314065900
1640840814.708660,-0.540568050,0.405633540,11.867551800,0.004968050,-0.016132000,-0.303015080
1640840814.711940,-0.208831090,0.420379280,10.959411620,-0.027526920,-0.026831030,-0.291106100
1640840814.713620,-0.248925830,0.554022130,11.271056180,-0.040401520,0.028330090,-0.283259090
1640840814.717380,-0.423681410,0.575807570,11.969411850,-0.057350090,0.043679770,-0.279682820
1640840814.718700,-0.419956620,0.631976070,11.771472930,-0.026488310,-0.047698620,-0.273433330
1640840814.722180,-0.240193890,0.787299510,11.074980740,-0.007961690,-0.056774910,-0.268176230
1640840814.723770,-0.128333400,0.825438020,11.085826870,-0.064973530,0.043451780,-0.250241100
1640840814.727750,-0.103783780,0.796406330,11.686997410,-0.092075750,0.088623170,-0.228960780
1640840814.728710,-0.057179140,0.604405880,11.693192480,-0.073227290,0.021153690,-0.225713850
1640840814.731950,-0.097985710,0.175623700,11.673970220,-0.015582140,-0.069312740,-0.239390130
1640840814.733720,-0.271927860,0.212730060,11.309238430,0.000695880,-0.012589990,-0.220128890
1640840814.736990,-0.169726970,0.229509800,10.676876070,-0.068131070,0.055073210,-0.205160680
1640840814.738790,-0.232255460,-0.121449840,11.684771540,-0.103665900,0.055049370,-0.214670640
1640840814.741980,-0.369592910,-0.090261050,12.124918940,-0.027582050,0.052343310,-0.206993540
1640840814.743620,-0.103270020,0.041607290,11.183886530,0.050936650,0.008124110,-0.217072710
1640840814.747050,-0.426912460,0.075353410,11.765706060,0.040702520,-0.017744300,-0.210191310
1640840814.748660,-0.525332270,0.306489260,11.486336710,-0.030714270,0.019709770,-0.180065620
1640840814.752450,-0.151192460,0.397970290,10.565654750,-0.036759670,0.037187340,-0.186020140
1640840814.754640,-0.214787740,0.219994320,11.551733970,0.028766690,0.075434160,-0.183652340
1640840814.756980,-0.235300540,0.356601300,12.111638070,0.078548500,0.095504510,-0.165790300
1640840814.758630,-0.278062430,0.387953040,11.792453770,0.080332150,-0.030627840,-0.176492300
1640840814.762730,-0.481220070,0.140213090,11.547100070,0.034277140,-0.080110130,-0.158938780
1640840814.763640,-0.374159190,0.223377560,11.020865440,-0.003531580,0.036789480,-0.153976680
1640840814.767190,-0.518543600,0.373292030,11.637059210,0.028787550,0.100065780,-0.177522000
1640840814.771000,-0.616524280,0.388129090,12.360249520,0.056053700,0.015816090,-0.163824870
1640840814.772260,-0.313973160,0.602652910,11.588100430,0.074194390,-0.034560270,-0.130534170
1640840814.773600,-0.417803790,0.634179710,11.463064190,0.054128480,-0.008706750,-0.145719960
1640840814.777010,-0.454411390,0.624423980,11.625035290,0.001220400,0.023981930,-0.120773920
1640840814.778680,-0.324732420,0.683584270,11.644230840,-0.005923210,0.008265680,-0.093083090
1640840814.782020,-0.346442190,0.485842530,12.115276340,0.031049550,0.012005860,-0.109745570
1640840814.783700,-0.172859000,0.486988840,11.860648160,0.050047040,0.027501580,-0.093743190
1640840814.788630,-0.023085510,0.748405460,11.373910900,0.026702880,0.011552870,-0.082844500
1640840814.789380,-0.250681220,0.591783400,11.741356850,-0.051026050,0.010393560,-0.085075210
1640840814.792070,-0.280831490,0.181284580,11.754245760,-0.045046210,0.018233060,-0.063009570
1640840814.793670,-0.349988100,0.102271990,11.426414490,0.073803950,-0.002089140,-0.077094120
1640840814.796990,-0.415455940,0.179261610,11.592932700,0.071617960,-0.003847480,-0.075352190
1640840814.799200,-0.314141990,0.318271880,11.786848070,-0.031223900,0.063249450,-0.049294530
1640840814.802180,-0.285104780,0.248334470,11.817206380,-0.059674680,0.076609860,-0.047105550
1640840814.804440,-0.301562400,-0.194611360,11.965343480,0.035679340,-0.019939250,-0.050780180
1640840814.808150,-0.404390220,-0.046285850,11.606220250,0.151519480,-0.022128230,-0.041671090
1640840814.808790,-0.413308950,0.390558750,10.881954190,0.091995320,0.028267510,-0.028915710
