# timestamp,accel_x,accel_y,accel_z,gyro_x,gyro_y,gyro_z
1640784143.981550,0.124855560,0.228585000,9.301599500,-0.067551460,0.096885870,0.023673480
1640784143.982800,0.228585590,0.261429550,9.979284290,-0.053520500,0.021605200,0.024832790
1640784143.986540,-0.014601350,0.086596760,10.380188940,-0.058913240,0.090687000,0.003528600
1640784143.988000,0.248473090,0.039744200,9.354930880,-0.026918950,-0.014944370,0.013515350
1640784143.991520,-0.314205970,-0.173911480,10.116994860,0.009904800,-0.009012220,0.003525610
1640784143.992790,0.042901360,-0.215509030,8.730019570,-0.020597880,0.111535210,-0.000609460
1640784143.996500,-0.159508450,0.004440540,9.894989010,-0.023071470,0.050623720,0.011275710
1640784143.997830,-0.577050090,-0.005433580,10.440772060,-0.053797670,0.110964500,0.008232890
1640784144.001590,-0.008433720,0.130396630,9.282291410,-0.034184770,-0.031550240,0.004072490
1640784144.003160,-0.547464310,0.137610390,10.399240490,0.016251210,0.017960370,-0.016072390
1640784144.006620,-0.089342400,0.008465070,9.036733630,0.037750610,0.120595100,-0.023911890
1640784144.007870,-0.307663680,0.175123940,10.011888500,0.063912580,0.009185080,-0.011360650
1640784144.011620,-0.353072910,0.220149680,9.878271100,-0.010082120,0.061462800,-0.001613800
1640784144.012870,0.240665910,0.223790780,9.040202140,-0.049786280,0.015866760,0.023405260
1640784144.020210,-0.420888130,0.221859840,10.537052150,-0.006125870,0.054264070,0.005535780
1640784144.020990,-0.080334860,0.140574010,9.579765320,0.027382380,0.042773780,-0.018453600
1640784144.021560,-0.188724350,0.148017000,10.117374420,0.086593620,-0.039198990,-0.016808510
1640784144.022940,-0.453249220,0.211594700,9.860486030,0.032709540,0.068911910,-0.029408940
1640784144.027020,-0.210147860,0.328523400,9.572485920,-0.037434700,-0.004984440,-0.007057190
1640784144.028360,-0.538534400,0.480508450,10.083511350,-0.050102180,-0.001773240,0.016959020
1640784144.031650,-0.141943450,0.447750570,9.311626430,-0.038024790,0.025828190,-0.006838140
1640784144.033430,-0.251068740,0.622889580,10.197069170,0.026872760,0.016556680,0.005625190
1640784144.038260,-0.347048670,0.545483110,10.014491080,0.017584860,0.007753080,-0.006748740
1640784144.039040,0.088367120,0.421460210,9.731982230,-0.035852190,-0.042819980,0.009925660
1640784144.041590,-0.007359050,0.387509640,9.909468650,-0.062492500,0.068023820,0.025083130
1640784144.042850,0.151493980,0.217067940,9.611159320,-0.076273090,0.046722590,0.008977950
1640784144.046670,0.049532100,0.333211960,10.289950370,-0.037066640,-0.004369020,0.016090270
1640784144.047910,0.032394770,0.288604440,9.381626130,-0.035846240,0.023999810,0.011365120
1640784144.051800,-0.041010180,0.091981870,9.746901510,-0.056549910,-0.032833220,0.010468070
1640784144.053550,-0.342417150,0.121333520,9.886317250,-0.045974560,0.058792530,0.014151630
1640784144.056570,-0.026805210,0.040035320,9.152338980,-0.053454940,0.031830370,0.001248720
1640784144.057860,-0.193283990,0.042371820,10.557950970,-0.045910490,0.055859990,0.038611890
1640784144.061630,-0.009159580,0.090172930,9.656092640,-0.053714230,0.114408150,0.016728040
1640784144.062920,-0.026200970,-0.097323720,10.085336690,-0.024230780,-0.062704090,0.025516750
1640784144.066930,-0.190618570,-0.046242350,9.755478860,0.006186960,0.041273240,0.031423570
1640784144.067960,0.253548980,-0.142470340,8.525695800,-0.010588770,0.056408350,-0.002852080
1640784144.071570,-0.160603940,-0.135832580,10.458252910,0.003588200,0.067612530,0.005066390
1640784144.072800,0.020594030,0.145499420,9.459422110,-0.007106360,0.143215030,0.005249680
1640784144.076600,-0.038954120,0.118131580,10.185062410,-0.023408240,-0.048460070,0.011377040
1640784144.077900,-0.345332920,0.173485440,10.200396540,-0.014674670,0.051459680,0.012530390
1640784144.081980,-0.073782120,0.069931030,8.845667840,0.035046040,0.038561240,-0.017738340
1640784144.083580,-0.697451890,0.044583430,10.543309210,0.079204150,0.016024710,-0.008201600
1640784144.086970,-0.335093860,0.210701140,9.172177310,0.039124490,0.089050840,0.001925230
1640784144.087940,-0.106549520,0.203698040,9.807482720,-0.011964140,-0.011137130,0.001685320
1640784144.091510,-0.400084110,0.255700620,10.453365330,-0.029131770,0.091531870,0.030963120
1640784144.092800,0.082542670,0.272271450,9.264167790,-0.002101060,0.008626280,0.007718800
1640784144.097620,-0.255293880,0.133617920,10.704981800,0.074617570,-0.027647620,-0.006186960
1640784144.098640,-0.059712080,0.239130780,9.303709980,0.075006480,0.080767280,-0.008498130
1640784144.101550,-0.143218490,0.363023430,9.803889270,0.024127960,-0.039860610,0.000111760
1640784144.103110,-0.408081380,0.455558780,10.201506610,-0.061194600,0.035282970,0.017099080
1640784144.106550,0.051193680,0.551009770,9.060064320,-0.077486040,0.029176470,0.020502510
1640784144.107910,-0.478460070,0.458096800,10.842135430,0.002320110,0.004762410,-0.003284220
1640784144.111630,-0.329144780,0.530452370,9.771583560,0.041250880,0.021582840,0.000591580
1640784144.113010,-0.145530940,0.444493440,9.700901030,0.036427370,-0.078828630,0.006541610
1640784144.116590,-0.278075840,0.326447990,10.081970210,-0.046619780,0.081293280,0.017380710
1640784144.117860,0.082628040,0.392313480,9.286906240,-0.104703010,0.033999980,0.024981790
1640784144.121570,-0.179446290,0.304165750,10.579627990,-0.072115670,-0.037540500,0.033801790
1640784144.122790,0.123301570,0.215252820,9.410373690,-0.035582490,0.047729920,0.021673740
1640784144.126540,0.047934810,0.128546850,9.842906950,0.010333960,-0.040185450,0.004161890
1640784144.131720,-0.204787270,-0.014246920,10.313694000,0.002780560,0.051230200,-0.003089010
1640784144.132870,0.256746020,0.056815190,8.967102050,-0.044730300,0.028271970,0.007031860
1640784144.133320,-0.130398390,0.089476230,10.306714060,-0.059670210,0.029218200,0.028800970
1640784144.137010,0.064926630,0.197485910,9.565441130,-0.084182630,0.104174030,0.021995600
1640784144.138230,-0.183678660,0.241841820,9.901396750,-0.020903350,-0.060762480,0.014662740
1640784144.141630,-0.468039100,0.074925010,9.966238020,0.023280090,-0.000417230,0.010265410
1640784144.142860,-0.071160050,-0.108865480,8.981873510,0.025112930,0.026540460,-0.006754700
1640784144.146800,-0.581602750,-0.184096530,10.441684720,0.032337010,0.051608680,-0.003661220
1640784144.148270,-0.188091740,-0.004524980,9.694196700,-0.016939640,0.087195630,0.009080770
1640784144.156010,-0.163344580,-0.009427450,9.950819970,-0.030924380,-0.051850080,0.020429490
1640784144.156460,-0.231200870,0.067902100,9.788054470,-0.013110040,0.024926660,0.009351970
1640784144.156780,0.087553850,0.032811880,9.216028210,0.046220420,0.016248230,-0.006972250
1640784144.157820,-0.381240700,-0.107919140,10.329512600,0.106631230,0.007934870,-0.017574430
1640784144.161670,-0.021248700,0.114788670,9.525036810,0.081481040,0.025771560,-0.020530820
1640784144.162840,-0.203800380,0.274917160,10.162446020,0.017118450,-0.016732520,0.005604330
1640784144.166530,-0.398052250,0.433597620,10.008832930,-0.038208070,0.026525560,0.017972290
1640784144.167870,-0.135969130,0.631941080,9.591185570,-0.031878050,-0.041887170,0.006252530
1640784144.171520,-0.459721510,0.404244660,10.144277570,0.056841970,0.000137090,0.000689920
1640784144.172810,-0.252806630,0.319404390,9.555804250,0.113499180,0.010161100,-0.016427040
1640784144.176610,-0.481460990,0.467994210,10.379010200,0.073800980,-0.061352550,-0.009319190
1640784144.178280,-0.269272090,0.348215490,9.542092320,-0.046966970,-0.013235210,0.025089090
1640784144.181600,0.186883420,0.423675420,9.562796590,-0.097867850,-0.005574520,0.019507110
1640784144.183260,-0.167374490,0.435744730,10.563154220,-0.044670700,0.070811820,0.010660290
1640784144.187000,0.131886910,0.441882700,9.759703640,0.034898520,-0.035455820,0.004397330
1640784144.187890,-0.110811060,0.351943970,10.308776860,0.072699790,-0.098246340,0.001242760
1640784144.191620,-0.117467160,0.170269650,9.257719990,-0.001293420,0.025364760,0.010812280
1640784144.192830,0.020855370,0.170302870,9.427388190,-0.063936410,-0.033649810,0.012472270
1640784144.196640,-0.257730960,0.197617830,10.289401050,-0.075611480,0.059066720,0.010031460
1640784144.199040,0.249671240,0.250069440,9.366722110,-0.049453970,0.047634540,0.019252300
1640784144.201540,-0.162006350,0.331533010,10.855842590,0.008109210,-0.034177300,0.016015770
1640784144.203010,-0.259189810,0.159494710,9.795418740,0.005342070,-0.007218120,0.007587670
1640784144.206570,0.132421970,0.007956580,8.854458810,0.007823110,-0.094147030,0.021076200
1640784144.207960,-0.321930560,-0.146720680,9.955215450,-0.001715120,0.089159590,0.011268260
1640784144.211680,0.253826890,-0.068981340,9.153758050,-0.031010810,0.120303020,0.000829990
1640784144.212870,-0.010744790,0.162899940,10.729187970,-0.012892480,-0.019983950,0.020353500
1640784144.216630,-0.074080870,0.128147500,9.918742180,-0.034488730,0.029762090,0.002026560
1640784144.217910,0.200868260,0.006378070,9.219688420,0.009173160,-0.060541940,-0.007022920
1640784144.221560,-0.529320300,-0.065720850,10.111175540,0.079934310,0.042909390,-0.027620800
1640784144.222800,-0.174126980,-0.094379950,8.969797130,0.081235180,0.053885590,-0.026823580
1640784144.226540,-0.376685800,0.100457920,10.250552180,0.039635600,-0.000102820,0.004005430
1640784144.227970,-0.311177070,0.179965150,9.790078160,-0.048799820,0.077480080,0.004053120
1640784144.231500,-0.097400450,0.042927110,9.935331340,-0.014476480,-0.016985840,0.007341800
1640784144.232870,-0.475878090,0.057267950,10.328945160,0.091016300,0.012421610,-0.011728700
1640784144.236540,-0.091914450,-0.022118600,9.257072450,0.137482600,-0.021088130,-0.043691690
1640784144.237840,-0.232497510,0.191246730,10.004641530,0.113262240,0.006826220,-0.024643540
1640784144.241760,-0.205492270,0.455937450,9.549077030,-0.013290350,0.062051430,-0.001859670
1640784144.243130,-0.065348250,0.409270470,10.096738820,-0.059087580,-0.056380030,0.015239420
1640784144.246590,-0.149918200,0.532771470,10.055478100,0.024215870,0.035908810,0.001566110
1640784144.247940,-0.128079130,0.535991910,9.719137190,0.095623740,-0.020426510,-0.024002790
1640784144.251520,-0.480069490,0.534013330,10.538193700,0.094611950,-0.042620300,-0.003062190
1640784144.253210,-0.143067670,0.474316900,9.098235130,0.011360650,0.002923610,-0.003096460
1640784144.256580,-0.155066010,0.234745190,9.979372980,-0.040781500,-0.014840070,0.021517280
1640784144.258700,-0.238766600,0.343437550,10.055346490,-0.034129620,0.086916990,0.022140150
1640784144.261630,0.108184580,0.391639500,9.546243670,-0.015872720,-0.056052210,0.005625190
1640784144.263950,-0.140582310,0.220797460,10.541518210,0.027497110,-0.031097240,0.018458070
1640784144.266550,0.169734370,0.191577880,9.093395230,0.023742020,0.050158800,-0.012330710
1640784144.268020,0.002248960,0.096210110,10.122045520,0.012807550,-0.058543690,-0.005823370
1640784144.271560,-0.009389680,0.145439880,9.794369700,-0.013464690,0.070974230,0.020283460
1640784144.272830,0.319380070,0.124852720,9.063320160,-0.038038190,0.028187040,0.004413720
1640784144.276580,-0.338451530,0.166209910,10.870056150,-0.010704990,0.007307530,0.022545460
1640784144.278400,-0.030886750,0.073481790,9.127336500,0.024029610,0.017352400,0.016017260
1640784144.281490,-0.096986410,-0.183449920,9.703137400,0.069969890,-0.069619720,-0.013470650
1640784144.282840,-0.350277660,-0.089631390,9.927598000,0.057782230,0.118979820,-0.015421210
1640784144.286760,0.054105300,0.017311890,9.164510730,0.022694470,0.040471550,-0.009502470
1640784144.287920,-0.353482630,-0.039919210,10.727220540,0.005520880,-0.006765130,-0.001162290
1640784144.291540,0.058132480,0.172680170,9.151001930,0.014625490,0.056695940,0.008611380
1640784144.292840,-0.049315600,-0.012978930,9.781529430,0.074027480,-0.042693320,-0.010225180
1640784144.296840,-0.400027990,-0.077475240,10.010158540,0.112190850,0.068740550,-0.031246240
1640784144.297900,0.041329420,0.179047030,9.032456400,0.099970410,0.012534860,-0.021249060
1640784144.301500,-0.410912100,-0.003024450,10.627084730,0.060166420,0.017410520,-0.003482400
1640784144.302840,-0.156503800,0.184451220,9.500675200,0.028997660,0.061294440,0.003494320
1640784144.307120,-0.267103520,0.288980660,9.975811960,0.048722330,-0.066317620,-0.008443000
1640784144.308200,-0.413321230,0.157209160,9.939707760,0.081920620,0.031560660,-0.018537040
1640784144.311650,-0.112013960,0.287973310,9.210544590,0.119917100,0.008377430,-0.028830770
1640784144.312940,-0.558005930,0.227082150,10.601829530,0.111877930,-0.001785160,-0.018918510
1640784144.317060,-0.071232640,0.419038530,9.389370920,0.032809380,0.004729630,-0.006979700
1640784144.317910,0.029926720,0.562956870,9.830263140,0.004518030,-0.031611320,0.010730330
1640784144.322940,-0.107673250,0.529910740,10.144622800,0.003123280,0.090117750,-0.000554320
1640784144.324780,0.035281260,0.626182200,9.662963870,0.050304830,-0.037053230,-0.003662710
1640784144.326530,-0.271713760,0.495319430,10.207975390,0.087220970,-0.071735680,-0.005511940
1640784144.327980,0.185154500,0.346156540,8.887279510,0.034749510,0.039547690,0.001303850
1640784144.331550,-0.079820550,0.313090210,9.963917730,0.008505580,0.027932220,0.008139010
1640784144.332880,-0.177686900,0.234219100,10.230583190,-0.032566490,0.058066850,0.002534690
1640784144.336900,0.208993300,0.220019040,9.430943490,-0.019745530,-0.034227970,0.009359420
1640784144.338070,-0.191875500,0.182207880,10.191421510,0.019843880,0.008182230,-0.005134940
1640784144.341550,0.061946380,0.011742810,9.309567450,0.024308270,0.049449500,-0.007647270
1640784144.342930,-0.142382760,-0.018404580,9.773518560,0.055739290,-0.030517580,-0.004470350
1640784144.346630,-0.109954950,-0.009849380,9.658990860,0.024811930,0.073896360,0.000636280
1640784144.347940,0.201623310,0.060515830,9.483533860,-0.017842650,0.052937870,0.013618170
1640784144.351530,-0.346536550,0.176870510,10.503159520,0.007429720,0.031961500,0.008378920
1640784144.353140,-0.042736020,0.228773300,9.491960530,0.013038520,0.003333390,-0.006721910
1640784144.356590,-0.204934550,0.164885730,9.697530750,0.058498980,-0.019730630,-0.008220970
1640784144.357910,-0.307254880,0.067560050,9.503719330,0.077147780,0.079716750,-0.037582220
1640784144.361580,-0.151936780,0.147693010,9.716786380,0.056634840,0.035770240,-0.032116480
1640784144.362950,-0.386859390,0.191113110,10.119686130,0.023002930,0.022180380,-0.001089270
1640784144.366550,0.030861680,0.119761070,9.505311010,-0.010931490,-0.002843140,-0.012013310
1640784144.367940,-0.316701980,0.097277730,10.244706150,0.036901240,0.015696890,-0.008039180
1640784144.371570,-0.319107380,0.085099760,9.499634740,0.080354500,0.007177890,-0.020913780
1640784144.373350,-0.178038450,0.049239710,9.835231780,0.102584070,-0.044524670,-0.028382240
1640784144.376560,-0.331315790,0.182261360,9.820843700,0.069671870,0.062046950,-0.026027860
1640784144.377920,-0.135592300,0.414715530,9.611471180,0.002089140,-0.009554630,-0.012251740
1640784144.381540,-0.330590640,0.488123770,10.551471710,-0.028115510,-0.032097100,-0.014394520
1640784144.382880,-0.020953090,0.500951830,9.273592000,0.015671550,0.015129150,-0.021415950
1640784144.386590,-0.167348700,0.563669620,10.264912610,0.087399780,-0.043432410,-0.031565130
1640784144.388230,-0.428022090,0.666019200,10.181169510,0.057806080,0.023141500,-0.029958790
1640784144.391530,0.070680380,0.628519770,9.037874220,-0.032983720,-0.070066750,-0.005330150
1640784144.392830,-0.214518560,0.412302460,10.447526930,-0.055396560,0.004456940,-0.004091860
1640784144.396590,0.010767870,0.362406700,9.476817130,-0.037314000,0.088347490,-0.015002490
1640784144.397850,-0.065400220,0.347363530,10.376970290,0.013613700,-0.102309900,-0.011210140
1640784144.401910,-0.289075020,0.276360810,10.338583950,0.008174780,0.003464520,-0.014828150
1640784144.402960,0.191571830,0.297935370,8.902486800,-0.049416730,-0.020524860,-0.009751320
1640784144.406560,-0.245254020,0.341025560,10.627465250,-0.069071340,-0.028252600,-0.005103650
1640784144.408020,0.047741770,0.455755650,9.354190830,-0.084117070,0.086858880,-0.007699430
1640784144.411650,0.213162470,0.447931050,9.847370150,-0.047498950,-0.048396000,-0.006191430
1640784144.412940,-0.314098330,0.525246860,10.784492490,-0.047169630,0.029301650,-0.006395580
1640784144.416550,0.198125600,0.382574740,9.035256390,-0.065074860,-0.010809300,0.000013410
1640784144.418180,-0.075349810,0.128268150,10.274537090,-0.037735700,-0.040061770,0.013966860
1640784144.421870,0.027337470,0.019683800,9.408806800,-0.054623190,0.128109770,0.003646310
1640784144.422890,0.301547710,0.006701670,9.589013100,-0.055047880,0.017820300,-0.005942580
1640784144.426560,-0.225484670,0.052489570,10.653002740,-0.067025420,0.044365220,0.008168810
1640784144.427970,0.120218820,-0.081811060,9.247665410,-0.071178380,0.006172060,-0.009210410
1640784144.431530,-0.244655920,-0.195436850,10.275693890,-0.000686940,-0.032953920,-0.018495320
1640784144.432900,-0.265276760,-0.063597570,9.459940910,0.009177630,0.086157050,-0.029926010
1640784144.436630,-0.126800240,0.025926360,9.632623670,0.000099840,0.035990780,-0.012867150
1640784144.439970,-0.263929520,0.111291680,10.356129650,-0.046609350,0.100161150,0.000916420
1640784144.441540,-0.007015480,0.214427380,9.600617410,-0.048935410,0.026068090,-0.000357630
1640784144.442920,-0.300884570,0.105143510,10.297701840,0.014446680,-0.026240940,0.013910230
1640784144.446650,-0.063066420,0.006914640,9.205405240,0.033536550,0.046554220,-0.015331810
1640784144.447920,-0.152402770,-0.092324790,9.697986600,0.067661710,0.024834280,-0.027462840
1640784144.451510,-0.340190170,-0.021639850,10.181657790,0.035858160,0.107394160,-0.018978120
1640784144.452880,-0.149995030,0.173372360,9.804786680,-0.026369100,-0.020083790,-0.008010860
1640784144.456550,-0.409477950,0.152142320,10.310845380,-0.018881260,-0.020505490,0.005239250
1640784144.457910,-0.147147600,0.231142040,9.270551680,0.013333560,0.054073330,-0.010459130
1640784144.461560,-0.522624910,0.229229640,10.329615590,0.084571550,-0.013455750,-0.023078920
1640784144.462950,-0.456792290,0.302249220,10.012831690,0.086887170,0.024239720,-0.025568900
1640784144.466650,-0.043728240,0.427176150,9.403261180,0.017116960,-0.022581220,-0.013633070
1640784144.467940,-0.469873670,0.491991640,10.540858270,-0.035832830,0.039510430,0.004690890
1640784144.472090,0.027885490,0.675245760,9.511141780,-0.065551690,0.022301070,0.004841390
1640784144.473030,-0.065703630,0.490857660,10.215518000,0.004895030,-0.052431230,0.010240080
1640784144.476590,-0.185643660,0.493618700,9.984373090,0.052785880,0.053395330,-0.020463760
1640784144.477890,0.023679540,0.548434080,9.669804570,0.007104870,-0.037343800,-0.016050040
1640784144.482130,-0.385733540,0.312036780,10.439589500,-0.049702830,-0.030346210,-0.001724060
1640784144.483390,0.063242820,0.400722680,9.247934340,-0.086876740,0.041778380,-0.003340840
1640784144.486510,-0.156204860,0.471108320,10.261906620,-0.077635060,0.002996620,0.000353160
1640784144.488300,-0.235773860,0.517113980,10.083765980,-0.060346730,0.029912590,0.005653500
1640784144.491530,0.131826710,0.504615250,9.614853860,-0.048390030,-0.025799870,0.008529420
1640784144.492870,-0.357894420,0.259742650,10.534152030,-0.031745440,0.007380550,-0.000992420
1640784144.497080,0.015805560,0.233809830,9.456888200,-0.057016320,-0.003217160,0.009885430
1640784144.498190,0.062909950,0.183834850,9.965790750,-0.083504620,-0.010481480,0.022238500
1640784144.501540,0.119563300,0.078692700,9.645784380,-0.102022280,0.113733100,0.015783310
1640784144.502840,0.308719130,0.289055620,9.916268350,-0.081272420,0.021155170,0.003799800
1640784144.506590,-0.144279750,0.226558280,10.485770230,-0.069166710,0.006070730,0.006031990
1640784144.507970,0.255266280,0.005311430,9.054853440,-0.055304170,0.001440940,0.017292800
1640784144.511580,-0.167156580,-0.075996030,10.278487210,-0.005541740,0.025115910,-0.001826880
1640784144.512940,-0.240807640,-0.021140040,9.613432880,-0.029887260,0.120738160,-0.001998250
1640784144.516550,-0.037005190,0.082242260,9.788719180,-0.064417730,-0.013293330,0.028173620
1640784144.517900,-0.420905320,0.049466050,10.521216390,-0.086179380,0.081036980,0.018921500
1640784144.521800,0.003051860,-0.046117290,9.246857640,-0.043882430,0.043557580,0.002509360
1640784144.522860,-0.458368300,-0.106032590,10.632621770,0.053259730,-0.028663870,0.006043910
1640784144.526600,-0.191480320,-0.175196860,9.247274400,0.053265690,0.093252960,-0.021995600
1640784144.528020,0.070435360,-0.028388290,9.508916850,0.012286010,0.011032820,-0.007890170
1640784144.531760,-0.353218730,0.250115040,10.573146820,-0.052060190,0.118803990,0.015075500
1640784144.533350,0.137682600,0.121785200,9.380741120,-0.069874530,0.026559830,0.015722220
1640784144.536510,-0.230226250,0.190582750,10.615745540,0.048786390,-0.035168230,0.023293500
1640784144.538320,-0.288499620,0.100467460,9.489793780,0.100050870,0.073687730,-0.021496420
1640784144.541560,-0.331555660,0.100413940,9.672764780,0.087474290,-0.037428740,-0.015957660
1640784144.542870,-0.667296230,0.261908290,10.280078890,0.002171100,0.052584710,0.009153780
1640784144.546690,-0.177712570,0.179687960,9.350070950,-0.051388150,0.031718620,0.002205370
1640784144.549690,-0.484036000,0.381447520,10.671747210,0.003716350,-0.002665820,0.008063020
1640784144.551540,-0.287453110,0.614224260,9.826066020,0.017665330,0.034777820,-0.008915360
1640784144.552840,-0.145329950,0.391247870,9.972782140,0.043626130,-0.053939230,0.000362100
1640784144.556550,-0.265672390,0.438065470,10.228685380,0.048524150,0.030399860,-0.000041720
1640784144.557870,-0.048032290,0.535667240,9.589138980,-0.009711090,-0.012011820,0.005376340
1640784144.561750,-0.101147900,0.365396500,10.266952510,-0.042110690,-0.032763180,0.039824840
1640784144.562930,0.181028960,0.489091460,9.529535290,-0.064189730,0.071917480,0.019811090
1640784144.566610,-0.039204470,0.518008350,10.473614690,-0.040699540,-0.012826920,0.010266900
1640784144.567920,-0.239806490,0.462744560,10.422636030,-0.010013580,-0.011292100,0.014320020
1640784144.571940,-0.059085970,0.392921180,9.438111310,-0.015875700,-0.069345540,0.003072620
1640784144.572910,-0.436276760,0.303041670,10.222089770,-0.026756530,0.001853700,0.014612080
1640784144.576690,-0.110659500,0.440426410,9.346395490,-0.091563150,0.066713970,0.026711820
1640784144.578060,-0.124234010,0.423841360,10.219817160,-0.110597930,-0.020681320,0.035563120
1640784144.582050,-0.032894860,0.241986200,10.228648190,-0.070156160,0.060103830,0.039422510
1640784144.583220,0.242683990,0.234448940,9.721036910,-0.021336970,-0.006300210,0.019615890
1640784144.586850,-0.303030070,0.013117010,10.706255910,-0.003476440,-0.053179270,0.033599140
1640784144.588000,0.278455620,-0.075091050,8.937348370,-0.050550700,0.040988620,0.040112440
1640784144.591500,0.167668370,-0.080229410,9.745538710,-0.070241100,0.032629070,0.016252700
1640784144.593070,-0.057943070,0.074307430,10.211523060,-0.073349470,0.120803710,0.037074090
1640784144.596650,0.333537430,0.207025350,9.551797870,-0.059528650,0.018334390,0.031575560
1640784144.598410,-0.363644360,0.063592220,10.822436330,-0.008156890,-0.020724530,0.019845370
1640784144.601530,-0.060802290,0.066088460,9.193019870,0.017255540,0.034032770,0.010600690
1640784144.602880,-0.331830320,-0.008514040,9.774291990,0.019778310,0.008025770,-0.003616510
1640784144.606560,-0.528300340,-0.053324670,10.016286850,-0.018008050,0.115220250,0.001183150
1640784144.608030,0.051551150,0.211204420,9.558508870,-0.031045080,0.040765100,0.014412400
1640784144.615960,-0.416680490,0.247066130,10.581773760,-0.024972860,0.037977100,0.020937620
1640784144.616460,-0.008037970,0.234414430,9.373257640,-0.018022960,0.014683610,0.022155050
1640784144.616750,-0.119520070,0.057924160,10.171249390,0.055000190,-0.014686590,0.008413200
1640784144.617890,-0.264943180,-0.054453440,9.847815510,0.080703210,0.087475780,-0.010056790
1640784144.621800,-0.043013070,0.144195110,9.834933280,0.049693880,0.005131960,-0.003746150
1640784144.622900,-0.333383860,0.296844270,10.390443800,-0.029739740,0.039501490,0.012980400
1640784144.626650,-0.028851610,0.402249220,9.390589710,-0.068776310,0.012718140,0.009441380
1640784144.627940,-0.351425440,0.540025170,10.403779030,-0.007557870,-0.005683300,0.007939340
1640784144.631580,-0.428833720,0.466224610,9.738317490,0.038599960,0.039196010,-0.006470080
1640784144.632890,-0.289712100,0.358979230,10.002580640,0.071367620,-0.059112910,0.002515320
1640784144.636520,-0.503498790,0.444510850,10.332916260,0.025956340,0.050070890,0.004939730
1640784144.638310,-0.121329750,0.419319930,9.547292710,-0.086660710,0.006251040,0.024260590
1640784144.641800,-0.103539350,0.554598090,10.422414780,-0.097620490,-0.027213990,0.042954090
1640784144.642910,0.170486790,0.428556890,9.532186510,-0.055170060,0.090755520,0.021024050
1640784144.647620,0.238470330,0.348623780,10.106415750,0.029870870,-0.025676190,0.012595950
1640784144.648230,-0.124751360,0.496459570,10.521284100,0.034978980,0.005830820,0.014059250
1640784144.651550,0.287668230,0.199816090,9.059464450,-0.055165590,-0.015464430,0.023248790
1640784144.652860,-0.026892600,0.111880170,10.256139760,-0.082314020,0.023438040,0.042116650
1640784144.656590,-0.028003620,0.220501100,9.720730780,-0.083448000,0.136062520,0.016371910
1640784144.658140,0.052370140,0.157208010,10.048058510,-0.026391440,-0.013121960,0.029505790
1640784144.661630,-0.285354730,0.242282150,10.505897520,0.006151200,0.028188530,0.025884810
1640784144.663590,-0.006541660,0.085166080,9.142623900,-0.021514300,0.018121300,-0.000512600
1640784144.666550,-0.270627920,-0.042837010,10.087874410,-0.002521280,-0.012671950,0.024735930
1640784144.667920,-0.061122800,-0.028004280,9.420169830,-0.016656520,0.134515760,0.018912560
1640784144.672270,0.179343430,-0.021770660,9.861469270,-0.018122790,0.068202620,0.007286670
1640784144.672990,-0.103258130,0.223073440,10.661341670,-0.012578070,0.088265550,0.041131680
1640784144.676620,0.179794300,0.211671860,9.458931920,-0.020566580,0.023087860,0.023356080
1640784144.678820,-0.223000530,-0.051811140,10.276000020,0.027501580,-0.022780900,0.021351880
1640784144.681550,-0.235166940,-0.041620880,9.211536410,0.076168780,0.082173940,-0.001132490
1640784144.682880,-0.370454340,-0.032582480,9.740884780,0.063163050,0.036506350,-0.016064940
1640784144.686560,-0.550866960,0.072680930,10.326474190,0.012440980,0.089731820,0.017136340
1640784144.688430,-0.062945370,0.286042660,9.518715860,-0.018672650,0.031049560,0.020681320
1640784144.691650,-0.450318130,0.143114660,10.729498860,0.024926660,0.022946300,0.023725630
1640784144.692900,-0.169990580,0.291616620,9.464715960,0.067976120,0.054644060,0.018350780
1640784144.697460,-0.212717550,0.271464140,9.933650970,0.104492910,-0.042952600,0.008463860
1640784144.697970,-0.346636710,0.150589970,9.985448840,0.068357590,0.078944870,0.010401010
1640784144.701500,-0.018781210,0.481381770,9.375392910,0.009222330,0.016541780,0.025179980
1640784144.702870,-0.379709330,0.488738720,10.635374070,-0.032646960,-0.013162200,0.027453900
1640784144.706600,0.136820090,0.454651890,9.353796010,-0.015962120,0.060197720,0.025039920
1640784144.709870,-0.102558430,0.486987320,10.362087250,0.075347720,-0.001256170,0.010252000
1640784144.711550,-0.494749190,0.455318720,10.666357990,0.083585090,0.034610930,0.008940700
1640784144.712940,0.083318070,0.472658190,9.056864740,0.028488040,-0.072866660,0.038623810
1640784144.716510,-0.311838660,0.369419190,10.108748440,-0.030358140,0.017392640,0.038024790
1640784144.717880,0.024280980,0.294992180,9.362195010,-0.067795820,0.132879610,0.027911370
1640784144.721610,-0.053155710,0.477335600,10.265655520,0.007919970,-0.036747750,0.023609400
1640784144.723280,-0.248215760,0.342846300,10.518569950,0.030259790,0.032834710,0.015062100
1640784144.726550,0.272446810,0.284987780,9.218814850,0.011436640,-0.001224880,0.010496380
1640784144.727950,-0.347357990,0.222423930,10.540996550,-0.004898010,-0.022752580,0.015078490
1640784144.731630,0.115954220,0.004974800,9.246582980,-0.041267280,0.086164470,0.026923420
1640784144.732900,0.169227110,0.073130820,9.794805530,0.005283950,0.025664270,0.033646820
1640784144.736610,-0.210060360,0.144648310,10.470426560,0.005629660,0.074648850,0.025504830
1640784144.738190,0.136987860,0.025174200,9.466949460,0.006113950,-0.009174650,0.030426680
1640784144.743240,-0.402516040,-0.010096390,10.248965260,0.043235720,-0.040261450,0.013303760
1640784144.743840,-0.215718060,-0.135357170,9.346537590,0.039261570,0.059477990,-0.011950730
1640784144.746590,-0.269170760,0.060757590,9.910949710,0.041414800,0.031800570,-0.006461140
1640784144.748000,-0.548891070,0.371521440,10.191980360,0.014734270,0.066184980,-0.004486740
1640784144.751570,-0.100944770,0.472371970,9.763574600,-0.025030970,-0.025534630,0.008623300
1640784144.753040,-0.340217620,0.518174110,10.144151690,0.010178980,-0.010243060,0.020135940
1640784144.756960,-0.156585740,0.307952760,9.400536540,0.046454370,0.026430190,-0.003993510
1640784144.757910,-0.259429070,0.177779180,10.338158610,0.090298060,0.001354520,-0.001357500
1640784144.761590,-0.315586660,0.207698670,9.951998710,0.064152490,0.024239720,-0.005470220
1640784144.762970,-0.051313040,0.137559460,9.966121670,-0.013250110,-0.045456000,0.001582500
1640784144.766540,-0.232740250,0.325035510,10.299442290,-0.038440530,0.035904350,0.020274520
1640784144.767940,-0.052071350,0.384448230,9.598493580,-0.028650460,-0.013040010,0.002351400
1640784144.771780,-0.269308920,0.273712250,10.631479260,0.055231160,-0.031721590,0.000065570
1640784144.773270,-0.269708100,0.406352940,9.646818160,0.087153930,0.014482440,-0.017076740
1640784144.776570,-0.203322800,0.474268380,9.884015080,0.026957690,-0.104555500,0.003229080
1640784144.777920,-0.246291240,0.519501270,10.142421720,-0.049372020,0.036208330,0.037661200
1640784144.781500,0.157357040,0.512521920,9.194853780,-0.083184240,0.039163240,0.019329780
1640784144.782910,-0.149564520,0.517140810,10.987474440,-0.020995740,-0.027599940,0.009414550
1640784144.786640,-0.015904730,0.542643130,9.796886440,0.013458730,0.027784710,0.016696750
1640784144.788000,0.120251590,0.248760390,9.614161490,0.016742940,-0.108107930,0.008913870
1640784144.791540,-0.293582590,0.059935340,10.403572080,-0.008657570,0.029206280,0.018370150
1640784144.792900,0.177531450,0.081064960,8.773567200,-0.043900310,0.036583840,0.013498960
1640784144.796880,-0.100536460,-0.010307450,10.461194990,-0.039824840,-0.034168360,0.033944850
1640784144.797950,0.037413960,0.076778630,9.859573360,-0.035128000,0.114572050,0.025427340
1640784144.801780,0.154478390,0.102910060,9.787983890,0.017268960,-0.045518580,0.007008020
1640784144.802910,-0.513584910,-0.039873540,10.861854550,0.050331660,-0.046040110,0.000138580
1640784144.806590,-0.034199600,0.018079690,8.627735140,0.029970710,0.004875660,-0.013037030
1640784144.807970,-0.394080310,-0.023313270,10.047986030,0.027066470,-0.024715070,-0.014433260
1640784144.811570,-0.387697960,0.227789160,9.920282360,-0.013671820,0.116725270,-0.002589820
1640784144.813600,-0.007599640,0.473924340,9.570670130,-0.019112230,-0.038872660,0.009800490
1640784144.816540,-0.390144970,0.286350520,10.803656580,0.005275010,-0.039620700,0.016717610
1640784144.818590,0.059544170,0.194706100,9.170560840,0.058782100,0.025638940,-0.006473060
1640784144.821860,-0.376750590,0.071833260,10.290986060,0.112031420,-0.072580580,-0.018578770
1640784144.823620,-0.478920820,0.058728400,9.980179790,0.055526200,0.007501240,-0.007173420
1640784144.826560,-0.020078280,0.307714520,9.136364940,-0.008358060,-0.063672660,-0.004450980
1640784144.827980,-0.414219320,0.372782260,10.435649870,-0.045114750,0.014695520,0.005473200
1640784144.831490,-0.062721830,0.552604790,9.752485280,-0.029861930,0.018508730,-0.005464250
1640784144.832940,-0.241344930,0.491918030,10.521778110,0.073853130,-0.096885860,-0.007463990
1640784144.836540,-0.275462060,0.313558790,10.065128330,0.099581500,-0.040081150,-0.008253750
1640784144.838270,-0.081651320,0.480880680,9.435653690,0.042064490,-0.069135430,-0.002124910
1640784144.841520,-0.257916000,0.433422980,10.006889340,-0.048443680,-0.015188760,0.033663220
1640784144.842950,0.209062260,0.447217850,9.467924120,-0.101269790,0.023899970,0.035786620
1640784144.847460,-0.034057170,0.455025490,10.490133290,-0.019915400,-0.027756400,0.015869740
1640784144.848440,-0.093222560,0.446910560,10.115011220,0.040592250,-0.044120850,-0.001794100
1640784144.851540,0.003457210,0.391846330,9.737789150,0.042332710,-0.118905330,0.002284350
1640784144.852930,-0.292129250,0.196546550,9.851452830,-0.005361440,-0.008074940,0.017926100
1640784144.856600,0.038405140,0.103182020,9.386654850,-0.071063650,0.011959670,0.009161230
1640784144.857910,-0.158629340,0.212410230,10.283477780,-0.038997830,-0.010456150,0.025916100
1640784144.861620,0.105401110,0.230828760,9.614157680,-0.024223330,0.014907120,0.015293060
1640784144.863680,0.125269590,0.204103560,10.015802380,-0.010342900,-0.077049430,0.012496110
1640784144.866580,-0.244272460,0.180684580,10.035387990,0.015980010,-0.019825990,0.005656480
1640784144.867920,0.229240450,-0.069901990,9.106345180,0.012078880,-0.022459030,-0.013093650
1640784144.871960,-0.188348340,0.027614010,10.355596540,0.015872720,0.025495890,0.011663140
1640784144.872880,-0.048426850,0.117253570,9.614455220,-0.015921890,0.044859950,0.004562740
1640784144.876580,0.020700030,0.144874930,10.032818790,-0.021120910,-0.079812120,0.016994770
1640784144.877960,-0.371274680,0.199840590,9.913168910,-0.000424680,0.008739530,0.009337070
1640784144.881540,-0.066582930,-0.069989280,9.237300870,0.046263630,-0.048966710,-0.017657870
1640784144.883070,-0.521339950,-0.126842410,10.350988390,0.110997270,-0.021550060,-0.020661950
1640784144.886550,-0.341457190,0.150000990,9.304585460,0.081668790,0.024807450,-0.019101800
1640784144.888300,-0.228531050,0.241955090,10.182035450,-0.000824030,-0.072111190,0.008770820
1640784144.891580,-0.324808660,0.421796980,10.134063720,-0.047706060,0.027102230,0.018897650
1640784144.892880,0.059194420,0.384674610,9.579877850,0.005888940,-0.053840880,-0.001010300
1640784144.897720,-0.321668270,0.364472450,10.640309330,0.113888080,-0.061438970,-0.014300640
1640784144.899080,-0.130440700,0.432001470,9.237519260,0.114075840,-0.044511260,-0.020925700
1640784144.901510,-0.071828510,0.444768640,9.868028640,0.044681130,-0.091581050,-0.004689400
1640784144.902910,-0.275326910,0.480191080,10.046159740,-0.064831970,0.043302780,0.016219910
1640784144.906620,0.087220360,0.563445510,9.534297940,-0.078368170,-0.048826630,0.003772970
1640784144.907980,-0.174016850,0.427617700,10.793383600,0.006881360,-0.046683850,0.002652410
1640784144.911610,-0.072529320,0.366434630,9.578940390,0.063683100,-0.005036590,-0.010667740
1640784144.913040,-0.285964580,0.341017840,10.151864050,0.069966910,-0.151909900,-0.005091730
1640784144.916590,-0.311426790,0.170930760,9.670112610,-0.028666850,-0.036680690,0.020574030
1640784144.917950,0.196404170,0.168431160,8.804444310,-0.076191130,-0.010541080,0.031289460
1640784144.921800,-0.098795880,0.218200100,10.870600700,-0.042176240,0.043620170,0.029262900
1640784144.922920,0.136862810,0.416437360,9.988456730,-0.008603930,0.009381770,0.006140770
1640784144.926540,0.093016300,0.472744050,10.119934080,0.039988760,-0.174409170,0.011344250
1640784144.928030,0.031558510,0.313692360,9.695605280,-0.004477800,0.005126000,-0.003911560
1640784144.932380,0.143957440,0.176045700,9.011146550,-0.019536910,-0.000673530,-0.006717440
1640784144.932970,-0.410205040,0.136840240,10.630308150,0.015178330,-0.020316250,0.007593630
1640784144.936530,0.019985070,0.264364270,9.321620940,-0.028897820,0.024738910,0.005953010
1640784144.938220,-0.183625490,0.193675400,10.072882650,-0.042006370,-0.075232990,0.023384390
1640784144.941510,-0.404830520,-0.070230980,10.336686130,-0.011429190,0.015412270,0.016191600
1640784144.942890,-0.189024720,-0.303774300,9.443659780,0.064513080,-0.062273440,-0.017642970
1640784144.946690,-0.554501950,-0.230869950,10.242056850,0.109425210,-0.065431010,-0.019833450
1640784144.949730,-0.063131620,0.037602780,9.198522570,0.023061040,0.028657920,-0.010342890
1640784144.951520,-0.309507190,0.196463540,10.111064910,-0.032749780,-0.049676000,0.007702410
1640784144.952890,-0.293311210,0.492533950,10.128561970,-0.036512320,-0.026097890,0.012940170
1640784144.956560,0.156322780,0.519576130,9.551949500,0.026783350,-0.060148540,-0.001709160
1640784144.957920,-0.409706860,0.474300320,10.586539270,0.111323600,-0.043873490,-0.011152030
1640784144.961760,-0.101503130,0.583508610,9.568498610,0.077204410,-0.037510700,-0.007940830
1640784144.963070,-0.204341250,0.481548400,9.970567700,-0.012272600,-0.094808630,0.008626280
1640784144.967980,-0.180480420,0.425628990,9.661947250,-0.066889820,-0.010921060,0.023221970
1640784144.968440,0.006299000,0.440792890,9.771445270,-0.056901570,-0.035625700,0.009651480
1640784144.971520,-0.437186930,0.329884140,10.498434070,0.007238980,-0.064854320,-0.002714990
1640784144.972900,-0.145153250,0.233287620,9.581675530,0.049650670,-0.104482470,-0.005881490
1640784144.976600,-0.307874050,0.102993300,10.166605000,0.049336250,-0.079569220,0.000220540
1640784144.980050,-0.212884660,0.057360240,9.624713900,-0.019739570,0.005307790,0.012755400
1640784144.982950,0.097723160,0.279289450,9.851527210,-0.059756640,-0.075042250,0.026813150
1640784144.983730,-0.065700240,0.279912410,10.152140620,-0.046795610,-0.004243850,0.027704240
1640784144.986550,0.329763920,0.436349480,9.348724370,-0.007939340,-0.049757950,0.011432170
1640784144.987950,-0.032136480,0.498961180,10.472098350,0.037039820,-0.085788970,0.007557870
1640784144.991970,0.036954700,0.267662260,9.342473980,0.016669930,-0.013433400,0.002957880
1640784144.992890,0.201006560,0.191492890,9.553660390,0.002975760,-0.079005960,0.008964540
1640784144.996640,-0.257156040,0.134705830,10.269687650,-0.033700470,0.059010090,0.009775160
1640784144.998000,0.065037620,0.139202280,9.272241590,-0.042484700,-0.014506280,0.018550460
1640784145.001500,-0.403006640,0.063808180,10.616181370,-0.003276770,-0.098162890,0.022560360
1640784145.002900,-0.218656990,-0.165935100,9.085573200,0.010856990,-0.005233290,-0.007228550
1640784145.006510,-0.094829080,-0.267598540,9.398748400,0.071540480,-0.080825400,-0.015082960
1640784145.008040,-0.555883650,-0.142664570,10.436144830,0.081367790,0.065717110,-0.014221670
1640784145.011780,0.014016080,-0.027026940,9.368228910,0.017715990,-0.038293000,-0.003680590
1640784145.013610,-0.198857740,0.265409320,10.574033740,-0.015375020,-0.094524030,0.017774110
1640784145.016560,-0.005665770,0.338758050,9.280078890,-0.020766260,0.044041880,-0.000929830
1640784145.018020,0.022363030,0.249574240,9.762422560,0.071696940,-0.083342200,-0.003495810
1640784145.021520,-0.361752420,0.315215830,10.308253290,0.133779640,-0.010806320,-0.012986360
1640784145.022880,0.074361360,0.374599870,9.055194850,0.075238950,-0.051379200,-0.021523240
1640784145.026560,-0.383815910,0.460992990,10.434442520,-0.008882580,-0.069184590,0.028891860
1640784145.028340,-0.205522870,0.424299480,9.614591600,-0.067998470,0.003917520,0.010010600
1640784145.032540,-0.131204590,0.239781570,9.987659450,0.002346930,-0.078967200,-0.002792480
1640784145.033090,-0.478829090,0.333374890,10.485986710,0.090126700,-0.015722220,-0.016765300
1640784145.036490,-0.263699140,0.295928600,9.544675830,0.088149310,-0.098492210,-0.029730800
1640784145.037930,-0.249374050,0.318526210,9.883772850,0.026199220,-0.107996170,0.002068280
1640784145.041730,0.031532810,0.411459710,9.207616810,-0.071042780,0.041101880,0.011914970
1640784145.043010,0.012471440,0.372968550,10.290232660,-0.067940360,-0.047633050,0.004941230
1640784145.047040,0.097361640,0.524628460,10.316763880,0.001727040,-0.044895710,0.010459130
1640784145.048290,0.254992220,0.525836350,9.554357530,0.028674310,-0.081172590,-0.016792120
1640784145.051560,-0.216823160,0.421309560,10.404287340,0.017914170,-0.064486270,-0.001683830
1640784145.052920,-0.046518500,0.444307980,9.330786710,-0.044161090,-0.045812140,0.017148260
1640784145.056520,-0.047775220,0.224264990,9.646895410,-0.074614580,-0.076647100,0.016099210
1640784145.058380,0.054262980,0.140508950,9.724349980,-0.056672110,0.085838140,0.015607480
1640784145.061920,0.161820320,0.283452450,9.791257860,-0.018884240,0.004099310,0.014956300
1640784145.062940,-0.363522050,0.091602910,10.916039470,0.000119210,-0.100885350,0.005698200
1640784145.066520,0.183926640,0.004136150,8.844444270,-0.028346480,-0.058974330,-0.001111630
1640784145.067980,-0.049687580,-0.090528500,9.548313140,-0.020709630,-0.041800730,-0.010550020
1640784145.071520,-0.125112880,-0.079871850,9.855575560,-0.014562910,0.115031030,-0.001460310
1640784145.073220,0.300033960,0.181219550,9.632766720,-0.016367440,0.014214220,0.010137260
1640784145.076620,-0.236732230,0.169599670,10.886400220,-0.025938460,-0.040915620,0.015468900
1640784145.078190,0.215240150,0.110527930,9.080411910,-0.022868810,-0.031660500,0.015458470
1640784145.081620,-0.164021220,-0.078946020,9.660432820,0.045473880,-0.048053260,-0.002880390
1640784145.083330,-0.395442630,-0.203707930,9.640066150,0.071127710,0.081330530,-0.006729360
1640784145.086520,-0.011291650,0.037922040,9.374107360,0.054512920,-0.005038080,-0.014899670
1640784145.087930,-0.524003090,0.145201130,10.432663920,-0.015757980,0.002191960,0.007557870
1640784145.091550,-0.017913790,0.116531760,9.342275620,-0.057238340,0.001758340,0.009238720
1640784145.092920,-0.322194310,0.043474320,10.299012180,0.053717190,-0.032594800,-0.001938640
1640784145.096660,-0.438311550,-0.001244010,9.795674320,0.137566040,-0.003035370,-0.032167140
1640784145.098710,-0.086728650,0.160719590,9.413819310,0.125639140,-0.063520680,-0.021886820
1640784145.101490,-0.385590820,0.224289910,9.881195070,0.032517310,0.027340650,-0.001019240
1640784145.102910,0.014319010,0.255610730,9.484849930,-0.034596030,-0.000828500,0.000336770
1640784145.106770,-0.203375730,0.434866910,10.448912620,0.009009240,-0.039027640,0.000964110
1640784145.107970,-0.107930320,0.431923390,9.697866440,0.054155290,-0.019066040,-0.012481210
1640784145.112060,-0.052839500,0.359081690,10.002968790,0.105442110,-0.071063640,-0.020997230
1640784145.112960,-0.451495170,0.512508510,10.101289750,0.081214310,0.012075900,-0.028720500
1640784145.116540,-0.148436520,0.467343060,9.463814740,-0.019545850,-0.076921280,-0.004327300
1640784145.117970,-0.271896120,0.473178920,10.224727630,-0.050896410,-0.029851500,0.022056700
1640784145.121880,-0.082890910,0.444214310,9.395087240,-0.028663880,0.034110250,-0.007356700
1640784145.122910,-0.194994030,0.435293140,10.412611010,0.033383080,-0.076259670,-0.008898970
1640784145.126700,-0.278380450,0.516390620,10.131321910,0.042080890,-0.032019620,-0.007183850
1640784145.128300,0.076956940,0.239591350,9.240397450,-0.013096630,-0.086654720,-0.016069410
1640784145.131560,-0.176501860,0.286160920,10.373054500,-0.030800700,-0.014057760,-0.002142790
1640784145.132910,0.135167990,0.458355900,9.265925410,-0.064007940,0.052011020,-0.002279880
1640784145.136520,0.223661680,0.362245890,10.052157400,-0.058071330,-0.071527070,0.004144010
1640784145.138420,0.102252720,0.527402280,10.100563050,-0.043568010,0.037020440,-0.000020860
1640784145.141580,0.266592440,0.304432360,9.387704850,-0.028888880,-0.028434390,-0.009167190
1640784145.143060,-0.158425300,-0.004919210,10.546560290,0.018328430,-0.063447650,0.009241700
1640784145.146650,0.131694300,0.034255820,9.091710090,-0.004817550,0.050932170,-0.009821360
1640784145.148000,0.144199000,-0.016809810,9.779312130,-0.039324160,0.008393820,-0.001305340
1640784145.151520,-0.188173440,0.152538180,10.216463090,-0.075258340,0.088727490,0.014637410
1640784145.153330,0.140336230,0.177520010,9.344595910,-0.052306050,-0.014902650,0.001344080
1640784145.156570,-0.306890430,-0.034265820,10.427101140,0.016710160,-0.038923330,-0.007230040
1640784145.157940,-0.152177020,0.075585000,8.992502210,0.052590680,0.042799120,-0.020411620
1640784145.161970,-0.293290850,-0.021154560,9.722492220,0.045625880,-0.016607340,-0.026023390
1640784145.163050,-0.389088090,0.050235660,10.083010670,-0.024092200,0.092460240,-0.005936620
1640784145.166550,0.044868750,0.313596190,9.496067050,-0.056347250,0.018648810,-0.007556380
1640784145.167990,-0.314190780,0.223583820,10.655260090,-0.030849870,-0.000628830,0.007686020
1640784145.171650,-0.007486560,0.240840720,9.210027690,0.027018790,0.010822710,-0.002262000
1640784145.172920,-0.109370030,0.141844390,9.808702470,0.097350760,-0.047637530,-0.020909310
1640784145.176550,-0.218821410,-0.015018300,9.821241380,0.068107250,0.092062380,-0.013257560
1640784145.178160,-0.105775190,0.188029630,9.687437060,0.010077660,0.000114740,0.004215540
1640784145.181550,-0.412836850,0.213070260,10.555200580,-0.051401570,-0.025199360,-0.001029670
1640784145.183030,0.041971620,0.325507790,9.200335500,-0.048752130,0.023376940,-0.015518070
1640784145.186590,-0.426315520,0.479347080,10.341107370,0.041376050,-0.023090840,-0.030034780
1640784145.187970,-0.532033380,0.456508340,10.027529720,0.062902280,0.012490160,-0.041122750
1640784145.191530,-0.165425990,0.612570230,9.315011020,0.030203160,-0.089316080,-0.011022390
1640784145.192930,-0.349664180,0.566206510,10.064822200,-0.033889710,0.020936130,0.018800800
1640784145.196640,0.209537920,0.427269700,9.398119930,-0.091718140,0.086104880,0.016950070
1640784145.198420,-0.015724140,0.563894810,10.533655170,-0.046020740,-0.024351480,0.026772920
1640784145.201590,0.142699900,0.376220880,9.938081740,-0.014886260,0.004173820,0.009292370
1640784145.202930,0.303642930,0.133300070,9.523773190,0.008690360,-0.051061810,-0.002551080
1640784145.206580,-0.243808750,0.109170840,10.018441200,0.018696490,-0.003094970,-0.007177890
1640784145.208000,0.169122470,0.007188820,9.080313680,-0.041753050,0.024406620,-0.001439450
1640784145.211810,-0.084550690,0.117685100,10.020587920,-0.057722630,0.039140880,0.025238100
1640784145.212990,-0.164996330,0.284524680,9.957237240,-0.079917920,0.076545800,0.015807150
1640784145.216560,-0.064530040,0.294989470,10.076848030,-0.035867100,-0.037585200,0.022596120
1640784145.218210,-0.381185440,0.205877770,9.807186130,0.032733380,-0.022134190,0.030691930
1640784145.221480,-0.006938800,0.011580870,9.145198820,0.033099950,0.013324620,-0.005707140
1640784145.222910,-0.199035810,0.015091570,9.990046500,0.019583110,0.088238720,0.010713930
1640784145.226860,-0.027273030,0.105400740,9.520849230,-0.025986140,0.072364510,0.007215140
1640784145.230080,0.080370140,0.119918000,10.298970220,-0.057624280,-0.013566020,0.005374850
1640784145.231500,-0.009370660,0.207761910,9.678739550,-0.036546590,0.054121020,0.006546080
1640784145.233100,0.044345890,-0.020803540,9.433700560,0.048416860,-0.015902520,-0.009207430
1640784145.236550,-0.434780300,-0.112444530,10.311571120,0.104980170,0.041182340,-0.022514170
1640784145.237960,-0.184884620,0.042860670,9.014860150,0.069999690,0.042922810,-0.010988120
1640784145.241550,-0.449411840,0.090794800,10.390365600,-0.000585620,-0.026781860,0.012686850
1640784145.244430,-0.434632870,0.328577460,9.722653390,-0.061380870,0.086551900,0.019088390
1640784145.246560,-0.138637770,0.412363380,9.477554320,-0.016005340,-0.049132120,0.012315810
1640784145.248340,-0.493033590,0.353873430,10.751184460,0.070887800,0.024722520,-0.012367960
1640784145.251600,-0.085360160,0.427147480,9.142464640,0.094284120,0.031967460,-0.030632320
1640784145.252990,-0.346922640,0.448920580,10.326823230,0.052523620,-0.099743930,-0.021283330
1640784145.256490,-0.087719190,0.459414630,9.558431630,-0.054943560,0.076879560,0.007154050
1640784145.257960,0.303148060,0.486771200,9.216531750,-0.077334050,0.004407760,0.018803770
1640784145.263380,-0.265001890,0.445668040,11.079833980,-0.024999680,0.019021330,0.007799270
1640784145.264520,0.159842770,0.459628730,9.198824880,0.009298320,0.009259580,-0.000557300
1640784145.267010,-0.221648950,0.233608560,10.078735350,0.044259430,-0.111553080,-0.000980500
1640784145.267960,-0.440776710,0.159745010,9.960778240,-0.005407630,0.054857140,0.001949070
1640784145.271520,-0.122693890,0.210596110,9.047211650,-0.055719910,-0.026445090,0.011622910
1640784145.272960,-0.382847400,0.227250250,10.331895830,-0.073540220,-0.002424420,0.024600330
1640784145.278600,0.172325040,0.417820040,9.354989050,-0.079791240,0.109048200,0.018352270
1640784145.279350,0.004171510,0.372089360,10.368363380,-0.010977690,-0.018130240,0.012923780
1640784145.281720,-0.131695720,0.279682640,10.254242900,0.010553000,-0.030207640,0.010253490
1640784145.283360,0.329811450,0.122198030,8.747929570,0.003670160,-0.042460850,0.007513170
1640784145.286550,0.043644810,-0.153478730,9.722127910,-0.013785060,0.067627430,0.013177100
1640784145.287990,0.186853960,0.074270120,9.701308250,-0.056356200,0.124156500,0.002855060
1640784145.291520,-0.069017440,0.162982640,10.368062970,-0.043597820,-0.005866590,0.018705430
1640784145.293260,-0.114338800,0.172547620,9.765566830,-0.046163800,-0.020255150,0.016093250
1640784145.298450,-0.120595430,0.171359490,9.374928470,-0.006708500,-0.011909010,-0.005312260
1640784145.300160,-0.531466310,-0.074615150,9.770700450,0.056400900,0.068473820,-0.011160970
1640784145.301500,-0.267328500,-0.079448250,9.490585330,0.059226160,0.044356290,-0.008608400
1640784145.302920,-0.451079280,0.038380720,10.363678930,0.013312700,0.021736320,-0.003449620
1640784145.306490,-0.032419950,0.205123470,9.431882860,-0.056660180,0.039981310,0.011609500
1640784145.308020,-0.063383440,0.305522620,10.104780200,-0.049784790,-0.014889240,0.007170440
1640784145.311700,-0.149835570,0.260630880,9.870561600,0.024965410,0.061576070,-0.012017790
1640784145.313250,0.223197120,0.282437590,9.418460850,0.091215970,-0.017420950,-0.030153990
1640784145.317130,-0.343355390,0.392253970,10.464657780,0.077627600,0.041854380,-0.016868120
1640784145.317960,-0.062920380,0.533659280,9.141375540,-0.045064100,0.024758280,-0.001609330
1640784145.321530,-0.225844820,0.528178510,10.188490870,-0.108844040,-0.065131490,0.018858910
1640784145.322910,-0.362309750,0.415357470,9.905373570,-0.065043580,0.094214070,0.011028350
1640784145.326860,-0.101618600,0.345010460,9.767363550,0.028502940,0.003339350,-0.014458600
1640784145.332690,-0.651544030,0.377193060,10.951477050,0.074519220,-0.035446880,-0.017569960
1640784145.333510,-0.143029360,0.269303980,8.955348970,-0.007750090,-0.006121400,-0.002989170
1640784145.333840,-0.022078980,0.242867720,9.747283940,-0.084564100,-0.018090010,0.017638500
1640784145.336520,-0.214259160,0.329369400,10.023147580,-0.114257630,0.095583500,0.015205150
1640784145.338090,0.378443690,0.352337540,9.425069810,-0.055709480,-0.019493700,0.008454920
1640784145.341610,0.063877340,0.428787140,10.677980420,0.007988510,0.013330580,0.008577110
1640784145.343140,0.097631890,0.440845730,9.683180810,-0.026728210,0.051271920,-0.004605950
1640784145.346970,-0.008190030,0.336979060,10.067002300,-0.053602460,-0.086522110,0.011372570
1640784145.348230,-0.190878270,0.277219800,9.582018850,-0.084078320,0.047649440,0.020937620
1640784145.351610,0.124215130,0.157765870,8.969339370,-0.081686680,0.056990980,0.018619000
1640784145.352940,-0.188809370,0.206258940,10.456548690,-0.045929850,0.079573680,0.011976060
1640784145.356550,-0.094359610,0.217481780,9.690266610,-0.043568010,0.049208100,0.011874740
1640784145.357970,-0.161279530,-0.047640920,10.207423210,-0.014463070,-0.068695850,0.016175210
1640784145.361620,-0.220337930,-0.212326240,9.615592960,-0.017403070,0.061434510,-0.013501940
1640784145.363280,-0.018099760,-0.241673400,9.224048610,-0.003606080,0.032097100,-0.015228990
1640784145.367690,-0.231731590,-0.102223640,10.285638810,0.003346800,0.085632510,-0.007413330
1640784145.368180,0.155484300,0.149650140,9.223096850,-0.049152970,0.073105100,-0.004141030
1640784145.371510,-0.095345970,0.291582410,10.217866900,-0.030152500,-0.021854040,0.015836950
1640784145.372910,-0.148839580,0.196234300,9.648567200,0.003255900,0.061963490,0.007575750
1640784145.376720,-0.178200020,0.111768220,9.511719700,0.062568490,-0.021715470,-0.013637540
1640784145.379920,-0.478138390,0.077127680,10.280161860,0.077919670,0.057280060,-0.010482970
1640784145.381490,-0.080145840,0.172072830,9.282682420,0.012210010,0.100202870,-0.015339260
1640784145.383120,-0.515899540,0.257817090,10.592023850,-0.032809380,-0.014919040,-0.007888680
1640784145.386530,-0.211946990,0.339745250,9.569715500,-0.036211320,0.037874290,0.001542270
1640784145.387960,-0.074209760,0.181721210,9.385932920,0.032667820,-0.019998850,-0.027117130
1640784145.391530,-0.631905320,0.262921810,10.485005380,0.097474460,0.038772830,-0.032895800
1640784145.393140,-0.099249790,0.450315420,9.307246210,0.050820410,-0.005432960,-0.024175640
1640784145.396640,-0.318779980,0.393007610,10.315357210,-0.017373270,-0.037376590,-0.000733140
1640784145.398190,-0.061138130,0.559090850,9.668837550,-0.069396200,0.090573740,0.012917820
1640784145.401550,0.054297590,0.616185900,9.978219030,-0.048050280,-0.003327430,0.002692640
1640784145.402960,-0.284034190,0.511266830,10.441066740,0.019364060,-0.004011390,-0.012138480
1640784145.406520,0.189246580,0.529119670,9.151432040,0.036703050,-0.003115830,-0.020983820
1640784145.408050,-0.294640000,0.388414200,10.259408950,0.007665160,-0.012879070,-0.023403770
1640784145.412310,-0.208213810,0.403587430,9.634098050,-0.077430910,0.030379000,-0.004252790
1640784145.413720,0.146771730,0.491931200,9.609203340,-0.102053580,-0.004740060,0.005334620
1640784145.417230,-0.142617450,0.391608000,10.311831470,-0.083620830,0.094591080,-0.006823240
1640784145.417960,0.157870620,0.519480880,9.744536400,-0.040632490,0.015424190,-0.007636850
1640784145.421530,-0.178906290,0.306939660,10.412183760,0.001080330,-0.050868090,0.002768640
1640784145.422930,-0.018583730,0.060632150,9.150984760,-0.030653180,0.032559040,0.005318230
1640784145.427100,0.001618720,0.068673690,9.582021710,-0.048135220,0.014634430,0.013487040
1640784145.428490,-0.255303680,0.029598500,10.025206570,-0.083942700,0.106054550,0.007276240
1640784145.431870,0.310875680,0.104926260,9.232117650,-0.074994560,0.038056070,0.014558430
1640784145.433200,-0.060128860,0.166692610,10.613574030,-0.034473840,0.049759450,-0.006234650
1640784145.436510,0.101807150,0.064961330,9.564894680,-0.017277900,0.081995150,-0.023584070
1640784145.438000,0.057787940,0.022183020,9.884426120,0.035041570,-0.051224240,-0.017413500
1640784145.441720,-0.216113540,0.022638660,9.621829030,-0.001747910,0.111638020,-0.031176210
1640784145.443140,0.233634890,0.103929140,8.931071280,-0.047613680,0.082016000,-0.007878240
1640784145.446610,-0.385551100,0.260748540,10.567722320,-0.037419800,0.076985360,0.013652440
1640784145.448050,-0.134041680,0.179002330,9.381990430,-0.039175160,0.074495380,-0.004222990
1640784145.451500,-0.182430520,0.032829920,10.098896030,0.033344330,-0.027412180,0.009229780
1640784145.452960,-0.498720170,-0.141947170,9.978259090,0.087690370,0.109919930,-0.027757880
1640784145.456620,-0.134206220,-0.101850990,9.290491100,0.068992380,0.041590630,-0.046436490
1640784145.458380,-0.458877120,0.215183230,10.304201130,0.006057320,0.064708300,-0.012624260
1640784145.461800,0.063163290,0.297324990,9.120656970,-0.073632600,0.079852350,-0.019882620
1640784145.463010,-0.001751580,0.382276360,10.125637050,-0.006748740,0.034579630,-0.012512510
1640784145.466530,-0.193855200,0.569498060,9.942733760,0.062084200,0.089357800,-0.024549660
1640784145.467990,-0.026049910,0.373209000,9.813162800,0.088304270,-0.022077560,-0.034084910
1640784145.471550,-0.316004600,0.368731080,10.221708300,0.058209900,0.060580670,-0.013266500
1640784145.473010,-0.185178850,0.503746870,9.370550160,-0.027669970,0.067767510,-0.007133190
1640784145.476570,-0.347751560,0.380254390,10.291715620,-0.058647990,0.000748040,-0.005023180
1640784145.478100,-0.033929970,0.607086900,9.188884740,-0.040389600,0.094899540,-0.002954900
1640784145.483650,-0.089659750,0.506668980,9.811034200,0.009654460,0.042989850,-0.021202860
1640784145.484220,-0.405454960,0.379815970,10.664400100,0.027677420,0.065729020,-0.019201640
1640784145.486520,0.016256830,0.407558740,9.365285870,0.003792350,-0.011560320,-0.017356870
1640784145.487980,-0.253247740,0.227586460,10.306228640,-0.034946200,-0.000303980,-0.002466140
1640784145.491680,0.027578010,0.314005400,9.260406490,-0.080248720,0.150482360,-0.005227330
1640784145.492940,0.128274280,0.440575360,9.717927930,-0.066888340,0.023162360,0.001406670
1640784145.496660,-0.096023120,0.302234140,10.343475340,-0.031682850,0.096066290,-0.001840290
1640784145.498030,0.340644780,0.297086210,9.049789430,0.007101890,0.060212610,-0.005897880
1640784145.501530,-0.343597740,0.130826640,10.546314240,0.013479590,-0.025649370,-0.010786950
1640784145.502950,-0.038400220,0.067135290,9.125987050,-0.040362780,0.096759210,-0.004316870
1640784145.506570,0.196327730,0.140359060,9.207540510,-0.063359740,0.078956790,-0.012505050
1640784145.508020,-0.244870440,0.144331590,10.601697920,-0.066502400,0.187908110,-0.014351310
1640784145.511810,0.258434240,0.342020870,9.425543790,-0.029307600,0.081452730,-0.013303760
1640784145.513040,-0.326137600,0.199260070,10.352496150,0.019405780,-0.030119720,-0.007097420
1640784145.516530,-0.127149330,0.002408630,9.018713000,0.008200110,0.093081590,-0.017365820
1640784145.518010,-0.115974580,-0.150789080,9.313969610,0.023436540,0.071834010,-0.036586820
1640784145.521560,-0.539544400,-0.108956710,10.217038150,0.010722880,0.159083310,-0.025986140
1640784145.522980,0.099236820,0.133509700,9.500903130,-0.031866140,0.097425280,-0.028333070
1640784145.526540,-0.240675080,0.195058880,10.472069740,-0.028750300,0.064866240,-0.032539670
1640784145.528640,-0.096431600,0.170006070,9.521326070,-0.000609460,0.090459010,-0.032037500
1640784145.531770,-0.267879400,0.095257340,9.867794040,0.078289230,0.007119780,-0.031137470
1640784145.532950,-0.472461250,0.064377550,9.590855600,0.085811320,0.085231660,-0.037582220
1640784145.536560,-0.124407140,0.221123140,9.462958340,0.026425720,0.069545210,-0.011071560
1640784145.538020,-0.418050110,0.476873900,10.392646790,-0.030109280,0.115123400,0.008159870
1640784145.541510,-0.127751920,0.556761210,9.727670670,-0.076332690,0.051192950,-0.010026990
1640784145.543070,-0.217235220,0.598398980,10.339186670,0.004127620,0.014907120,-0.013461710
1640784145.546660,-0.315670280,0.528776230,9.615217210,0.068698810,0.089615570,-0.046394760
1640784145.548030,-0.316280310,0.510395940,9.746384620,0.061969460,-0.017559530,-0.045892600
1640784145.551470,-0.450839040,0.646360520,10.004072190,-0.023448470,0.055986640,-0.012241300
1640784145.553040,-0.008363590,0.479320910,9.177300450,-0.123736250,0.077635060,-0.001704690
1640784145.556500,-0.180208620,0.442444590,10.673499110,-0.094954680,0.048562890,0.012977420
1640784145.558040,-0.034605120,0.467673420,9.874897960,-0.031477220,0.088134410,-0.003762540
1640784145.561570,0.105906500,0.170047610,9.780001640,0.029955800,-0.039678820,-0.008493660
1640784145.562990,-0.316085340,0.227402640,10.405515670,0.022695960,0.052112340,-0.009258090
1640784145.566550,0.023528350,0.251125370,9.003485680,-0.082416850,0.057671980,-0.007666650
1640784145.568080,-0.098334010,0.204461530,10.064192770,-0.110933200,0.005729500,0.005500020
1640784145.571520,0.129401280,0.517935750,9.536835670,-0.103494510,0.165076570,-0.003474950
1640784145.573020,0.214831130,0.431602300,9.894742010,-0.061032180,0.056625900,-0.012715160
1640784145.577040,-0.303108900,0.390885860,10.797983170,-0.001905860,0.026375050,-0.004777310
1640784145.579520,-0.006907340,0.266126480,9.108265880,-0.022070110,0.004762410,-0.023861230
1640784145.581940,-0.244766380,-0.082699510,9.800232890,-0.038121640,0.013700130,-0.009518860
1640784145.582940,-0.245488300,-0.076290740,9.434700970,-0.056590140,0.165668140,-0.014913080
1640784145.586700,-0.067765010,0.117579710,9.653583530,-0.068373990,0.068685420,-0.019606950
1640784145.588160,-0.263680280,0.139057960,10.430169110,-0.071451080,0.083558260,0.005735460
1640784145.591540,0.049742600,0.096729940,9.544248580,-0.031907860,0.046950580,-0.015369060
1640784145.592970,-0.418201830,-0.155301150,10.478815080,0.040750210,-0.004698340,-0.041674080
1640784145.596630,-0.308883520,-0.122659820,9.345539090,0.063514710,0.070054830,-0.029934950
1640784145.598250,-0.263933240,0.076162410,9.608218190,0.015157460,0.027903910,-0.037544970
1640784145.601710,-0.378580330,0.195678200,10.083378790,-0.064212080,0.119321060,-0.019401310
1640784145.602950,0.032207490,0.471444070,9.486812590,-0.062561040,0.040388110,-0.008955600
1640784145.606490,-0.407458750,0.482452930,10.617288590,0.006112460,0.007914010,-0.029547520
1640784145.608080,-0.101088380,0.389234070,9.489841460,0.056068610,0.043687230,-0.036357350
1640784145.612400,-0.364751310,0.388916970,10.178755760,0.077860060,-0.023224950,-0.032411520
1640784145.613350,-0.684243920,0.337678130,10.117115020,-0.001002850,0.066041950,-0.027054550
1640784145.616540,-0.122252340,0.500281630,9.131796840,-0.075189770,-0.027720630,0.006137790
1640784145.618500,-0.440727590,0.512665570,10.408253670,-0.075642770,0.049611930,0.017447780
1640784145.621540,-0.039240240,0.448204100,9.505168910,-0.039049990,0.094763930,-0.008605420
1640784145.622970,-0.192934070,0.563342930,10.548287390,0.044348840,-0.068674990,-0.011865800
1640784145.626900,-0.390336810,0.344786080,10.230360030,0.026914480,0.008858740,-0.018236040
1640784145.628100,0.183323350,0.289181110,9.113162990,-0.037242480,-0.032693150,-0.011622910
1640784145.632020,-0.389514540,0.407231690,10.517988200,-0.087156910,0.026808680,-0.008335710
1640784145.633040,0.062502450,0.442351760,9.221568110,-0.117616360,0.060813130,-0.008685890
1640784145.636530,0.218820230,0.559929310,9.871365550,-0.058723990,-0.016562640,0.014285740
1640784145.638090,-0.174419870,0.448724900,10.312106130,-0.031031670,0.089517240,-0.003275280
1640784145.641550,0.042010790,0.132514370,9.739689830,-0.012907390,-0.051914160,0.002966820
1640784145.643180,-0.383282070,-0.004878390,10.187545780,0.006619100,-0.065056990,0.020232790
1640784145.646630,-0.059443270,-0.144391340,8.854759220,-0.059199340,0.062167650,0.000628830
1640784145.648270,-0.079948420,0.002929110,9.974186900,-0.076714140,0.072221470,0.010706480
1640784145.651650,-0.263387770,0.285243360,10.260375980,-0.088651470,0.093081580,0.003694000
1640784145.653020,-0.031238300,0.295900320,9.833953860,-0.045594580,-0.078316060,-0.007580220
1640784145.656540,-0.199549410,0.149323120,9.885817530,0.025650860,-0.019109250,-0.001153350
1640784145.657990,-0.143613490,-0.052908990,9.134402280,0.053091350,0.047534700,-0.034376980
1640784145.661570,-0.453621060,0.022627840,10.314824100,0.043833260,0.001797080,-0.022690000
1640784145.662990,-0.251009850,0.272539850,9.618522640,-0.058898320,0.052249430,0.011575220
1640784145.666770,-0.203458010,0.254198010,9.870828630,-0.099363950,-0.043834750,0.008600950
1640784145.668030,-0.376842680,0.322877760,10.192583080,-0.033290680,0.035965440,0.007732210
1640784145.671480,-0.225774290,0.322096380,9.407855990,0.048069650,-0.029802320,-0.009234250
1640784145.672970,-0.620425700,0.159098130,10.406644820,0.082829600,-0.071981550,-0.020356480
1640784145.676660,-0.173772170,0.171479510,9.270493510,0.038653620,0.046634670,-0.011156500
1640784145.678940,-0.280819680,0.267231820,10.019062040,-0.027918810,-0.037564330,-0.005222860
1640784145.681620,-0.353649910,0.428498720,10.308650020,-0.087656090,0.008280570,0.001092260
1640784145.683950,0.307030860,0.683022080,9.144498830,-0.071980060,-0.041557840,0.006413460
1640784145.686540,-0.334513690,0.516734300,10.668728830,0.014060740,-0.033845010,-0.016307830
1640784145.687990,-0.091272530,0.591667120,9.507101060,0.049896540,-0.006158650,-0.018347800
1640784145.691490,-0.172940600,0.506662670,9.946790700,0.017164650,-0.124301020,0.003775950
1640784145.693020,-0.345386740,0.364991460,9.986120220,-0.061114140,0.017158690,0.023372470
1640784145.696700,0.167181550,0.499340390,9.369194030,-0.122849640,0.005094710,0.025866930
1640784145.698280,-0.281142680,0.483420970,10.635000230,-0.100781030,-0.021393600,0.017973780
1640784145.701690,0.138944250,0.491838900,9.390170100,-0.061771270,-0.010907650,0.014601650
1640784145.702960,0.051957650,0.280591850,9.998194690,-0.001317260,-0.070627030,-0.001111630
1640784145.706470,-0.392237220,0.162789610,9.975945470,-0.011344250,-0.018863380,-0.005896390
1640784145.708050,0.115361790,0.182957400,9.093596460,-0.066876420,-0.081346930,0.015965110
1640784145.712280,-0.125517310,0.081867150,9.960670470,-0.114038590,0.047701600,0.027902430
1640784145.713040,0.125566290,0.155751760,9.546931270,-0.121432550,0.066837670,0.017696620
1640784145.717550,-0.016393680,0.267093270,10.567663190,-0.039094680,-0.044012070,0.013525780
1640784145.719490,-0.238072590,0.124399280,9.827313420,-0.006313620,-0.023446970,0.007604060
1640784145.721470,-0.094824350,-0.004984410,9.289243700,0.007127230,-0.110393780,-0.000336770
1640784145.722950,-0.528536380,-0.120307760,9.831989290,-0.018808250,0.022326410,-0.007811190
1640784145.726780,-0.215017420,0.007598040,8.900477410,-0.070796910,0.032652910,-0.010737780
1640784145.728090,-0.367567930,0.216122370,10.564802170,-0.051182520,-0.026199230,0.013689700
1640784145.732960,-0.149953400,0.275879620,9.848314290,-0.052833560,0.034691390,0.002518300
1640784145.733590,-0.052121800,0.242078480,9.885501860,0.001843270,-0.098800680,0.017331540
1640784145.736490,-0.544378520,0.071806180,10.431171420,0.044886760,-0.037015970,0.016154350
1640784145.737990,-0.064099130,-0.096153560,8.871682170,0.043044980,-0.058278450,-0.002299250
1640784145.741690,-0.417203190,0.084043550,10.172589300,0.031392270,-0.053125620,0.006993110
1640784145.743100,-0.304077360,0.405541060,9.617728230,-0.073806950,0.043968860,0.009717050
1640784145.746710,-0.123392330,0.542489650,9.858843800,-0.094433140,-0.117813060,0.022080540
1640784145.748360,-0.300031630,0.645715240,10.417833330,-0.027090310,-0.032235690,0.019170340
1640784145.752530,-0.085894960,0.517138480,9.591995240,0.035752360,-0.040423870,-0.011149050
1640784145.753070,-0.597526010,0.397407350,10.624915120,0.073289880,-0.141045450,0.001178680
1640784145.756480,-0.266983420,0.389633800,9.378960610,-0.016947090,-0.068032750,0.012183190
1640784145.758010,-0.044124910,0.354237170,9.348700520,-0.106942640,-0.056189290,0.025103980
1640784145.761600,-0.227290480,0.462064800,10.223126410,-0.124381500,0.010505320,0.030982500
1640784145.763130,0.205494090,0.523561000,9.761104580,-0.080440940,-0.071513660,0.020012260
1640784145.766740,-0.036921520,0.311395730,10.304173470,0.007690490,-0.093047340,0.018814210
1640784145.768020,-0.092933240,0.279805630,9.800652500,0.006859010,-0.060865290,0.010153650
1640784145.771530,-0.290839850,0.145806880,9.949052810,-0.035469230,-0.139229010,0.019142030
1640784145.772980,-0.158023510,0.035354130,9.196116450,-0.096805390,-0.044496360,0.027512020
1640784145.777140,0.202305380,0.204695760,9.206327440,-0.120973590,0.004255770,0.019057100
1640784145.780620,-0.113040210,0.203891630,10.491140370,-0.072081410,0.042030220,0.011004510
1640784145.781590,0.154687970,0.304875550,9.822011950,-0.018277760,-0.080394770,0.016669930
1640784145.783800,-0.239096130,0.132371020,10.301787380,-0.003270800,-0.168034450,0.022803250
1640784145.786540,-0.240701900,-0.150333420,9.027110100,-0.027543300,-0.034563240,0.015050170
1640784145.788070,-0.162668680,-0.173907770,9.482966420,-0.025086110,-0.050453840,0.013063850
1640784145.791490,-0.579259930,-0.121096880,10.394445420,-0.022932890,0.037845970,0.013573470
1640784145.794320,0.100091350,0.105740790,9.273394580,-0.043089690,-0.062088680,0.001049040
1640784145.796540,-0.251551120,0.255215020,10.659328460,-0.022001560,-0.097823140,0.012759870
1640784145.799840,-0.222944930,0.166284860,9.394857410,-0.006464120,-0.021754210,0.004735590
1640784145.801470,-0.187745360,0.151365150,9.735178950,0.047154720,-0.165629400,0.003996490
1640784145.803020,-0.522035840,0.150854480,10.195497510,0.052478910,-0.027056040,0.003516670
1640784145.806460,0.067548710,0.294190560,8.981094360,-0.010608140,-0.022450090,0.001820920
1640784145.809150,-0.334881310,0.489312470,10.926855090,-0.048701480,-0.073111060,0.029984120
1640784145.811500,-0.057042770,0.541746080,9.625498770,-0.073954470,-0.040468570,0.019466880
1640784145.813960,0.139154050,0.433884230,9.539265630,-0.004175310,-0.145792980,0.010171530
1640784145.816540,-0.336645660,0.392745790,10.274916650,0.041414800,-0.019419200,0.009386240
1640784145.818200,-0.080620760,0.328565330,9.358457570,0.028988720,-0.076119610,0.009405610
1640784145.821580,-0.331386800,0.329330620,10.372498510,-0.019595030,-0.136032700,0.041258340
1640784145.823010,-0.071181190,0.427080840,9.374122620,-0.109089920,-0.008814040,0.039657950
1640784145.826650,0.082251970,0.382860780,9.768182750,-0.101380060,-0.058014690,0.036650900
1640784145.828710,-0.092040420,0.329440210,10.410478590,-0.014318530,-0.013536210,0.036701560
1640784145.832590,0.139861970,0.176705420,9.591515540,0.058047480,-0.094041230,0.021894280
1640784145.833010,-0.130001010,0.085925090,10.059780120,0.038737060,-0.101564840,0.025329000
1640784145.836500,0.067091350,0.190428450,9.134277340,-0.080212940,-0.032342970,0.039228790
1640784145.838000,0.020128650,0.100457210,9.658788680,-0.102107210,-0.044150650,0.050757830
1640784145.841730,0.053370320,0.107508900,9.966998100,-0.055807840,0.053904960,0.030879680
1640784145.843640,0.078061850,0.335130690,9.945209500,0.007483360,-0.051760680,0.019180770
1640784145.847200,-0.352489470,0.280449270,10.276096340,0.046241290,-0.091388830,0.035610800
1640784145.848160,-0.118737550,0.145184070,9.028851510,-0.010259450,-0.063924490,0.033853950
1640784145.851550,-0.531818930,-0.080240740,9.925645830,-0.023451450,-0.061903890,0.033430760
1640784145.852990,-0.264304280,-0.126934930,9.410927770,0.000657140,0.038337710,0.029449160
1640784145.856510,0.006971300,0.087950950,9.785755160,0.018219650,-0.027970970,0.021332500
1640784145.858390,-0.261323840,0.161536780,10.463722230,0.010104480,0.000764430,0.036732850
1640784145.861720,0.222391460,0.181207510,9.468417170,-0.003945830,-0.070466100,0.029604140
1640784145.862990,-0.373619020,0.117947860,10.352504730,0.032128400,-0.106839850,0.024567550
1640784145.866500,-0.219113010,0.098869880,9.178397180,0.064411770,-0.033965710,0.028757750
1640784145.867980,-0.148542030,0.231373940,9.784017560,0.065292420,-0.063844030,0.018498300
1640784145.871490,-0.514644270,0.465966820,10.249355320,0.008215010,0.018161530,0.041440130
1640784145.873160,-0.011109970,0.635384200,9.585131650,-0.055083630,-0.087073450,0.044970210
1640784145.876610,-0.274764240,0.649702730,10.410813330,-0.039090220,-0.087949630,0.040932000
1640784145.879690,-0.122393090,0.485081460,9.335332870,0.028070810,-0.032673780,0.043846670
1640784145.881480,-0.170817090,0.395060810,10.177990910,0.086694960,-0.096924600,0.029498340
1640784145.883220,-0.378053040,0.429095660,10.004551890,0.027076900,-0.038048630,0.042109190
1640784145.886530,0.145444840,0.361189510,9.158171650,-0.067590180,-0.096327070,0.063146660
1640784145.888040,0.006371940,0.280895560,10.317884450,-0.090672060,-0.000263750,0.058259060
1640784145.891540,0.173607420,0.299185040,9.453639030,-0.045457480,0.011198220,0.038936730
1640784145.893330,0.119983100,0.267824200,10.268505100,0.055544090,-0.128357130,0.035701690
1640784145.896600,-0.081599240,0.222275610,9.849256520,0.049208120,-0.014325980,0.040204820
1640784145.898700,-0.018502690,0.241059390,9.242198940,-0.020222370,-0.096040970,0.054001810
1640784145.901440,-0.347839620,0.196647180,10.288440700,-0.074081120,-0.046058000,0.065678370
1640784145.903040,0.162497670,0.235762940,8.834081650,-0.076277570,0.049686440,0.057314340
1640784145.906550,0.009467570,0.232290880,10.278642650,0.010012090,-0.021056830,0.057661530
1640784145.908110,-0.048820820,0.325570640,10.171708110,0.032739340,0.053347650,0.050041080
1640784145.911530,0.034917110,0.197162780,9.389720920,0.017799440,-0.115075730,0.047364840
1640784145.913570,-0.363700420,0.034826420,10.013183590,-0.008268650,-0.081519790,0.056420270
1640784145.917560,-0.002253790,-0.137774910,8.776439670,-0.028474630,0.047121950,0.028839710
1640784145.918030,-0.340115760,-0.028520830,10.192836760,0.025616590,-0.013414030,0.024400650
1640784145.921570,-0.275680600,0.292239640,10.094409940,0.019489230,0.031149390,0.027394300
1640784145.922970,0.013022060,0.371544240,9.561939240,-0.015716260,-0.075525050,0.037465990
1640784145.926500,-0.354997960,0.273332060,10.202133180,-0.009463730,-0.025311110,0.060363110
1640784145.928050,-0.107565340,0.065694320,9.318758960,0.043267020,-0.009359420,0.034697360
1640784145.931620,-0.429143190,0.062006820,10.165604590,0.098218020,-0.083722170,0.029052800
1640784145.933140,-0.145120430,0.206323950,9.506258010,0.051116940,0.016517940,0.042796130
1640784145.936690,-0.054506410,0.324143260,9.802026750,-0.028866530,-0.006815790,0.039094690
1640784145.938100,-0.419306100,0.458648120,10.562925340,-0.050349540,-0.029090050,0.047945990
1640784145.941540,0.062846540,0.555122910,9.411541940,-0.005510450,-0.094284120,0.041715800
1640784145.943080,-0.238388960,0.412255670,9.999718670,0.064027320,-0.043562050,0.024691230
1640784145.946600,-0.244231430,0.469731930,9.630157470,0.062665340,0.013753770,0.037226080
1640784145.948070,-0.276601820,0.526656630,10.088187220,0.001323220,-0.096179550,0.040525200
1640784145.951500,-0.310791190,0.323897150,9.864481930,-0.063012550,-0.038179760,0.050850210
1640784145.954360,0.205130590,0.414284910,9.317130090,-0.059668710,-0.029014050,0.050663940
1640784145.956460,-0.214973700,0.380262970,10.570181850,-0.012110170,-0.002585350,0.024682280
1640784145.958030,0.151362940,0.360273150,9.421797750,0.008802120,-0.021608180,0.046956540
1640784145.961900,0.059067390,0.203655730,10.131881710,0.027586520,-0.080642100,0.060564280
1640784145.963020,-0.276805700,-0.014482930,10.071236610,-0.010782480,0.007100400,0.049239400
1640784145.966510,0.194236710,0.071087670,9.046896930,-0.022134190,-0.090257830,0.067612530
1640784145.968090,-0.122595000,0.135553120,9.990106580,-0.030730670,0.018171970,0.054641070
1640784145.971630,0.261502240,0.172481340,9.206034660,-0.043825800,0.102376940,0.029091540
1640784145.973040,0.021008860,0.387945620,10.630623820,0.011853880,-0.041179360,0.043594850
1640784145.976610,-0.285746070,0.286785990,10.155826570,0.026743120,-0.017833710,0.039935110
1640784145.978090,0.094575580,0.102260880,8.867415430,0.029063220,-0.100140280,0.039818880
1640784145.981560,-0.483025700,0.098860350,10.043098450,0.032110520,0.017292800,0.038285550
1640784145.983210,-0.169891790,0.025958630,9.048238750,-0.011613970,0.092606250,0.031213460
1640784145.986610,-0.191544910,0.138308240,10.311319350,0.006020070,-0.045099850,0.052583230
1640784145.988100,-0.180467610,0.161096200,10.054590230,0.011582680,0.040020050,0.034552820
1640784145.991460,0.209701760,0.031887330,9.452706340,0.049030780,-0.049833950,0.040912630
1640784145.993050,-0.424172250,0.051884630,10.419435500,0.092007220,-0.017370290,0.037665670
1640784145.996640,-0.166934910,0.026519100,9.140314100,0.062681720,-0.012999770,0.012293460
1640784145.998130,-0.237964090,0.078690970,9.908130650,0.046220420,-0.059734290,0.030685960
1640784146.001820,-0.294951950,0.414893270,9.624636650,0.020940600,0.074799360,0.024361910
1640784146.002980,-0.139914200,0.614794790,9.910626410,-0.012487170,-0.033281750,0.023043160
1640784146.006560,-0.428545890,0.709369600,10.513391490,0.019820040,-0.046402230,0.044797360
1640784146.008110,-0.118225340,0.592200760,9.265847210,0.052973620,-0.046700240,0.018477440
1640784146.011540,-0.433065410,0.447436600,10.219671250,0.072406240,-0.043512880,0.022239980
1640784146.013600,-0.400829050,0.517931700,9.547249790,0.024603310,-0.000427660,0.047577920
1640784146.017850,-0.076813780,0.386386310,9.651650430,-0.035914780,-0.077451770,0.038498640
1640784146.019230,-0.074599040,0.425461350,10.127488140,-0.056447100,0.046700240,0.043235720
1640784146.021480,0.217005040,0.493965950,9.474953650,-0.035615270,0.000712280,0.030067560
1640784146.023020,-0.049724920,0.315708730,10.746507640,0.029456620,-0.075052670,0.017020110
1640784146.026520,0.064855870,0.401413170,9.472471240,0.036887830,0.005976860,0.022335350
1640784146.028930,-0.027787020,0.386068610,9.569131850,-0.011660160,-0.088268520,0.029875340
1640784146.031510,-0.246053700,0.338613930,10.052614210,-0.077624610,0.022976100,0.041517620
1640784146.034260,0.320951910,0.492338900,8.761679650,-0.090077530,0.055307150,0.053377450
1640784146.036600,-0.065519160,0.383658110,10.703523640,-0.035852190,0.018882750,0.040225680
1640784146.038070,0.028687540,0.391024110,9.977680210,-0.013533230,0.058868540,0.032502410
1640784146.041480,0.106223070,0.263680010,9.515215870,0.009760260,-0.124229510,0.040529670
1640784146.043110,-0.306187360,-0.115722170,9.960853580,-0.016687810,0.008985400,0.044876340
1640784146.048930,0.217684080,-0.120407400,8.562170030,-0.041715790,0.087966020,0.034888080
1640784146.050860,-0.233482750,-0.073306110,10.464310650,-0.015792250,0.035265080,0.036697080
1640784146.052930,0.027752000,0.082075330,9.814986230,-0.042682890,0.102734580,0.027140980
1640784146.053220,0.174718600,0.229853630,9.666894910,-0.014409430,-0.049790750,0.021088130
1640784146.056480,-0.402113970,0.102723510,10.366469380,0.016202030,0.007641320,0.016006830
1640784146.058020,-0.058798740,0.105094310,8.813627240,0.029936430,0.018991530,0.009432440
1640784146.061870,-0.458576620,0.055023090,9.954969410,0.056096910,0.005184110,0.010992590
1640784146.063020,-0.219751610,0.195639860,9.548398020,0.004181270,0.113675010,0.012901430
1640784146.067910,-0.059356920,0.332630870,9.698820110,-0.018115340,0.017324090,0.036071240
1640784146.068730,-0.386651340,0.260625450,10.253833770,-0.019429630,0.014312570,0.038601460
1640784146.071460,0.051802780,0.176081110,9.400743480,0.024323170,-0.009816890,0.018408900
1640784146.073000,-0.394668010,0.006100820,10.078729630,0.108608600,0.009065870,0.014643370
1640784146.076970,-0.401151180,0.011022100,9.649053570,0.096379230,0.023466350,-0.011032820
1640784146.078960,-0.305789560,0.218201560,9.820899010,0.023150440,-0.034099820,0.006131830
1640784146.081640,-0.328896020,0.406951960,9.620593070,-0.048562880,0.041019920,0.022999940
1640784146.083130,-0.023123640,0.617179990,9.848785400,-0.051206350,0.021173060,0.015284120
1640784146.086560,-0.254808430,0.702228130,10.413545610,0.039565560,0.012350080,0.014224650
1640784146.088040,-0.068949830,0.604279340,9.582354550,0.082375120,-0.038717690,0.006030500
1640784146.091520,-0.153478950,0.605233130,10.146406170,0.051984190,-0.025244060,0.016053020
1640784146.093070,-0.293544080,0.554641540,9.579033850,-0.031574070,0.040721890,0.034721200
1640784146.096660,-0.053073470,0.467050020,9.653202060,-0.087158370,-0.057311360,0.039248170
1640784146.099010,-0.112899820,0.490284030,9.978549000,-0.063051270,0.045572230,0.040246540
1640784146.102540,0.117714040,0.444988400,9.341272350,-0.021839140,0.049711760,0.015564260
1640784146.103100,-0.173248140,0.469070580,10.790711400,0.002059340,-0.033590200,0.008939210
1640784146.106490,-0.169052790,0.406901360,9.787382130,-0.029756130,0.010198360,0.026431680
1640784146.108060,0.093998680,0.217127260,9.371423720,-0.065495070,-0.050586470,0.016662480
1640784146.112070,-0.181388630,0.289239650,10.134498600,-0.069968400,0.073122990,0.023497640
1640784146.114160,0.301071670,0.374959140,8.720953940,-0.082191820,0.090995420,0.020900370
1640784146.118490,0.128550480,0.411545570,10.408456800,-0.064045200,0.003822150,0.028216840
1640784146.119010,-0.061462600,0.266522970,10.107458110,-0.057862710,0.092870010,0.017793480
1640784146.121500,0.099461180,-0.011585960,9.430730820,-0.003337860,-0.069999690,0.014463070
1640784146.123040,-0.506382230,-0.101097220,10.434682850,0.018323960,0.011685490,0.016511980
1640784146.126800,-0.109058980,-0.077009630,8.775651930,-0.044211750,0.120244940,0.014595690
1640784146.128890,-0.310269270,0.024174820,10.319815640,-0.056959690,0.020961460,0.018528100
1640784146.131610,-0.375305800,0.286561790,10.037599560,-0.060710310,0.110434000,0.017154220
1640784146.133970,0.098239240,0.227735490,9.205397610,-0.019329790,-0.030612950,0.016829370
1640784146.136510,-0.332720010,0.201796920,10.508751870,0.038160390,0.026360160,0.012226400
1640784146.138070,-0.039393380,0.146365730,9.119215010,0.038206580,0.085219750,-0.002577900
1640784146.141540,-0.238231900,0.069591830,10.215028760,0.039644530,-0.025935470,0.007140640
1640784146.143130,-0.255062760,0.277428030,9.957564350,-0.025391580,0.083144020,0.007028880
1640784146.146730,0.178680230,0.364097570,9.282220840,-0.060901050,0.025279820,0.019519030
1640784146.148890,-0.342511950,0.395117550,10.609798430,-0.008715690,0.032587350,0.024421520
1640784146.151570,-0.135744570,0.448101100,9.452487950,0.022855400,0.026755030,0.004875660
1640784146.153000,-0.307037680,0.294091910,9.973176960,0.066626080,-0.052587690,0.013414030
1640784146.156480,-0.445464730,0.305975970,9.940242770,0.033853950,0.068035720,0.000552830
1640784146.158040,-0.284735170,0.422066450,9.659547810,-0.034792720,-0.000101330,-0.000254810
1640784146.161640,-0.381581660,0.496100870,10.299186710,-0.056964160,-0.011208650,0.037427250
1640784146.163210,0.123201700,0.580947640,9.359809880,-0.052478920,0.069689770,0.022144620
1640784146.166850,-0.051939680,0.605098370,10.352489470,-0.007514660,0.019869210,0.012773270
1640784146.168330,-0.073505690,0.616586390,10.109855650,0.005646050,0.012110170,0.035354500
1640784146.171490,0.102299060,0.426563860,9.517074580,-0.023631750,-0.049650680,0.026491290
1640784146.173010,-0.184166130,0.254647670,10.022791860,-0.044958290,0.031358010,0.036187470
1640784146.176720,0.082031810,0.278184320,9.225170140,-0.075562310,0.053975000,0.029897690
1640784146.178780,-0.083668380,0.235048120,10.060009000,-0.068745040,0.006616120,0.017091640
1640784146.185090,0.019835170,0.165711790,9.787343980,-0.045055150,0.097902130,0.024199490
1640784146.185560,-0.034427710,0.172934220,9.977288250,-0.018319490,0.000733140,0.014559930
1640784146.186520,-0.491586600,-0.027209250,10.510185240,-0.005659460,-0.012174250,0.019362570
1640784146.188040,0.088984680,-0.043969800,8.822381970,-0.021591780,0.016580520,0.027030710
1640784146.191480,-0.235508840,0.020876550,10.034869190,-0.025819240,0.055818260,0.011941790
1640784146.193410,-0.011299150,0.170892460,9.707972530,-0.059203810,0.153471530,0.017018620
1640784146.197280,0.149613800,0.365069150,9.908752440,-0.029329960,-0.011058150,0.026571750
1640784146.198230,-0.334983230,0.280924740,10.468539240,-0.009112060,0.010667740,0.016814470
1640784146.201540,0.167742920,0.166468020,8.842197420,0.016482180,0.012356040,0.020314760
1640784146.203020,-0.454941570,-0.027923350,10.242131230,0.063738230,0.012438000,0.007493790
1640784146.206500,-0.340519700,-0.047039430,9.571904180,0.022058190,0.121036160,-0.010310110
1640784146.208120,-0.107201550,0.137565810,9.803110120,-0.005623700,-0.014467540,0.018633910
1640784146.211740,-0.459063950,0.274108710,10.393672940,-0.037394460,0.058825320,0.019897520
1640784146.213830,0.049013520,0.306901540,9.211407660,-0.024612250,0.026714810,0.017984210
1640784146.217800,-0.487864290,0.332661780,10.540480610,0.057205550,-0.030443070,0.017000730
1640784146.218230,-0.307853040,0.167364700,9.543069840,0.079341230,0.047202400,-0.003407900
1640784146.221530,-0.143125040,0.293455150,9.742286680,0.065365420,-0.024856630,0.008407240
1640784146.223020,-0.522370820,0.580041230,10.357139590,-0.018335880,0.053480270,0.024834280
1640784146.226570,0.138602170,0.506109120,9.405579570,-0.091825430,-0.002588330,0.029951340
1640784146.228150,-0.086412340,0.660043240,10.323511120,-0.024127960,0.000664590,0.037162000
1640784146.231530,-0.081700120,0.630029080,9.723444940,0.014679130,0.049941250,0.013884900
1640784146.233790,0.045735410,0.437636910,9.949801450,0.040183970,-0.048901140,0.022090970
1640784146.236520,-0.349094450,0.340313610,10.002762790,0.020678340,0.013028090,0.016316770
1640784146.238050,-0.117588400,0.152998000,9.434862140,-0.048953310,-0.002337990,0.010657310
1640784146.241700,-0.348996010,0.195445250,10.199114800,-0.069980320,-0.011487300,0.024798510
1640784146.243140,-0.083932350,0.354973820,9.258124350,-0.072039670,0.034897030,0.013394650
1640784146.246930,0.056687610,0.288033550,10.112589840,-0.029827660,0.020703680,0.019985440
1640784146.248760,-0.194443270,0.307004960,10.346637730,0.003241000,0.058540700,0.022386020
1640784146.251510,0.075779210,0.177997710,9.675506590,0.013986230,-0.076384850,0.022208700
1640784146.253040,0.018242350,0.010176870,9.993362430,-0.005570050,0.002764170,0.033554430
1640784146.256540,0.209674370,0.047149630,8.949143410,-0.042681400,0.096651910,0.015817580
1640784146.258620,0.106871780,0.228976370,10.119194030,-0.039723520,0.006607170,0.011986490
1640784146.261490,0.000004610,0.348710750,9.919079780,-0.044476980,0.073948500,0.023382900
1640784146.263330,0.076721560,0.310419770,9.449867250,-0.027708710,-0.028814380,0.011785330
1640784146.266520,-0.451760920,0.166384710,10.613803860,0.024223330,-0.012974440,0.004675980
1640784146.268110,-0.400892080,-0.043439360,9.121502880,0.042638180,0.039054460,0.005705660
1640784146.271500,-0.630136790,-0.083351120,10.006955150,0.048238040,-0.040867920,-0.001750890
1640784146.273470,-0.572816850,0.066342960,9.974967000,-0.026100880,0.079600530,0.011262300
1640784146.276580,-0.061470610,0.279743580,9.193654060,-0.053273130,0.001509490,0.023500620
1640784146.278090,-0.389067770,0.280722890,10.827340130,-0.007453560,0.003996490,0.020439920
1640784146.282450,0.071822810,0.334239420,9.447141650,0.038696830,0.028356910,0.008791690
1640784146.284340,-0.006622540,0.329501510,10.105978010,0.096058870,-0.094437600,0.004522500
1640784146.286520,-0.173787100,0.336588620,10.106682780,0.041383500,0.058077280,-0.003172460
1640784146.288060,0.145723760,0.512621940,9.164202690,-0.044316050,-0.022891170,0.015811620
1640784146.291520,-0.232667450,0.545325100,10.574963570,-0.058393180,-0.020816920,0.024205450
1640784146.293100,0.129855080,0.582543310,9.330497740,-0.054439900,0.082717840,0.007285180
1640784146.296590,-0.210804820,0.552789570,10.276290890,0.019901990,-0.068680940,-0.000925360
1640784146.298140,-0.563831090,0.464122470,10.435108180,0.032620130,-0.007988510,0.004480780
1640784146.301490,-0.222583440,0.272076790,9.113357540,-0.010012090,-0.048725310,0.012661520
1640784146.303040,-0.657778860,0.110176810,10.332700730,-0.032617160,-0.028577450,0.025197870
1640784146.306610,-0.098730680,0.185976450,9.291189190,-0.071592640,0.069932650,0.016197560
1640784146.308040,0.144099250,0.176137550,9.825912480,-0.042095780,-0.009453300,0.025373700
1640784146.311590,0.144667210,0.202101810,10.411962510,-0.006598240,0.081390140,0.018483400
1640784146.313710,0.508301790,0.235955240,9.750642780,0.003899630,-0.005346540,0.010430810
1640784146.317630,-0.099704230,0.103997980,10.421059610,0.023281580,-0.094982990,0.028525290
1640784146.318130,0.146511810,0.054945930,8.959154130,-0.013148790,0.005547700,0.019389390
1640784146.322010,-0.102917370,0.085622020,9.546213150,-0.025312610,0.024464730,0.007949770
1640784146.323010,-0.508842530,0.196090710,10.166231160,-0.023482740,0.067980590,0.003255900
1640784146.326510,-0.168415930,0.438525710,9.643766400,-0.019164380,-0.014509260,-0.001031160
1640784146.328460,-0.614701030,0.248472880,10.475204470,0.003054740,-0.038309400,0.009334090
1640784146.332560,-0.339614270,0.061516310,9.456403730,0.036913160,0.005309280,0.009247660
1640784146.333070,-0.469230590,-0.059548490,9.970073700,0.076168780,-0.034680970,-0.005562600
1640784146.336520,-0.508990170,-0.046483510,9.798627850,0.045607980,0.004452470,0.004307930
1640784146.338410,0.184099020,0.170321520,9.280217170,-0.009697680,-0.020995740,0.013521320
1640784146.341500,-0.112722560,0.252003700,10.354530330,-0.030744080,0.029264390,-0.005781650
1640784146.343330,0.187218640,0.482563850,9.735901830,0.002793970,-0.014455620,-0.004720690
1640784146.346640,0.076838280,0.575122120,10.326721190,0.069731480,-0.081220280,-0.014401970
1640784146.348110,-0.249420180,0.467584940,9.932929990,0.064797700,-0.007803740,-0.011621420
1640784146.351590,-0.152028280,0.606377300,9.580000880,0.012712180,-0.060051680,0.002327560
1640784146.353100,-0.584907950,0.551396970,10.212261200,-0.032748280,-0.014628470,0.017616150
1640784146.356590,-0.207965240,0.476621270,9.219925880,-0.063435740,-0.013372300,0.012545290
1640784146.358050,-0.153972660,0.508756400,10.128045080,-0.020840770,-0.025048850,0.010620060
1640784146.361920,-0.303645700,0.288062990,10.033111570,0.006869440,0.035274030,-0.015410780
1640784146.363110,0.092933710,0.139329140,9.687879560,0.046560170,-0.098496690,-0.009320680
1640784146.366510,-0.166292120,0.012301360,10.235495570,0.035816420,-0.019055600,0.000910460
1640784146.368060,0.124088260,-0.077287560,9.208591460,-0.036698580,0.008666520,-0.000835960
1640784146.371550,0.058308240,0.086868250,10.072953220,-0.037550930,-0.053747010,0.011545420
1640784146.373010,0.111101480,0.256828070,9.534690860,-0.022476910,0.068803140,-0.010329480
1640784146.376900,0.291552480,0.306725530,9.728017810,0.005553660,-0.023245810,-0.019145010
1640784146.378070,-0.259813490,0.396578940,10.647127150,0.054472690,0.004462900,-0.003245470
1640784146.381510,-0.128582840,0.214208360,9.176958080,0.042879570,-0.050605830,-0.015689430
1640784146.383340,-0.427060310,0.066753050,10.023309710,0.024408100,-0.083743040,0.003840030
1640784146.386520,-0.373334710,0.004443110,9.337778090,0.000260770,0.101403900,-0.010193880
1640784146.388100,-0.218549620,0.024946890,9.766948700,0.012968480,-0.014834110,-0.029782950
1640784146.391520,-0.534729960,0.280129160,10.649354930,0.032424930,-0.009453300,-0.008708240
1640784146.393070,0.080366100,0.289345090,8.993561740,0.009447340,-0.048163540,-0.012256210
1640784146.396620,-0.276117620,0.060973770,10.403532980,0.051431360,-0.072945650,-0.006216760
1640784146.398130,-0.316685470,0.134845320,9.575118060,0.089725850,0.043502450,-0.023071470
1640784146.401990,-0.080617610,0.186927500,9.525525090,0.071138140,-0.105585170,-0.028648980
1640784146.403020,-0.377906290,0.326593970,10.420025830,0.018794830,0.001288950,-0.011155010
1640784146.406490,0.062557000,0.568973360,9.153514860,-0.027222930,0.016413630,-0.015333300
1640784146.408040,-0.387268280,0.515694680,10.823890690,0.011260810,-0.110147890,0.000514090
1640784146.411490,-0.228434090,0.472582220,9.687291150,0.058808920,-0.024563080,-0.008513030
1640784146.413250,0.033646340,0.383229080,9.363709450,0.094452500,-0.071416800,-0.016012790
1640784146.417250,-0.622900370,0.311104390,10.881407740,0.050079820,-0.006379190,0.004181270
1640784146.418220,-0.119106890,0.399403270,9.222123150,-0.034317380,-0.055986640,0.009669360
1640784146.421500,-0.087775360,0.335711300,9.905505180,-0.036756700,-0.133101610,0.019457940
1640784146.423020,-0.007012430,0.346045850,9.581468580,-0.013229250,0.067631910,0.008988380
1640784146.426490,0.261282740,0.516532480,9.538963320,0.033000100,-0.030346210,-0.015911460
1640784146.429010,-0.210102980,0.393683730,10.840862270,0.047357380,-0.063529610,-0.001819430
1640784146.432110,0.199795100,0.366523800,9.227683070,0.000230970,-0.044780970,0.004793700
1640784146.433060,-0.114635330,0.295968980,10.049162860,-0.020654500,-0.086677070,0.008423620
1640784146.436530,-0.152823870,0.253440380,9.671095850,-0.050452360,0.012098250,0.013926630
1640784146.438110,0.158487750,0.206942070,9.193920140,-0.010101500,-0.015540420,-0.001062450
1640784146.441480,-0.145228160,0.098684570,10.355621340,0.034710760,0.026494270,-0.003993510
1640784146.443180,0.055949300,0.056412260,9.719872470,0.031971930,-0.012214480,-0.002639000
1640784146.446560,-0.305597250,-0.102147520,10.129752160,0.040656330,-0.107608750,-0.001938640
1640784146.448330,-0.266032250,-0.178144740,9.395456310,0.012017780,-0.018814200,-0.000779330
1640784146.451610,-0.199613540,-0.071161690,9.512686730,0.025412440,-0.013765690,-0.016033650
1640784146.453110,-0.460788610,0.066525010,10.140563010,0.042416160,0.034531940,-0.022597610
1640784146.456470,0.019080950,0.369892300,9.496281620,0.039042530,-0.027529900,-0.015486780
1640784146.458040,-0.283313010,0.449584010,10.332086560,0.036899750,-0.054341550,-0.018703940
1640784146.461700,-0.036821370,0.462545450,9.460498810,0.030826030,-0.020702180,-0.003853440
1640784146.463090,-0.189350710,0.356960270,10.044030190,0.047546630,-0.071638820,-0.003850460
1640784146.466820,-0.340410710,0.268175540,9.946711540,0.058756780,0.008267160,-0.026223070
1640784146.468160,0.103175600,0.414076920,9.416547780,0.036980210,-0.044330960,-0.012071430
1640784146.471450,-0.339072940,0.345416610,10.567811010,0.015412270,-0.005650520,-0.007215140
1640784146.473010,0.038249290,0.375568030,9.261861800,-0.017336010,-0.019872190,-0.012891000
1640784146.476550,-0.048321740,0.368967650,10.005844120,0.020606820,-0.100520250,0.000636280
1640784146.478280,-0.273173240,0.192057640,9.907152180,0.052045290,0.039617710,-0.002995130
1640784146.481610,0.072391160,0.253093030,9.483195300,0.050394240,-0.054064390,-0.017209350
1640784146.484320,-0.443043560,0.469658050,10.630033490,0.012430550,-0.065603840,0.000658630
1640784146.486540,0.102955790,0.421199020,8.942272190,-0.057639190,0.000615420,0.008051100
1640784146.488070,0.138984200,0.467796890,9.828172680,-0.032797460,-0.029103460,0.008685890
1640784146.491460,-0.130281300,0.514937820,10.146067620,0.008685890,0.061944130,-0.013741850
1640784146.493160,0.340460000,0.420864520,9.250969890,0.031760330,-0.057238340,-0.007839500
1640784146.496680,-0.152231540,0.253374610,10.403563500,0.020603840,-0.054837770,0.004678960
1640784146.498220,0.047423150,-0.081871220,9.246587750,-0.021387640,0.038965050,-0.011754040
1640784146.501490,-0.076897750,-0.157888530,9.957014080,0.004500150,-0.047054890,-0.002807380
1640784146.503050,-0.342206060,-0.035746100,9.837043760,0.008250770,0.034144520,-0.015643240
1640784146.506520,0.240781250,-0.057670810,9.028222080,-0.002686680,0.003494320,-0.025914610
1640784146.508070,-0.238280980,0.107096310,10.379734990,0.032624610,0.039587910,-0.012588500
1640784146.512030,-0.235423270,0.149711190,9.662732120,0.038959090,-0.000278650,-0.025556980
1640784146.514760,-0.253751400,0.092198040,9.954284670,0.066347420,-0.106306380,-0.006942450
1640784146.516620,-0.316130460,0.152391370,9.445403100,0.053009390,0.037088990,-0.014927980
1640784146.518290,-0.088128120,0.192077990,9.475294110,0.041881200,0.033976140,-0.030061600
1640784146.521520,-0.299198720,0.390933720,10.490997310,0.039817390,0.025239590,-0.019229950
1640784146.523020,0.124506650,0.526453200,9.299591060,0.009873510,-0.023283070,-0.032009180
1640784146.526790,0.055065970,0.336443990,9.981574060,0.034040220,-0.040158640,-0.018382080
1640784146.528580,-0.094372570,0.375364090,9.689271930,0.061376400,0.058546670,-0.020085280
1640784146.531560,-0.196794380,0.208965060,9.972481730,0.073124480,-0.062829260,-0.016166270
1640784146.533930,-0.361075010,0.111520680,10.343996050,0.058582430,-0.014521180,-0.007253890
1640784146.536460,-0.069245820,0.341315000,9.132435800,0.007393960,0.016112620,-0.005607310
1640784146.538140,-0.343852910,0.336275850,10.336221690,-0.012128060,-0.037537520,-0.004817550
1640784146.541500,-0.023204110,0.397748320,9.447717670,0.009134410,0.051730870,-0.012063980
1640784146.543170,0.147932630,0.506302650,9.550552370,0.058856610,-0.029572840,-0.011728700
1640784146.546650,-0.252078180,0.426258210,10.633214000,0.051796440,0.013771650,-0.007164480
1640784146.548680,0.226313290,0.457909140,9.032522200,0.013847650,-0.016872580,0.011201200
1640784146.551620,-0.103644030,0.274617700,10.086722370,-0.007571280,-0.052897640,0.005431470
1640784146.553110,0.163693670,0.217142300,9.387911800,-0.025668740,0.116418310,0.007104870
1640784146.556470,0.207629890,0.237699180,9.541209220,0.013968350,-0.003243980,-0.004670020
1640784146.558080,-0.289838760,0.050944360,10.548634530,0.041572740,0.017152730,0.000898540
1640784146.561640,0.142983060,-0.009638490,8.989681240,0.025765600,0.002759690,0.003686550
1640784146.563390,-0.447307440,-0.145669700,10.259972570,0.041168930,-0.059281290,-0.002580880
1640784146.566750,-0.280899880,-0.167177110,9.355087280,0.025984640,0.072671470,-0.013804440
1640784146.568090,-0.128414410,0.090687100,9.355195050,0.038154430,0.006294250,-0.017499920
1640784146.571480,-0.464059170,0.296184630,10.513731960,0.035923720,0.057004400,-0.014811760
1640784146.573070,0.205111340,0.501415610,9.341067310,0.009703640,0.023396320,-0.006484990
1640784146.576660,-0.235865030,0.477432550,10.338921550,0.064463920,-0.040517750,0.013567510
1640784146.578310,-0.000709440,0.390228630,9.501999860,0.055576860,0.025686620,0.002133850
1640784146.581600,0.094761380,0.340898900,9.558677670,0.059977170,-0.014188890,0.003045800
1640784146.583360,-0.403046670,0.319354180,10.191247940,0.045757000,0.049304950,-0.016905370
1640784146.586580,-0.085043000,0.392538490,9.513536450,-0.004798170,-0.020289420,-0.023125110
1640784146.588100,-0.327199850,0.513068140,9.961351390,-0.003065170,-0.035181640,-0.004707280
1640784146.591460,-0.195252390,0.480973870,9.431905750,-0.006835160,0.052480400,-0.011405350
1640784146.593150,-0.171540160,0.409321840,10.126398090,0.028385220,0.021393600,-0.010471040
1640784146.596950,-0.449445010,0.368898210,10.230636600,0.056545450,0.006373230,0.006416440
1640784146.598210,0.074376240,0.205674260,9.491422650,0.031280520,-0.054995720,0.003778930
1640784146.601510,-0.050002160,0.153088020,9.855919840,0.002348420,0.036185980,0.009623170
1640784146.603060,0.119393880,0.271000860,9.276589390,-0.019647180,0.046101220,0.003033880
1640784146.606490,0.265758100,0.301508370,9.975025180,-0.012663010,-0.009432440,0.002804400
1640784146.608140,0.220469390,0.305032160,9.659944530,0.010100010,0.076115140,0.000147520
1640784146.611600,0.227455710,0.212976340,9.867508890,0.031000380,-0.009402630,-0.002019110
1640784146.613090,-0.240647840,0.147420000,10.469161990,0.047245610,0.010094050,0.005064900
1640784146.616590,-0.097052800,0.039326360,8.954505920,0.018505750,-0.002688170,0.008939210
1640784146.618170,-0.237885030,-0.048249610,9.822631840,0.009348990,0.010819730,-0.004583600
1640784146.621480,-0.214251340,0.085375000,9.407136920,-0.004380940,0.149668750,-0.024315710
1640784146.623060,0.001562580,0.223560260,9.608960150,0.032052400,0.002880390,-0.013187530
1640784146.626610,-0.284520450,0.179215670,10.565688130,0.047402090,0.043226780,-0.013987720
1640784146.628080,0.029950890,0.078551950,9.074089050,0.057436530,0.025613610,-0.018097460
1640784146.631590,-0.285123410,-0.000254360,10.206657410,0.087280560,-0.032521790,-0.011023880
1640784146.633280,-0.237823370,0.039822320,9.444780350,0.060924890,0.117829450,-0.022923950
1640784146.636500,-0.013593320,0.145767930,9.421861650,0.049060580,-0.012715160,-0.013604760
1640784146.638060,-0.295732080,0.284632410,10.479526520,0.050355500,0.059084600,-0.007620450
1640784146.641670,0.063172500,0.440128390,9.107078550,0.022687020,0.058124960,-0.023776290
1640784146.643200,-0.372001110,0.401462470,10.515089040,0.074370200,-0.062461190,-0.011330840
1640784146.646920,-0.276520250,0.406307790,9.697060590,0.090946260,0.059334940,-0.023943190
1640784146.650480,-0.194088300,0.538474560,9.352529530,0.069382790,-0.032702090,-0.026123230
1640784146.651530,-0.530319390,0.616837560,10.376813890,0.019349160,0.029358270,-0.000202660
1640784146.653070,0.147501680,0.602488220,9.052833560,-0.033169980,0.062546140,-0.011222060
1640784146.656550,-0.023856660,0.535618310,10.299162860,0.014539060,-0.004316870,0.003866850
1640784146.658230,-0.046342930,0.409751210,10.065886500,0.046403700,0.076578540,-0.004328790
1640784146.661760,0.115466630,0.304861460,9.448286060,0.046040120,-0.057341160,-0.016853210
1640784146.663130,-0.363048730,0.111621210,10.191946030,0.030663610,-0.021046400,0.012137000
1640784146.666460,0.062739230,0.044424440,9.030629160,-0.018468500,0.067588690,-0.005163250
1640784146.668100,-0.190114970,0.077983860,10.092065810,-0.010672210,0.006349390,-0.003854930
1640784146.671480,-0.011677140,0.310707990,9.706943510,0.006175040,0.078454630,0.002452730
1640784146.673180,0.296039880,0.352175440,9.470027920,0.013886390,0.033098460,-0.008687380
1640784146.676670,-0.199344290,0.221784130,10.463619230,0.026834010,0.028663870,-0.006729360
1640784146.678260,0.074135710,0.213278320,9.284949300,0.044432290,-0.002378230,-0.003957750
1640784146.681560,-0.187129620,-0.003640400,9.638396260,0.049178310,-0.018261370,-0.019951160
1640784146.684200,-0.168451710,0.006459850,9.317453380,0.010451680,0.120897590,-0.015161930
1640784146.686500,-0.064353210,0.114267050,9.691220280,-0.004614890,0.045497720,-0.015400350
1640784146.688150,-0.406476590,-0.004801280,10.207106590,0.025913120,0.039122990,-0.020319220
1640784146.691500,-0.008425680,0.111450170,9.243144040,0.060178340,-0.016322730,-0.018849970
1640784146.693150,-0.276191320,0.048745880,10.090920450,0.082126270,0.024956460,-0.029322510
1640784146.696630,-0.295904870,-0.018168830,9.743402480,0.072512040,0.079974540,-0.028768190
1640784146.698170,-0.269503300,0.241630020,10.057970050,0.072886030,-0.014756620,-0.023745000
1640784146.701460,-0.307018640,0.384556290,9.794815060,0.023406740,0.031159820,-0.025834150
1640784146.703100,0.127448440,0.505174040,9.122362140,-0.000666080,0.022727250,-0.012940170
1640784146.706570,-0.298035620,0.506176950,10.449441910,0.054261090,0.040905180,-0.027339170
1640784146.708180,-0.129506070,0.424040680,9.569561000,0.072173780,0.022527580,-0.045575210
1640784146.712080,-0.086552960,0.423362610,9.958662990,0.085556510,-0.064934790,-0.024881960
1640784146.715920,-0.341216620,0.274575710,9.971817970,0.037150100,0.078243030,-0.029569870
1640784146.717020,-0.155845250,0.233683660,9.587313650,-0.001947580,-0.015875700,-0.023834410
1640784146.718120,-0.393455480,0.407350150,10.393825530,0.000461940,-0.033065680,-0.006036460
1640784146.722010,0.076738240,0.274423990,9.028426170,0.004841390,0.062362850,-0.011345740
1640784146.723030,0.027343010,0.215981290,10.113869670,0.059755150,0.019174810,-0.013993680
1640784146.726470,-0.330210150,0.387356100,10.354387280,0.064821550,0.047534710,-0.028529770
1640784146.728560,0.094307830,0.280593630,9.208340640,0.011956690,-0.084689260,-0.015842920
1640784146.733110,-0.183446710,0.299436000,10.116397860,-0.001905860,-0.010503830,0.001420080
1640784146.733550,0.072337140,0.326348160,9.133248330,-0.027416650,0.103281450,-0.037899620
1640784146.736500,0.059979400,0.395317640,10.066835400,0.011280180,-0.015942750,-0.026810170
1640784146.738600,-0.019804050,0.438478950,9.970990180,0.037924950,0.080914800,-0.006376210
1640784146.741500,0.214883340,0.108864860,9.391530990,0.030848380,-0.000873210,-0.021934510
1640784146.743210,-0.427717720,-0.073080920,10.507013320,0.059069700,-0.036531690,0.004112720
1640784146.746600,-0.221317440,-0.216084090,8.772920610,0.043343010,0.022354720,-0.014886260
1640784146.748230,-0.222440760,-0.358881890,9.583133700,0.042770800,-0.004705790,-0.024695700
1640784146.751530,-0.372903350,-0.148188740,10.014004710,0.044989580,0.137083200,-0.031547240
1640784146.753470,-0.042366200,0.127289000,9.696764950,0.051720440,0.006505850,-0.045351690
1640784146.756490,-0.391820730,0.280351430,10.689234730,0.057247290,-0.052838030,-0.021258000
1640784146.758110,0.034583960,0.416467990,8.935487750,0.057773300,0.005942580,-0.014352800
1640784146.761620,-0.208675490,0.220249640,9.908363340,0.100386150,-0.009292360,-0.027807060
1640784146.763070,-0.468305230,0.356127290,10.100891110,0.110265620,0.071489810,-0.025017560
1640784146.766490,-0.091390830,0.543684720,9.299116130,0.067457560,-0.054803490,-0.024549670
1640784146.768130,-0.287337810,0.518209040,10.280677800,0.016181170,-0.024266540,-0.022675100
1640784146.771580,0.026635910,0.625114320,9.291940690,-0.011906030,0.078018020,-0.015923380
1640784146.773050,-0.195371780,0.503325160,10.302559850,0.040918590,-0.039666890,-0.034858290
1640784146.776580,-0.261588130,0.330772010,10.196272850,0.086776920,-0.006616120,-0.025333460
1640784146.778150,0.036016780,0.336066930,9.286829950,0.092780600,-0.028042500,-0.018632410
1640784146.781590,-0.422266130,0.203488530,10.354283330,0.018292670,-0.000298020,-0.021097070
1640784146.783580,-0.024052910,0.262701090,9.180894850,-0.050383810,-0.000572200,-0.005544720
1640784146.786580,0.100388610,0.221610860,9.582062720,-0.003284220,-0.020940610,-0.008040670
1640784146.788120,0.094311330,0.172739650,9.932125090,0.052335860,0.102400780,-0.022126740
1640784146.791470,0.131661760,0.311842050,10.080216410,0.086866320,-0.002104040,-0.020846730
1640784146.793090,-0.289249780,0.306408790,10.455875400,0.064314910,-0.066637990,-0.017985700
1640784146.796600,0.175219330,0.264763560,8.779663090,-0.019232930,-0.030171870,-0.010630490
1640784146.799290,-0.110333240,0.283999120,9.583066940,-0.020413100,0.056165460,-0.017531220
1640784146.801710,-0.153966140,0.298486350,9.813494680,0.019086890,0.125275540,-0.044693050
1640784146.803060,-0.045356030,0.387093600,9.989086150,0.069475170,-0.040857490,-0.028775630
1640784146.806490,-0.356457530,0.337736370,10.069762230,0.054822860,-0.016319750,-0.025302180
1640784146.808200,-0.048047030,0.046982620,9.185941700,-0.007291140,-0.003521140,-0.026360150
1640784146.812020,-0.512338880,-0.147728160,10.300622940,0.040321050,0.012737520,-0.013382740
1640784146.814130,-0.336538290,-0.141911640,9.493513110,0.072036690,0.056652720,-0.047296290
1640784146.817190,-0.112653080,0.097550160,9.946708680,0.067952280,-0.029940900,-0.048367680
1640784146.818240,-0.316161100,0.404160710,9.949782370,0.016175210,0.051625070,-0.027069450
1640784146.821510,0.139328490,0.403545320,9.267108920,-0.014141200,-0.027556720,-0.045293570
1640784146.823040,-0.155744790,0.494274590,10.335828780,0.048105420,-0.002723930,-0.031149390
1640784146.826470,-0.044719880,0.500980910,9.496874810,0.094999400,0.048489870,-0.041025880
1640784146.828420,-0.124731240,0.579569640,10.334571840,0.070764120,-0.052186850,-0.039716060
1640784146.831540,-0.435807730,0.795147960,9.945860860,-0.024852160,0.010176000,-0.008849800
1640784146.833060,0.046939890,0.706428830,8.894534110,-0.093543510,-0.031113620,-0.002917650
1640784146.836570,-0.209243310,0.546965180,10.259497640,-0.036554030,0.048832590,-0.013370810
1640784146.838150,-0.122906420,0.508950230,9.509795190,0.034873190,0.071544930,-0.027674440
1640784146.841530,-0.051386000,0.271967530,10.089263920,0.062614680,-0.077717010,-0.017753250
1640784146.843280,-0.241488310,0.071197870,9.945765500,-0.003825130,0.023663050,-0.010095540
1640784146.846620,0.098529600,-0.010128590,9.144711490,-0.056704880,0.006908180,-0.004820530
1640784146.848180,-0.138959050,-0.088575190,10.371814730,-0.041970600,0.013105570,-0.014898180
1640784146.852010,0.170893330,0.174898760,9.080809590,-0.023481250,0.087496640,-0.021845100
1640784146.853120,0.173410030,0.315878210,9.926630970,0.012807550,0.001570580,-0.030845410
1640784146.856470,-0.078965770,0.335512250,10.216506960,0.002889330,0.066034480,-0.023403760
1640784146.858110,0.006677630,0.355500130,9.165662770,0.013522810,-0.037682060,-0.017061830
1640784146.861810,-0.401915610,0.176604390,9.963466640,0.016359980,-0.003612040,-0.018189850
1640784146.863110,-0.179439890,0.175539140,9.066835400,-0.016437470,0.091281530,-0.025510790
1640784146.867100,-0.411629200,0.209542410,10.108685490,0.002650920,0.010362270,-0.033947830
1640784146.868810,-0.409854950,0.246281580,10.075278280,0.002154710,0.062064820,-0.028669830
1640784146.871460,-0.090804400,0.252434100,9.439222340,0.006920100,-0.039723520,-0.025703020
1640784146.873110,-0.288975060,0.112777830,10.081394200,0.028091670,0.020453330,-0.031414630
1640784146.876680,0.038359100,0.161185350,9.332411770,0.020129980,0.071495760,-0.037853410
1640784146.878160,-0.330401450,0.188562110,10.352463720,0.044263890,-0.019104780,-0.026875730
1640784146.881680,-0.140869110,0.305394140,9.701855660,0.011722740,0.004038220,-0.034990910
1640784146.883180,0.028104320,0.657934730,9.417615890,-0.039814420,-0.027458370,-0.033813720
1640784146.886600,-0.364557560,0.715429600,10.182520870,-0.050500050,0.050668430,-0.020679830
1640784146.888110,0.078858100,0.650519370,9.541516300,-0.026473410,0.017403070,-0.029893220
1640784146.891470,-0.293276910,0.491258140,10.432659150,0.052516170,-0.029383600,-0.011055170
1640784146.893130,-0.327115770,0.437319460,9.726693150,0.036111470,0.029623510,-0.016753370
1640784146.896580,-0.270788310,0.435015050,9.786550520,-0.051738310,-0.072744470,-0.001853700
1640784146.898600,-0.515658800,0.262110230,9.816349980,-0.106452410,-0.020340090,0.009654460
1640784146.901710,0.152939650,0.054369130,8.991230960,-0.076863180,0.040158630,-0.023192170
1640784146.903100,-0.082390700,0.133730340,10.506129260,0.019587580,0.056071580,-0.031827390
1640784146.906480,0.061746160,0.323240580,9.876875880,0.029735270,0.033953790,-0.022538000
1640784146.908090,0.215496540,0.316687200,9.927868840,-0.046239800,-0.079979000,-0.020442900
1640784146.911910,-0.228065580,0.304299530,9.758072850,-0.103168190,0.002534690,0.002506380
1640784146.913480,0.075784090,0.163134900,8.962540630,-0.061374910,-0.013281410,-0.006783010
1640784146.917870,-0.158236000,0.142340180,10.061409950,0.016543270,0.039029130,-0.031651560
1640784146.919000,-0.043456730,0.271939340,9.420948980,0.010512770,0.104360290,-0.039088730
1640784146.921490,-0.092825150,0.246573120,10.361427310,-0.028276450,-0.025588270,-0.025877360
1640784146.923050,-0.488220010,0.094776910,10.093352320,-0.061686340,-0.000248850,-0.019171840
1640784146.926480,-0.208439220,0.039307540,8.903352740,-0.025719400,-0.085940960,-0.014163550
1640784146.928490,-0.481150900,-0.169373570,9.950241090,0.034052140,0.034408270,-0.026203690
1640784146.932240,-0.228777240,-0.031411740,9.251980780,0.038732590,0.110308810,-0.045283130
1640784146.933150,-0.250198420,0.188747450,10.487479210,0.031268600,-0.033397980,-0.028312210
1640784146.936550,-0.164321560,0.260041420,10.155270580,-0.039565560,0.022016460,-0.025662780
1640784146.938100,0.085448660,0.372927220,9.311900140,-0.031492110,-0.066688660,-0.022730230
1640784146.941460,-0.410381530,0.282464620,10.336318970,0.036117430,-0.021944940,-0.039975350
1640784146.943180,-0.123658100,0.430537610,9.063130380,0.047270950,0.008109210,-0.047466160
1640784146.946930,-0.336203600,0.466038530,9.976584430,0.030040750,-0.042182210,-0.031286480
1640784146.948280,-0.349023280,0.447499600,10.064474110,-0.035801530,0.063575810,-0.026707350
1640784146.951940,-0.206843470,0.596089720,9.820233350,-0.066781050,-0.069737430,-0.019234420
1640784146.953110,-0.381948200,0.577647030,10.243613240,-0.037662680,-0.061881540,-0.000609460
1640784146.956470,0.100788430,0.431913970,9.122264860,-0.024087730,0.019146500,-0.006887320
1640784146.958140,-0.332029430,0.359763030,10.386427880,0.034952160,-0.013066830,-0.014699990
1640784146.961800,-0.267944220,0.355582710,10.023418430,-0.006368760,-0.022885200,-0.011973080
1640784146.963610,0.089716700,0.297854240,9.400990490,-0.069068370,-0.087481740,0.000146030
1640784146.967890,-0.294177060,0.223466190,10.076185230,-0.075472900,0.014728310,-0.005063410
1640784146.969780,0.146652620,0.371661160,9.407925610,-0.067810720,0.022496280,-0.032028560
1640784146.971460,-0.048076490,0.475696330,10.184727670,-0.030231480,-0.032918160,-0.012595950
1640784146.973090,0.077082020,0.375635590,9.758402820,-0.038611890,0.036318600,-0.007182360
1640784146.976800,0.132562070,0.217326330,9.983729360,-0.048021970,-0.028391180,-0.007255370
1640784146.978990,-0.280039820,0.174413560,9.981110570,-0.032424920,-0.026081500,0.012610850
1640784146.981760,0.124566440,0.094570710,8.999815940,-0.057893990,-0.016075370,0.002519790
1640784146.984080,-0.144265470,0.041748400,9.960610390,-0.062422460,0.050441920,0.000117720
1640784146.986550,-0.079048860,0.131537470,9.568573000,-0.051847100,0.057108700,-0.018051260
1640784146.988110,-0.096616150,0.048687550,10.253460880,-0.020846720,-0.045335290,-0.022831560
1640784146.991510,-0.389070870,-0.056979150,9.972502710,0.001929700,0.004525480,-0.028114020
1640784146.993240,-0.126547040,-0.048312490,9.311548230,0.020556150,-0.057163840,-0.033228100
1640784146.996500,-0.515428070,-0.050655270,10.161378860,0.007627900,0.031271580,-0.037282710
1640784146.998300,-0.214529340,0.199060890,9.143775940,-0.029365720,0.049728160,-0.027836860
1640784147.002510,-0.184644340,0.330686270,10.430423740,-0.023917860,-0.045388940,-0.005400180
1640784147.003060,-0.142116870,0.312798380,9.886048320,-0.010973220,0.064833470,-0.010821220
1640784147.006480,-0.074083020,0.400630950,9.718606950,0.033001610,-0.069002810,-0.025872890
1640784147.008180,-0.421604930,0.272367180,10.509346010,0.039243700,-0.029546030,-0.024610760
1640784147.012030,-0.054005390,0.258102330,8.998205180,0.005318220,0.004322830,-0.030362610
1640784147.013080,-0.398974210,0.386914400,10.333819390,-0.011219090,-0.049839910,-0.023326280
1640784147.016650,-0.221777380,0.490993350,9.833891870,-0.065939140,0.045776370,-0.010934470
1640784147.018190,0.100587950,0.530604180,9.400213240,-0.041751560,-0.056560350,-0.005127490
1640784147.021480,-0.270351680,0.447458770,10.606856350,0.013250110,0.018984080,-0.016105180
1640784147.023100,-0.001396910,0.489086480,9.591608050,0.001768770,0.012487170,-0.020119550
1640784147.026570,-0.362812160,0.398286370,10.321194650,0.000615420,-0.112625950,-0.002002720
1640784147.028180,-0.069602810,0.283115420,9.454585080,-0.057426100,0.024162230,-0.013425950
1640784147.031580,0.121703520,0.376538520,9.395493510,-0.068216030,0.028671320,-0.009810920
1640784147.033210,-0.218591000,0.377228800,10.475333210,-0.052306060,0.033518660,-0.007623430
1640784147.036530,0.383332790,0.365971710,9.391622540,-0.058507920,0.017046930,-0.008314850
1640784147.038120,0.020899990,0.240447190,10.169799800,-0.014920530,-0.015288590,0.002199410
1640784147.041560,-0.034959020,0.030562020,9.852729800,-0.004453960,0.020575530,-0.009420520
1640784147.043200,0.039859410,-0.023661170,9.569050790,-0.014419850,-0.036174060,-0.011490280
1640784147.046900,-0.200648320,0.027583950,9.651073460,-0.037197760,0.059811770,-0.007225570
1640784147.048290,0.109554060,0.069896790,9.485335350,-0.072215500,0.092299280,-0.022472440
1640784147.051680,-0.253870490,0.288112100,10.429152490,-0.034022330,0.052151080,-0.018757580
1640784147.053070,-0.194123970,0.402030350,9.622829440,-0.010217730,-0.013901290,-0.027877100
1640784147.056580,-0.267358450,0.234833600,9.836135860,0.008691850,-0.049595540,-0.029574330
1640784147.058200,-0.442321510,0.125032110,9.440232280,0.016215440,0.076022750,-0.023214520
1640784147.061510,-0.267761080,0.068069510,9.669591900,0.020653010,0.029081110,-0.032053890
1640784147.064090,-0.480153500,0.101070890,10.504862790,-0.002010170,0.067111850,-0.016234820
1640784147.066530,0.007449330,0.305809230,9.358063700,-0.035856680,0.008304420,-0.004787740
1640784147.068190,-0.168857690,0.251153380,10.439891820,-0.031305850,-0.026476390,-0.005264580
1640784147.071480,-0.210784420,0.155487840,9.535673140,0.012584030,0.064614420,-0.020441410
1640784147.073200,-0.180566490,0.166433950,9.848130230,0.083284080,-0.063870850,-0.026719280
1640784147.076560,-0.493986730,0.141079100,10.453430180,0.066043440,0.036580860,-0.031028690
1640784147.078160,-0.079814180,0.374789480,9.039114000,-0.020307300,0.018198790,-0.022898610
1640784147.081610,-0.403590080,0.572033520,10.563214300,-0.050166250,-0.048851970,-0.002568960
1640784147.083160,-0.051041390,0.646586180,9.364899640,-0.070716430,0.081028050,-0.003889200
1640784147.086480,0.037378260,0.625972750,9.584858890,0.007604060,-0.026898090,-0.015635790
1640784147.088110,-0.454171060,0.491299540,10.844908710,0.049449510,0.026252870,-0.018663710
1640784147.091610,0.050812330,0.391304140,9.095819470,0.025689600,-0.023974480,0.002625580
1640784147.093140,-0.363650590,0.100039120,10.224047660,-0.015886130,-0.071598600,0.012451410
1640784147.096550,-0.045770710,0.011677310,9.517908100,-0.077883910,0.117999320,0.002600250
1640784147.100000,0.200601620,0.083113380,9.529640200,-0.043018170,0.020167240,-0.000639260
1640784147.101490,-0.166596140,0.023443200,10.568971630,0.012093780,0.026872760,-0.007103380
1640784147.103200,0.272605600,0.050278480,9.319985390,0.033339860,0.007373100,-0.026242440
1640784147.106620,-0.307487220,0.058476220,10.190192220,0.054813910,-0.060482320,-0.012350080
1640784147.110000,-0.269485770,0.013201310,9.425312040,-0.000286100,0.017482050,-0.018215180
1640784147.111510,-0.210213380,0.109289600,9.440682410,-0.012141470,0.010056790,-0.024621190
1640784147.113300,-0.477909770,0.307871400,10.063151360,0.010438260,0.080671910,-0.019012390
1640784147.117640,-0.179723980,0.416739940,9.850207330,0.023910410,0.015173850,-0.005652010
1640784147.118140,-0.485054490,0.415739060,10.187707900,0.049747530,-0.036221740,0.009104610
1640784147.121660,-0.257509620,0.209600300,9.390933990,0.034515560,-0.030958650,0.001311300
1640784147.123120,-0.343213380,-0.104511090,9.990322110,0.060345240,-0.001686810,-0.006315110
1640784147.126500,-0.385287430,0.051169890,9.716055870,0.068812070,0.055222220,-0.021953880
1640784147.128190,-0.098380320,0.264185400,10.071306230,0.020107630,-0.045011930,-0.023658570
1640784147.131600,-0.136576100,0.457555410,10.091545100,-0.031499570,0.029674180,-0.010749700
1640784147.133460,0.048584430,0.514175830,9.444986340,-0.024023650,-0.020974880,-0.027702750
1640784147.136540,-0.389056800,0.412933800,10.677015300,0.061598430,-0.052329900,-0.018738210
1640784147.138460,-0.308923300,0.386703040,9.348345760,0.100426400,-0.018228590,-0.013644990
1640784147.141470,-0.410355120,0.392869060,9.912530900,0.055839120,-0.097526620,-0.003863870
1640784147.143240,-0.548168480,0.496105160,10.185441020,-0.052919990,0.041100380,0.024844710
1640784147.146980,0.043074680,0.627423820,9.085466380,-0.101642310,-0.033710900,0.023782260
1640784147.148240,-0.103804540,0.530686320,10.581344600,-0.047941500,-0.029224160,0.003539030
1640784147.151520,0.254076540,0.502031620,9.391124730,0.019213560,0.086732220,-0.020900370
1640784147.153270,0.052931250,0.426779930,10.099049570,0.060771410,-0.120763490,-0.017593800
1640784147.156520,-0.278127520,0.179169740,10.272714610,-0.009942050,-0.039909780,0.013104080
1640784147.158120,0.275590120,0.076755350,8.554122920,-0.079242910,-0.024725500,0.019714240
1640784147.161800,-0.257570530,-0.090053900,10.425313000,-0.056654220,-0.002503400,0.029566880
1640784147.163350,0.043387360,0.001107730,9.506356240,-0.017501420,0.099271540,0.019858780
1640784147.166530,0.035541090,0.066333500,9.962775230,0.035908820,-0.048232080,0.009377300
1640784147.168310,-0.416089030,-0.003357140,10.590855600,0.025601690,-0.009422010,0.005953010
1640784147.171470,-0.035744950,0.026229070,9.007249830,0.014448170,-0.057451430,-0.005005300
1640784147.173100,-0.526019280,-0.002580090,9.879797940,0.017806890,-0.054198510,-0.012023750
1640784147.176660,-0.177001100,0.196677330,9.273374560,-0.011354690,0.081217300,-0.011615450
1640784147.178190,-0.077333740,0.364523890,9.993351940,0.015279650,0.013852120,-0.002542140
