timestamp,accel_x,accel_y,accel_z,gyro_x,gyro_y,gyro_z
1640834718231959808,-0.095335630,0.343066510,9.697421070,0.097814220,-0.110352050,0.324240420
1640834718236300032,-0.379451960,0.625030220,9.986894610,-0.046068430,0.037767000,0.368687510
1640834718237299968,0.150488000,0.214030030,8.720685010,-0.192596020,0.054335600,0.335712700
1640834718238080000,-0.159260480,-0.142215670,10.869894980,-0.094844410,-0.021795920,0.352534680
1640834718241609728,0.114864920,-0.004785280,9.677467350,0.053590540,0.095626700,0.315676660
1640834718243039744,0.323948440,0.008541440,9.389167790,0.055946410,-0.048129250,0.297170850
1640834718246729728,-0.289896730,0.409356980,10.562242510,-0.062754760,0.060701370,0.327411290
1640834718248760064,0.111027490,0.234200570,8.772522930,-0.159648060,0.046433510,0.304807720
1640834718253909760,-0.343861130,-0.069156510,10.336460110,-0.062049930,-0.084397200,0.321243700
1640834718254749952,-0.313812320,0.225036990,9.477454190,0.043979290,0.126120450,0.290878150
1640834718262859776,0.001491440,0.031713740,9.142132760,0.041694940,0.013953450,0.284414020
1640834718264119808,-0.575121940,0.203481180,11.040052410,-0.017325580,0.024688250,0.326414410
1640834718265270016,0.145125300,0.141606940,8.903300290,-0.102721180,0.076940660,0.305628780
1640834718265899776,-0.138994190,-0.404175610,10.262058260,-0.037558380,-0.073489550,0.311031970
1640834718270899968,-0.406037420,-0.242543590,10.026368140,0.087171800,0.096699580,0.284770070
1640834718271489792,0.200204890,-0.044076320,8.665304180,0.094702840,-0.032889850,0.250233710
1640834718271859968,-0.326095670,0.369252180,10.517599110,-0.013832750,-0.000375510,0.294187750
1640834718273030144,0.165548590,0.510673520,9.177882190,-0.122427940,0.155505550,0.284245610
1640834718276640000,-0.139007660,0.013788380,10.586985590,-0.016054510,-0.059616570,0.283035640
1640834718278080000,-0.687113050,0.305672710,10.696035390,0.141872470,-0.004515050,0.277186930
1640834718281869824,-0.058373520,0.605703180,8.456025120,0.082512220,-0.066106040,0.260514080
1640834718283059712,-0.488856350,0.577044370,10.158899310,-0.091293480,0.002048910,0.302164290
1640834718286659840,-0.105782640,0.451487630,9.586237910,-0.139839990,0.197288420,0.283405240
1640834718288009984,0.127446500,-0.067879580,10.472606660,0.016203520,-0.030095880,0.252887640
1640834718291620096,-0.257373840,0.240522670,10.819682120,0.144557650,-0.028431420,0.268033180
1640834718293129984,0.388203890,0.525421860,8.479154590,0.018762050,-0.028924640,0.249332200
1640834718296730112,-0.068441360,0.269056410,10.015312190,-0.144493580,0.019493700,0.284609230
1640834718298080000,-0.196313690,0.163721050,9.927601810,-0.119519240,0.133542720,0.275608930
1640834718301639936,0.165532380,0.002489620,9.717720030,0.052741170,-0.042577090,0.235204430
1640834718303510016,-0.362098900,0.321006480,10.408679960,0.104317080,0.007787350,0.260259180
1640834718306639872,0.039064470,0.582097770,8.969170570,-0.042572620,0.047241150,0.244109350
1640834718308009984,-0.209175680,0.216066140,10.201313970,-0.140000880,0.004130600,0.249733060
1640834718311769856,-0.254413130,-0.010297460,9.903567310,-0.068859760,0.074248020,0.257779660
1640834718313210112,0.143400790,-0.187020870,9.406104090,0.076012310,0.008520480,0.212222340
1640834718316789760,-0.290104450,-0.057401920,10.237088200,0.085793440,0.046801570,0.223846780
1640834718318609920,0.037889360,0.261725190,9.174760820,-0.034318860,0.039447840,0.232680140
1640834718321590016,0.011308230,-0.010933130,9.834108350,-0.097006560,0.013290350,0.238774730
1640834718323049984,-0.194870260,-0.244200560,9.957084660,-0.020076340,0.101013480,0.243710000
1640834718327159808,-0.151408150,-0.251531390,9.954143520,0.128115730,0.006724890,0.207130640
1640834718328519936,-0.555075940,0.070477110,10.142277720,0.131912530,-0.020636620,0.205831230
1640834718331689728,-0.177893220,0.574614230,8.961638450,-0.044465070,0.002540650,0.219821930
1640834718333380096,-0.151470480,0.494636120,9.879508970,-0.124919430,0.083750490,0.218680530
1640834718336659968,-0.337921440,0.176000920,10.380249020,-0.008776780,0.105212640,0.193126480
1640834718338039808,-0.261840460,0.333915380,10.353890420,0.161422800,-0.082869830,0.169411320
1640834718341639936,-0.370344790,0.615758000,9.762050630,0.124408300,-0.054882470,0.196951670
1640834718343139840,0.039141190,0.542526720,8.916060450,-0.097498320,0.038123130,0.212135930
1640834718346669824,-0.125962660,0.244657870,10.449423790,-0.137530250,0.111773600,0.221112340
1640834718348029952,0.018550540,-0.104508280,10.211987500,0.016574560,0.076413160,0.192213060
1640834718351609856,0.084623220,0.032808090,10.072544100,0.159423070,-0.096838200,0.178278980
1640834718353029888,-0.202386410,0.492834150,9.562897680,0.062440340,0.001168250,0.193230790
1640834718356580096,-0.085484990,0.271067170,8.883662220,-0.141713040,0.021195410,0.183419880
1640834718358029824,-0.460930230,0.090527570,10.488035200,-0.113353160,0.025817760,0.189691800
1640834718361999872,-0.215463210,-0.049671270,9.766541480,0.066781050,0.084815930,0.155442950
1640834718363279872,-0.149896400,0.114077620,10.015138630,0.136758400,-0.046756860,0.151698310
1640834718369019904,-0.353231970,0.648600580,10.119365690,0.025536120,0.033402440,0.173890590
1640834718369720064,0.141373010,0.258989130,8.790604590,-0.130538610,0.012500590,0.160619620
1640834718371609856,-0.142892000,-0.029372970,10.286849020,-0.066342960,-0.012920800,0.171285870
1640834718373009920,-0.050108950,-0.112052820,9.570377350,0.105705880,0.095282510,0.113914930
1640834718376839936,0.011313430,-0.142810730,9.719345090,0.132168830,-0.060941290,0.104896750
1640834718377969920,-0.394967850,0.355603640,10.420141220,0.017875430,0.003284220,0.152546180
1640834718382190080,0.113078330,0.081903820,8.900412560,-0.105841480,0.040853030,0.140722100
1640834718383469824,-0.384185910,-0.232247640,10.637513160,-0.043307240,-0.018757580,0.158374000
1640834718386620160,-0.530309980,0.045591840,10.079275130,0.139731180,0.070099530,0.114013250
1640834718388049920,-0.351403180,0.196212950,9.402237890,0.145721410,-0.113585600,0.090631840
1640834718391830016,-0.561947940,0.798720300,10.088649750,-0.006903710,-0.040398540,0.136818010
1640834718394059776,0.104953080,0.742872540,8.970826150,-0.130735350,0.116720800,0.106911370
1640834718396629760,-0.117040040,0.362169800,10.899051670,-0.053039200,0.008542840,0.111606720
1640834718398340096,-0.220168670,0.659448620,10.724351880,0.127849000,-0.000853840,0.108672690
1640834718401719808,0.213044320,0.525929270,9.130058290,0.106081390,-0.111188020,0.100518780
1640834718403069952,-0.148058640,0.574499670,9.853285790,-0.071103870,-0.032016640,0.143229960
1640834718406599936,-0.020639820,0.385251700,9.331691740,-0.154703840,0.103230770,0.124765920
1640834718408480000,0.001899740,-0.251661930,10.189305310,-0.069212920,-0.016251210,0.092494500
1640834718411579904,-0.184106680,0.056649280,10.488161090,0.101351740,-0.000187750,0.094816100
1640834718413329920,-0.038810220,0.179202720,9.472039220,0.076524900,-0.012640650,0.073643030
1640834718416669952,-0.362995770,0.147773520,10.066411020,-0.090925400,-0.059354320,0.092971330
1640834718418139904,-0.379007760,0.239327970,9.664816860,-0.121270120,0.011494760,0.095462800
1640834718421559808,-0.042983380,-0.085862820,9.330349920,-0.039276490,0.032140320,0.073537230
1640834718423599872,-0.246258990,0.137078020,10.346282960,0.076444450,0.033161040,0.078946360
1640834718426589952,-0.105420210,0.338234160,9.841135030,0.079756970,0.005424020,0.069369360
1640834718428009984,0.101931540,0.258644070,9.450788500,-0.054669390,-0.066985200,0.071263330
1640834718434739712,-0.150779590,0.166563320,9.973466870,-0.094603000,-0.005076830,0.101560360
1640834718436159744,-0.039245680,-0.261533410,9.526618000,-0.013519820,0.076459350,0.062206390
1640834718436699904,-0.278845790,-0.311775770,10.152673720,0.104829680,-0.054539740,0.036682190
1640834718438020096,-0.414581180,0.101325580,10.058060650,0.110857190,-0.040274860,0.045616920
1640834718441619968,0.019645730,0.184138950,8.875973700,-0.042504070,-0.007645790,0.045745080
1640834718443040000,-0.291932430,0.050808210,10.346271510,-0.085155670,0.021359320,0.071442130
1640834718447089920,-0.346000850,-0.037005190,10.388099670,0.031533840,0.065761800,0.049479310
1640834718448289792,-0.156040430,-0.005035870,9.738591190,0.153197320,-0.123833110,0.020626180
1640834718451609856,-0.426235650,0.516924380,10.020225520,0.110210500,-0.099803530,0.046543780
1640834718453039872,0.085388850,0.748852730,8.795084000,-0.087523450,0.084333130,0.041234490
1640834718456679936,-0.041600100,0.352394490,10.415930750,-0.117841380,0.013998150,0.045911970
1640834718458009856,-0.358956550,0.348700430,11.110668180,0.062462700,0.013718010,0.027516490
1640834718461629952,0.098892760,0.488717020,9.211344720,0.149518220,-0.121815500,0.013758240
1640834718463109888,-0.315362450,0.635723290,9.997838970,0.028288370,-0.103686760,0.053128610
1640834718466919936,-0.113783740,0.615541580,9.218368530,-0.146903080,0.109861790,0.058044490
1640834718468150016,0.079088780,-0.072389510,9.904832840,-0.096865010,-0.002713500,0.046114630
1640834718471680000,-0.379371880,-0.056138470,11.056642530,0.084978340,-0.012061000,0.040450700
1640834718473110016,0.226884450,0.199874610,8.977016450,0.114168230,-0.039999190,0.015527010
1640834718476539904,-0.229174140,0.112022210,10.114603040,-0.014755130,-0.094191740,0.029036400
1640834718478019840,-0.311462310,0.292402650,9.710752490,-0.129131970,0.066652900,0.030566750
1640834718481639936,0.186672970,-0.140753300,9.336252210,-0.062774120,-0.024841730,-0.004276630
1640834718483069952,-0.340409790,-0.025252590,10.781637190,0.094948720,0.004062060,-0.007380550
1640834718486879744,0.062337550,0.465984640,9.232383730,0.104339420,0.014194850,-0.007835030
1640834718488099840,-0.089999970,0.368804430,9.984995840,-0.026696920,-0.107641520,0.023947660
1640834718491559936,-0.262231110,0.347001970,9.742816930,-0.113862750,0.035603340,0.050696730
1640834718493009920,0.138227020,-0.180740450,9.249834060,-0.008459390,0.022563330,0.023996830
1640834718496809984,-0.544790980,-0.322745770,10.922633170,0.137165200,0.003065170,-0.009405610
1640834718498029824,-0.201527640,0.246582310,9.517520900,0.110434010,-0.041511660,-0.014045840
1640834718501709824,0.001163490,0.226785660,9.437158580,-0.036045920,-0.077757250,-0.006081170
1640834718503099904,-0.192198930,0.212129860,9.979336740,-0.105433180,0.092077280,-0.002579390
1640834718506609920,-0.038033000,0.128392260,10.151470180,0.014598670,0.016941130,-0.032450250
1640834718508039936,-0.478476290,0.201001360,10.743813510,0.150744620,-0.097824640,-0.034071510
1640834718511819776,-0.175039460,0.755092680,9.157403950,0.088432420,-0.091660020,-0.015205150
1640834718513289984,0.062036180,0.817016300,9.280999180,-0.099723040,0.003062190,0.008341670
1640834718516620032,-0.149680180,0.448849110,10.295243260,-0.141978260,0.120563810,0.007605550
1640834718519510016,0.029324870,0.272226360,10.631621360,0.021484490,-0.033144650,-0.016690790
1640834718521639936,-0.137995320,0.275323270,10.328113560,0.134861510,-0.096590840,-0.027902430
1640834718523069952,-0.007278280,0.432270620,9.034463880,0.015045700,-0.065515940,-0.012993810
1640834718526700032,-0.038310010,0.331515190,9.577207570,-0.136913370,0.009791550,-0.000159440
1640834718528039936,-0.058739860,0.019354680,9.805163380,-0.137697160,0.103759770,-0.022073090
1640834718534540032,0.060539670,-0.195929110,10.233886720,0.034646690,-0.020074850,-0.032790010
1640834718535640064,-0.243441890,-0.048491460,10.409989360,0.146493330,-0.013595820,-0.040565430
1640834718536749824,-0.220440400,0.111177880,9.270246510,0.031454860,-0.072556730,-0.040420890
1640834718538029824,-0.328403680,0.265994670,9.797316550,-0.118412080,-0.064910960,-0.006569920
1640834718541549824,-0.193821450,0.049298770,9.381575580,-0.116522620,0.111356390,-0.031308830
1640834718543040000,-0.077866790,-0.141639650,10.145293240,0.038734080,0.017288330,-0.061850260
1640834718546949888,-0.403109100,0.302651260,10.855346680,0.170068460,-0.015456970,-0.046572080
1640834718549039872,0.022493600,0.501688780,9.058256150,0.041836490,-0.096832220,-0.052787360
1640834718551729920,0.000627420,0.536556420,9.662840840,-0.145269950,-0.064362590,-0.002607700
1640834718553059840,-0.041091970,0.221171390,9.734560010,-0.128866730,0.167430950,-0.026503210
1640834718556569856,0.011787740,-0.290793960,10.485035900,0.082673130,-0.015009940,-0.062440340
1640834718558109952,-0.450521470,0.299335000,11.028598790,0.207619370,-0.083185740,-0.054416060
1640834718561920000,0.068058070,0.637822030,8.651006700,0.007788840,-0.070434810,-0.053545840
1640834718563119872,-0.086889390,0.428350870,9.616866110,-0.215381380,-0.012831390,-0.024223330
1640834718567119872,-0.418186990,0.324098680,10.259645460,-0.113733110,0.157377110,-0.050629670
1640834718568450048,-0.230612680,-0.031320850,10.200699810,0.122512890,-0.091032710,-0.081633030
1640834718571609856,-0.547880650,0.523316620,10.489608760,0.176374600,-0.134862970,-0.043417510
1640834718573069824,0.022074930,0.814130190,8.436871530,-0.061601410,0.010895730,-0.040631000
1640834718576549888,0.086321540,0.249669460,9.862583160,-0.241272200,0.041526560,-0.017629560
1640834718578359808,-0.068867910,0.160425720,10.741988180,-0.084976850,0.110603890,-0.041213630
1640834718581760000,0.388359190,-0.193923590,9.769310000,0.143140550,-0.076279040,-0.076857220
1640834718583129856,-0.069293470,0.066673140,10.200261120,0.140519460,-0.098325310,-0.043459240
1640834718586639872,-0.021555760,0.425156350,8.808484080,-0.070960820,0.038079920,-0.049079960
1640834718588019968,0.067111970,-0.156585370,9.487395290,-0.213806360,-0.007012490,-0.040505830
1640834718591589888,-0.347035560,-0.142405270,10.549655910,-0.047479570,0.092527270,-0.058972840
1640834718593060096,-0.026264750,-0.056018080,9.697434430,0.158557280,0.017735360,-0.108739730
1640834718596699904,-0.534137430,0.244518030,10.600445750,0.134806360,-0.109404350,-0.066989680
1640834718598059776,-0.437141870,0.781684160,9.194989200,-0.064055620,-0.016988820,-0.038868190
1640834718601909760,-0.114690900,0.223492650,9.205996510,-0.191488880,0.001935660,-0.036635990
1640834718603040000,-0.448557910,0.063095310,10.644131660,-0.024414060,0.089032950,-0.039266050
1640834718606579968,-0.064318190,0.168767390,9.901901250,0.186555130,0.018002090,-0.086468460
1640834718608029952,-0.073380460,0.410415170,10.294759750,0.122636560,-0.132066010,-0.072626780
1640834718611869696,0.138365660,0.816243170,9.258404730,-0.114507980,0.023674970,-0.026701390
1640834718613090048,0.383161690,0.137216370,9.449360850,-0.210501250,0.064362590,-0.051996110
1640834718616719872,-0.224227500,-0.146475610,11.199438100,-0.001563130,0.043253610,-0.065946580
1640834718618019840,-0.082526640,0.255179380,9.780784610,0.194385660,-0.061365970,-0.069971390
1640834718623040000,-0.106748810,0.469276910,9.523422240,0.048592700,-0.129237790,-0.054489080
1640834718623770112,-0.150291120,0.749051270,9.316655160,-0.191485880,0.110708180,-0.028763710
1640834718626609920,-0.074970510,0.277440190,9.859052660,-0.204776230,0.104554020,-0.047832730
1640834718628480000,-0.519630850,0.047488590,11.381268500,0.025971240,-0.034262240,-0.058285900
1640834718631800064,-0.204739510,0.416361540,9.435638430,0.165027390,-0.073263060,-0.060661140
1640834718633159936,-0.058372540,0.536310550,9.120144840,-0.016435980,-0.066667800,-0.045813620
1640834718636689920,-0.090554160,0.431037010,9.697803500,-0.214877720,0.124558810,0.000968580
1640834718638080000,0.433113430,-0.061658440,9.543451310,-0.166420640,0.097775470,-0.030620400
1640834718641539840,0.183141130,-0.323029670,10.914028170,0.063586240,-0.009602310,-0.059062250
1640834718643040000,0.151093240,-0.056253860,9.730147360,0.157110390,-0.012274090,-0.047093630
1640834718646689792,0.120379100,0.048126590,9.127743720,-0.015789270,-0.079503660,-0.054864600
1640834718648169984,-0.361507770,0.024870550,9.846913340,-0.167241710,0.064826010,-0.017766660
1640834718651609856,-0.110450740,-0.090268160,9.396187780,-0.113438080,0.105437640,-0.052829090
1640834718653059840,-0.544216570,-0.047783750,10.785208700,0.070710480,-0.000889600,-0.077335540
1640834718656569856,-0.620664720,0.406298940,10.001098630,0.144007820,-0.028955940,-0.051485010
1640834718658079744,-0.206806270,0.675911430,8.981595990,-0.007118290,-0.077417490,-0.035175680
1640834718662060032,-0.357470810,0.471522570,9.962649350,-0.152373340,0.079557300,-0.006154180
1640834718663599872,0.104758470,0.217087750,9.895827290,-0.092531760,0.134359300,-0.030258300
1640834718667539712,-0.065902160,0.098650650,10.860393520,0.083926320,-0.043819840,-0.052665180
1640834718668519936,0.014593090,0.345108270,9.882495880,0.122883920,-0.068624300,-0.035640600
1640834718671559936,0.474812030,0.553437530,8.631031990,-0.063332920,-0.024503470,-0.023502110
1640834718673080064,-0.030304870,0.199785620,9.780509000,-0.172932450,0.104935490,-0.009970370
1640834718676549888,-0.136524830,0.024293810,10.052503590,-0.064927350,0.078694520,-0.024983290
1640834718678350080,-0.652463080,0.136414210,10.230875020,0.093036900,-0.125624240,-0.039069360
1640834718681739776,-1.063713790,0.529714760,9.217797280,0.050549210,-0.134857000,-0.022441150
1640834718683069952,-0.999009610,0.802095350,8.383893970,-0.145176050,-0.060449550,-0.007678570
1640834718689459968,-1.310976510,0.563885870,9.645950320,-0.205786530,-0.000624360,-0.016498570
1640834718689900032,-0.766367140,0.510518610,9.619701390,-0.072516490,-0.001734500,-0.023628770
1640834718691539968,-0.412569700,0.481756960,9.967080120,0.047168150,-0.116930920,-0.027480730
1640834718693069824,-0.149701670,0.391575280,9.540104870,0.006097560,-0.112891200,-0.015220050
1640834718696770048,0.589293480,0.314357160,8.380047800,-0.141766680,-0.112779440,-0.002722440
1640834718698089728,0.494309100,-0.245307130,9.200685500,-0.166527930,-0.033390530,-0.004473330
1640834718701639936,0.626742480,-0.324606330,9.128810880,-0.058686730,0.008778270,-0.033469490
1640834718703079936,0.090543640,-0.251706840,9.921034810,0.036144260,-0.164009630,-0.058904290
1640834718706629888,-0.527038280,-0.043839760,9.406509400,-0.005583470,-0.183184490,-0.049845890
1640834718708039936,-0.533328470,0.369015040,8.523037910,-0.133575480,-0.160390140,-0.058142840
1640834718711769856,-1.080359100,0.356122290,9.578819270,-0.173474850,-0.046868630,-0.043310230
1640834718713129984,-0.759485720,0.456990660,9.498110770,-0.065310310,-0.015509130,-0.048646330
1640834718716659968,-0.618932780,0.604652170,10.120461460,0.041309000,-0.155112150,-0.059653830
1640834718718070016,-0.184367280,0.812021730,9.134004590,-0.015477840,-0.149789450,-0.013361870
1640834718721619968,0.521863700,0.656254050,8.449762340,-0.149826680,-0.102469330,0.003790860
1640834718723119872,0.379252310,0.071051530,9.606801990,-0.164514780,-0.006714460,-0.002282860
1640834718727099904,0.573263290,-0.011790880,9.530345920,-0.053133070,-0.083686410,-0.021703540
1640834718728719872,0.283006850,0.016091010,9.774429320,0.009082260,-0.183652360,-0.037270780
1640834718731699968,0.246377420,0.271451380,8.689686780,-0.085735330,-0.108140710,-0.033794340
1640834718734959872,0.036068230,0.456324820,8.927026750,-0.206720800,-0.069007280,-0.042271610
1640834718736599808,-0.607308030,0.229427800,9.815076830,-0.172759610,-0.035040080,-0.047840180
1640834718738099712,-0.538075270,0.381701440,9.243103980,-0.044035910,-0.148578000,-0.050346550
1640834718741560064,-0.811833320,0.514945030,9.373111720,-0.016467280,-0.169610990,-0.031684340
1640834718743470080,-0.361253110,0.541107950,8.482327460,-0.129391250,-0.052005060,-0.005404650
1640834718746709760,-0.158880770,0.289966110,9.333396910,-0.199656190,-0.041517620,-0.002448260
1640834718748069888,0.160609380,-0.087236270,9.658845900,-0.123471020,0.001470740,-0.020626190
1640834718751610112,0.633540450,-0.096947910,9.341478350,-0.030238930,-0.096172090,-0.016276540
1640834718754589952,0.232886270,-0.236521750,9.546462060,-0.016036630,-0.110475720,-0.025098020
1640834718756609792,0.389286850,-0.155919270,8.475710870,-0.109890100,-0.119610120,-0.035308290
1640834718758179840,0.027921540,-0.045218330,8.910160060,-0.154896100,-0.107204910,-0.044508280
1640834718762019840,-0.121290030,-0.032715260,8.980566980,-0.129121560,0.020165740,-0.065866110
1640834718763369984,-0.416914190,0.270093230,9.896716120,-0.047893830,-0.067994000,-0.068894020
1640834718767769856,-0.927355350,0.458275850,10.013900760,-0.001859660,-0.145132820,-0.051957370
1640834718768260096,-0.504190030,0.666642190,8.589385030,-0.083774330,-0.184895110,-0.029151150
1640834718771579904,-0.677161460,0.716793000,9.080072400,-0.151406240,-0.052455060,-0.008700790
1640834718773079808,-0.227123900,0.242127970,9.195324900,-0.147110240,0.025069710,-0.013554100
1640834718776699904,-0.097353640,0.016417870,10.222620010,-0.008955600,-0.102376950,-0.027538840
1640834718778039808,0.215041130,0.171025050,9.243485450,0.023774800,-0.139947240,-0.023113190
1640834718781609984,0.731015030,0.252969920,8.636006360,-0.116890680,-0.139863800,-0.015445050
1640834718783139840,0.260730330,0.168425870,9.388508800,-0.211903470,0.012023750,-0.032964350
1640834718786589952,0.188384980,-0.052729440,9.428564070,-0.143380480,-0.064617400,-0.056996940
1640834718788059904,-0.381015840,0.080479180,10.077499390,0.018295640,-0.165949750,-0.038358560
1640834718791620096,-0.385746000,0.510770860,8.575759890,-0.008732080,-0.130687670,-0.039733950
1640834718793049856,-0.421265240,0.706798140,8.989737510,-0.179758670,-0.098769370,-0.023533400
1640834718796689920,-0.612500070,0.606403830,9.439480780,-0.237225040,0.044548510,-0.012098250
1640834718798119936,-0.190096590,0.151450960,9.567508700,-0.103159260,-0.101995490,-0.034567710
1640834718801600000,-0.357100370,0.113537800,10.071887970,0.054045030,-0.133126990,-0.018763540
1640834718803069952,0.262030870,0.222358440,8.195493700,-0.031575550,-0.110004850,-0.028353930
1640834718806659840,0.293539940,0.074384810,9.241571430,-0.198529680,-0.079758470,-0.010120870
1640834718808290048,0.425672110,-0.171428160,9.040781020,-0.220265950,0.084653490,-0.013251600
1640834718811929856,0.449658450,-0.507813570,9.786210060,-0.055600700,-0.102810550,-0.038447970
1640834718813289984,-0.272613560,-0.208193060,10.197607040,0.091719630,-0.118888930,-0.028738390
1640834718816759808,0.014061080,0.220460730,8.005330090,-0.027409200,-0.170595940,-0.040487950
1640834718818789888,-0.567073400,0.339434530,9.453935620,-0.186868010,-0.081680720,0.006863470
1640834718821559808,-0.443908900,0.282010140,9.051159860,-0.192439560,0.113721190,-0.032226750
1640834718823379968,-0.592791260,0.163413850,10.437268260,-0.016507510,-0.136230920,-0.061902420
1640834718826599936,-0.784406070,0.664801060,9.997042660,0.099980850,-0.131532560,-0.039750350
1640834718828089856,0.231720690,0.782823920,7.799613480,-0.075356650,-0.160966800,-0.037424260
1640834718831719936,-0.160811130,0.710523010,9.810643200,-0.231167690,0.003379580,0.017628070
1640834718833189888,0.321378860,0.212114260,9.254475590,-0.184306500,0.081254550,-0.024192040
1640834718836609792,0.213053420,-0.222551360,10.519285200,0.019811100,-0.209108020,-0.030232970
1640834718838059776,0.132814080,0.290824320,9.216224670,0.068789730,-0.106112660,-0.005593900
1640834718841619968,0.585437300,0.076317710,8.050039290,-0.127665700,-0.095628190,-0.024662910
1640834718843059968,-0.211664080,0.151589070,10.075619700,-0.248591600,0.029182440,-0.000284610
1640834718847069952,0.147397940,0.047840350,9.035536770,-0.167053910,0.020562110,-0.038376450
1640834718848259840,-0.393329230,-0.244448380,10.520441060,0.040480510,-0.168705020,-0.037746140
1640834718851630080,-0.590634880,0.521617410,9.017560960,0.052654740,-0.069326160,-0.033366680
1640834718853319936,-0.233102260,0.493548480,8.361729620,-0.145275910,-0.147366520,-0.028437380
1640834718856619776,-0.457495960,0.437608840,9.446746830,-0.246916680,0.065103180,0.010053810
1640834718858059776,0.284038340,0.106414630,8.968209270,-0.135256390,0.065846760,-0.035016250
1640834718861569792,-0.154491050,-0.235048640,11.087354660,0.080877540,-0.103448330,-0.026537480
1640834718863309824,0.144146680,0.306776460,8.831097600,0.063736740,-0.108510260,-0.024376810
1640834718866769920,0.280386890,0.016225410,8.519992830,-0.142557900,-0.173820530,-0.005245210
1640834718868120064,-0.124619340,-0.145540340,9.291478160,-0.237642260,0.101630410,0.009860100
1640834718871739904,0.149860810,-0.398563270,9.230987550,-0.077086700,0.025451180,-0.042070450
1640834718873119744,-0.627324520,-0.267402530,11.040490150,0.126549620,-0.124225020,-0.036811830
1640834718876590080,-0.135731190,0.720441520,8.435758590,0.031857200,-0.107371820,-0.029213730
1640834718878069760,-0.234887050,0.598769190,9.115633010,-0.183162110,-0.104424360,0.000946220
1640834718881709824,-0.478120060,0.527478340,9.784758570,-0.218343760,0.131954250,0.001326200
1640834718883089920,-0.125783550,0.386590780,9.576266290,-0.023819500,-0.076834860,-0.040602680
1640834718886899968,-0.472182540,0.467274810,10.362220760,0.110009330,-0.154677050,-0.012090800
1640834718888219904,0.447750270,0.933840870,7.782451150,-0.048008560,-0.022259360,-0.011804700
1640834718891579904,0.191631300,0.327311580,9.538631440,-0.224830180,-0.013029570,0.009167190
1640834718893080064,0.068341350,-0.064030590,10.045911790,-0.175446320,0.100617130,0.010213260
1640834718897069824,0.367473130,-0.417419610,9.383583070,0.023476780,-0.122208890,-0.027252730
1640834718898069760,-0.292631890,-0.374070440,10.028379440,0.091515490,-0.108611600,-0.004330280
1640834718901809920,0.243196590,0.108888130,7.995745660,-0.069940100,0.011780860,-0.019121170
1640834718903079936,-0.208504050,-0.132688490,9.609973910,-0.202637960,-0.001992290,0.003907090
1640834718906609920,-0.121779820,0.048939540,9.732989310,-0.124448540,0.095327210,-0.005277990
1640834718908019968,0.049183420,-0.045153410,9.522694590,0.065502520,-0.060029330,-0.043822830
1640834718911619840,-0.521039250,0.223447010,9.955595020,0.112515690,-0.075694920,-0.021174550
1640834718913410048,-0.021401640,0.638849020,8.274648670,-0.050057470,-0.035703180,-0.020553170
1640834718916620032,-0.081345690,0.141891870,9.105138780,-0.178156790,0.023131070,-0.003445150
1640834718918069760,0.075840350,0.021798090,9.670718190,-0.084680330,0.145931540,-0.018180910
1640834718921939968,0.086006630,-0.217055500,10.083063130,0.119753190,-0.010469560,-0.046283010
1640834718923109888,-0.220790000,-0.087856170,9.911636350,0.128513570,-0.127908600,-0.022281710
1640834718926599936,0.058082720,0.253515540,8.330401420,-0.033895680,-0.050340590,-0.011520090
1640834718928029952,-0.178682180,-0.194774790,9.079362870,-0.163450840,0.072282560,-0.004553790
1640834718931719936,-0.363593070,-0.184602380,10.200724600,-0.030219560,0.092960900,-0.012132530
1640834718933240064,-0.300574360,0.021460670,9.997391700,0.163969400,-0.059232120,-0.047895310
1640834718938180096,-0.189595030,0.607254090,9.418038370,0.104351350,-0.104096530,-0.023511050
1640834718938619904,0.033447260,1.061382890,8.734838490,-0.094570220,0.035421550,0.002895300
1640834718941570048,0.010270230,0.538758160,9.512039180,-0.176811230,0.084640090,-0.005561110
1640834718943109888,-0.204401600,0.354524610,10.302085880,0.016734010,0.004227460,-0.011006000
1640834718946980096,0.005541790,0.424500500,9.306419370,0.172241050,-0.082011540,-0.024648010
1640834718948119808,0.085669050,0.550693750,8.995349880,0.020985310,-0.026577710,0.002627070
1640834718951750144,0.025243410,0.464428480,9.061054230,-0.162223000,0.100024050,0.026990480
1640834718953409792,0.071378550,-0.215745970,9.801160810,-0.152345000,0.057403750,-0.003543500
1640834718956620032,-0.214424550,-0.323717890,10.220720290,0.070421400,0.002469120,-0.008203090
1640834718958099968,-0.105171090,-0.082235110,8.952502250,0.151857750,-0.056841960,-0.022041800
1640834718961580032,-0.178059220,0.197543440,9.167075160,-0.016556680,-0.023324790,-0.000756980
1640834718963269888,-0.020993990,0.422972440,8.821086880,-0.169236960,0.132598000,0.018957260
1640834718970639872,0.205464210,-0.020485180,9.679799080,-0.109669570,0.068685410,-0.004802640
1640834718971229952,-0.165810350,0.088309500,10.489552500,0.119374710,0.065730510,-0.004754960
1640834718971719936,0.111006690,0.311653260,8.902414320,0.165428190,-0.067958220,-0.022454560
1640834718973079808,-0.182131260,0.323903170,9.343313220,-0.010152160,-0.044702000,0.009314720
1640834718976599808,0.007591630,0.345159320,8.403514860,-0.154575720,0.160317120,0.011873250
1640834718978060032,0.046991780,-0.277160530,9.805274960,-0.074194380,0.080454350,-0.015467410
1640834718981669888,-0.470943090,-0.265650300,10.660099980,0.155112150,0.097610060,-0.011473900
1640834718983179776,-0.012636890,0.067849980,8.786485670,0.177608450,-0.106059010,-0.035460300
1640834718986619904,-0.405556050,0.188814680,9.512700080,-0.015605990,-0.052285200,0.030006470
1640834718988119808,0.008289160,0.178214010,8.316512110,-0.149814780,0.208263110,0.015252830
1640834718991579904,-0.124163750,-0.320348020,10.431017880,-0.014573330,0.051449240,-0.013948980
1640834718993059840,-0.401084360,0.151648880,10.599522590,0.216668860,0.063094500,-0.004769860
1640834718997120000,0.375161080,0.668714820,8.487908360,0.151459890,-0.099898870,-0.028815870
1640834718998129920,-0.167684870,0.911832870,9.763662340,-0.083686420,0.047664340,0.027005380
1640834719001720064,0.188278870,0.695754890,8.698366170,-0.169257820,0.202405450,0.014977160
1640834719003170048,-0.141069040,0.091217240,10.648579600,0.026151540,-0.021404030,-0.001467760
1640834719006660096,-0.395056870,0.466406700,9.924901010,0.212089730,0.038900970,0.007106360
1640834719008029952,0.234994950,0.616532740,8.368391990,0.059080120,-0.044819710,-0.006619100
1640834719011529984,-0.417899580,0.501734260,9.967210770,-0.160732870,0.116020440,0.057283060
1640834719013309952,0.139517680,0.077924220,8.907354350,-0.158555820,0.167143340,0.018897650
1640834719016729856,-0.139055310,-0.424892630,10.556480410,0.079697380,-0.019492210,-0.000484290
1640834719018139904,-0.262360070,0.183659340,9.442219730,0.181929780,0.066837650,0.012893980
1640834719021560064,0.195180800,0.320749340,8.542151450,0.004772840,-0.049242380,0.003547970
1640834719023089920,-0.178793100,0.344392540,9.661560060,-0.178229820,0.145313140,0.036813320
1640834719026599936,0.441080090,0.233946170,8.835477830,-0.126458720,0.181573630,-0.001582500
1640834719028049920,0.009423240,-0.122925010,10.846914290,0.098164380,0.027497110,-0.001077350
1640834719034950144,-0.058762410,0.408583130,9.317809100,0.171124940,0.068914890,0.003734230
1640834719035849728,0.060936790,0.482081800,8.756664280,-0.001035630,-0.068649650,0.011669100
1640834719037689856,-0.433307740,0.240307700,9.399919510,-0.170730050,0.135239940,0.061126050
1640834719038609920,0.068585260,-0.108932050,8.609809880,-0.097575810,0.168554480,0.013604760
1640834719041570048,-0.536382320,-0.523497820,10.972284320,0.146962700,0.068394840,0.005759300
1640834719043049728,-0.336940530,0.071116480,9.378026010,0.195021960,0.053411730,-0.005252660
1640834719047479808,-0.174929920,0.246933480,8.984441760,0.007075070,-0.080347060,-0.001378360
1640834719048399872,-0.303097870,0.140598040,9.354435920,-0.171968340,0.169073060,0.032992660
1640834719053179904,0.170798690,-0.123557580,9.097780230,-0.041666630,0.175599780,-0.006486480
1640834719053839872,-0.409005080,-0.103339430,11.105498310,0.206020490,0.009232760,-0.029838090
1640834719056589824,0.165047060,0.849348780,8.850602150,0.180686980,0.001078840,-0.004763900
1640834719058070016,0.206748260,0.902213340,8.834121700,-0.072462850,0.001636150,0.025521220
1640834719061600000,-0.219075720,0.483478960,10.015228270,-0.198939410,0.217054780,0.043965870
1640834719063609856,-0.071900140,0.111846020,9.812452320,0.025130810,0.086544440,0.007388000
1640834719067270144,-0.640492920,0.044420530,10.566873550,0.232060270,-0.086396930,0.011245910
1640834719068100096,-0.056079810,0.755834460,8.287575720,0.089870420,0.041863330,0.024922200
1640834719071549952,-0.038355870,0.450185690,8.983082770,-0.175152760,0.113323350,0.036513810
1640834719073099776,-0.295794730,-0.108064280,10.463028910,-0.173802690,0.196838380,0.028976800
1640834719076539904,0.078176650,-0.154624370,9.869745250,0.097866360,0.031290950,-0.006097560
1640834719078150144,-0.177548080,0.003090560,9.878229140,0.217357290,-0.065739440,-0.000669060
1640834719082269952,0.222550030,0.677582740,8.427297590,0.001351540,0.099913780,0.024144350
1640834719083139840,0.240345550,0.376912060,9.128294940,-0.198531150,0.160032530,0.025153160
1640834719086569984,0.080137900,-0.013786010,10.246913910,-0.107237720,0.163787630,0.029465560
1640834719088099840,0.162397730,0.031890190,9.851771350,0.164444740,0.047728420,0.003220140
1640834719091539968,-0.303527980,0.111290690,9.622228620,0.182463240,-0.027607380,0.000669060
1640834719093119744,-0.238400300,0.461200300,8.750840190,-0.033174460,0.051328540,0.033390520
1640834719096639744,-0.200349440,0.065865910,9.003449440,-0.158159430,0.158087920,0.032772130
1640834719098389760,-0.139184640,-0.229590210,10.117327690,-0.053919850,0.186565530,0.016815960
1640834719101719808,-0.185070110,-0.063144180,10.359458920,0.188563760,0.108782950,-0.002077220
1640834719103360000,-0.286669670,0.107265470,9.658440590,0.172571820,-0.052770960,0.000534950
1640834719106609920,-0.132171050,0.527348820,8.673860550,-0.020198520,0.006148220,0.034999850
1640834719108079872,-0.017883890,0.380565490,8.667402270,-0.156769160,0.187711430,0.031036140
1640834719111640064,-0.105241020,0.137599780,10.253604890,-0.046880550,0.187541570,0.000695880
1640834719113149952,-0.236640920,0.370244180,10.655232430,0.196680460,0.073544690,-0.013466180
1640834719116659968,-0.063605260,0.726164580,9.535006520,0.137928100,-0.061869630,-0.015237930
1640834719118299904,-0.112203720,0.965783000,9.003092770,-0.098627810,0.055012110,0.042095780
1640834719121569792,-0.152156470,0.488048730,9.169256210,-0.194004220,0.190724480,0.033411380
1640834719123069952,-0.311251820,0.032555030,10.467651370,-0.032523270,0.099913780,0.020143390
1640834719126759936,-0.261160250,0.183999700,9.959913250,0.184275210,0.043320660,0.020284950
1640834719128120064,0.048095660,0.345551220,9.105142590,0.072029240,-0.000962620,0.009936100
1640834719131670016,0.008341350,0.492552760,9.410099980,-0.170546780,0.146952320,0.055165600
1640834719135949824,0.072079370,0.039412730,9.624716760,-0.196443510,0.165086980,0.019946700
1640834719136600064,-0.157467040,-0.105112210,10.636916160,-0.004342200,0.021728880,-0.008049610
1640834719138109952,-0.049392090,0.398031470,9.217269900,0.147619810,0.044988090,-0.004170830
1640834719141559808,0.119214900,0.507133010,8.676956180,-0.012470780,0.040741270,-0.003696980
1640834719143190016,-0.112006290,0.557041470,9.632643700,-0.174239260,0.204151870,0.043803460
1640834719147130112,0.112808700,0.177218600,9.523100850,-0.135283170,0.147427630,0.026968120
1640834719148289792,-0.202279580,-0.095898930,10.656664850,0.030660630,0.004588070,0.009249150
1640834719151579904,-0.123315720,0.139366430,9.085705760,0.107119980,0.096467140,0.011579690
1640834719153129728,-0.023230820,-0.088879850,8.920001030,-0.016175210,0.056307020,-0.004772840
1640834719156610048,-0.424687090,-0.006329670,9.939120290,-0.108815730,0.180536490,0.032106040
1640834719158119936,0.177285760,0.008595170,8.913924220,-0.094750530,0.135451560,0.009612740
1640834719161619968,-0.259763360,-0.174727620,10.614796640,0.030551850,0.054061410,0.005041060
1640834719163309824,-0.226131920,0.134943070,9.390323640,0.109413270,0.135454510,-0.002579390
1640834719166939904,-0.188411530,0.187012850,9.333135600,0.034984950,-0.026614960,-0.005091730
1640834719170609920,-0.538130280,0.568076910,9.881272320,-0.074948370,0.125931220,0.036121900
1640834719171539968,0.230496700,0.544013620,8.669744490,-0.126378210,0.174260140,0.011354690
1640834719173159936,-0.428468560,0.232012810,11.152477260,-0.004757940,0.090314460,0.014194850
1640834719176600064,-0.255588140,0.533517060,9.683166500,0.111843670,0.094708800,-0.008638200
1640834719178099968,-0.077973200,0.480115230,9.147953990,0.034032770,-0.082333370,0.011725720
1640834719181649920,-0.510754880,0.594100480,9.665005680,-0.122967370,0.129553690,0.046904390
1640834719184320000,0.154908430,0.395083580,8.842628480,-0.173811610,0.169880700,0.020290910
1640834719186609920,-0.305311740,-0.027495910,11.142875670,-0.025334960,0.065776710,0.034140050
1640834719188069888,0.040386700,0.266588600,9.578025820,0.103671860,0.108116850,0.018914050
1640834719191840000,0.127956300,0.197602150,9.408643720,0.011330840,-0.029045350,0.010670720
1640834719193129984,-0.416161210,0.386492550,9.813339230,-0.142143680,0.114317240,0.044572360
1640834719197009920,0.092936480,0.161690320,8.631434440,-0.162230450,0.088334080,0.013828280
1640834719198829824,-0.353126880,-0.120200130,10.373917580,-0.019660590,0.051346410,0.008870660
1640834719201880064,-0.066818910,0.344602200,9.192132000,0.080814970,0.163088750,0.002992150
1640834719203209984,-0.042317810,0.303725390,9.884073260,-0.004464390,0.019539890,0.009851160
1640834719206619904,-0.406480430,0.395148160,10.148234370,-0.139294560,0.105425740,0.045761480
1640834719208439808,0.110695390,0.025273820,8.852826120,-0.122563550,0.055152180,0.035545230
1640834719211539968,-0.351356210,-0.505112530,10.229124070,0.031334160,0.050306330,0.018645820
1640834719213159936,-0.051880730,-0.037634940,8.921696660,0.109031820,0.155855720,-0.004553800
1640834719216699904,-0.013881820,0.006322260,9.705888750,0.007535520,-0.000247360,0.003838540
1640834719218129920,-0.188615920,0.091781320,9.955251690,-0.118587910,0.133098680,0.032141800
1640834719221560064,0.160261500,0.000854480,9.211187360,-0.082364680,0.072625260,0.006370250
1640834719223459840,-0.539477530,-0.236704380,10.820953370,0.075699370,0.025503340,-0.004325810
1640834719226609920,-0.320264610,0.401032810,9.023002620,0.128750470,0.064498180,-0.008307400
1640834719228119808,-0.196490810,0.583224770,9.323159220,-0.001087780,-0.015580660,0.001554190
1640834719235579904,-0.337868120,0.676189540,9.875270840,-0.145940500,0.205345470,0.037504730
1640834719236369920,0.004604710,0.485124380,9.730922700,-0.083200620,0.086054200,0.018469990
1640834719236719872,-0.560390650,0.183672130,11.109709740,0.091522940,-0.037953260,0.002540650
1640834719238129920,-0.155513000,0.588996050,8.834503170,0.092636050,0.006221240,0.013385710
1640834719241570048,0.000308470,0.475657550,9.119743350,-0.064550340,0.001795590,0.018118320
1640834719243129856,-0.149040450,0.219378670,10.120177270,-0.178413080,0.219990310,0.031781200
1640834719247119872,0.351990940,0.006536140,9.848156930,-0.068333750,0.083455450,0.001072880
1640834719248279808,-0.131868780,-0.138013850,10.840505600,0.098064540,-0.039002300,0.004224480
1640834719251549952,0.056018800,0.336868550,8.832983970,0.058117500,0.038187200,0.006182490
1640834719253159936,-0.092007680,0.309520480,9.206136700,-0.094771390,0.000835960,0.022262340
1640834719256649984,-0.475126920,0.172344010,9.995707510,-0.156427900,0.135816600,0.032018120
1640834719258070016,0.100094470,0.190832810,9.320804600,-0.039201980,0.078918050,0.007332860
1640834719261560064,-0.355719240,0.084386620,10.553111080,0.083017360,0.046332180,0.008498130
1640834719263599872,-0.254779760,0.421928520,9.560108180,0.036595760,0.061045600,0.010372700
1640834719266710016,-0.127717320,0.329237220,9.365434650,-0.076867640,-0.045712300,0.014629960
1640834719269340160,-0.185992430,0.020597760,9.435914990,-0.125296410,0.090877720,0.033764540
1640834719271649792,0.256952880,-0.155283450,9.204809190,-0.014141200,0.145739320,-0.003238020
1640834719273120000,-0.209734680,-0.308283030,10.629591940,0.103102630,0.087054070,-0.011332330
1640834719276559872,-0.185722110,0.062944350,9.895123480,0.067721310,-0.014196340,0.003148620
1640834719278099968,-0.004579760,0.185809580,9.065870290,-0.056637830,-0.056354710,0.017337500
1640834719281639936,-0.265213370,-0.087870550,9.377269740,-0.113761410,0.135017900,0.038032230
1640834719283160064,-0.312112630,-0.102108670,10.094682690,0.030703850,0.119146720,0.007735190
1640834719286919936,-0.618316530,0.001935590,10.556802750,0.169345740,-0.002866980,-0.011949240
1640834719288399872,-0.365768730,0.632126750,9.374187470,0.067594650,-0.069631640,-0.009784100
1640834719291579904,-0.114743490,0.842900400,9.065490720,-0.105333350,0.041632360,0.015626850
1640834719293159936,-0.087241660,0.336329910,9.779726030,-0.144679840,0.154259820,0.007291140
1640834719297999872,-0.167870280,0.248972150,10.746760370,0.067713860,0.054803490,-0.008966030
1640834719298990080,-0.184520770,0.317673240,10.229300500,0.184205160,-0.068961070,0.005094710
1640834719301920000,0.041881300,0.463652190,9.056690220,0.018291180,-0.061942640,0.031980870
1640834719305219840,0.093837110,0.364924820,9.220942500,-0.144462300,0.113169850,0.051648920
1640834719308209920,0.023593040,-0.241879980,9.979916570,-0.120066110,0.138407950,0.013719500
1640834719308729856,-0.185335130,-0.199883150,10.567019460,0.099034610,-0.004760920,-0.009757280
1640834719311620096,-0.271054510,0.078954540,9.709944730,0.170634690,-0.062306230,-0.004896520
1640834719314269952,-0.307477920,0.310074510,9.008847240,-0.023153420,-0.028686230,0.018236040
1640834719316619776,-0.386197300,0.393191870,9.500614170,-0.145424870,0.075647240,0.031866140
1640834719318369792,-0.127182080,0.000953610,9.753751750,-0.070706010,0.096946960,0.004726650
1640834719321959936,-0.099782480,0.092088800,10.344160080,0.128787770,0.044687100,0.004120170
1640834719323879936,-0.116608520,0.286309930,9.948456760,0.167098640,-0.003331900,0.012005870
1640834719326629888,-0.087199430,0.153412850,9.410786630,-0.006353860,-0.069294870,0.013138350
1640834719328110080,-0.130726750,0.217483100,9.215797420,-0.102299450,0.017783050,0.037339330
1640834719331660032,0.113605690,-0.210115360,9.361476900,-0.057940190,0.109541430,0.000174340
1640834719333139968,-0.222018760,-0.180117830,10.614640240,0.106637160,0.084413580,-0.016395740
1640834719336959744,-0.316329690,0.169135030,10.194575310,0.177890080,-0.040924550,-0.018748640
1640834719338379776,-0.285186530,0.329779180,9.451196670,0.019572680,-0.112114850,0.001478200
1640834719341569792,-0.355428730,0.546406870,9.046029090,-0.110360980,0.042475750,0.030943750
1640834719343119872,-0.259494840,0.161932230,9.634715080,-0.066429380,0.106188640,0.001576540
1640834719346989824,-0.591706930,0.255587880,10.959227560,0.122566530,0.025956330,-0.015558300
1640834719350790144,-0.237010580,0.697123290,9.779826160,0.157834590,-0.088697680,-0.005558130
1640834719351670016,-0.034598140,0.654426340,9.400880810,-0.028330090,-0.080205500,0.015090410
1640834719353379840,-0.007527130,0.618521750,9.442608830,-0.147292050,0.118118550,0.034447010
1640834719356559872,0.089378350,0.155790250,10.088243480,-0.078138710,0.058606270,0.002731380
1640834719358139904,-0.277775260,0.010370100,10.891737940,0.113078970,-0.058890890,0.002005700
1640834719361579776,0.130855960,0.246443030,8.913320540,0.127227620,-0.069361930,0.006601220
1640834719363459840,0.037041720,0.165124800,9.247049330,-0.068427620,-0.010932980,0.016769770
1640834719370269952,-0.163898510,0.168846200,9.874459270,-0.155796130,0.140441950,0.028654930
1640834719371219968,0.038968860,-0.153176560,9.980117800,-0.050872580,0.016444920,-0.011378530
1640834719372189952,-0.584916950,-0.058504980,10.817517280,0.129443410,-0.082723780,0.004816050
1640834719373179904,-0.253604260,0.382057640,8.662692070,0.098344680,-0.049623850,-0.006484990
1640834719376629760,-0.316572010,0.325342890,9.101075170,-0.078634940,-0.031541290,-0.002656880
1640834719378159872,-0.337545310,0.397319530,9.769757270,-0.129999240,0.136446950,0.020398200
1640834719381700096,0.200699300,0.070880090,9.738695140,-0.019234420,0.051605690,-0.015047190
1640834719383810048,-0.404254530,-0.087115590,11.104125020,0.137662890,-0.064833470,-0.010120870
1640834719386620160,0.002645830,0.270180260,9.059045790,0.107304750,-0.056697430,-0.013597310
1640834719388140032,-0.120389050,0.094861550,9.209839820,-0.069411090,-0.077886860,0.004988910
1640834719391569920,-0.266015260,0.109216620,9.761643410,-0.124506660,0.105002530,0.020557640
1640834719393119744,0.253226700,-0.092766960,9.585933690,-0.014972690,0.078225140,-0.023333730
1640834719401239808,-0.420614840,-0.083160840,11.194904330,0.158432140,-0.043597810,-0.022573770
1640834719401939968,-0.193127600,0.502185520,9.428871150,0.119678660,-0.078777960,-0.018987060
1640834719402269952,-0.293268080,0.585856680,9.136694910,-0.084145350,-0.125770270,-0.000801680
1640834719405689856,-0.437975620,0.662364840,9.564470290,-0.170889500,0.090627360,0.015921890
1640834719406589952,-0.075533620,0.366095010,9.880170820,-0.028516350,0.090748070,-0.008937720
1640834719408089856,-0.530740500,0.339313300,11.270469670,0.149086100,-0.072972460,-0.024341040
1640834719411549696,-0.090669970,0.899854840,9.315145490,0.084653500,-0.104856500,-0.004191700
1640834719413459968,0.049458670,0.601771650,9.170241360,-0.161220150,-0.071041290,0.017964840
1640834719416709888,-0.177507480,0.223484560,9.930511470,-0.203570720,0.093297670,0.018846990
1640834719419669760,0.042999950,-0.060870960,10.011068340,-0.009895860,-0.015492740,-0.005546210
1640834719421569792,-0.161406060,-0.064156560,10.395692830,0.120344770,-0.110998770,-0.020813940
1640834719423169792,0.232231710,0.421462480,8.889746670,0.010028480,-0.003410880,0.007346270
1640834719426589952,0.001354730,0.190118830,9.880826950,-0.171883420,0.010016560,0.022286170
1640834719428089856,-0.410412250,-0.069969420,10.478975300,-0.147078950,0.025331970,0.014661250
1640834719431699968,-0.088765300,-0.048011030,9.415806770,0.027522450,-0.121371460,-0.016066430
1640834719433959936,-0.263410960,0.073092680,9.578720090,0.099639590,-0.052423780,-0.021606680
1640834719438919936,-0.076261430,0.432666870,8.998497010,-0.025029480,0.100973260,-0.002463160
1640834719439419904,-0.130655720,0.267598300,10.339304920,-0.136998280,-0.024271010,0.011941790
1640834719441540096,-0.196587760,-0.021928620,10.296833990,-0.079520050,-0.010232630,0.017207860
1640834719443130112,0.248367060,-0.054608260,9.135300640,0.049014390,-0.068372470,-0.004333260
1640834719447109888,-0.254555200,-0.215828050,10.083033560,0.088649970,0.006383660,-0.007961690
1640834719448369920,-0.088879120,-0.023991620,9.272120480,0.013144310,0.043843680,-0.006587800
1640834719451619840,-0.036364190,0.077842790,9.808090210,-0.070750710,-0.078831610,-0.005933640
1640834719453329920,-0.107833700,-0.043835330,9.805207250,-0.070932510,0.045309960,0.008215010
1640834719456610048,0.057410280,-0.099722440,9.635527610,0.046227870,0.011150540,-0.021699070
1640834719458119936,-0.701851610,0.033145250,10.950822830,0.137880410,-0.058829790,-0.028659400
1640834719461609728,-0.298453930,0.501000340,9.161421780,0.043609740,-0.085061790,-0.005319720
1640834719463259904,-0.082003270,0.632014750,9.283837320,-0.098015380,-0.041891630,0.003819170
1640834719469789952,-0.282086760,0.422010810,10.048667910,-0.092075770,0.148633120,0.006391110
1640834719471449856,-0.054862850,0.326564850,10.343249320,0.052770980,-0.024934120,-0.019244850
1640834719471909888,-0.430677980,0.443372460,10.498697280,0.138555480,-0.148475190,-0.008608400
1640834719473169920,-0.039280500,0.582749660,8.642917630,-0.002782050,-0.071239470,0.014625490
1640834719476559872,-0.047928650,0.407209010,9.468627930,-0.148072840,0.003916030,0.020165740
1640834719478189824,-0.262865570,0.047407400,10.293104170,-0.107789050,0.088648500,0.009077790
1640834719482050048,0.104099420,-0.037060480,10.115539550,0.055694590,-0.068734610,-0.022757060
1640834719483170048,-0.184208710,0.173380110,10.224772450,0.107939550,-0.078910590,-0.007052720
1640834719486579968,-0.027776230,0.254674520,9.014518740,-0.044895710,-0.042454900,0.003758070
1640834719488119808,-0.121676460,0.204562140,9.800439830,-0.136175770,-0.027504560,0.011749570
1640834719491549952,-0.183270540,0.097325800,9.782189370,-0.073793540,0.039452320,0.004291530
1640834719493120000,0.193251790,0.087625280,9.668980600,0.041797760,-0.032678250,-0.007081030
1640834719496679936,-0.140985920,0.230485020,10.196809770,0.092385710,0.023441020,-0.002697110
1640834719498429952,-0.105433770,0.194967970,9.480734830,-0.012587010,-0.052732230,0.005599860
1640834719502159872,-0.227408390,0.110768280,9.881552700,-0.079783800,-0.104707480,0.026172400
1640834719503929856,-0.150356230,-0.232532860,9.193609240,-0.056718290,0.058950490,0.002780560
1640834719506579968,-0.099213440,-0.452786950,9.887759210,0.065124040,0.015535950,-0.027215480
1640834719508119808,-0.460767690,-0.194468680,10.713326450,0.151744460,0.002411010,-0.022237000
1640834719512029952,-0.041951960,0.017505930,9.165997510,0.038573150,-0.096434350,-0.015875700
1640834719513129984,-0.108539600,0.155585870,9.787683490,-0.062070790,-0.058691200,0.017334520
1640834719516829952,-0.119678210,-0.015807980,9.594623570,-0.041529540,0.119939470,-0.000253320
1640834719518169856,-0.170866220,-0.096172740,10.309098240,0.120602550,-0.055620080,-0.022087990
1640834719521539840,-0.480486090,0.448768500,10.560241700,0.198166090,-0.077994180,-0.014182930
1640834719523129856,0.123602030,0.683055760,8.659278870,0.013729930,-0.061371930,-0.017181040
1640834719526710016,-0.100489030,0.622859240,10.026265140,-0.103555630,0.002142790,0.021961340
1640834719528440064,-0.238264260,0.277007850,10.275508880,-0.025971240,0.125049050,-0.018675630
1640834719534839808,-0.227937240,0.094031370,10.283365250,0.146938860,-0.135919450,-0.019945210
1640834719536529920,-0.491527230,0.439906780,10.106800080,0.169493270,-0.139881670,0.007802250
1640834719536919808,0.044706080,0.409917800,8.360224720,-0.045168400,0.017064810,-0.010028480
1640834719538139904,-0.137991700,0.154666900,10.191078190,-0.133796050,0.038860740,0.029593710
1640834719541529856,-0.176028130,-0.080864360,10.684515950,0.006857510,0.080969910,-0.007073580
1640834719543330048,0.152285050,-0.198278740,9.980976100,0.162430080,-0.136011820,-0.021488960
1640834719546649856,-0.221399080,0.238844340,9.964143750,0.150756540,-0.095212450,0.014795360
1640834719548359936,0.022391360,0.353364880,8.650392530,-0.060142580,0.005605820,-0.000092390
1640834719551659776,-0.040919410,0.163794850,9.784637450,-0.122863070,-0.014644860,0.025406480
1640834719553189888,-0.099006380,0.005422900,10.143000600,0.033830110,0.093673170,-0.002731380
1640834719556569856,0.070708450,-0.061259500,10.020745280,0.178815440,-0.048580770,-0.027173760
1640834719558140160,-0.389193710,0.323518100,10.492565160,0.155472760,-0.093929480,0.012952090
1640834719561529856,-0.072924330,0.283258800,8.813842770,-0.044696030,-0.035342570,0.005660950
1640834719563160064,-0.136141520,-0.238630040,9.700086590,-0.085683170,0.001177190,0.019748510
1640834719566749696,-0.332890990,-0.405422870,10.215375900,0.087901950,0.116281220,-0.002250080
1640834719568209920,-0.217421810,-0.309082390,10.032525060,0.240254430,-0.098821530,-0.036972760
1640834719571549952,-0.366322550,0.307439740,10.050084110,0.164070730,-0.119346400,0.001448390
1640834719573169920,0.067490410,0.472435710,8.654773710,-0.073513390,0.017645960,0.020487610
1640834719576740096,-0.183320880,-0.058153170,10.295258520,-0.061054540,0.035379830,0.015100840
1640834719578139904,-0.383056520,0.036549050,10.720549580,0.166712690,0.041826060,-0.010696050
1640834719581760000,-0.157931070,0.405105620,9.736888890,0.262132320,-0.183112930,-0.031282010
1640834719583229952,-0.221622320,0.902969960,9.599016190,0.085411970,-0.097964700,0.014589730
1640834719586649856,0.155591320,0.794983570,8.792222980,-0.143511590,0.113725670,0.009810930
1640834719588140032,-0.232426260,0.018161450,10.966901780,-0.039963420,0.014704460,-0.001929700
1640834719591759872,-0.346368070,0.139474620,10.902096750,0.214564830,-0.046786670,-0.014960770
1640834719593139968,0.019720890,0.384536680,9.148620610,0.203374070,-0.184483830,-0.020554660
1640834719596590080,-0.215858590,0.504795430,9.602132800,-0.029326970,-0.025714930,0.030097360
1640834719598699776,0.077100050,0.268724290,9.342143060,-0.166608420,0.142715890,0.021614140
1640834719601649920,-0.026937530,-0.266928550,10.616418840,0.009836260,-0.034326320,0.001932680
1640834719603309824,-0.202328890,0.055628080,10.486835480,0.232282330,-0.060428680,0.001768770
1640834719606690048,0.074545420,0.389136020,8.835818290,0.138646360,-0.094592580,-0.011789800
1640834719608329984,-0.280183970,0.458703760,9.771144870,-0.070111450,-0.037163500,0.034387410
1640834719611539968,0.008145590,0.197756040,9.547305110,-0.128096340,0.107683240,0.021669270
1640834719613159936,0.154889540,-0.159193370,10.131756780,0.060281170,0.010703500,-0.009481610
1640834719618299904,-0.181732710,0.053838270,10.629064560,0.221879800,-0.013566020,-0.008034710
1640834719618979840,0.019949140,0.311536490,9.267022130,0.115016130,-0.075550380,-0.013418500
1640834719621539840,-0.225946280,0.102732820,9.464259150,-0.055970260,-0.069576510,0.030347700
1640834719623440128,-0.110867870,-0.121039830,9.404494290,-0.078359240,0.083272140,0.021223720
1640834719626589952,-0.106842280,-0.350250100,10.077871320,0.091283030,0.068305430,-0.024141370
1640834719628140032,-0.515825750,-0.044751610,10.898138050,0.216564570,-0.031834840,-0.013817850
1640834719631719936,-0.197318820,0.473350700,9.561417580,0.120216620,-0.103442380,-0.012384360
1640834719633209856,-0.126676340,0.400088730,9.233048440,-0.057946150,-0.031138960,0.021713970
1640834719636659968,-0.133577750,0.249044060,9.769859310,-0.060898080,0.105647760,0.021876390
1640834719638219776,-0.213206840,0.168813320,10.529030800,0.113593040,0.039000810,-0.027745960
1640834719641809920,-0.266715760,0.354179440,10.462789540,0.205299260,-0.099913780,-0.013250110
1640834719643369984,0.064315370,0.802760600,9.227771760,0.061212490,-0.088086730,0.001174210
1640834719647109888,0.083242850,0.436411800,9.380240440,-0.104904180,0.066296760,0.014534590
1640834719648320000,-0.053437620,0.091356670,10.454257010,-0.059302150,0.097970650,0.006194410
1640834719651559936,-0.199315610,0.071406560,10.719918250,0.132539880,-0.035072870,-0.010739270
1640834719653189888,-0.310611040,0.119779570,9.905595780,0.168608140,-0.134707990,0.008890030
1640834719656590080,-0.097056600,0.442332030,8.905107500,-0.002162160,-0.040887300,0.026334830
1640834719658159872,-0.153349250,0.161137190,9.461292270,-0.116980080,0.097118330,0.024364890
1640834719661520128,-0.011337450,-0.137095230,10.452030180,-0.019121170,0.082409370,0.014530120
1640834719663409920,0.012235280,0.003928940,10.568157200,0.159986330,-0.009191040,-0.001890960
1640834719666710016,-0.053816620,0.164978650,9.988368030,0.148226320,-0.106823450,-0.006724890
1640834719668959744,0.042569330,0.426565380,9.169629100,-0.022585690,-0.031587490,0.019340220
1640834719671900160,-0.119868580,0.147667960,9.219703670,-0.095084310,0.067737680,0.005300340
1640834719673149952,-0.037581720,-0.125218690,10.099121090,0.008219480,0.073952970,-0.001683830
1640834719676539904,-0.116650660,-0.009960430,10.348149300,0.184342270,0.051091620,-0.003902610
1640834719678169856,-0.301550180,0.078670000,10.120346070,0.163391230,-0.092938550,-0.007241970
1640834719681639936,-0.192297280,0.346089840,9.570869450,-0.018447640,-0.057731580,0.028353930
1640834719683739904,-0.122826830,0.085772320,9.121849060,-0.101400920,0.083313880,0.022849440
1640834719687029760,-0.184830990,-0.317443850,10.400597570,0.035142900,0.077123960,-0.007085500
1640834719688439808,-0.279588460,0.046142270,10.640625950,0.224547100,0.042288010,-0.023652610
1640834719691559936,-0.090393860,0.473467440,9.602828030,0.156961400,-0.115740310,-0.013886390
1640834719693149952,-0.017141310,0.741270300,9.604832650,-0.068204100,-0.023607910,0.038747490
1640834719697029888,-0.021004010,0.408418890,9.479656220,-0.114375350,0.150370610,0.011575220
1640834719698179840,-0.329892810,0.032629380,10.865471840,0.069922210,-0.011278690,-0.017020100
1640834719701859840,-0.410477580,0.478554840,10.487408640,0.235904770,-0.053845350,-0.002929570
1640834719703249920,0.012590870,0.643068430,8.822841640,0.083209590,-0.060150040,-0.011858340
1640834719706619904,-0.185340460,0.584844650,10.044686320,-0.145915150,0.050462790,0.031006340
1640834719708099840,-0.203864600,0.149709810,10.122909550,-0.113679490,0.136700270,0.009533760
1640834719711549952,-0.152388100,-0.294896690,10.515037540,0.104023520,-0.090272750,-0.019200150
1640834719713349888,-0.312567500,0.265082360,10.200393680,0.206294660,-0.060576200,0.006376210
1640834719717020160,0.187035530,0.396188530,8.626126290,0.009340050,0.018060210,-0.007839500
1640834719718629888,0.119238600,0.316257920,10.010550500,-0.183673220,0.063389540,0.030486290
1640834719721609728,0.101986960,0.150074360,10.250080110,-0.081308170,0.139474840,0.003178420
1640834719723150080,0.166065340,-0.181293800,10.220966340,0.130781550,-0.061723600,-0.033013530
1640834719726539776,-0.315253560,0.291695240,10.226984980,0.188329820,-0.071282690,0.003787880
1640834719728119808,-0.148387370,0.426559810,8.581514360,-0.009581450,0.008440020,-0.010567910
1640834719731639808,-0.194763090,0.110502960,9.704165460,-0.173924850,0.038951630,0.015135110
1640834719733209856,-0.305708020,0.003097590,10.319622990,-0.051090130,0.175422440,-0.001351540
1640834719737269760,-0.133471250,-0.319452400,10.373946190,0.147198160,-0.012673440,-0.030380490
1640834719738289920,-0.509370980,0.052854230,10.539777760,0.198329990,-0.091330710,-0.001327690
1640834719741580032,-0.180436760,0.348340870,8.499081610,0.007629390,-0.031225390,-0.003957750
1640834719743160064,-0.106935520,-0.034731640,9.464735030,-0.152824820,0.038187210,0.015266240
1640834719747020032,-0.329250990,-0.040348790,10.447970390,-0.023856760,0.181674960,0.001029670
1640834719748189952,-0.033213340,-0.054629490,10.335189820,0.187413390,-0.046946110,-0.050993260
1640834719751819776,-0.261806040,0.526034770,10.598613740,0.190520290,-0.112719850,-0.017561020
1640834719753419776,0.019166980,0.941953600,8.677255630,-0.034478310,0.016644600,-0.009453300
1640834719756579840,-0.146776230,0.391017470,9.969968800,-0.173689450,0.018760570,0.002910200
1640834719758149888,-0.547921960,0.295992460,10.673096660,-0.002180040,0.104092080,-0.008505580
1640834719761539840,-0.216434120,0.262229500,9.726968770,0.182726980,-0.118085760,-0.040259960
1640834719763419904,-0.421734990,0.607934890,10.284187320,0.116474930,-0.096532700,0.000789760
1640834719768630016,-0.096497460,0.742421690,8.851633070,-0.117802610,0.097508710,0.001356010
1640834719769499904,-0.142613630,-0.046405040,10.419359210,-0.188463900,-0.015890600,0.002525750
1640834719771699968,-0.420278790,-0.040562030,10.987049100,0.041568270,0.032994150,0.001482670
1640834719773200128,0.121211980,0.015391680,9.218378070,0.164550530,-0.113081930,-0.041045240
1640834719776599808,-0.065601060,0.404359580,10.021245960,0.018626450,-0.076155360,-0.000759960
1640834719778210048,0.201877830,0.625828150,8.972983360,-0.173185770,0.146010530,-0.003840030
1640834719781519872,0.303604330,-0.122642610,10.101931570,-0.148783640,-0.002786520,-0.010904670
1640834719783379968,-0.254851850,-0.032115560,11.163621900,0.094349690,0.011566280,-0.008198620
1640834719786969856,0.137602760,0.160343770,9.016349790,0.159107130,-0.082722290,-0.043930110
1640834719788699904,-0.352945030,0.235255200,9.942452430,-0.017683210,-0.094716260,0.006835160
1640834719791539968,-0.359763980,0.329134670,9.303591730,-0.174440440,0.137044490,-0.004372000
1640834719793149952,0.004961540,-0.408798640,9.824607850,-0.094902520,0.023193660,-0.023302440
1640834719796880128,-0.582859870,-0.287364990,11.281521800,0.151939710,0.012163820,-0.015524030
1640834719798249984,0.030938540,0.152440650,9.036311150,0.167988260,-0.058473650,-0.047451260
1640834719801740032,-0.085771590,0.344729270,9.753273010,-0.046253200,-0.083890570,0.005073850
1640834719804489728,-0.173453270,0.386340440,9.755163190,-0.171117500,0.137504940,0.018300110
1640834719806899968,0.188545380,-0.220195280,9.993288040,-0.030863290,0.029465550,-0.034360580
1640834719808199936,-0.447370110,0.190948160,11.251545910,0.192208590,-0.049823530,-0.017525260
1640834719812019712,0.094740100,0.846441630,8.937459950,0.119358320,-0.060608990,-0.023846330
1640834719813189888,0.034370910,0.694482560,9.787339210,-0.131803750,-0.010943410,0.005340580
1640834719817230080,-0.348297150,0.497551410,10.371602060,-0.178211940,0.152128930,0.010563430
1640834719818349824,-0.015199560,-0.104351130,10.089321140,0.023864210,-0.024709110,-0.031293930
1640834719821649920,-0.564148310,0.101584750,10.849967960,0.190351900,-0.103494520,-0.009086730
1640834719823170048,-0.014858980,0.748175380,8.545604710,0.030134620,-0.010199850,-0.001534820
1640834719826550016,0.001804580,0.314052250,9.712388040,-0.221367200,0.026416780,0.010314580
1640834719828159744,-0.126927960,0.044656500,10.536791800,-0.170466320,0.168836090,0.009325150
1640834719831810048,0.308338610,-0.232306300,9.967689510,0.090248890,-0.031389290,-0.024500490
1640834719833929984,-0.293442010,-0.082361560,10.951602940,0.196181240,-0.113700340,-0.009034570
1640834719838899968,0.125270860,0.611717820,8.417706490,-0.022959710,0.015760960,-0.005424020
1640834719840569856,0.196453360,0.199616730,9.282852170,-0.245817010,0.015518070,0.021599230
1640834719841600000,-0.210276750,-0.127732980,10.791965480,-0.128708780,0.190354880,0.017948450
1640834719843190016,0.230083530,-0.218563150,9.834121700,0.142820190,0.029891730,-0.042311850
1640834719846860032,-0.551965060,0.026988590,11.088407520,0.214573760,-0.139707330,-0.012914840
1640834719848989952,-0.258999740,0.602947950,8.666240690,-0.042201580,0.007125740,0.011666120
1640834719851699712,-0.068804730,0.008034770,8.960959430,-0.229208170,0.013461710,0.017009680
1640834719853250048,-0.705803220,-0.323085220,11.118503570,-0.064817080,0.168418880,0.005309290
1640834719856509952,-0.043386790,-0.099132710,9.782515530,0.194768650,0.022451580,-0.047546630
1640834719858139904,-0.368233710,0.361414400,10.688074110,0.187668200,-0.177018330,-0.019414720
1640834719861549824,0.025919460,0.941707070,8.992717740,-0.096137830,0.070336470,0.014811760
1640834719863440128,0.281692680,0.288146200,9.479548450,-0.233660640,0.074681650,0.017407540
1640834719866929920,-0.540958640,-0.079199750,11.700517650,0.003476440,0.052487850,0.006297230
1640834719868189696,0.054717730,0.292850550,9.434244160,0.213943440,-0.058946010,-0.025780500
1640834719871619840,-0.128708870,0.594544710,9.733189580,0.095459840,-0.130960390,0.006417930
1640834719873159936,-0.188112040,0.844338660,9.378532410,-0.196748970,0.141887380,0.031426550
1640834719876509952,0.088036250,0.150298640,9.887322430,-0.227171180,0.080044580,-0.000314410
1640834719878129920,-0.583096680,-0.182950320,11.662774090,0.042171770,-0.018773970,0.003015990
1640834719881899776,-0.090692160,0.280494360,9.296664240,0.189490620,-0.070936980,-0.019073490
1640834719883360000,-0.147859990,0.399517450,9.517823220,0.010183450,-0.072030730,0.003929440
1640834719886579968,-0.230048420,0.465163830,9.547766690,-0.229229080,0.139820580,0.036671760
1640834719889459968,0.262297270,0.025141740,9.661569600,-0.178542780,0.058227780,0.012680890
1640834719891520000,-0.131277340,-0.222753490,11.173769000,0.069740400,0.002589820,0.005839770
1640834719893230080,0.060360150,0.236597420,9.418725010,0.156721470,-0.021785500,-0.013305240
1640834719896709888,-0.120469450,0.266774060,9.683408740,-0.013150280,-0.114566090,-0.006523730
1640834719898209792,-0.231326770,0.236007820,9.556799890,-0.205086170,0.097522150,0.027121600
1640834719902779904,0.195645410,-0.117123140,9.332110400,-0.137786570,0.109685960,-0.003814700
1640834719904549888,-0.514230970,-0.337899510,11.546235080,0.097842500,0.024282930,-0.013746320
1640834719906649856,-0.286690530,0.192096430,9.607012750,0.152123020,-0.054427990,-0.012767320
1640834719908150016,-0.228146630,0.286080300,9.203898430,-0.011530520,-0.150582210,0.008651610
1640834719911569920,-0.509631280,0.086075630,9.736036300,-0.171355920,0.119131810,0.041510160
1640834719913260032,-0.018212470,-0.088418900,9.593978880,-0.095719120,0.116510700,-0.008070470
1640834719916930048,-0.533006070,-0.098873530,11.609829900,0.135746570,-0.056804710,-0.018966200
1640834719918190080,-0.130456060,0.618401650,9.652186390,0.132131560,-0.064325320,-0.024415550
1640834719921609984,0.161945700,0.850301270,8.892769810,-0.070978710,-0.090974580,-0.009363890
1640834719923239936,-0.323482360,0.511071860,10.289233210,-0.203308480,0.102555750,0.015093390
1640834719926640128,-0.015113170,0.288996580,10.002536770,-0.054670870,0.066864500,-0.008635220
1640834719928879872,-0.447171780,0.190707100,11.066080090,0.129516390,-0.151967990,-0.004221500
1640834719934969856,-0.179650010,0.643082020,9.440419200,0.049993400,-0.052802260,0.017270450
1640834719935719936,0.257188050,0.483192770,8.909479140,-0.161625430,0.026820600,0.015877190
1640834719937539840,-0.318526690,-0.099306250,10.947360040,-0.178852680,0.108060260,0.018122790
1640834719938190080,-0.095456080,-0.061652880,10.254431720,-0.005304810,-0.009123980,0.004489720
1640834719941589760,-0.182949980,-0.035393280,10.111255650,0.108343370,-0.174722090,-0.006265940
1640834719943399936,-0.153505440,0.380524990,9.399151800,-0.040839620,0.008672480,0.007805230
1640834719946899968,0.201530350,0.273304970,9.841201780,-0.175611690,0.088280450,0.013676290
1640834719948179968,-0.079728350,-0.103617590,11.656648640,-0.121702270,0.077183550,-0.003856420
1640834719952039936,0.200818810,0.046229020,11.014041900,0.040793420,0.004780290,-0.005848710
1640834719953329920,0.078594770,-0.063428510,10.934712410,0.114241260,-0.081674750,-0.015652180
1640834719956699904,-0.127034750,0.049558110,10.197668080,-0.012712180,-0.008456410,-0.002929570
1640834719958409984,0.005993720,0.001759740,9.941631320,-0.111208860,0.001305340,0.017140810
1640834719961710080,-0.104693060,-0.353112130,10.896905900,-0.052036350,0.105559830,-0.012715160
1640834719963279872,-0.078952690,-0.284982920,11.297539710,0.063872320,0.086158510,-0.026679040
1640834719966810112,-0.353525220,-0.030992230,11.938525200,0.145466630,-0.054942080,-0.013723970
1640834719968299776,-0.411418500,0.210008100,10.952849390,0.038489700,-0.078170000,-0.019124150
1640834719971879936,-0.238025100,0.231859220,10.314510350,-0.099225340,-0.019235910,-0.002105530
1640834719974739968,-0.344195900,0.173092710,11.171464920,-0.028593840,0.125391800,-0.013071300
1640834719976950016,-0.407932700,0.109377340,11.848359110,0.113613910,0.057981910,-0.035952030
1640834719978299904,-0.287130000,0.495623860,11.613143920,0.150205190,-0.119744250,-0.022655730
1640834719981580032,-0.008333110,0.858570340,10.555322650,0.021968780,-0.057622790,-0.011591610
1640834719983719936,-0.031846520,0.449238780,10.945052150,-0.133536770,0.080111620,-0.016887490
1640834719986739968,-0.329974380,0.268582340,12.165297510,-0.047005720,0.057618320,-0.039960440
1640834719988250112,-0.399587780,0.243028790,11.935285570,0.135131200,-0.097021460,-0.053490700
1640834719991959808,-0.184895290,0.353920370,10.791814800,0.105752050,-0.112162530,-0.047206870
1640834719993749760,-0.026954700,0.671870470,10.592645650,-0.076220940,0.049307950,-0.018358230
1640834719996569856,-0.241541980,0.278901160,11.654243470,-0.150783350,0.100155170,-0.020819900
1640834720000949760,-0.344363510,-0.118627900,12.284308430,-0.020395220,-0.055614110,-0.037099410
1640834720002549760,-0.144509760,0.041617950,11.371286390,0.144787130,-0.110889990,-0.036256020
1640834720003520000,-0.044738980,0.228405670,10.651350020,0.077414510,-0.018976630,-0.039151310
1640834720007079936,0.010930460,0.246698200,11.081025120,-0.109755980,0.055664770,-0.042840830
1640834720008280064,0.012122820,0.196469660,11.731143000,-0.119729350,0.065872070,-0.048258900
1640834720011659776,0.042591890,-0.033543610,11.487520220,0.025568910,-0.010758640,-0.062960390
1640834720013219840,-0.262829960,-0.066711280,11.541749950,0.136196610,-0.114123550,-0.068651140
1640834720016880128,-0.398236870,0.399437700,10.953312870,0.083772840,-0.065791610,-0.061710180
1640834720018240000,-0.150271220,0.254620080,10.319753650,-0.086808210,0.042521950,-0.049233440
1640834720021709824,-0.156780840,-0.039954970,11.742280960,-0.105077010,0.064446020,-0.058421500
1640834720024150016,-0.170582670,-0.130322800,12.308652880,0.086437160,0.073748830,-0.067274280
1640834720026799872,-0.133443790,-0.200115590,11.277144430,0.191070150,-0.101365160,-0.098682950
1640834720028179968,-0.242951630,0.259021580,11.031899450,0.092361870,-0.182095170,-0.065611310
1640834720031630080,-0.099287060,0.288635430,10.408978460,-0.083076940,0.072568640,-0.055810810
1640834720033360128,0.146449030,-0.132489440,10.892369270,-0.093284240,0.123775010,-0.082640360
1640834720036800000,-0.297262400,-0.108364480,12.994435310,0.136573630,-0.012950600,-0.087396800
1640834720038249984,-0.240538340,0.360835050,11.713031770,0.234603910,-0.086481890,-0.103504970
1640834720041689856,0.042529800,0.719119070,9.989568710,0.043839220,-0.123013560,-0.086610030
1640834720043859968,-0.352811750,0.651168230,11.203786850,-0.149571910,0.028067830,-0.062407560
1640834720046649856,-0.367757680,0.233848050,11.563889500,-0.053991380,0.139771400,-0.097306070
1640834720048199936,-0.190335560,0.138597260,11.571303370,0.165452060,-0.087477270,-0.114931170
1640834720052259840,-0.236746490,0.682001890,11.826958660,0.172632930,-0.136148930,-0.094251340
1640834720053429760,0.085713880,0.827390490,10.528470040,-0.067298110,0.072304910,-0.090108810
1640834720056839936,0.137001170,0.244381820,11.140542980,-0.184270750,0.034697350,-0.095440450
1640834720058310144,-0.287917580,-0.029617130,12.538295750,-0.008675460,-0.009542700,-0.101849460
1640834720061639936,0.070440930,0.128384350,10.696641920,0.166602430,-0.041678550,-0.131602600
1640834720063309824,0.328509030,0.382746460,10.274901390,0.064927350,-0.058421500,-0.119225700
1640834720066710016,-0.016638890,0.594136360,11.484126090,-0.152973830,0.100496430,-0.097861910
1640834720068379904,0.188259540,0.260264040,11.215757370,-0.161699970,0.127725300,-0.122115010
1640834720071689728,-0.031754370,-0.071999320,11.966381070,0.032781060,-0.057984890,-0.147026790
1640834720074099968,-0.351999850,0.240486410,11.389432910,0.141969320,-0.061182680,-0.150479380
1640834720076679936,-0.045784660,0.397480280,9.778286930,0.023700300,0.023794180,-0.160896810
1640834720078219776,-0.101682480,0.258038640,10.791248320,-0.155292440,0.087149430,-0.128649190
1640834720081600000,-0.173485730,0.127488180,11.604698180,-0.129379350,0.133761750,-0.129161780
1640834720083539968,0.035146470,-0.157401110,11.452326770,0.053933260,0.015440580,-0.162288530
1640834720086619904,-0.098839820,-0.174124200,11.433318140,0.134439780,-0.062404580,-0.164832170
1640834720088719872,-0.136066120,0.096231860,10.496452330,0.038167830,0.013346970,-0.158061090
1640834720091630080,0.082943940,0.132607800,10.259858130,-0.111529240,0.095744440,-0.165443120
1640834720093269760,0.068593860,-0.019002320,11.339539530,-0.125142950,0.134797390,-0.173741590
1640834720096740096,-0.132244690,-0.101998200,11.802014350,0.063052780,0.057223450,-0.191880760
1640834720098229760,-0.145776880,0.223738570,11.061986920,0.164352370,-0.061966480,-0.202482950
1640834720104359936,-0.203801160,0.611107890,10.507963180,0.031083820,-0.019526480,-0.176559360
1640834720105959936,-0.316917840,0.544858990,10.818094250,-0.141295810,0.115118940,-0.164140780
1640834720106819840,-0.300162020,0.243411210,11.447822570,-0.101767490,0.139571730,-0.181739030
1640834720108339968,-0.293882670,0.160420370,11.578736310,0.079609450,-0.007930400,-0.207202140
1640834720111630080,-0.139792410,0.505437610,10.941323280,0.129756350,-0.047974300,-0.205603270
1640834720113220096,0.122993100,0.733312310,10.131704330,-0.054718550,0.082948810,-0.190632050
1640834720116619776,0.100716760,0.328006650,11.036266330,-0.177334290,0.108206290,-0.192300980
1640834720118379776,-0.114366040,0.019935430,12.032542230,-0.062721980,0.059802830,-0.185808550
1640834720122659840,0.240831110,0.138370250,10.735054970,0.076608360,0.009074810,-0.215061020
1640834720124169728,0.223848790,0.284543540,10.656010630,0.042895970,0.011712310,-0.210371610
1640834720126629888,-0.132248740,0.402045760,11.041617390,-0.114500540,0.134673740,-0.194679200
1640834720129469952,-0.034561920,0.219458970,10.482476230,-0.163069370,0.093475010,-0.210349290
1640834720131629824,-0.348736940,-0.177087690,11.321288110,-0.026792290,-0.027984380,-0.212793070
1640834720133319936,-0.345276770,0.101345940,10.639623640,0.064027300,0.072507560,-0.219512000
1640834720136639744,-0.056509270,0.296351970,10.100395200,0.003561380,0.096847130,-0.236533610
1640834720138389760,-0.258989480,0.183507840,11.446109770,-0.112418850,0.092035530,-0.210863400
1640834720141639936,0.025969110,0.173827930,10.808663370,-0.124402340,0.131812690,-0.211077940
1640834720143280128,0.059040160,-0.134642660,10.783871650,-0.001338120,0.023606420,-0.231453780
1640834720146749952,-0.330322360,-0.246466000,11.094947810,0.080457330,0.014676150,-0.235056890
1640834720148320000,-0.041197390,0.120010290,9.615604400,0.023701790,0.053396820,-0.247365220
1640834720155069952,0.040315170,0.075532770,10.351939200,-0.078316030,0.092872980,-0.248952250
1640834720155959808,-0.039066950,0.016393090,11.341498370,-0.120472910,0.197929160,-0.237403810
1640834720156909824,0.006404040,-0.064678660,11.260126110,0.017124420,0.084446390,-0.266081090
1640834720158309888,-0.363357870,-0.118583020,11.403890610,0.136052060,-0.056423250,-0.272877540
1640834720161619968,-0.374159690,0.253646020,9.939663890,0.048492850,0.005571540,-0.257655980
1640834720163859968,-0.181778610,0.440946310,9.624098780,-0.098039220,0.096991670,-0.247335460
1640834720166720000,-0.386593070,0.233471110,11.205291750,-0.112168490,0.192964090,-0.260072980
1640834720168339968,-0.261325150,0.187195080,11.506102560,0.026150050,0.066615640,-0.275476310
1640834720171609856,-0.043438940,0.451327860,10.935209270,0.132878120,-0.051754710,-0.282287630
1640834720173319936,-0.088338460,0.650564130,10.292702670,0.009027120,0.041554860,-0.283466220
1640834720176549888,-0.038172900,0.544549940,10.436071400,-0.157105920,0.107048460,-0.260755450
1640834720178210048,-0.130552350,0.233814080,10.999192240,-0.124178810,0.106072430,-0.270238520
1640834720181619968,-0.064843760,-0.005899580,10.868456840,0.033362210,0.022101400,-0.290671020
1640834720183480064,0.016702300,0.225140850,10.621764180,0.082919010,0.006927550,-0.276228820
1640834720186689792,-0.068752510,0.513777910,10.209950450,-0.056193770,0.095453860,-0.273351370
1640834720189519872,-0.077917440,0.167905460,10.705772400,-0.184761000,0.075614450,-0.263686510
1640834720191869952,-0.239254770,0.035471710,11.193040850,-0.092802950,0.079077490,-0.261826810
1640834720193280000,-0.062265960,0.199624730,10.210364340,0.034414240,0.041551890,-0.305753980
1640834720196600064,0.019761080,0.228193540,10.235233310,0.019325320,0.040987130,-0.300031900
1640834720198220032,-0.039932190,0.520090340,10.320129390,-0.095807010,0.151270630,-0.291435450
1640834720204140032,0.080607340,0.240145550,10.322978020,-0.147987920,0.099627680,-0.305067000
1640834720205139968,-0.191206400,-0.275655900,11.228251460,-0.065688790,0.017455220,-0.287294390
1640834720206599936,-0.101143930,-0.102552500,10.038037300,0.051712990,0.064529460,-0.313146350
1640834720208189952,-0.118414890,-0.163783520,9.990485190,0.031881030,0.036236650,-0.321306350
1640834720211569920,-0.300160410,-0.014132680,10.700530050,-0.087557740,0.105869780,-0.296072660
1640834720213299968,0.040316930,0.095628130,9.950134280,-0.107745830,0.129741450,-0.306922200
1640834720217129984,-0.199875070,-0.331348870,11.115076070,-0.015348200,0.038732590,-0.317566100
1640834720218360064,-0.317325170,0.027067250,10.766304020,0.075304500,0.045588610,-0.315609540
1640834720221750016,-0.130790100,0.257210110,9.651236530,0.064563750,0.001300870,-0.322315130
1640834720223249920,-0.268181620,0.255818160,10.430481910,-0.075612970,0.057305400,-0.303553070
1640834720226889728,-0.019184700,0.511168660,10.187467580,-0.129425570,0.174750420,-0.302046600
1640834720228349952,-0.119882750,0.176198070,10.971053120,-0.009848180,0.047047430,-0.331120190
1640834720231579904,-0.332878950,0.323163720,11.056069370,0.077290830,-0.030875200,-0.333015560
1640834720233389824,-0.077234960,0.666789230,9.438686370,0.027349590,0.006060300,-0.328689840
1640834720236790016,-0.334473730,0.320185870,10.210448270,-0.111317630,0.056272750,-0.321540270
1640834720238319872,-0.468455310,0.167119910,10.856657030,-0.135773450,0.115183020,-0.299637020
1640834720242099968,-0.164502890,0.071979310,10.457423210,0.010025500,-0.000807640,-0.316695870
1640834720243229952,-0.150686670,0.003537840,10.508821490,0.048710400,-0.029575820,-0.318022010
1640834720246699776,0.102568580,0.262792140,9.997824670,-0.027985870,0.087869170,-0.311520730
1640834720248440064,-0.025466490,0.154257120,10.406860350,-0.097510210,0.069524350,-0.323407320
1640834720251649792,-0.153127820,0.045777720,10.687568660,-0.093899670,-0.013343990,-0.324290930
1640834720253270016,0.037641980,0.181617950,9.981068610,-0.012575090,-0.013108550,-0.322680180
1640834720256939776,0.027242970,0.279934230,9.682745930,0.011612470,0.064660610,-0.339032650
1640834720258249984,-0.023002120,0.379299910,10.244257930,-0.056056690,0.065243240,-0.343689410
1640834720261600000,-0.125781690,0.332290410,10.638072010,-0.085857520,0.067614010,-0.321550610
1640834720263399936,-0.170651180,-0.041318150,10.161281590,-0.054334110,0.022783870,-0.328387350
1640834720266700032,-0.325725820,-0.385947080,10.442872050,0.019299980,-0.053061540,-0.326403980
1640834720268689920,-0.366766780,-0.196253810,9.688596730,0.048829620,0.046239790,-0.347310270
1640834720271739904,-0.098414850,-0.209620100,9.250656130,-0.041958700,0.045482820,-0.355768290
1640834720273509888,-0.209540530,-0.158009220,10.921629910,-0.074528170,0.075966120,-0.333164660
1640834720277210112,-0.099314680,-0.175233110,10.332269670,0.001905860,0.092786550,-0.351981820
1640834720278230016,-0.055325150,-0.333124880,10.314972880,0.096234680,-0.118228800,-0.352819260
1640834720281789952,-0.284632180,0.297350820,10.246445660,0.089566410,-0.011645260,-0.341160630
1640834720283330048,0.093389260,0.459056440,8.823466300,-0.056526070,0.076028730,-0.355389770
1640834720286589952,-0.167440920,0.148919020,10.879102710,-0.084362930,0.034125150,-0.336842240
1640834720288239872,-0.338102280,0.299579770,10.782492640,0.056362150,0.082942850,-0.359188020
1640834720291999744,-0.120935260,0.309238140,9.758811000,0.124965610,-0.132924320,-0.369142030
1640834720293380096,-0.484970960,0.647261980,10.447898860,0.016915800,-0.065517430,-0.326883790
1640834720296839936,-0.317416820,0.552815620,9.249612810,-0.125339640,0.103832780,-0.352148710
1640834720298519808,-0.366122540,-0.155597690,10.602766990,-0.069417080,-0.037544970,-0.352764220
1640834720301649920,-0.494332940,0.046575170,11.043416980,0.103580970,-0.000531970,-0.355774160
1640834720303899904,0.190865640,0.327214720,9.132424350,0.099354970,-0.064288090,-0.375267800
1640834720307350016,-0.026651690,0.397027940,10.349030490,-0.090274220,-0.033313040,-0.347344580
1640834720308440064,-0.046390950,0.434236560,10.049221990,-0.151258720,0.093641880,-0.352127880
1640834720311889920,0.098282930,-0.041710630,10.030429840,-0.023025270,-0.086697940,-0.367680220
1640834720313849856,-0.330227880,0.247542810,10.655391690,0.102023800,-0.098620380,-0.346498190
1640834720316629760,0.129210380,0.671960950,8.853191380,0.021460650,0.016509000,-0.361330900
1640834720318299904,0.097570440,0.359906020,9.883745190,-0.160197960,0.024500490,-0.348091210
1640834720321629952,-0.178138030,0.254860640,10.950680730,-0.137245660,0.086030360,-0.338476930
1640834720323239936,0.043365910,-0.175126120,10.051213260,0.039131950,-0.056403890,-0.377443430
1640834720329700096,-0.345364720,-0.223709110,10.090448380,0.094740100,-0.159907340,-0.378204880
1640834720330309888,-0.207611840,0.269504010,8.938545230,-0.016891960,-0.011901560,-0.372107390
1640834720332829952,0.090633790,-0.073381740,9.073078160,-0.162003930,0.073106590,-0.367605720
1640834720333390080,-0.128129010,-0.322235200,11.026878360,-0.102169830,0.075845440,-0.366498590
1640834720336599808,0.041607390,-0.310642450,10.574179650,0.115244110,-0.005821880,-0.387510720
1640834720338299904,-0.010538750,-0.248196510,9.749889370,0.153706970,-0.163036600,-0.383009020
1640834720342989824,-0.192593490,0.299293520,9.408854480,-0.003191830,-0.069792580,-0.336456300
1640834720343809792,-0.087492760,0.081732020,9.065895080,-0.151468810,0.097459560,-0.350110230
1640834720350639872,-0.216591450,-0.353009340,10.417348860,-0.057351600,0.024771700,-0.380613000
1640834720351159808,-0.409883530,-0.072364200,10.878122330,0.187805290,-0.049375000,-0.404021140
1640834720351609856,-0.048565510,0.333245690,9.289676670,0.172753680,-0.098983970,-0.421910050
1640834720353209856,-0.263597850,0.696258310,9.756442070,-0.056637830,-0.072835390,-0.374269520
1640834720356599808,-0.440364240,0.528059180,10.180884360,-0.178879510,0.063541530,-0.366467240
1640834720358279936,-0.089628520,-0.168265420,9.828504560,-0.009830300,-0.033319000,-0.389699640
1640834720362109952,-0.408998040,0.045752730,10.793359760,0.232383610,-0.130832200,-0.377157360
1640834720363309824,-0.024786100,0.607014950,9.231718060,0.135377060,-0.039803980,-0.380159940
1640834720366609920,0.215810140,0.462723340,9.241710660,-0.157096980,-0.044621540,-0.354349640
1640834720368219904,-0.263888000,0.193862680,11.001110080,-0.184679050,0.029666720,-0.353890690
1640834720371759872,0.127528100,-0.168993290,9.745297430,0.046144430,-0.028285390,-0.394243060
1640834720373250048,-0.252371910,0.106072550,10.328239440,0.206038360,-0.212210460,-0.397518280
1640834720376839936,-0.252072130,1.066054940,9.328942300,0.024773190,-0.016419590,-0.384582640
1640834720378909952,0.171617820,0.666587830,8.864406590,-0.248387500,0.000132620,-0.352008730
1640834720382020096,-0.361681820,0.139859350,11.166051860,-0.169895590,-0.023622810,-0.347873600
1640834720383409920,0.060622640,0.013554170,9.624668120,0.109009470,0.002032520,-0.391265840
1640834720386710016,-0.102679850,0.039510820,9.848761560,0.173296050,-0.194451210,-0.386857990
1640834720388290048,-0.415341970,0.678587260,9.724941250,-0.073279450,-0.043374300,-0.367423920
1640834720391859968,0.253240080,0.109839920,8.438084600,-0.286081520,0.010229650,-0.362923800
1640834720393299712,-0.076871700,-0.498006340,10.797331810,-0.127965180,-0.012269620,-0.372354690
1640834720396849920,0.071820300,-0.266159530,9.976973530,0.169062610,0.044570870,-0.408393170
1640834720398249984,0.142417790,-0.047028120,9.762369160,0.160954920,-0.182765740,-0.407145980
1640834720401639936,-0.305080950,0.414600700,9.817223550,-0.096765180,-0.069919240,-0.343902500
1640834720403209984,0.163273770,-0.128697890,8.282810210,-0.231152790,0.019179280,-0.366488130
1640834720406949888,-0.268699170,-0.708297430,10.556166650,-0.019294030,-0.015275180,-0.391128720
1640834720408279808,-0.371479180,-0.052994250,10.032356260,0.238433520,0.016592440,-0.425450590
1640834720411619840,-0.043816370,0.510568740,9.273480420,0.119136290,-0.177919890,-0.427036080
1640834720413199872,-0.319388450,0.741267560,9.943921090,-0.168213250,-0.036139790,-0.353440700
1640834720416590080,-0.021752610,0.114614190,9.117386820,-0.188434120,0.065867610,-0.379735260
1640834720418329856,-0.331415390,-0.342216850,10.817124370,0.097805260,-0.110809510,-0.409498870
1640834720421530112,-0.396618190,0.383174360,9.793562890,0.252066580,-0.074747210,-0.404645560
1640834720423579904,0.147278120,0.779168430,8.536692620,0.005775690,-0.122717010,-0.392428070
1640834720427189760,-0.163140190,0.484928760,10.183926580,-0.246812420,0.030590590,-0.340515380
1640834720428189952,-0.071288490,0.036715540,9.960185050,-0.137422950,0.046248730,-0.372813580
1640834720431619840,-0.288993600,-0.128990680,10.703166010,0.150235000,-0.213567940,-0.404097170
1640834720433329920,-0.340835210,0.584494710,9.486931800,0.170706240,-0.129996260,-0.392592010
1640834720438499840,0.093643530,0.872441410,8.330781940,-0.127603130,-0.040902200,-0.387866800
1640834720439489792,-0.275492520,0.358636590,10.418418880,-0.276517960,0.027771300,-0.359404180
1640834720441769728,-0.038502730,0.020036670,10.040930750,-0.071789330,-0.002519790,-0.375425820
1640834720443229952,0.070214470,-0.005668250,9.831152920,0.153148190,-0.205831230,-0.405819740
1640834720451409920,-0.184371670,0.406596000,9.579323770,0.086429740,-0.087055560,-0.383278730
1640834720452129792,0.157883360,0.507133660,8.706210140,-0.177383390,-0.018799300,-0.356997490
1640834720452920064,-0.089285280,-0.094525180,10.178990360,-0.244849950,-0.041657690,-0.353840080
1640834720453489920,-0.026916670,-0.356889040,9.907254220,-0.023990870,0.003433230,-0.383788290
1640834720456869888,0.022716050,-0.164705990,9.487622260,0.146065700,-0.144730540,-0.418008920
1640834720462169856,-0.377750100,0.205213980,9.754060750,0.049807140,-0.132684380,-0.393323630
1640834720462909952,-0.058552000,0.283897160,8.674289700,-0.170025240,-0.040149680,-0.379373130
1640834720464759808,-0.172819440,-0.299798190,9.796331410,-0.180104390,-0.031411650,-0.381790130
1640834720466840064,-0.348865750,-0.440396310,10.416336060,0.058361890,-0.009731950,-0.397492970
1640834720468309760,-0.117919310,0.082310800,9.465156560,0.162860770,-0.163877010,-0.419743390
1640834720471659776,-0.253239180,0.432468120,9.387200360,0.009924170,-0.156208890,-0.383245940
1640834720473669888,-0.022151980,0.305009480,8.972867970,-0.181655570,0.009575490,-0.352886290
1640834720476699904,-0.124703890,-0.248818670,9.980501170,-0.107301790,-0.026108330,-0.393767710
1640834720478200064,-0.436210720,-0.204885380,10.667193410,0.139616440,-0.110454860,-0.401519270
1640834720481639936,-0.134264110,0.485952050,9.176046370,0.131022950,-0.187388110,-0.403435590
1640834720483310080,-0.094351320,0.687782820,9.006385800,-0.094488270,-0.113223490,-0.381492110
1640834720486719744,-0.124140700,0.307093830,9.700325010,-0.203318920,0.035093730,-0.366340610
1640834720488879872,-0.125410660,-0.057773780,10.154100420,-0.023396320,-0.055632000,-0.400525360
1640834720491609856,-0.457337320,0.021199960,10.437713620,0.178562120,-0.224258050,-0.403809550
1640834720493839872,-0.150522020,0.529134450,8.792510030,0.057357550,-0.174807030,-0.383689940
1640834720496630016,-0.058266800,0.488160730,8.846567150,-0.171689660,-0.055794410,-0.372511120
1640834720498919936,-0.205172360,-0.008389960,10.285767560,-0.179308670,0.010921060,-0.360879330
1640834720501699840,0.119088920,-0.086439790,9.968808170,0.034949180,-0.073978300,-0.397187560
1640834720503229952,-0.064592080,0.052906080,10.025840760,0.156761750,-0.221063230,-0.390763670
1640834720506819840,-0.008447400,0.487358690,9.019284250,-0.011175870,-0.124908980,-0.370541160
1640834720508229888,0.091325660,0.282115640,8.728099820,-0.194662850,-0.076520440,-0.362582590
1640834720511739904,-0.074340920,-0.179551200,9.941446300,-0.128155960,-0.050564110,-0.359441340
1640834720513499904,0.261262420,-0.114187450,9.471387860,0.075155500,-0.012737510,-0.392372940
1640834720516699904,-0.066655110,-0.069138390,10.095277790,0.136984900,-0.148129460,-0.400896430
1640834720518349824,-0.238351430,0.256487250,9.568008420,-0.022579730,-0.140751900,-0.367368850
1640834720521829888,0.019780490,0.009874460,8.533582690,-0.154292580,-0.123050810,-0.375623970
1640834720523239936,-0.273676810,-0.513624430,9.674761770,-0.077851120,-0.030153990,-0.373490180
1640834720527159808,-0.106354100,-0.280898600,9.498968120,0.123317550,0.004702810,-0.409430350
1640834720528239872,-0.227377530,-0.139054090,10.007910730,0.166669520,-0.174483700,-0.405077700
1640834720531639808,-0.128297700,0.340585380,9.384971620,-0.009237230,-0.125372410,-0.365863830
1640834720533239808,0.131231410,0.150944290,8.797286030,-0.129644570,-0.068530450,-0.358310340
1640834720536769792,-0.254597780,-0.407282080,10.128539090,-0.018157070,-0.037683550,-0.377853270
1640834720539490048,-0.205046150,-0.049582550,9.716295240,0.192786800,-0.089588760,-0.407479790
1640834720541639936,-0.217744530,0.299846110,9.492727280,0.177775320,-0.210459530,-0.411608840
1640834720543969792,-0.087998040,0.703040660,9.021723750,-0.078745190,-0.074994570,-0.360345900
1640834720546559744,-0.023678170,0.408005120,9.379217150,-0.153893250,-0.019182260,-0.372317430
1640834720548290048,-0.442648350,-0.243879450,10.713150980,0.039583440,-0.100859980,-0.397549600
1640834720551679744,-0.287978950,0.201387410,9.576382640,0.240804280,-0.184908540,-0.402851490
1640834720554149888,-0.195635600,0.570146860,9.037083630,0.100554540,-0.204461860,-0.390496910
1640834720556550144,-0.049658550,0.608052550,9.019975660,-0.175385220,0.004339220,-0.347457830
1640834720559039744,0.091724050,0.173096390,9.828754430,-0.151933700,-0.016412140,-0.366871000
1640834720561549824,-0.078871680,-0.184080060,10.686661720,0.090551380,-0.138284270,-0.395052160
1640834720563319808,0.138907880,0.340097610,9.103260990,0.206445200,-0.175654920,-0.394098550
1640834720566749696,-0.090228670,0.583409730,9.112058640,0.009359420,-0.184263290,-0.384552780
1640834720568300032,-0.071621540,0.428860370,9.128396990,-0.234933200,-0.012607870,-0.355622110
1640834720571589888,0.173952920,0.011964480,9.453960420,-0.136628760,-0.045032800,-0.372245910
1640834720574329856,-0.089033540,-0.323617070,10.444915770,0.120699430,-0.078667700,-0.388732580
1640834720576629760,0.115482840,0.109691900,9.239510540,0.183354360,-0.127580760,-0.390574400
1640834720578670080,-0.156738390,0.237628400,9.316496850,-0.016804040,-0.182969870,-0.373950630
1640834720581569792,-0.078941920,-0.006188270,8.910749440,-0.213132840,-0.033228100,-0.350143020
1640834720586819840,0.097226180,-0.330603210,9.278841970,-0.088290880,-0.036138300,-0.384798680
1640834720587749888,-0.303313940,-0.430570190,10.379965780,0.156867500,-0.052951280,-0.412556560
1640834720588369920,0.012804360,0.158316940,9.276384350,0.173799690,-0.144284980,-0.414457980
1640834720591599872,-0.142018360,0.467339400,9.245928760,-0.031660500,-0.157068680,-0.376361610
1640834720593649920,-0.050625500,0.160198230,8.979513170,-0.193268080,-0.000236930,-0.344157250
1640834720596590080,-0.078309240,-0.268270550,9.811433790,-0.019828980,-0.053405770,-0.383554460
1640834720598719744,-0.419337300,-0.234807420,10.161912920,0.213572410,-0.111921150,-0.410303530
1640834720601760000,-0.034581320,0.370587890,8.890639310,0.169362170,-0.185632750,-0.407448470
1640834720603340032,-0.108425820,0.600055630,9.025701520,-0.087361040,-0.095818940,-0.363197920
1640834720606619904,-0.051233150,0.110401000,9.391014100,-0.197272030,0.023946170,-0.363272460
1640834720608389888,-0.181697440,-0.173236470,10.488962170,0.040623540,-0.107482070,-0.403207480
1640834720611680000,-0.347501930,0.127444160,9.792771340,0.235159720,-0.188927380,-0.404261140
1640834720613270016,0.097867250,0.640364290,8.604799270,0.092400620,-0.185786190,-0.392057090
1640834720616959744,-0.079894780,0.767565730,9.301035880,-0.165124240,0.016909840,-0.350582630
1640834720618609920,0.058016320,0.199573000,9.741083150,-0.198222710,-0.011934340,-0.356940950
1640834720621569792,0.032367010,-0.063633290,10.414411540,0.084546220,-0.157968710,-0.377677380
1640834720624359936,0.020626030,0.235095220,9.116051670,0.206427310,-0.130629550,-0.389267500
1640834720628209920,0.078430970,0.493927480,8.882211690,0.003239510,-0.140587960,-0.377646030
1640834720628790016,-0.267607450,0.464812760,9.600930210,-0.202409940,-0.019067530,-0.341074200
1640834720631759872,0.086755570,-0.171775450,9.104907990,-0.170549750,-0.077794490,-0.366082820
1640834720633459968,-0.046934750,-0.286212650,10.125279430,0.109080970,-0.095455360,-0.383624430
1640834720636549888,-0.075430360,0.109067790,9.233350750,0.169235470,-0.057327760,-0.403414760
1640834720638229760,0.010728430,0.354300710,9.164014820,-0.028772660,-0.181059540,-0.376492770
1640834720641600000,-0.207919490,0.305651810,9.392276760,-0.195570290,-0.037400420,-0.351700160
1640834720643719936,0.246527330,-0.353442820,8.763246540,-0.123925510,-0.038927800,-0.374583900
1640834720646659840,-0.233934040,-0.330198730,10.384139060,0.152139370,-0.083944210,-0.393217890
1640834720649439744,-0.033780760,0.243632240,9.028423310,0.169704870,-0.078699010,-0.409205350
1640834720651510016,0.173214840,0.393957790,8.965325360,-0.059901190,-0.167019700,-0.353027910
1640834720653229824,-0.196321350,0.144718260,9.642902370,-0.184822080,0.033414370,-0.326056780
1640834720656719872,0.096769810,-0.575266720,9.254460330,-0.026771430,-0.043627620,-0.377051560
1640834720658319872,-0.534000870,-0.299967410,10.363284110,0.230048640,-0.174599890,-0.382703630
1640834720661579776,-0.079563040,0.462180470,8.218458180,0.138799850,-0.102561710,-0.398416850
1640834720663409920,0.053107960,0.475874690,8.872615810,-0.136838870,-0.073781610,-0.352279870
1640834720666679808,-0.466665690,0.206682380,10.238636020,-0.172638910,0.071242450,-0.348503890
1640834720669400064,-0.108990650,-0.256540210,9.769792560,0.061011310,-0.161795330,-0.393053890
1640834720671539968,-0.520714640,0.284221680,9.986592290,0.246502490,-0.242605840,-0.378051490
1640834720673319936,-0.020743450,0.914721490,7.890229700,0.022687020,-0.059010100,-0.376623930
1640834720676559872,-0.062853250,0.579767640,9.526547430,-0.228403510,-0.028473140,-0.322504370
1640834720678329856,-0.339792820,0.168726500,10.505923270,-0.130039450,0.011570750,-0.332598390
1640834720682050048,0.297907680,-0.113213270,9.472634320,0.125736010,-0.225055260,-0.382812320
1640834720683620096,-0.138270140,0.384784190,9.754886630,0.171151770,-0.167971850,-0.343477760
1640834720686589952,0.055106550,0.643101450,8.335777280,-0.092919190,-0.035657000,-0.363969860
1640834720688209920,-0.147216620,0.187587290,9.931772230,-0.236363680,-0.111484540,-0.328461770
1640834720691859968,-0.222171560,-0.009596340,9.786237720,-0.079825530,-0.030353670,-0.335784260
1640834720695539968,0.237348050,-0.051100430,9.128392220,0.116491340,-0.166104730,-0.382328060
1640834720698479872,-0.345296200,0.506189940,10.084052090,0.087861730,-0.088518880,-0.351525870
1640834720699329792,-0.034162910,0.559959530,8.587095260,-0.146083500,-0.071445110,-0.360484420
1640834720701829888,-0.170716270,0.016683280,9.885312080,-0.194639010,-0.174188630,-0.331038240
1640834720703349760,0.045011170,-0.047537410,9.045441630,-0.041066110,0.002640490,-0.336164270
1640834720706650112,0.436929760,-0.181343060,8.977911950,0.091636190,-0.100885330,-0.375460090
1640834720710819840,-0.110012620,0.202408890,10.357115750,0.046990820,-0.042669480,-0.335639740
1640834720711909888,0.402946770,0.068120700,8.547533040,-0.122934590,-0.075078020,-0.340814890
1640834720715219968,-0.134742250,-0.592756930,10.109370230,-0.121124100,-0.158490260,-0.322529670
1640834720716600064,-0.220108400,-0.481384070,9.007649420,0.030118230,0.001691280,-0.353080000
1640834720718360064,-0.054823050,-0.400295670,8.789613720,0.123384610,-0.161418330,-0.392587480
1640834720721560064,-0.504937410,0.178062890,9.889828680,0.045454510,-0.030168890,-0.356531230
1640834720723320064,0.194584100,0.236625890,8.463793750,-0.106886040,0.016058980,-0.363092150
1640834720726739968,-0.457146850,-0.289098680,10.834546090,-0.030948230,-0.135025430,-0.337898820
1640834720728359936,-0.245318470,-0.001921980,9.191888810,0.126631560,-0.064820060,-0.355246720
1640834720731950080,0.093742530,0.086682570,8.504260060,0.144876520,-0.200599420,-0.368203160
1640834720733299968,-0.334810530,0.482376750,9.644385340,-0.001512470,0.018988550,-0.331440570
1640834720736899840,0.313503440,0.219626020,8.742358210,-0.104597230,0.041115280,-0.346709850
1640834720738519808,-0.395147140,-0.245081590,11.142847060,0.042180720,-0.175265980,-0.341710450
1640834720741619712,-0.095498850,0.286262420,9.042696950,0.153627990,-0.104562940,-0.365600020
1640834720743589888,0.081636600,0.336481240,8.552452090,0.066287820,-0.185807080,-0.370515970
1640834720748440064,-0.429096070,0.520529930,9.840292930,-0.085663800,0.052398450,-0.334092940
1640834720749179904,0.110945170,0.184500500,9.114222530,-0.074900690,0.000302490,-0.351664480
1640834720751719936,-0.406163510,-0.083077830,10.851725580,0.094287100,-0.204829900,-0.334008070
1640834720753440000,0.054893410,0.586803320,8.582414630,0.117620850,-0.087891520,-0.345309110
1640834720756569856,0.115242740,0.448159190,8.834527970,-0.043244660,-0.112231080,-0.331349670
1640834720758380032,-0.490037260,0.319788900,10.342347150,-0.121115130,0.030879670,-0.316272620
1640834720761649920,0.098675820,0.049966590,9.138991360,-0.019231440,-0.102166850,-0.359846680
1640834720763729920,-0.168155270,0.029465080,10.058346750,0.101353240,-0.194424390,-0.337736340
1640834720767869952,0.336973880,0.567919080,8.281329150,0.025308130,0.025416910,-0.339770320
1640834720768539904,0.237173020,0.214186220,9.614785190,-0.115305200,-0.051210830,-0.337284800
1640834720771649792,-0.234434800,0.037897920,10.419994350,-0.088293840,-0.018882750,-0.313925680
1640834720773309952,0.347541630,-0.122220610,8.598825450,0.041039290,-0.163625210,-0.343209530
1640834720777509888,-0.099619930,-0.227683600,9.522829060,0.094826520,-0.108778480,-0.323823120
1640834720778599936,0.168260500,0.193128570,8.354936600,-0.002911690,0.076590470,-0.335511510
1640834720781600000,0.039491260,-0.075740320,9.932895660,-0.079131130,-0.059480970,-0.342054670
1640834720783330048,-0.316381370,-0.105943660,10.200814250,-0.026647750,-0.008386370,-0.319264860
1640834720786609920,0.136366410,-0.178369300,8.709822650,0.074590740,-0.141997650,-0.355741410
1640834720788300032,-0.390014860,-0.179437160,9.619058610,0.108192880,-0.074359800,-0.347985330
1640834720792379904,0.067838560,0.326418730,8.170087810,0.014060730,0.044313070,-0.341475040
1640834720793439744,0.061428570,0.037653220,9.649864200,-0.057864190,-0.048245480,-0.327691410
1640834720796640000,-0.105061050,-0.220109360,9.998673440,0.009906290,0.061608840,-0.314536630
1640834720798409984,0.146838310,-0.431113600,9.228244780,0.158569230,-0.119262930,-0.351062390
1640834720801609984,-0.423062410,-0.408790530,9.779128070,0.185243800,-0.127127780,-0.339366500
1640834720803299840,0.159644230,0.138377580,7.724028590,0.034548350,0.000396370,-0.343072440
1640834720806569728,0.029768440,-0.150778230,9.405217170,-0.055935980,0.027886030,-0.338611010
1640834720809139968,-0.242643620,-0.309223830,10.290651320,0.069256130,0.098834930,-0.336441490
1640834720812140032,-0.071937130,-0.162999200,9.584400180,0.266695110,-0.190921170,-0.379625020
1640834720813230080,-0.516658430,0.249162900,9.317969320,0.225292190,-0.166115190,-0.348983790
1640834720816560128,0.034719850,0.657908920,7.657657620,-0.005649030,0.017255550,-0.335386430
1640834720818279936,-0.323172930,0.185809630,9.911361690,-0.058715040,0.064040730,-0.334587630
1640834720821580032,-0.359496500,0.026272030,10.402262690,0.136418660,0.015597050,-0.335003440
1640834720823979776,0.150254100,0.307250830,9.265080450,0.292629090,-0.209869470,-0.369806680
1640834720826629888,-0.210641700,0.542951110,9.236492160,0.137585420,-0.084374850,-0.337672230
1640834720828659968,0.221017260,0.523538350,8.355712890,-0.077380240,0.054709620,-0.326161090
1640834720831640064,-0.288647770,-0.155996720,10.370815280,-0.016608840,-0.034371020,-0.343529880
1640834720833629952,-0.146893310,0.013158910,9.699448590,0.183038400,-0.087758880,-0.353634330
1640834720836809984,0.274677370,0.477608140,8.704030990,0.215351630,-0.137980310,-0.358912410
1640834720838389760,-0.276018110,0.587015270,9.648599620,0.015619400,0.022588670,-0.332042600
1640834720841969920,-0.048536020,0.521655080,9.374052050,-0.105309480,0.009115040,-0.333544610
1640834720843269888,-0.414026350,0.045995100,10.328730580,0.033465030,-0.144855680,-0.345574350
1640834720846700032,-0.064444450,0.362673880,8.876717570,0.161171000,-0.086362670,-0.347012280
1640834720848280064,0.272312070,0.697664620,8.646102910,0.098823020,-0.033760070,-0.335630800
1640834720851509760,-0.155433300,0.531070230,9.964780810,-0.078743680,0.070981670,-0.325812370
1640834720853289728,0.244792310,0.242377150,9.584108350,-0.075896080,-0.048363210,-0.324282050
1640834720856979968,-0.048263280,-0.185097560,9.965093610,0.070752220,-0.140924800,-0.330105510
1640834720859030016,0.147499200,0.062641390,8.604357720,0.120976560,-0.053192670,-0.338833060
1640834720861920000,0.223189730,0.284919530,8.975902560,0.013728440,0.001756850,-0.329628590
1640834720863399936,-0.002410880,0.052495040,9.821807860,-0.097005080,0.087009380,-0.312589110
1640834720866789888,0.276762400,-0.206244600,9.639894490,-0.020441410,-0.026470430,-0.323897600
1640834720868269824,-0.185120910,-0.342394140,10.009902950,0.138407950,-0.092455770,-0.323599580
1640834720871810048,-0.012891770,0.058545510,8.475229260,0.122708100,-0.078494850,-0.329451320
1640834720873349888,0.013101640,0.313945710,8.823345180,-0.013886390,-0.012171270,-0.318445210
1640834720876629760,0.019795800,0.098960060,9.320906640,-0.097234550,0.157186390,-0.316862760
1640834720879279872,0.162338390,-0.131886560,9.969910620,0.046156350,0.014863910,-0.324228410
1640834720881539840,-0.233620200,-0.211400610,10.166763310,0.216904270,-0.086744140,-0.335718690
1640834720883309824,0.051726780,0.108314180,8.320209500,0.141587850,-0.102026780,-0.328868690
1640834720886560000,-0.094353110,0.111589830,8.823204990,-0.025182960,0.001735990,-0.306844740
1640834720888539904,0.016419030,-0.376372430,9.086502080,-0.065921250,0.179179030,-0.314413010
1640834720891619840,-0.052348420,-0.608859780,10.330978390,0.150947270,0.003260370,-0.353336360
1640834720893329920,-0.333561210,-0.230298120,10.108560560,0.300003590,-0.088463730,-0.353023410
1640834720897270016,0.018500590,0.192065950,8.129401210,0.140161840,-0.110022750,-0.328476820
1640834720898340096,-0.321676700,0.103067420,9.101788520,-0.035776190,0.034660100,-0.301151010
1640834720901649920,-0.225186840,-0.304164140,9.298383710,0.014638900,0.148308310,-0.323860440
1640834720903439872,-0.316020700,-0.205297810,10.421137810,0.272065430,-0.083880110,-0.341506270
1640834720906649856,-0.245187920,0.485744830,9.572723390,0.296416940,-0.090976080,-0.336112170
1640834720908310016,0.260827690,0.798013810,8.206923480,0.044095520,-0.045873220,-0.326728850
1640834720912000000,-0.229199320,0.544105950,9.979042050,-0.066669290,0.068497660,-0.304323460
1640834720913339904,-0.124007460,-0.025048890,9.646233560,0.089067240,0.046163810,-0.345011120
1640834720916780032,-0.129448010,0.124911530,9.881164550,0.305916460,-0.174184170,-0.347654580
1640834720918279936,-0.067669620,0.778298200,8.901573180,0.205203910,-0.028327110,-0.331312450
1640834720921569792,0.291331560,0.574655710,8.571875570,-0.075247880,0.040964780,-0.308279720
1640834720923259904,-0.292715310,0.143421530,10.643776890,-0.076334190,0.048859420,-0.302718610
1640834720926729984,-0.156727020,-0.285241600,9.730832100,0.163868070,-0.048930950,-0.339260730
1640834720928259840,-0.202323910,0.049528550,9.352434160,0.298251240,-0.195550950,-0.331325860
1640834720931599872,-0.243271140,0.778574170,8.617736820,0.082449620,0.017653410,-0.313623250
1640834720933359872,0.206831500,0.480709730,8.777108190,-0.158752520,0.070832670,-0.299887390
1640834720936669952,-0.172259840,0.172148230,10.679634090,-0.040723380,0.034238400,-0.317966970
1640834720938249728,0.132755490,0.066939590,9.517053600,0.205011680,-0.050368910,-0.347113700
1640834720941589760,0.053218350,0.283674210,9.303042410,0.246918220,-0.161869840,-0.331676010
1640834720943329792,-0.118527600,0.649414420,8.676921840,0.011050700,0.019539890,-0.314000280
1640834720946679808,0.363732490,0.112634460,8.687455180,-0.173862260,0.036837160,-0.304034290
1640834720948259840,0.017800420,-0.319596860,10.343955990,0.010152160,0.093068170,-0.314657360
1640834720951779840,0.139852000,-0.391824810,9.580082890,0.237555830,0.002120440,-0.361143080
1640834720953379840,-0.235878380,-0.173076690,9.866879460,0.244449110,-0.165271800,-0.341470600
1640834720956879872,-0.413078010,0.243387770,8.470434190,0.006493930,-0.044415890,-0.330863890
1640834720958269952,0.024247320,-0.267340720,8.345751760,-0.138160590,0.013460220,-0.324058590
1640834720961589760,-0.416737230,-0.456769440,10.272759440,0.066766140,0.147092340,-0.338108870
1640834720963640064,-0.084888350,-0.285650460,9.688771250,0.301598010,-0.010633470,-0.386449750
1640834720969859840,-0.203188640,0.209154440,10.028223990,0.274890660,-0.178216410,-0.347624750
1640834720971000064,-0.083034230,0.774925350,8.324095730,-0.002592800,-0.021591780,-0.317545240
1640834720971510016,0.157412870,0.041992280,8.781537060,-0.126934050,0.001849230,-0.312922920
1640834720973379840,-0.308949290,-0.194415580,10.369367600,0.135576750,0.107662400,-0.342412290
1640834720976579840,0.098560890,0.015859700,9.385958670,0.358137550,-0.065705190,-0.387986030
1640834720978240000,-0.200959500,0.597409780,9.952464100,0.238162340,-0.160740360,-0.346545930
1640834720982249984,-0.056386380,0.820189710,8.392580990,-0.081336500,0.025622550,-0.327752560
1640834720983289856,-0.086242990,-0.156525480,9.421047210,-0.119268900,-0.011819600,-0.340071350
1640834720986719744,-0.702074350,-0.184814970,10.633415220,0.206930940,0.027135020,-0.362543790
1640834720988320000,-0.187193710,0.252765360,8.867238040,0.345109430,-0.161156060,-0.385536280
1640834720992209920,-0.222549290,0.783180530,9.463348390,0.115230700,-0.110609850,-0.325067340
1640834720993299968,0.071549670,0.819790480,8.770328520,-0.161987590,0.131094490,-0.321349590
1640834720996549888,-0.045798940,-0.051871280,10.488726620,-0.068445500,-0.055271400,-0.330196350
1640834720998359808,-0.360714380,0.111108750,10.518366810,0.258046390,-0.098623360,-0.352209870
1640834721002039808,0.303671330,0.585339190,8.099949840,0.265926120,-0.179976220,-0.371949400
1640834721003399936,0.075273810,0.886268380,9.288111690,-0.037461520,-0.012446940,-0.319008560
1640834721006959872,0.199776560,0.511783180,9.233603480,-0.201097150,0.157696010,-0.340111550
1640834721008600064,0.072319160,-0.216016590,10.578488350,-0.004783270,-0.122278950,-0.359827340
1640834721011709952,-0.304047110,0.119294560,10.075782780,0.258059890,-0.120578730,-0.353317020
1640834721013319936,0.075675080,0.244910240,7.880947590,0.158931300,-0.129964920,-0.376609000
1640834721016699904,-0.391028400,0.320072530,9.521431920,-0.098091370,-0.014077130,-0.310903790
1640834721020429824,-0.082890300,0.038803440,9.097853660,-0.148730020,0.121872140,-0.331249920
1640834721021659904,0.117174710,-0.472892170,10.107343670,0.041325400,-0.087849810,-0.363729980
1640834721023449856,-0.168874160,-0.059337640,10.157081600,0.247737770,-0.028207900,-0.360766050
1640834721026659840,0.166322800,0.107805950,8.481626510,0.145584340,-0.122745340,-0.388960570
1640834721028319744,-0.203322710,0.346811440,9.423073770,-0.076721620,-0.099903350,-0.320430130
1640834721031639808,0.145262670,0.082495880,8.498449330,-0.113938750,0.099639590,-0.336372880
1640834721033399808,0.189762920,-0.451815130,9.825230600,0.084576020,-0.009581450,-0.370842190
1640834721037279744,-0.377117070,0.031046880,10.572622300,0.288403090,-0.013378270,-0.354620900
1640834721038560000,0.062321850,0.215816380,8.613523480,0.160941530,-0.162346690,-0.374834330
1640834721042199808,-0.368250310,0.253630460,9.353717800,-0.072383880,-0.108470020,-0.315547020
1640834721043369984,-0.246809800,-0.061882090,8.612596510,-0.082834060,0.108432780,-0.348040460
1640834721046649856,-0.347912790,-0.613835990,10.128516200,0.155355040,-0.067596140,-0.386340950
1640834721048460032,-0.602574940,0.137010870,10.146872520,0.347271590,-0.079762940,-0.372691480
1640834721051569920,0.110910260,0.629791500,8.293517110,0.132055570,-0.145661820,-0.371998490
1640834721053309952,-0.267940400,0.447218300,9.768335340,-0.129984320,-0.031021240,-0.308208110
1640834721056619776,-0.129675330,0.014520450,9.430079460,-0.041916970,0.062367330,-0.352816310
1640834721058369792,-0.135082110,-0.199014770,10.191604610,0.242280990,-0.205168170,-0.377234880
1640834721061649920,-0.076486560,0.701470020,9.227856640,0.302776720,-0.119252510,-0.361672040
1640834721063319808,0.459076140,0.938652460,8.202385900,-0.002981720,-0.037859380,-0.358343210
1640834721066649856,-0.135101210,0.495727450,10.582897190,-0.181801660,0.024887920,-0.314670800
1640834721068409856,-0.205800310,0.111534460,9.987438200,0.023897000,-0.061479220,-0.366307880
1640834721071669760,-0.287848440,0.012641010,9.679312710,0.259967240,-0.296720890,-0.389359950
1640834721073299968,-0.327621820,0.890839400,8.533178330,0.176216680,-0.060115750,-0.353916020
1640834721076570112,-0.085656920,0.855896000,8.671937940,-0.151798130,0.026170910,-0.346566770
1640834721078680064,-0.323843360,0.303670290,10.909644130,-0.211626340,-0.011368100,-0.318114490
1640834721081669888,0.083753500,0.079259650,9.746133800,0.074417890,-0.102800150,-0.356900720
1640834721083249920,0.055929900,0.103660100,9.531461720,0.224885390,-0.244671140,-0.369960100
1640834721086649856,0.060771270,0.820216660,8.659906390,0.048458580,-0.043448810,-0.334763560
1640834721088329984,0.317502440,0.535405280,8.669381140,-0.224415960,-0.006437300,-0.338460510
1640834721091549952,0.140998710,-0.000307070,10.500682830,-0.189702230,-0.010885300,-0.321416560
1640834721093289728,0.404903980,-0.112253090,9.462436680,0.093720870,-0.029021510,-0.365990460
1640834721096649984,-0.027307650,0.015106320,9.777185440,0.184389950,-0.194737330,-0.380297030
1640834721098589952,-0.267357050,0.588592650,8.964860920,-0.015255810,-0.081747770,-0.321692260
1640834721101559808,-0.093801820,0.121643730,8.385087970,-0.240145620,-0.045150520,-0.328750940
1640834721103319808,-0.307156230,-0.403898060,10.117554660,-0.134299730,0.009135900,-0.340955020
1640834721106589952,0.017895480,-0.296597990,9.522178650,0.162325810,0.036242600,-0.368252400
1640834721108369920,-0.154022740,0.048176640,10.005299570,0.190851120,-0.174115640,-0.384861290
1640834721111689984,-0.147216920,0.630505800,9.232446670,-0.047461690,-0.095261630,-0.320316880
1640834721113879808,0.230408830,0.054136520,8.255186080,-0.227977370,-0.041525080,-0.320994910
1640834721116609792,-0.118714280,-0.485615370,10.124958040,-0.031766300,0.006522240,-0.337830190
1640834721118379776,0.150125340,-0.130722910,9.395107270,0.248721260,0.008077920,-0.368806750
1640834721121529856,0.135796820,0.338129340,9.522006030,0.164090100,-0.165119770,-0.379776980
1640834721123399936,-0.048723960,0.644980910,9.463785170,-0.113514090,-0.014798350,-0.321893420
1640834721128540160,0.039789560,-0.071212610,9.070516590,-0.194530220,-0.019930310,-0.337035980
1640834721130709760,-0.588988540,-0.470903580,10.455049510,0.092688210,-0.109063090,-0.363084700
1640834721132259840,-0.209742710,0.215373930,8.814161300,0.278790320,-0.076343140,-0.384210110
1640834721135079936,-0.054314850,0.741219040,8.953239440,0.053666540,-0.088016700,-0.373563260
1640834721138520064,-0.306448100,0.725269620,9.953561780,-0.193187620,0.057041660,-0.315564900
1640834721139020032,0.073332030,0.052628210,9.660999300,-0.118733940,-0.056268270,-0.350114730
1640834721141649920,-0.261840610,0.074843020,10.316997530,0.164300220,-0.189627720,-0.364425780
1640834721143539968,0.210465700,0.832037330,8.493103030,0.175280870,-0.073534240,-0.366674360
1640834721147569920,0.238699230,0.888221980,8.972139360,-0.111819800,-0.005026160,-0.356076690
1640834721149099776,-0.157437880,0.614260020,10.475925450,-0.228610650,0.039337580,-0.316126670
1640834721152299776,0.251095650,0.109318990,9.604590420,-0.061264640,-0.112429280,-0.348244700
1640834721153339904,-0.015639720,0.208078820,9.607395170,0.122722990,-0.166459380,-0.365600020
1640834721156590080,-0.001179620,0.755774800,8.851151470,0.032077730,0.005279480,-0.351297860
1640834721158619904,-0.057978930,0.431970180,9.467385290,-0.201743860,-0.003352760,-0.343386800
1640834721161819904,-0.368155300,0.047034830,10.470851900,-0.190156740,-0.047700110,-0.321580470
1640834721163369984,0.175499780,-0.104355130,9.164749150,-0.012071430,-0.078755630,-0.348514410
1640834721166889984,0.050509810,0.023720860,9.317743300,0.062794990,-0.069472190,-0.349566340
1640834721169750016,-0.012107320,0.481786310,9.407253270,-0.051960350,0.022207200,-0.339283050
1640834721171650048,0.164329980,0.244206190,9.426814080,-0.209733890,-0.023756930,-0.337773620
1640834721173349888,-0.020109170,-0.067475810,10.043422700,-0.129558150,-0.067053740,-0.317753850
1640834721176790016,0.319360170,0.047338030,9.075284000,0.003886220,-0.022034350,-0.360183420
1640834721178520064,0.185375900,0.161053060,9.300831790,0.028374790,-0.032506890,-0.354653660
1640834721182269696,0.108772640,0.348711370,9.512441640,-0.082543480,0.019966060,-0.336283390
1640834721183419904,0.327215790,0.075982090,9.175839420,-0.160901290,0.015433130,-0.334420830
1640834721186599936,-0.116926840,-0.408974470,10.047014240,-0.052241980,-0.029060250,-0.312241940
1640834721188339968,-0.106069110,-0.315009530,9.384424210,0.072257220,-0.039736940,-0.340831340
1640834721191779840,-0.148555230,-0.177814540,9.064020160,0.034150490,-0.058689720,-0.353953300
1640834721193420032,-0.184339690,-0.042206820,9.271055220,-0.078281760,0.049076990,-0.333733920
1640834721196839936,-0.014229690,-0.240882230,9.576773640,-0.084972380,0.062946980,-0.352862570
1640834721198599936,-0.316711540,-0.364463900,10.313157080,0.060945750,-0.055213280,-0.364258890
1640834721201710080,-0.074543760,0.195144500,9.195907590,0.125820930,-0.105270760,-0.361855360
1640834721203339776,0.038526080,0.332440350,8.731183050,0.020675370,-0.036187470,-0.343911440
1640834721206699776,0.046218770,0.155674990,9.407465930,-0.078935930,0.095964970,-0.321602820
1640834721208459776,-0.023398260,-0.094202770,10.170322420,0.016349560,0.045335290,-0.348836210
1640834721211569920,-0.087064630,-0.110657100,10.089653970,0.155729100,-0.123870400,-0.355166260
1640834721213379840,0.157407700,0.424903570,8.790896420,0.099656010,-0.083425660,-0.343057540
1640834721216630016,-0.028025170,0.215403990,9.078592300,-0.049452480,0.050692260,-0.340187580
1640834721218380032,-0.313853030,-0.232546850,10.106903080,-0.025573380,0.055728860,-0.353780390
1640834721222359808,-0.347980230,0.021819830,9.937603950,0.130462660,-0.105036800,-0.375595690
1640834721223330048,-0.179464300,0.380540640,9.111749650,0.136357560,-0.112427770,-0.369741050
1640834721226569984,-0.054980240,0.848505200,9.047048570,-0.024145840,0.029185420,-0.343827900
1640834721228600064,-0.263893690,0.516066610,10.145154950,-0.084352500,0.050854680,-0.348529250
1640834721231649792,-0.239511330,0.130124320,10.382552150,0.041863330,-0.065016750,-0.357860330
1640834721234109952,-0.031340380,0.517821190,9.428252220,0.149720910,-0.125548260,-0.372032820
1640834721236640000,0.118923340,0.739055510,8.966437340,0.034776330,-0.036135320,-0.364348350
1640834721238339840,0.190963390,0.779545370,9.470218660,-0.153146710,0.062064840,-0.339151980
1640834721241600000,0.115035290,0.320007500,10.175142290,-0.107780100,0.006553530,-0.358463850
1640834721243379712,0.069981220,0.031694670,10.154921530,0.070106980,-0.095030670,-0.376962130
1640834721246569984,0.064780320,0.471248870,9.260292050,0.100271400,-0.080703180,-0.370886860
1640834721248339968,-0.191875850,0.552348730,9.404012680,-0.079302500,-0.015608970,-0.366193090
1640834721251549952,-0.249484390,0.446727370,9.811509130,-0.214579730,0.021229680,-0.340366390
1640834721253329920,-0.182514220,0.153292070,9.871668820,-0.099346040,-0.039234760,-0.358636680
1640834721257139968,-0.021419470,0.016826990,9.775708200,0.069138420,-0.037042800,-0.368942320
1640834721258949888,0.081359530,0.533924700,9.339973450,0.043919680,0.007055700,-0.368748580
1640834721261819904,-0.032691110,0.568479900,9.756508830,-0.130480540,-0.038446500,-0.359609720
1640834721263279872,0.108781990,0.318499800,9.688257220,-0.225672130,-0.008887050,-0.337934490
1640834721266579968,0.349012490,0.016155190,9.292779920,-0.088058430,0.000743570,-0.352573480
1640834721268349952,0.228055190,-0.163093610,9.891430850,0.074094540,0.018289690,-0.366000860
1640834721271919872,0.258386280,0.243724670,9.461242680,0.036315630,0.037106880,-0.360047910
1640834721273629952,0.062179080,0.175898820,9.593047140,-0.127290200,-0.042508540,-0.351028170
1640834721276729856,-0.148677390,-0.191224900,9.701684950,-0.188341770,0.004448000,-0.317719670
1640834721278970112,-0.145847420,-0.452290150,9.222289090,-0.023446980,0.004707280,-0.359095660
1640834721281529856,-0.344787960,-0.412260980,9.657272340,0.118316720,-0.007377570,-0.388008360
1640834721283320064,-0.129169790,0.321257650,9.274642940,0.042042140,0.047302250,-0.379621980
1640834721287940096,0.013871180,0.293463020,9.426140790,-0.128060580,0.040581830,-0.366625280
1640834721289359872,-0.154991110,-0.120552730,10.239176750,-0.124509650,0.013877450,-0.349007580
1640834721291529984,0.010758790,-0.236617950,9.424643520,0.089168560,-0.027295950,-0.372424720
1640834721293329920,-0.023540030,-0.127770080,9.214385030,0.175093110,-0.075201700,-0.385813420
1640834721297489920,0.133170200,0.347464710,9.011330600,0.028799470,0.063446170,-0.356817280
1640834721299969792,0.178116380,-0.067506960,9.459307670,-0.102843350,0.125199560,-0.348456230
1640834721301549824,-0.185629220,-0.620705840,10.942602160,-0.006012620,-0.009056930,-0.353534520
1640834721306619904,-0.231493430,-0.393781010,9.722544670,0.217022050,-0.092948970,-0.383882310
1640834721307299840,-0.212505340,0.024198050,8.604396820,0.174555210,-0.121729100,-0.403674040
1640834721308359936,-0.381929370,0.495921160,9.248292920,-0.042377410,0.098562250,-0.368687510
1640834721311630080,-0.283296410,0.205656560,9.687958720,-0.084696720,0.131395470,-0.384285990
1640834721313609728,-0.403953280,0.015596890,10.994197850,0.109180830,-0.107386710,-0.386594270
1640834721316609792,-0.087552690,0.749195990,9.424818990,0.249519990,-0.090262310,-0.382483070
1640834721318329856,0.055856760,0.894705950,8.703363420,0.065794590,-0.056037310,-0.366322790
1640834721321639936,-0.165659650,0.758236290,10.054867740,-0.124005990,0.078807770,-0.334867860
1640834721323510016,0.084137230,0.092903850,9.719686510,-0.020638110,0.061093280,-0.359834820
1640834721326619904,0.042289650,-0.151405890,10.329030040,0.177273170,-0.155557690,-0.373853740
1640834721328630016,0.225427960,0.554928300,9.141221050,0.172622520,-0.006631020,-0.366100700
1640834721332919808,0.258330320,0.413767340,9.025027280,-0.076693300,0.027416650,-0.377258690
1640834721333519872,-0.341883600,0.114302790,10.826750760,-0.136883560,0.022093960,-0.353065190
1640834721336669952,-0.148598540,-0.103731160,9.549846650,0.062900770,-0.044038890,-0.385975810
1640834721338299904,-0.160266850,0.048482730,9.417813300,0.179785490,-0.151431610,-0.384327830
1640834721341670144,-0.126671600,0.911699890,9.125596050,0.056949270,0.083363060,-0.363437860
1640834721346700032,0.159478440,0.654199720,9.291315080,-0.158618390,0.075532490,-0.365664060
1640834721347859968,-0.103074500,0.242880940,10.847076420,-0.100849580,-0.027319790,-0.335004870
