timestamp,accel_x,accel_y,accel_z,gyro_x,gyro_y,gyro_z
1640844853507580160,-0.092600070,0.291147050,9.190635680,-0.080640620,-0.070942940,0.031135980
1640844853510840064,-0.491545080,-0.166927920,10.082602500,-0.038176780,-0.027498600,0.012555720
1640844853512499712,-0.106476530,-0.148573790,9.395912170,0.000497700,-0.054274510,0.011016430
1640844853516079872,-0.127448840,-0.046069440,9.721441270,-0.003662710,-0.077721480,0.014211240
1640844853518390016,-0.237218740,-0.087937120,10.035710330,-0.073686250,-0.004351140,0.027790670
1640844853520809984,-0.173348140,-0.049454210,10.069087980,-0.066067280,-0.097620490,0.013381250
1640844853522599936,-0.507844630,-0.066375550,10.018847470,0.011324880,-0.143431100,-0.002624090
1640844853526449920,0.000692080,0.233298360,8.888628960,0.016085810,-0.057506560,-0.002877410
1640844853530249728,-0.346222790,0.420076670,10.059950830,-0.041416290,0.010244550,-0.007461010
1640844853535419904,-0.501196090,0.430189490,10.600712780,-0.077717010,-0.073757780,0.001746420
1640844853536669952,-0.213188710,0.365635900,9.784427640,-0.045052170,-0.196926300,0.004623830
1640844853537129984,-0.421707600,0.198848620,9.541972160,0.000965600,-0.119672730,-0.009055440
1640844853537929984,-0.239351850,0.421747740,9.477621080,-0.025503340,-0.024299330,-0.000955160
1640844853540799744,-0.444821830,0.468909920,10.424788480,-0.075344750,-0.083181250,0.007914010
1640844853542769920,-0.139892590,0.302930030,9.973711970,-0.110140450,-0.141952930,0.016388300
1640844853546289920,0.165992380,0.287077340,9.656992910,-0.074808300,-0.104731340,0.005766750
1640844853547610112,-0.264958050,0.155998100,10.297492030,-0.030736630,-0.058266520,-0.018911060
1640844853550880000,-0.293294670,0.255874310,10.064892770,-0.045140090,-0.154697900,-0.006900730
1640844853552649984,-0.415919630,0.407186660,9.813375470,-0.102728630,-0.191886720,-0.008966030
1640844853556249856,-0.246810120,0.245075110,9.452065470,-0.142063200,-0.075958680,-0.000044700
1640844853557679872,-0.106227630,0.435320050,10.026984210,-0.112590200,-0.069101150,0.001922250
1640844853560819968,-0.308443930,0.471292700,10.630718230,-0.070028000,-0.081674750,-0.007446110
1640844853562619904,0.037326520,0.483179600,9.873012540,-0.094875690,-0.168788450,0.001946090
1640844853566429952,-0.037988370,0.576630470,9.774598120,-0.136722670,-0.148934160,0.004208090
1640844853567529984,-0.040975380,0.382659050,9.582809450,-0.177997350,-0.062409050,-0.002282860
1640844853570870016,0.133707570,0.332261890,9.862447740,-0.160689640,-0.096562500,-0.000201170
1640844853572579840,-0.114575170,0.124972540,10.425181390,-0.114572050,-0.087724630,-0.002127890
1640844853576229888,-0.009592100,-0.029520410,10.054474830,-0.111135860,-0.099982340,-0.006048380
1640844853577580032,-0.251822110,0.084740380,10.114498140,-0.143565210,-0.142109380,0.010566410
1640844853580780032,-0.358619690,0.106303210,9.676812170,-0.189030190,-0.114570570,0.012850760
1640844853582530048,0.098841670,0.094345580,9.321836470,-0.189636660,-0.069545210,0.023968520
1640844853586230016,0.033348230,0.133261010,9.915247920,-0.126840190,0.015906990,0.001020730
1640844853587599872,0.137782230,0.414372710,10.129160880,-0.115914650,-0.048965220,0.005714600
1640844853594579968,0.023693240,0.406669020,10.334766390,-0.148603320,-0.126026570,0.010389090
1640844853595239936,-0.189718170,0.116913970,9.847770690,-0.189074870,-0.116792330,0.023369490
1640844853595719936,-0.085307290,-0.104703110,9.513179780,-0.151680420,-0.095722080,0.026240940
1640844853597529856,-0.178836850,-0.146929830,9.591541290,-0.100749720,0.017243620,0.007760530
1640844853600729856,0.118329400,-0.092339820,9.773306850,-0.115165110,0.002411010,0.019401310
1640844853603430144,-0.019035880,-0.128584010,10.549612050,-0.129276530,-0.023199620,0.025281310
1640844853605999872,-0.038033800,-0.318116220,9.833255770,-0.132653120,-0.088849690,0.003486870
1640844853607640064,0.026415320,-0.294421110,9.474488260,-0.082400450,-0.136467810,0.020757320
1640844853610720000,-0.046489640,-0.096789390,9.173924450,-0.066213320,0.060871250,0.011055170
1640844853612509952,-0.014644000,-0.115811230,10.070993420,-0.093494360,0.048203770,0.004953150
1640844853615749888,-0.503383520,0.005478780,10.972084050,-0.056198240,-0.047415490,0.022761520
1640844853617519872,-0.364900800,-0.073258750,9.365114210,-0.043600800,-0.155013800,0.003136690
1640844853622390016,-0.336333220,-0.092715310,9.158418660,-0.033520150,-0.077159690,0.019195670
1640844853623559936,-0.436045500,0.197307840,9.338191030,-0.058016180,0.094519560,0.010934470
1640844853625769728,-0.160650640,0.085508030,10.083343510,-0.068971510,-0.011001530,-0.006453690
1640844853627620096,-0.028188390,0.250281540,10.253524780,-0.024400650,-0.035786630,0.017760690
1640844853630739968,0.208611830,0.134457740,9.576823230,-0.026097900,-0.047132380,-0.001102690
1640844853632519936,-0.182995660,-0.166033280,10.437176700,-0.003372130,-0.051014130,0.012969970
1640844853636090112,-0.458223850,-0.128624740,9.670930860,-0.004610420,-0.058944520,0.005447860
1640844853637619968,-0.319807320,-0.244219480,9.361659050,-0.024612250,-0.113022330,-0.004376470
1640844853641499904,-0.442448260,-0.120665200,9.753174780,-0.011390450,0.039500000,0.017990170
1640844853642560000,-0.361007780,0.020075850,9.922079090,-0.007979570,0.002861020,-0.017324090
1640844853645819904,-0.572412670,0.228745250,10.833498950,0.017273420,-0.118362900,0.002537670
1640844853647599872,-0.208210620,0.688755150,9.280112270,-0.019288070,-0.078363740,0.000126660
1640844853650779904,-0.071825350,0.724886000,9.558812140,-0.073128950,-0.073309250,-0.003965200
1640844853652849920,-0.403315400,0.870831850,10.448029520,-0.046423080,0.026495750,0.016450880
1640844853655959808,-0.185011880,0.618408740,9.842197420,-0.033852470,-0.129044070,-0.005981330
1640844853660859904,-0.424783020,0.253509250,10.232914920,0.014607610,-0.161691010,0.011760000
1640844853661379840,-0.395260270,0.218269180,9.350683210,-0.022940340,-0.031128530,0.002788010
1640844853662579968,-0.429683240,-0.070024300,10.019842150,-0.093266370,-0.078067190,-0.000908970
1640844853665760000,-0.527368840,0.143839900,10.510711670,-0.093401980,-0.072249770,0.027485190
1640844853667599872,0.138097210,0.131305610,9.327321050,-0.075301530,-0.088150810,-0.017814340
1640844853671079936,0.072568560,0.256757740,10.126148220,-0.033527620,-0.060203680,-0.006623570
1640844853672679936,-0.096514300,0.752229030,9.938512800,-0.062574450,-0.025932500,-0.001621250
1640844853676719872,-0.192165080,0.423267390,10.066402440,-0.118941080,-0.171895330,-0.004018840
1640844853677529856,-0.315465510,0.444865470,9.859059330,-0.092136870,-0.132127110,0.022958220
1640844853680770048,-0.136728720,0.388273240,9.133851050,-0.080573560,-0.045524530,0.001978870
1640844853682530048,-0.213697220,0.186875120,10.290400510,-0.065155330,-0.017863510,0.018490850
1640844853686309888,-0.084780190,0.285835330,10.079450610,-0.091697270,-0.006219740,0.024494530
1640844853687990016,0.111553450,-0.105136940,9.983989720,-0.109614450,-0.120736670,0.000703330
1640844853694370048,0.023817450,-0.161672000,9.897690770,-0.063072140,-0.067555900,0.022920970
1640844853694999808,0.156377600,0.002911010,8.955711360,-0.072255740,-0.048665710,0.003044310
1640844853695659776,-0.019894160,-0.162846940,10.023445130,-0.077119460,-0.030119720,0.004634260
1640844853697549824,-0.125689150,-0.086368180,10.017124180,-0.060273720,0.041437150,0.001204010
1640844853700739840,-0.282265810,-0.154300420,10.179497720,-0.021854040,-0.125436480,-0.016871100
1640844853702980096,-0.591337800,0.039080030,10.040397640,0.004309420,-0.097031890,0.021703540
1640844853705869824,-0.234022360,0.212860760,8.800220490,-0.064927330,-0.022970140,-0.002449750
1640844853708039936,-0.375530810,-0.039516120,10.114565850,-0.062750270,0.008618830,0.003206730
1640844853710729728,-0.118748350,0.261688740,9.863190650,-0.009469690,0.044293700,0.005182620
1640844853712499968,0.242953460,0.244045670,9.673290250,0.001023710,-0.090149050,-0.018884250
1640844853715749888,-0.085443590,0.185216740,10.186591150,-0.005435940,-0.025744740,0.012187660
1640844853717649920,-0.112206370,0.088002810,9.572427750,-0.036482520,-0.054290890,-0.002171100
1640844853721189888,-0.465077520,-0.379505930,10.108477590,0.012195110,-0.107730930,-0.001208480
1640844853722579968,-0.337876560,-0.076067860,9.363563540,0.042103230,0.000859800,-0.002995130
1640844853726259968,-0.311047760,0.086696880,9.894166950,0.000092390,0.002655390,-0.031124060
1640844853727589888,-0.548697050,0.243683440,10.720326420,-0.024595860,-0.012023750,0.008200110
1640844853730769920,-0.173382860,0.532996710,9.580948830,-0.022679570,-0.102974470,-0.011727210
1640844853732549888,-0.250632140,0.452172400,9.812678340,0.007824600,-0.093528630,-0.021311640
1640844853736099840,-0.051447760,0.722305600,9.515359880,0.005009770,0.047129400,-0.011245910
1640844853738060032,-0.181283400,0.712438460,10.404796600,-0.029644370,-0.045081970,-0.016887490
1640844853741369856,-0.221097010,0.430919230,10.532554630,-0.039030620,-0.067856920,0.007241970
1640844853742539776,0.123336430,0.342216190,9.280560490,-0.037285680,-0.071102380,-0.009401140
1640844853745709824,-0.284965280,0.164143640,10.188749310,-0.021614130,-0.033995510,-0.007532540
1640844853747539968,-0.236691620,0.150770830,9.854989050,-0.033229590,0.022313000,0.015145540
1640844853750789888,-0.186923650,0.135930000,9.885510440,-0.052718830,-0.109794760,-0.014449660
1640844853752749824,-0.220795020,0.236470790,10.012884140,-0.054579980,-0.039115550,0.004675980
1640844853756969984,0.163260100,0.534777340,9.378666880,-0.087530910,0.022186340,-0.000999870
1640844853758009856,-0.247571200,0.374270620,10.719487190,-0.072681910,-0.029025980,-0.000330810
1640844853760819968,-0.167482350,0.384472970,10.045172690,-0.034095350,-0.038440530,0.007219610
1640844853762629888,-0.073974140,0.362657790,9.418198590,-0.035622720,-0.101792810,-0.012555720
1640844853766000128,-0.306210070,0.385820540,9.735997200,-0.086820130,-0.000755490,0.027042630
1640844853768409856,0.049276030,0.308971050,9.421748160,-0.131760540,0.047169620,0.027240810
1640844853771429888,-0.060616470,-0.081610710,10.343393330,-0.073996190,-0.002366300,0.000646710
1640844853774370048,0.074266990,0.016478180,9.870070460,-0.004900990,-0.003117320,0.004202130
1640844853775769856,0.136415840,-0.005650060,9.625566480,-0.028207900,-0.034622840,0.000707810
1640844853777540096,-0.281035300,-0.181980190,10.117946620,-0.083926330,0.008313360,0.008088350
1640844853780740096,-0.062866650,-0.066863660,9.393176080,-0.092919180,-0.003288690,0.008358060
1640844853782749952,-0.312463250,-0.264311640,9.905752180,-0.019840900,-0.013463200,-0.012911860
1640844853786199808,-0.175467100,-0.005177440,9.589152340,0.020326670,0.071732710,-0.005242230
1640844853787649792,-0.265986140,0.200044740,10.039449690,-0.007411840,-0.014443690,0.001329180
1640844853790860032,-0.484313820,0.013423920,10.240777970,-0.034521520,-0.025743250,0.007079540
1640844853792669952,0.104325870,0.239203690,8.920324330,-0.030459470,-0.022512670,0.007411840
1640844853795689728,-0.119126730,0.118634600,9.837658880,0.000703330,0.057153400,-0.006443260
1640844853797659904,0.061402820,0.118779730,10.005815510,0.015327340,0.122277420,-0.023107230
1640844853800770048,-0.069098810,0.127567950,10.282649040,0.029203300,-0.058020660,-0.020436940
1640844853802789888,-0.434396420,-0.130418180,10.018296240,0.024093690,-0.059460110,-0.009758770
1640844853806059776,-0.134186940,-0.035374430,8.846543310,-0.002029540,-0.014036900,-0.005579000
1640844853807589888,-0.620769080,-0.196267630,10.133208270,0.004695360,0.054533780,-0.012303890
1640844853810799872,-0.519856100,-0.038196200,10.120710370,0.033955280,0.060001020,-0.020195550
1640844853812800000,-0.205541970,0.330002460,9.905634880,0.048960750,-0.075164440,-0.025388600
1640844853817119744,-0.293487970,0.421803830,9.936912540,0.019350650,0.010335450,-0.005844240
1640844853817849856,0.018073260,0.640227320,9.541384700,-0.017203390,0.026507680,-0.021326540
1640844853820869888,-0.383947640,0.505605760,10.497118950,0.000232460,-0.032511360,-0.027675930
1640844853822660096,-0.242081200,0.523225310,9.652317050,0.030235950,-0.037416820,-0.027216980
1640844853825749760,-0.050356100,0.714230720,9.511158940,0.013941530,-0.040052830,-0.027154390
1640844853827559936,-0.516765120,0.492897810,10.412493710,-0.054296860,0.054632140,-0.015467410
1640844853830880000,-0.249099240,0.403703690,9.940920830,-0.067244470,-0.041568280,-0.013206900
1640844853832599808,-0.432965250,0.162900360,10.253588680,-0.008204580,-0.088407110,-0.025108460
1640844853836119808,-0.162472500,0.250314620,9.316338540,-0.016540290,0.022888180,-0.037376580
1640844853837629952,-0.069766160,0.591574730,9.896081920,-0.073717530,0.010885300,-0.042806560
1640844853840729856,-0.401345220,0.439429640,10.802658080,-0.122912250,0.001557170,-0.029759110
1640844853842530048,0.068521150,0.404680250,9.666128160,-0.095932190,-0.072786210,-0.036129360
1640844853845979904,-0.302507490,0.464922190,10.186930660,-0.033988060,-0.075720260,-0.045426190
1640844853847579904,-0.379385260,0.585010350,9.795456890,-0.066663320,0.015708810,-0.035588440
1640844853850739968,-0.206980740,0.674468820,9.799311640,-0.155024230,-0.067891180,-0.019903480
1640844853852819968,-0.348719420,0.440802690,10.329442020,-0.172197800,-0.020202990,-0.010482970
1640844853856129792,0.360506270,0.446160200,9.299518590,-0.127871320,0.042520460,-0.033171470
1640844853857600000,0.144670990,0.498721570,10.441952710,-0.097927450,0.007225570,-0.040958820
1640844853860760064,-0.111825810,0.443072710,10.440093990,-0.139784840,-0.003013020,-0.034610940
1640844853862959872,0.070715200,0.117372070,9.682043080,-0.171452730,-0.110518920,-0.035296380
1640844853865700096,-0.448932260,-0.198754830,10.030687330,-0.139458480,-0.046747930,-0.036080190
1640844853867589888,-0.087559230,-0.024650320,9.073843960,-0.119969230,0.065763290,-0.028912720
1640844853870880000,-0.126941610,-0.092295270,10.317081450,-0.117358550,0.042639670,-0.032679730
1640844853873159936,-0.176603330,-0.085516420,10.560150150,-0.129112600,0.055944920,-0.019015370
1640844853875729920,0.247824890,0.138795510,9.672977450,-0.110901890,-0.068859760,-0.038330260
1640844853877840128,-0.087478900,0.247993350,9.920279500,-0.126434850,-0.019669530,-0.041712820
1640844853880699904,0.325220700,0.476119190,8.930035590,-0.160542150,0.083124650,-0.028298800
1640844853882520064,0.090369330,0.151708780,10.254145620,-0.123809280,0.062353910,-0.052307550
1640844853886089984,-0.285944070,-0.074886090,10.602498050,-0.064052650,0.066111980,-0.049833950
1640844853887589888,-0.190279070,-0.090033390,9.703423500,-0.022016470,-0.075505700,-0.031054020
1640844853890739968,-0.634920060,-0.278325320,9.955856320,-0.097458060,-0.014080110,-0.019781290
1640844853892649984,-0.218159120,-0.272106770,9.102908130,-0.154361110,0.107388180,-0.017458200
1640844853895819776,-0.134945240,-0.456390200,9.997895240,-0.065656010,0.083878640,-0.040206310
1640844853897539840,-0.082274280,-0.126376380,10.252655030,0.007626410,0.098556290,-0.065726040
1640844853900719872,0.240018680,0.320399110,9.751688000,-0.012533370,0.000108780,-0.052802270
1640844853903129856,-0.384554060,0.091506460,10.415024760,-0.088185080,-0.016617770,-0.052912540
1640844853905799936,-0.388913330,0.021896370,9.432428360,-0.066289310,-0.013574960,-0.056019430
1640844853907599872,-0.331172080,-0.013608040,9.236712460,0.030773880,0.022135670,-0.052401420
1640844853910949888,-0.483079520,0.141443610,10.059620860,0.013448300,0.122897330,-0.046733020
1640844853912529920,-0.339211050,0.341038350,10.375031470,-0.032873440,0.066165630,-0.029639900
1640844853915709952,-0.427717390,0.050093990,10.342540740,-0.051547590,-0.068588560,-0.027880070
1640844853917959936,-0.200180050,0.163539450,9.359508510,-0.010213260,-0.038783260,-0.042074920
1640844853920839936,-0.054468100,0.283274710,9.214103700,0.019186740,0.075837970,-0.068569190
1640844853922619904,-0.328356920,0.294815270,10.572994230,-0.026020410,0.081245610,-0.071522590
1640844853926119936,-0.371108530,0.455260690,10.516471860,-0.020697720,-0.034439570,-0.055389110
1640844853928579840,-0.303933350,0.171912150,9.837222100,-0.021825730,-0.106716160,-0.053663540
1640844853930699776,-0.491621910,0.197018890,9.775241850,-0.020962950,-0.013037030,-0.047360360
1640844853932580096,-0.593702020,0.371742780,9.794246670,-0.007665160,0.033567850,-0.049903990
1640844853936009984,-0.529769540,0.317772000,10.209768300,-0.061152870,-0.047852090,-0.048680600
1640844853938289920,-0.056596090,0.661563990,9.614364620,-0.066706540,-0.007247930,-0.041306020
1640844853940679936,-0.010930430,0.639257550,10.015975950,-0.081911690,0.010068720,-0.061526890
1640844853942919936,-0.227992420,0.614611090,10.745244030,-0.079500660,-0.023499130,-0.053015350
1640844853945730048,-0.341959420,0.561957480,10.075743680,-0.041277710,-0.123524670,-0.060606010
1640844853947589888,-0.287265510,0.351245280,9.678622250,-0.076834880,-0.109002010,-0.065334150
1640844853951139840,-0.240445230,0.530695320,9.662194250,-0.118404630,0.048764050,-0.042134520
1640844853952669952,-0.334747400,0.359991550,10.379316330,-0.153413410,0.012239810,-0.039680300
1640844853955760128,-0.138861000,0.252657560,10.506600380,-0.115959370,-0.065529350,-0.035491590
1640844853957789952,0.020109540,0.332902790,9.664708140,-0.067752610,-0.068558750,-0.057822480
1640844853960769792,-0.024305730,0.400263730,9.737687110,-0.127415370,-0.038941210,-0.046709180
1640844853962550016,-0.160013410,0.582071720,10.098857880,-0.179733380,-0.005070870,-0.033770510
1640844853965769984,-0.089666030,0.269828560,10.086428640,-0.185899450,-0.048229100,-0.048173960
1640844853967929856,0.083947460,0.122555000,10.097826000,-0.112782430,-0.018414860,-0.056646770
1640844853970880000,-0.210445670,0.192612360,10.245730400,-0.064188230,0.011210140,-0.058598810
1640844853972579840,-0.259821300,0.066107020,10.071153640,-0.129348050,-0.061953080,-0.052128740
1640844853975770112,-0.272480460,0.120078030,9.778379440,-0.192423160,-0.070777540,-0.017927590
1640844853977579776,-0.054632500,-0.114712980,9.349710460,-0.176435710,0.016155840,-0.032632060
1640844853980689920,0.302240130,-0.092757550,9.755830760,-0.097522140,0.069649520,-0.038652130
1640844853982579968,0.121060280,0.223325120,10.536113740,-0.064975020,0.068342690,-0.036567450
1640844853985879808,0.112421420,0.019142180,10.376461980,-0.119571400,-0.029994550,-0.040933490
1640844853987629824,-0.170767990,-0.122094500,10.141428950,-0.129276510,-0.099059950,-0.030051170
1640844853991040000,-0.416060690,-0.214318020,9.258811000,-0.090160970,-0.027239330,-0.042735050
1640844853993479936,-0.217688170,-0.205211590,9.146384240,-0.066025560,0.040729340,-0.049369040
1640844853995780096,-0.444774390,-0.068527860,10.185841560,-0.056375570,0.121253730,-0.044201310
1640844853997589760,-0.350507620,-0.045817050,10.474453930,-0.070129340,-0.000846390,-0.045745080
1640844854001039872,-0.237645820,0.014610590,10.170009610,-0.043717030,-0.094911460,-0.032633550
1640844854003619840,-0.116794910,0.044072320,9.242995260,-0.060810150,-0.001935660,-0.023330750
1640844854005740032,-0.027708360,-0.070941240,9.705581670,-0.033821170,0.056360670,-0.025130810
1640844854007819776,-0.152093830,-0.089227100,10.262796400,0.008459390,0.075137620,-0.035305320
1640844854010769920,-0.078666210,-0.030154230,10.032442090,0.001472230,-0.045278660,-0.037159030
1640844854012549888,-0.201624210,-0.087589890,9.873721120,0.000587110,-0.065049540,-0.018571320
1640844854016069888,-0.317375570,-0.159303560,9.491604800,-0.025394560,0.002409520,-0.042109190
1640844854017629952,-0.426601200,-0.127306980,9.829856870,0.017599760,-0.001712140,-0.039838260
1640844854020809984,-0.254134950,0.157476310,9.673653600,0.040914120,0.033213200,-0.045748060
1640844854023099904,-0.147013080,0.273049860,9.991717340,0.006739800,0.019322340,-0.050030650
1640844854025809920,-0.272559290,0.314123690,10.355154040,0.013189020,0.006750230,-0.026874250
1640844854027619840,-0.449990630,0.028652100,10.168136600,0.035943090,-0.093951820,-0.048963740
1640844854030729984,-0.497140470,-0.033651010,9.649053570,0.080238270,-0.088953960,-0.045144550
1640844854032809984,-0.343289140,0.067630740,9.147681240,0.053666540,0.007849930,-0.044135750
1640844854037079808,-0.419515130,0.065104780,10.375967980,-0.015482310,0.039231780,-0.044675160
1640844854038159872,-0.328215120,0.201306250,10.468087200,0.010721390,-0.003910060,-0.018037860
1640844854040900096,-0.094734970,0.167721020,9.994030950,0.049731140,-0.142605600,-0.038050120
1640844854042599936,-0.178162900,0.416662310,9.876422880,0.056387500,-0.034384440,-0.029881300
1640844854045719808,-0.061941810,0.526581590,9.467410090,0.003033880,0.015328820,-0.050906840
1640844854047579904,-0.477549940,0.481836320,10.719391820,-0.029234590,-0.082145640,-0.044065710
1640844854050829824,-0.301386890,0.571820680,9.828552250,0.007054210,-0.080084810,-0.035318730
1640844854052630016,-0.216728210,0.263795500,9.725475310,0.000301000,-0.098285080,-0.062212340
1640844854055800064,-0.707619670,0.334927590,10.552377700,0.024576490,-0.022917990,-0.037887700
1640844854057600000,-0.457141880,0.278491500,9.840924260,-0.005762280,-0.090479860,-0.052542990
1640844854060750080,-0.322692690,0.235983490,10.203157420,-0.060904030,-0.131258370,-0.035992270
1640844854062579968,-0.074797510,0.529500960,9.561012270,-0.061011320,-0.001950560,-0.025908650
1640844854065959936,0.032707630,0.255084930,10.124906540,-0.049541890,-0.062347950,-0.040480490
1640844854067610112,-0.158260320,0.400505070,10.653589250,-0.003696980,-0.090309980,-0.013206900
1640844854070969856,-0.078609660,0.440250520,9.696099280,-0.031971940,-0.141122920,-0.034816560
1640844854072620032,-0.255738260,0.240473170,10.198682790,-0.081753740,-0.128963590,-0.023876130
1640844854075739904,-0.399230930,0.481505600,9.904109950,-0.106538850,-0.032739340,-0.019019840
1640844854077639936,-0.224592720,0.226635400,9.994744300,-0.095140950,-0.093907130,-0.032204390
1640844854080709888,-0.180801760,0.280829100,10.351928710,-0.027383870,-0.067776450,-0.023567680
1640844854083010048,-0.100428590,0.472330300,9.662796020,-0.046260660,-0.067244490,-0.038580600
1640844854085839872,-0.067610820,0.326149280,10.009775160,-0.113116210,-0.114402170,-0.011047720
1640844854087889920,-0.204282600,0.263008740,10.014314650,-0.121209030,-0.069330640,0.007699430
1640844854090749952,0.100785210,-0.099499220,9.605899810,-0.081171100,-0.092361880,-0.020070380
1640844854093060096,0.060096860,-0.034544890,10.104428290,-0.014358760,-0.040224190,-0.007279220
1640844854095739904,0.010022300,0.051414580,9.983473780,-0.046843290,-0.004993380,-0.020475690
1640844854097570048,-0.040301350,-0.204758020,10.338771820,-0.088904810,-0.111545620,-0.009919700
1640844854100889856,-0.233987480,-0.157686020,9.954614640,-0.070600220,-0.118806980,-0.005587940
1640844854104460032,0.089848570,-0.186216740,8.919152260,-0.041459500,-0.061954560,-0.029765070
1640844854105739776,0.123959010,0.098241830,9.667782780,-0.012157860,0.040863450,-0.010424850
1640844854107569920,0.043969310,0.182911900,10.352105140,-0.052255400,0.056533520,-0.022152060
1640844854110720000,-0.077620070,-0.100012060,10.759252550,-0.024059410,-0.099422020,-0.020176170
1640844854112560128,-0.299963860,-0.163263380,9.816740990,0.041119750,-0.152310740,-0.018629430
1640844854115959808,-0.323657900,-0.082047690,8.951864240,0.011157990,-0.103378320,-0.030933320
1640844854117600000,-0.364741180,-0.132850050,9.462557790,-0.023098290,0.059233610,-0.012205540
1640844854121539840,-0.327687230,-0.301651780,10.258730890,-0.007081030,0.033894180,-0.024069850
1640844854122579712,-0.302507040,-0.209953050,10.687363620,0.083999340,-0.093199310,-0.022099910
1640844854125799936,0.054509450,0.070018350,9.390283580,0.091370940,-0.096610200,-0.011648240
1640844854127589888,-0.016071790,0.107498780,9.707454680,-0.007517640,-0.042040650,-0.012658540
1640844854130759936,-0.214630280,-0.031203370,10.041364670,0.013445320,0.019727640,-0.007607040
1640844854132869888,0.037116720,-0.114243350,9.664766310,0.086686000,-0.086532530,-0.049155940
1640844854135859968,-0.211084720,0.122619380,10.037594800,0.134891270,-0.055922570,-0.031305850
1640844854138170112,-0.174591930,0.357120220,9.509231570,0.057061020,-0.009508430,-0.024022160
1640844854140729856,-0.657361870,0.029452970,10.743973730,-0.008337200,-0.107932100,-0.032719970
1640844854142569984,-0.726597670,0.116536430,9.738324170,0.070074200,-0.096671290,-0.015228990
1640844854145730048,-0.314818770,0.222651780,9.090868950,0.103448330,-0.124612470,-0.042775280
1640844854147599872,-0.436836630,0.538464780,10.292237280,0.061258670,0.051255530,-0.016680360
1640844854151279872,-0.022249350,0.653610590,9.985312460,-0.005044040,0.002005700,-0.023424630
1640844854152619776,-0.271793630,0.264629220,11.168664930,0.014610590,-0.188389420,-0.026296080
1640844854155819776,-0.135968640,0.355323790,9.543925290,0.093792390,-0.124014910,-0.034925340
1640844854157680128,-0.007296200,0.312279110,9.211232190,0.052800780,-0.132685900,-0.066775090
1640844854160719872,-0.464891080,0.527319670,10.487763400,-0.011129680,-0.011859830,-0.017894800
1640844854162599936,-0.102248990,0.392626370,9.707223890,-0.054794550,-0.066013630,-0.026109810
1640844854166070016,-0.085431320,0.141231520,10.554907800,0.006979710,-0.171649460,-0.032049420
1640844854167630080,-0.169236060,0.648942530,9.924462320,0.048576300,-0.051039460,-0.024114550
1640844854170939904,-0.093884870,0.470925510,9.729756360,-0.028200450,-0.125761330,-0.042971970
1640844854172600064,-0.402204330,0.542117300,10.487667080,-0.066916640,-0.120541440,-0.008505580
1640844854175699968,-0.010980090,0.394551460,9.353814130,-0.062210870,-0.067821150,-0.037597130
1640844854177590016,-0.041280030,0.122025390,10.271356580,-0.005540250,-0.093607610,-0.037379560
1640844854180770048,-0.183892580,0.506703850,10.278607370,-0.003096460,-0.043612720,-0.023876130
1640844854183109888,-0.091777170,0.244385590,9.895170210,-0.081659850,-0.151534390,-0.024978820
1640844854185939968,-0.074769560,0.138779310,10.094358440,-0.082877290,-0.116531550,0.006267430
1640844854187670016,0.105259520,0.204093130,9.302562710,-0.064726170,-0.035360450,-0.015713270
1640844854190939904,0.147239660,0.192518090,10.125660900,-0.044339900,-0.074489430,-0.007939340
1640844854192639744,0.212094840,0.313454060,10.131329540,-0.052501260,0.000934300,-0.010786950
1640844854196889856,0.138767560,0.077393900,10.139305110,-0.073950000,-0.092290340,-0.035202500
1640844854197860096,-0.237572820,-0.007349850,10.326241490,-0.034222010,-0.120715800,-0.018744170
1640844854200950016,-0.251320270,0.063056380,9.233851430,-0.059154630,-0.094090390,-0.035797050
1640844854202859776,-0.209586780,-0.132412200,9.629420280,-0.065661980,-0.047536200,-0.021344430
1640844854205779968,-0.114784880,-0.019551420,9.897261620,-0.039093190,0.056335330,-0.018818670
1640844854207929856,0.036881960,0.032005670,10.244260790,-0.037905580,-0.056611010,-0.035043060
1640844854210729728,0.148568760,0.159307810,10.080887790,-0.021436810,-0.067347300,-0.000870230
1640844854212549888,0.159615000,0.036287380,9.657674790,-0.049804150,-0.055880840,-0.026339290
1640844854215809792,-0.191630770,-0.243730720,10.223489760,-0.007136170,-0.047720960,-0.020197030
1640844854221479936,-0.099243720,-0.115357590,9.313641550,0.041632350,-0.039169180,-0.034050640
1640844854221939968,-0.159980880,-0.013017600,9.866794590,0.002357360,-0.067986540,-0.055536620
1640844854222579968,-0.254901890,0.148354630,10.124366760,-0.032790010,0.057622790,-0.027951600
1640844854225849856,-0.151787270,0.022490480,10.187818530,-0.028987230,-0.094720710,-0.044545530
1640844854227599872,-0.427204280,0.083451340,10.397067070,0.046862660,-0.089952360,-0.036440790
1640844854230830080,0.188446120,0.430380640,8.691663740,0.033395000,0.002424420,-0.039634110
1640844854232649984,-0.156938750,0.377230260,10.575376510,-0.034007430,-0.003804270,-0.036785000
1640844854235879936,-0.267382680,0.627985240,10.382583620,-0.045144550,0.021983680,-0.017577410
1640844854238639872,0.095973820,0.301754620,9.729887960,-0.020445880,-0.178499530,-0.037290160
1640844854240699904,-0.357027110,0.273445100,10.169810300,0.028738380,-0.041478870,-0.027410690
1640844854242569984,-0.075802650,0.533769250,9.182827000,-0.014509260,0.014810260,-0.047020620
1640844854245779968,-0.463646590,0.199348940,11.109235760,-0.073558080,-0.053080920,-0.015671550
1640844854247569920,-0.304243710,0.369252980,10.073605540,-0.059117380,-0.033281750,-0.014467540
1640844854250840064,0.212251480,0.266610120,9.564654350,-0.036226220,-0.114931190,-0.046181690
1640844854252610048,-0.121065210,0.484968220,10.373195650,-0.038453940,0.045567750,-0.010374190
1640844854255769856,0.171531190,0.581876930,9.451333050,-0.084948550,-0.004710260,-0.034825500
1640844854257659904,-0.201665280,0.204194460,10.799796100,-0.078447160,-0.112520170,-0.017613170
1640844854260740096,-0.188908590,0.413388010,9.692303660,-0.060096380,-0.029000640,-0.008615850
1640844854262969856,-0.016982070,0.270544350,9.501438140,-0.082062180,-0.088629130,-0.020392240
1640844854266089984,-0.324811310,0.280681370,10.511617660,-0.099049520,0.035661460,0.016300380
1640844854269149952,0.202131640,0.099920820,9.558650970,-0.103676320,0.048300630,-0.006902220
1640844854270739968,-0.147249040,-0.207858700,10.855552670,-0.037427240,-0.075778370,-0.007814170
1640844854272610048,-0.087151620,0.218979840,9.627132420,-0.035005810,-0.043390690,0.001925230
1640844854275709952,0.076932090,0.042358260,9.211513520,-0.120358180,-0.080075860,-0.017297270
1640844854277599744,-0.167469560,-0.037471510,9.969999310,-0.114366420,0.058732930,0.008201600
1640844854280719872,-0.026629460,-0.056689810,9.945622440,-0.052170460,0.034140050,-0.031219430
1640844854283429888,-0.304591390,-0.115228880,10.776929860,0.024630130,-0.073994700,-0.011928380
1640844854285799936,-0.111524310,0.335361540,9.422429080,-0.032161170,-0.036194920,0.009106100
1640844854287739904,-0.259049330,0.004793010,9.854689600,-0.118274990,-0.047838690,0.000055130
1640844854290729984,-0.353203800,-0.085751360,9.931530000,-0.070068250,0.055924070,-0.005511940
1640844854293740032,-0.003928880,0.177561910,9.515038490,0.008268660,-0.056113300,-0.028206410
1640844854295709952,-0.230007900,0.199592950,10.370018010,0.016567110,0.001668930,-0.019890070
1640844854297619712,0.171834650,0.419614080,9.583455090,-0.070913120,0.047521290,-0.022189320
1640844854300879872,-0.388462100,-0.040072360,11.090103150,-0.083181270,-0.085276370,-0.012896960
1640844854303699968,-0.335257560,-0.068068040,9.775231360,0.008645650,-0.052887210,-0.009728970
1640844854305769984,-0.066715840,0.056193450,9.207983020,0.011351700,-0.096549100,-0.040191420
1640844854307639808,-0.476790700,0.262734680,10.293059350,-0.049962100,0.074405980,-0.008708240
1640844854311159808,-0.066214440,0.411229760,9.730883600,-0.095020230,0.002975760,-0.010372700
1640844854312579840,-0.352441610,0.117691990,11.030446050,-0.042498110,-0.139793770,-0.013042990
1640844854316069888,-0.041866650,0.582355080,9.375390050,-0.000189240,-0.027433040,-0.016106670
1640844854317619968,-0.060842660,0.616192520,9.911470410,-0.050346560,-0.069488590,-0.029295690
1640844854320719872,-0.575384380,0.542868790,10.948818210,-0.099110600,0.019992890,0.005820390
1640844854322589952,0.097182460,0.507246080,9.278388980,-0.100624580,-0.095467270,-0.009417530
1640844854326119936,-0.159914140,0.219618600,10.478695870,-0.046159330,-0.092190510,-0.003519650
1640844854328089856,0.106839050,0.515567900,9.378875730,-0.067014990,0.082995000,0.009697680
1640844854330700032,0.064330980,0.205130430,10.271187780,-0.114865600,-0.087983910,-0.001035630
1640844854332899840,-0.326186150,0.127217040,10.765193940,-0.118385260,-0.063529620,0.022004540
1640844854336480000,0.313508780,0.129989820,8.895437240,-0.094440590,-0.071913000,-0.023104250
1640844854337600000,-0.082845650,-0.026525050,10.305982590,-0.070112950,-0.020769240,-0.002644960
1640844854340679936,0.053386190,0.329686080,9.809737210,-0.108090050,0.078268360,0.005395710
1640844854342919936,0.034192520,-0.062392450,10.326315880,-0.112640870,-0.069329140,-0.010806320
1640844854345719808,-0.188382210,-0.019108680,10.253424640,-0.073570010,-0.033450130,0.018821660
1640844854347669760,0.052873710,0.303654940,9.116082190,-0.075340270,-0.044779480,0.004060570
1640844854350800128,-0.164734890,0.097054060,10.075050350,-0.107359900,-0.007593630,0.023834410
1640844854353580032,0.255244340,0.216312040,9.525341990,-0.127947320,0.100290780,0.006340440
1640844854355680000,0.113555480,0.041622760,10.390475270,-0.058853630,-0.009106100,-0.013233720
1640844854357639936,-0.007759860,0.018440070,10.195572850,-0.025324520,0.016124550,0.008338690
1640844854360750080,-0.079328790,0.137309690,9.628273960,-0.079950700,-0.075897580,-0.011472400
1640844854362700032,-0.494675820,-0.197235700,9.944372180,-0.106643140,-0.030836460,0.005514920
1640844854365959936,-0.143564660,-0.267529250,9.113814350,-0.062718990,0.045397880,-0.003468990
1640844854367679744,-0.355739830,-0.231814380,10.238108630,-0.001597400,0.041519110,-0.021076200
1640844854370699776,-0.120068710,0.043352920,10.106782910,-0.007198750,0.067032870,-0.001415610
1640844854372609792,-0.092249940,0.159530220,10.362388610,-0.066715480,-0.068001470,-0.007800760
1640844854375719936,-0.282413010,0.066984390,10.000089650,-0.076761840,-0.020252170,0.000672040
1640844854377600000,0.088099300,0.257986520,8.967888830,-0.020042060,-0.029404460,-0.009153780
1640844854380790016,-0.296651150,0.219301060,10.357760430,0.001549720,0.048162050,-0.017066300
1640844854382710016,-0.197080700,0.511860130,10.140540120,-0.034855310,0.062537200,0.001524390
1640844854385890048,-0.279283050,0.313861310,10.572971340,-0.056825580,-0.126896810,0.010147690
1640844854387620096,-0.411038580,0.076900040,10.003426550,-0.050902370,-0.027588010,0.013086200
1640844854391140096,0.037971950,0.219149600,9.103334430,-0.023025280,-0.001135470,-0.007601080
1640844854392609792,-0.436486120,0.088071440,10.796143530,-0.023865710,0.030744080,0.000029800
1640844854395769856,0.010840450,0.364360540,9.952298160,-0.062398610,-0.003264840,-0.005896390
1640844854397659904,0.191336960,0.345802040,9.934757230,-0.072284050,-0.093388560,-0.014622510
1640844854400859904,-0.047364900,0.400817220,10.163372990,-0.085599730,0.022345780,-0.007444620
1640844854402799872,0.015981030,0.464771510,9.828371050,-0.061920280,-0.001552700,0.003944340
1640844854405730048,-0.451589760,0.171879750,10.654190060,-0.036388640,-0.088605290,0.011846430
1640844854407660032,-0.216548430,0.384872560,9.550011630,-0.062228740,-0.045031300,0.023664530
1640844854410699776,-0.060147860,0.320986420,9.605002400,-0.101231050,-0.009603800,0.016091760
1640844854412580096,-0.093214320,0.241047810,10.379395480,-0.141337500,0.065812470,0.036720940
1640844854416039936,0.201907520,0.313118250,10.043472290,-0.089435290,0.001715120,0.020399690
1640844854417709824,0.107978430,0.041056830,10.204910280,-0.040569900,-0.063012550,0.003530090
1640844854420719872,0.201022060,0.287902980,9.486629490,-0.056952230,-0.008308890,0.015249850
1640844854422999808,0.002798150,0.183780630,9.597372060,-0.113953660,-0.009745360,0.015744570
1640844854425779712,0.013088640,-0.244030180,10.074706080,-0.126451270,0.033271310,0.024551150
1640844854427599872,0.057574000,-0.239501400,10.014545440,-0.031273070,0.043906280,0.012585520
1640844854430899968,-0.078646020,-0.172013240,10.118554120,0.005087260,-0.008532400,0.011405350
1640844854433189888,-0.014226410,0.131909800,9.912647250,-0.059743230,-0.001561640,0.030770900
1640844854435829760,-0.180497800,0.079063070,9.744323730,-0.118017220,0.020642580,0.025501850
1640844854437639936,0.027397910,-0.082578550,9.653704640,-0.065015260,0.009632110,0.011435150
1640844854440739840,-0.014867940,0.121280090,9.883292200,0.027604400,0.055812310,-0.001284480
1640844854442569984,0.124056080,0.202074530,9.774136540,-0.000306960,0.075927380,0.005002320
1640844854445750016,-0.028482950,0.026708630,10.470569610,-0.026939810,0.021611160,0.023248790
1640844854447859968,-0.217658240,-0.238285350,10.102191930,-0.026361640,-0.002160670,0.011497740
1640844854450870016,-0.100398610,-0.366971490,9.405042650,0.028622150,-0.042009360,0.011724230
1640844854452739840,-0.203192410,-0.154671150,9.485565190,0.051634020,0.078535090,0.024245680
1640844854455719936,-0.180759040,-0.028364210,9.958877560,-0.010283290,0.101855400,-0.010234120
1640844854457649920,-0.191023080,0.171208950,10.485590930,-0.006125870,0.003248450,0.012947620
1640844854460749824,-0.080624200,0.313653320,9.817124370,0.006593760,-0.026941300,0.004331770
1640844854462630144,-0.061970450,0.408492710,9.761496540,0.028760730,0.025317070,-0.001531840
1640844854466400000,-0.272982180,0.598301530,10.173119540,0.023859740,0.067959730,0.004667040
1640844854467629824,-0.348970560,0.486887510,10.385298730,-0.026959180,-0.030301520,-0.002625580
1640844854471309824,-0.145197910,0.330354870,9.810466770,0.004418190,-0.011463460,0.019204620
1640844854472630016,0.085708960,0.224576060,9.436646460,0.008565190,0.038447980,0.008022790
1640844854475719936,-0.250236420,0.217471810,10.597581860,-0.002625590,0.047449780,0.013265020
1640844854477639936,-0.041299120,0.256378620,9.998219490,-0.017625090,0.002034010,0.006380680
1640844854480819968,-0.055536380,0.195855510,10.108384130,-0.058597320,-0.070555490,-0.019359590
1640844854485859840,-0.088409620,0.423818920,9.789575580,-0.022654240,0.073750320,0.000837450
1640844854486389760,-0.069493380,0.438248630,9.984900470,-0.032398110,0.025203820,-0.013598800
1640844854487840000,-0.394854220,0.509264890,10.781888960,-0.042137510,-0.022074580,0.012239820
1640844854490690048,0.001516160,0.525952340,9.243910790,-0.049224500,-0.003439190,0.009213390
1640844854492699904,-0.041678760,0.232351200,10.126544950,-0.066417460,0.008584560,0.009468200
1640844854495739904,-0.148346650,0.435145380,10.215481760,-0.050364430,0.105875740,0.033947830
1640844854497819904,0.159380910,0.187609390,9.924655910,-0.072020300,-0.055493410,0.008541350
1640844854503680000,0.196463290,0.118393700,10.169913290,-0.069612270,0.021821260,0.022970140
1640844854504199936,0.599721970,0.204423070,8.957434650,-0.077019620,0.121748450,0.012427570
1640844854505729792,0.201052500,-0.133987560,10.716154100,-0.051659350,0.048992040,0.014074150
1640844854507979776,-0.139208930,0.021726820,10.503093720,-0.026662650,0.041005020,0.027740000
1640844854510840064,0.043594220,-0.163734020,9.304544450,-0.047630070,-0.073380760,0.007025900
1640844854512649984,-0.341991600,-0.132834480,9.888068200,-0.047947460,0.060704350,0.034424670
1640844854516059904,-0.034732080,0.099040980,9.223299030,-0.060732670,0.185313840,0.019517540
1640844854517699840,-0.033904330,-0.131512720,10.623602870,-0.019612910,0.078397990,0.015841430
1640844854522179840,-0.043144980,0.250600400,10.296819690,0.016050040,0.083406270,0.025600200
1640844854522719744,0.275149580,0.178880630,9.360410690,-0.015641750,-0.008538370,0.012139980
1640844854525869824,-0.001956280,0.032838690,9.878810880,-0.027658050,0.082992000,0.047875940
1640844854527619840,0.208457470,0.089324710,9.329758640,-0.028949970,0.146500750,0.017155710
1640844854530680064,-0.111659280,-0.183912010,10.500984190,0.026801230,0.070212790,0.013850630
1640844854533030144,0.048717800,-0.069321740,9.793200490,0.049507620,0.102408240,0.029324000
1640844854535939840,-0.132412240,-0.230067400,10.022321700,0.030088430,0.025698550,0.010964280
1640844854538669824,-0.401865780,-0.170610770,10.002628330,0.021784010,0.105550890,0.028952950
1640844854540689920,-0.092579730,-0.008699040,9.207847600,0.012452900,0.063763570,0.011689960
1640844854542660096,-0.383786290,0.053284910,10.188772200,0.038601460,0.093512240,-0.001491610
1640844854545699840,0.076991950,0.424619820,9.452620510,0.046813500,0.156885430,0.006257000
1640844854547699968,-0.318043410,0.300471990,10.847866060,0.039900840,0.022892650,-0.005321210
1640844854551159808,-0.366612320,0.504678730,10.090901370,0.042709710,0.062574450,0.021289290
1640844854552640000,0.010962150,0.389128450,9.233687400,0.019356610,0.005055960,0.010569390
1640844854555719936,-0.420636030,0.216846780,10.377738950,0.017298760,0.140111150,0.020290910
1640844854557679872,0.000345570,0.511066970,9.542458530,0.027942660,0.121879590,0.017683210
1640844854560740096,-0.138488230,0.240481390,10.665592190,0.023308400,-0.011429190,0.013914700
1640844854562639872,0.094176720,0.450915010,9.509868620,-0.003600120,0.114272530,0.016045570
1640844854565959936,0.181403520,0.341861100,9.662664410,-0.016000870,0.037594140,-0.008195640
1640844854568029952,-0.475264070,0.156385180,10.982063290,-0.000616910,0.098501160,0.009649990
1640844854571189760,-0.072564560,0.545568410,9.312629700,-0.011411310,0.017301740,-0.007572770
1640844854572739840,-0.321346460,0.398279160,10.259345050,-0.033403930,-0.014618040,0.006614620
1640844854575689984,-0.186996500,0.540134310,9.699655530,-0.068698820,0.184284170,0.012865660
1640844854577669888,0.012837600,0.395423000,10.052815440,-0.043167180,0.051157180,0.002968310
1640844854580889856,-0.332979710,0.322491290,10.910814290,-0.011889640,0.048314040,0.024931140
1640844854582870016,0.279479090,0.632877830,9.079887390,-0.057223440,0.050671400,0.006735330
1640844854585889792,0.074478120,0.284648540,10.038326260,-0.093568860,0.054433950,0.029565400
1640844854588809984,0.135621650,0.254983840,9.863626480,-0.097076610,0.165708380,0.038015840
1640844854590689792,0.331750360,-0.101599860,9.935701370,-0.028741360,0.066773610,0.006107990
1640844854593250048,-0.079397340,-0.236476590,10.523040770,0.015440590,0.066535180,0.020109120
1640844854595699968,0.108979390,0.048528730,9.401192670,-0.043517360,0.053657600,0.013814870
1640844854597779968,-0.264434280,-0.287260530,10.148216250,-0.094959150,0.076983870,0.016951560
1640844854601059840,-0.037734480,-0.172095510,9.603470800,-0.065824390,0.134895740,0.019988420
1640844854602690048,0.043864660,-0.002221980,9.786415100,0.016322730,0.102014840,-0.011268260
1640844854605710080,-0.011077700,0.242089300,10.025962830,0.017555060,0.154410320,0.007846950
1640844854607650048,0.100713510,0.383433100,9.848719600,-0.034274160,0.086882710,0.023749470
1640844854610689792,-0.320551630,0.020057720,10.392180440,-0.041796270,0.049521040,0.024659930
1640844854612659968,0.124473070,-0.137352120,9.189903260,0.016801060,0.092646490,0.030824550
1640844854615869952,-0.100526010,-0.217801680,9.807302470,0.064091390,0.132204590,0.007051230
1640844854617949952,-0.019382180,-0.153040630,9.911862370,0.031739470,0.199887170,0.012324750
1640844854620719872,0.032261700,-0.254881740,10.232275010,0.007946790,0.093925010,0.012004380
1640844854622669824,-0.282586190,-0.302153560,10.225068090,0.026462980,0.047215830,0.004711750
1640844854625809920,0.069193210,-0.023373550,8.951817510,0.070190440,0.066934530,-0.000949200
1640844854627640064,-0.185028310,0.042953920,9.911618230,0.063274800,0.159537810,-0.020532310
1640844854631609856,-0.281907080,0.333095340,10.373332020,0.031206010,0.190165640,-0.005489590
1640844854633379840,-0.223178180,0.434017360,10.409674640,0.063933430,0.029976670,-0.001110140
1640844854635809792,-0.344972640,0.386582020,10.008150100,0.055088110,0.028450790,0.010061260
1640844854637649920,-0.091559480,0.525974510,9.196786880,0.040513280,0.110109150,0.016357010
1640844854640709888,-0.266239200,0.363866030,10.154232030,0.038878620,0.148519870,0.000077490
1640844854642619904,-0.081150550,0.326829970,10.385083200,0.020848210,0.123851000,0.004886090
1640844854645769728,0.193715170,0.308237760,9.906699180,0.043103100,0.059828170,0.004744530
1640844854647650048,0.134919180,0.228687790,10.044874190,0.012922290,0.077688700,-0.000047680
1640844854650840064,0.120869230,0.277113560,9.925081250,-0.004532930,0.128743050,0.003716350
1640844854653260032,-0.059208340,0.013806970,9.989212040,0.018218160,0.093688060,0.003889200
1640844854655680000,-0.138501180,0.009976690,10.163950920,0.041244920,0.065596410,-0.000347200
1640844854657649920,-0.119621250,0.292122600,9.739063260,0.047522780,0.126546640,-0.001561640
1640844854660719872,-0.152268190,0.434305100,9.983823780,-0.050896410,0.088739410,0.006785990
1640844854662720000,-0.000610660,0.471901800,10.113118170,-0.059410930,0.144727540,0.017374750
1640844854666129920,0.188346420,0.327728870,9.638885500,0.009402630,0.152464230,-0.009652970
1640844854667680000,0.115953050,0.385025080,10.147235870,0.043843690,0.096964840,0.002364810
1640844854670830080,0.013481470,0.445188670,9.803180690,0.000341240,0.125138460,0.023311380
1640844854672639744,0.126234780,-0.104554820,9.609982490,-0.064378980,0.083255770,0.016853220
1640844854675709952,0.004113550,-0.357148290,9.993482590,-0.007273260,0.156568010,0.024004280
1640844854677799936,0.030761180,-0.343097150,9.682301520,0.050646070,0.180470960,-0.012277070
1640844854680919808,0.080819050,-0.263288530,10.159513470,0.048270820,0.128656610,0.005239250
1640844854682960128,-0.187280460,-0.138084440,10.152544020,0.001069900,0.140175220,0.009277460
1640844854686589952,-0.092237140,-0.243871910,9.678840640,-0.009004770,0.080254680,-0.009565060
1640844854687629824,-0.214966180,-0.061705380,9.619812970,0.069811950,0.133679780,-0.001415610
1640844854690749952,-0.132109150,0.217551990,9.423508640,0.057436520,0.186419460,-0.015525520
1640844854693339904,-0.220961030,0.190630580,10.429884910,0.052039340,0.167554620,-0.001612310
1640844854695709952,-0.179109110,0.071922210,10.247986790,0.061169270,0.112316020,0.008298460
1640844854697629952,-0.105268430,-0.043717030,9.867835040,0.083439040,0.056064130,0.003561380
1640844854700969984,-0.028166420,0.074052700,9.569241520,0.093868370,0.157506760,0.020717090
1640844854702710016,0.114273140,-0.053978690,9.763678550,0.030209130,0.182220340,-0.003401940
1640844854705699840,-0.165744720,-0.023425010,10.542118070,0.071814660,0.140057500,0.005717580
1640844854707660032,0.144747900,0.173595640,9.464173320,0.100864460,0.085946910,-0.002178550
1640844854711000064,-0.118770760,0.154958430,10.069375040,0.063274810,0.082573300,-0.010579820
1640844854712620032,-0.430906830,0.438197520,9.989071850,0.042688850,0.177741040,0.002768640
1640844854715819776,-0.518266320,0.190772580,10.364137650,0.040151180,0.045891110,-0.014792380
1640844854717700096,-0.671413420,0.331432100,10.365116120,0.095012790,0.070838630,0.010709470
1640844854720719872,-0.107924500,0.571294840,9.075541500,0.072449450,0.117410730,0.013391670
1640844854722619904,-0.312917110,0.417928250,10.716955180,0.018014010,0.136561710,0.028909750
1640844854725789952,0.043771810,0.550858140,9.868944170,0.003291670,0.152406100,0.050002340
1640844854728089856,0.328771710,0.151713520,9.912689210,0.040067740,-0.001738970,0.023826960
1640844854730700032,0.144150930,0.327180740,10.258605960,0.064641240,0.138431790,0.037680570
1640844854732879872,0.301471200,0.452923770,9.485329630,-0.009833280,0.114946060,0.014665720
1640844854736809984,-0.146235850,0.060937320,10.794888500,-0.037299100,0.035414100,0.040306150
1640844854737659904,-0.119478280,0.089806380,9.640830040,0.009058420,0.133340060,0.027951600
1640844854740759808,-0.069510500,-0.001562230,9.701763150,0.041179360,0.040282320,0.011540950
1640844854742990080,-0.455480810,0.306937900,10.380936620,0.027617810,0.131912510,0.049361590
1640844854745689856,-0.042421150,0.340014370,9.371929170,-0.060750550,0.101083540,0.043784090
1640844854747660032,-0.002722740,0.011397990,10.294568060,-0.028666860,0.088964400,0.068074470
1640844854750789888,0.135454040,0.202928020,9.775507930,0.034637750,0.177560760,0.040550530
1640844854753779968,0.241629170,0.058662790,9.999312400,0.045578180,0.071318460,0.031174720
1640844854755689984,0.022145300,0.023431190,10.100560190,0.012686850,0.104632980,0.065678370
1640844854757799936,0.065150010,-0.305503670,9.580349920,-0.016637150,0.080709160,0.041626400
1640844854760769792,-0.196880060,-0.538132190,10.053819660,0.054529310,0.100177530,0.042270120
1640844854762650112,0.073252210,-0.131898670,9.190118790,0.069592890,0.143003480,0.037652250
1640844854765979904,-0.042318180,-0.123088900,10.163168910,0.023595990,0.128842920,0.030693420
1640844854767680000,-0.062062070,-0.022848010,10.104968070,0.034336750,0.197911260,0.048404940
1640844854770769920,-0.005313980,-0.084810900,10.018042560,0.074259940,0.025337930,0.029784440
1640844854772610048,-0.477363850,-0.015292540,10.127580640,0.128307940,0.068305440,0.031559170
1640844854775739904,0.009701940,0.226730060,8.647151950,0.075025860,0.123409930,0.024376810
1640844854778279936,-0.510915340,-0.065138130,10.642417910,0.050975390,0.130233170,0.037883230
1640844854780669952,-0.301699220,0.093503180,9.934581760,0.097376120,0.165765000,0.051529710
1640844854783399936,0.031488360,-0.088918730,9.893712040,0.130718960,-0.009739400,0.040712950
1640844854786819840,-0.295007230,0.059200760,10.226091380,0.128997880,0.123977680,0.072713200
1640844854787629824,0.154458210,0.183766570,9.076271060,0.079329310,0.121051100,0.047110020
1640844854791529984,-0.248611580,-0.008353990,10.702982900,0.077557560,0.046089290,0.050614780
1640844854792649984,0.068505890,0.485980870,9.388585090,0.093513730,0.119799400,0.040021540
1640844854795719936,0.060203970,0.341022820,10.064990040,0.104139750,0.044104460,0.019244850
1640844854798019840,-0.581428290,0.444457020,10.886925700,0.103978820,0.117039680,0.048166520
1640844854800809984,-0.319492340,0.601663230,9.481189730,0.066663320,-0.017850100,0.024174160
1640844854803259904,-0.524789210,0.443720910,10.150015830,0.058434900,0.000555810,0.055648390
1640844854805969920,-0.017390760,0.788864790,9.068883900,0.013454260,0.176151100,0.058500470
1640844854807659776,-0.049559850,0.678922890,10.479452130,0.003460050,0.087818510,0.057019290
1640844854810710016,-0.054584290,0.539750640,10.746972080,0.040900710,0.081588340,0.079777840
1640844854812640000,0.354506820,0.350340520,9.435920720,0.040902190,-0.014393030,0.043708080
1640844854815849984,-0.130076360,0.112132830,10.257709500,0.036647920,0.021348890,0.056809190
1640844854817689856,0.038563010,0.191378800,9.417234420,-0.021743780,0.125914830,0.064043700
1640844854820729856,-0.049900120,-0.149824770,10.295702930,-0.032107530,0.033378600,0.059212750
1640844854822739712,-0.038964130,-0.002624220,10.159343720,0.027395790,0.107252600,0.062882910
1640844854825709824,0.225653680,0.227001820,9.537960050,0.014828150,0.048577800,0.039362910
1640844854827680000,-0.179241510,0.329834070,10.271096230,0.000298020,0.067375610,0.076045100
1640844854831399936,0.165034650,0.535648170,9.279582980,-0.038300450,0.075325370,0.072929270
1640844854833060096,-0.001392230,0.204731080,10.244894030,-0.022074580,0.036950410,0.072085860
1640844854835729920,0.070226180,0.279364530,9.657371520,0.036521260,0.145916640,0.077335540
1640844854837649920,0.165847660,0.051515690,9.848882680,0.027455390,0.054168700,0.064666550
1640844854840729856,-0.317325030,-0.331132140,10.709326740,0.019580130,0.102958110,0.085173560
1640844854842690048,0.111598960,-0.373392160,9.105562210,0.028052930,0.051838160,0.062669820
1640844854845729792,-0.303910370,-0.662737610,10.306518550,0.053319340,0.007198750,0.059583780
1640844854847950080,-0.020368560,-0.257197290,9.144140240,0.052395470,0.187537070,0.064846880
1640844854851169792,0.180693750,-0.240853400,9.810325620,0.049927830,0.063115370,0.038634240
1640844854852869888,-0.346521680,-0.042239030,10.929347990,0.082194810,0.124445570,0.066903230
1640844854855759872,0.135435210,0.322743060,9.124127390,0.098659110,0.011886660,0.057429090
1640844854857669888,-0.421629490,0.087127920,10.310491560,0.095722090,-0.027823450,0.082977120
1640844854860699904,-0.298138920,0.300038930,9.357437130,0.078321980,0.158298020,0.078721340
1640844854862639872,-0.185769620,0.067855340,9.885218620,0.105296100,0.055783990,0.047174100
1640844854866019840,-0.466429290,0.133318100,10.677717210,0.125683860,0.063163040,0.072619320
1640844854867669760,0.198854600,0.352997450,9.077933310,0.091023730,0.047160680,0.053055580
1640844854871099904,-0.122686040,0.037312150,10.271413800,0.080603370,0.028873980,0.071893620
1640844854872679936,-0.145822330,0.153121690,9.888085370,0.090639280,0.109422210,0.076636660
1640844854875729920,-0.122222880,0.022505110,9.979753490,0.121635200,-0.018385050,0.050398710
1640844854877699840,-0.337267490,0.103402670,10.185924530,0.120019910,0.035560130,0.066065790
1640844854880679936,-0.267868640,0.413941350,9.696722980,0.068201110,0.045566260,0.048603110
1640844854882989824,-0.514256300,0.229628950,10.510788920,0.058010220,-0.001019240,0.058412560
1640844854887960064,-0.188088770,0.406975980,9.715909000,0.089879340,0.033566360,0.063024460
1640844854888869888,-0.104979470,0.587932710,9.943548200,0.095175220,0.002315640,0.040735300
1640844854890689792,-0.157869820,0.658652660,10.352824210,0.059212750,0.091385850,0.067654250
1640844854892640000,0.069958580,0.760161400,9.888953210,0.007060170,-0.027313830,0.080961000
1640844854895729920,-0.095398900,0.434983520,10.282228470,0.016224390,-0.043694670,0.078302620
1640844854897689856,0.339328350,0.395706240,9.115193370,0.044927000,0.077709560,0.072038170
1640844854900859904,-0.037839150,0.228957550,10.367901800,0.036747750,0.014902650,0.056867300
1640844854905529856,-0.349200760,0.097094150,10.529279710,0.028850140,0.046421590,0.070332000
1640844854906159872,0.041018390,0.054970290,9.490792270,-0.002387170,-0.071935340,0.060194720
1640844854907660032,-0.412713080,-0.052861260,10.251441960,0.003460050,-0.003017490,0.077837710
1640844854910699776,0.089909860,0.245786430,9.069737430,0.004173820,0.106474740,0.071947280
1640844854912649984,0.053157370,0.027207130,10.419991490,0.024527310,0.030311950,0.071103870
1640844854921159936,-0.055557010,0.161494150,10.349649430,0.048223130,0.077973290,0.082418310
1640844854922099712,0.388397400,0.272360830,9.393693920,0.035700200,-0.048094990,0.068175790
1640844854922679808,-0.238057140,0.110133710,10.457717900,-0.003159050,-0.007380550,0.092358890
1640844854923200000,0.101066630,0.105531660,9.045564650,-0.001668930,0.069676340,0.079493230
1640844854926329856,-0.065710430,-0.261368870,10.122460370,0.069059420,0.020460780,0.050093240
1640844854927719936,-0.205475700,0.089584430,10.114202500,0.084804010,0.106482210,0.070269410
1640844854930729984,0.100857830,0.151722670,9.503369330,0.036329030,-0.001676380,0.070199380
1640844854934819840,-0.461987230,-0.217835100,10.724234580,0.012551250,-0.003981590,0.081971290
1640844854935789824,-0.152515740,-0.123429940,9.206390380,0.063154100,0.019322340,0.063022980
1640844854938239744,-0.283870910,-0.278076170,9.827533720,0.136420130,-0.030693420,0.043931610
1640844854940709888,-0.325087930,-0.039294190,10.027798650,0.111606720,0.105014450,0.059741740
1640844854942659840,-0.173254130,0.125092070,9.949534420,0.059424340,0.014396010,0.054852670
1640844854945669888,-0.533617500,-0.131713730,10.892282490,0.071653710,-0.070862480,0.070227690
1640844854947670016,-0.151385230,0.106701870,9.211191180,0.122235740,-0.030736630,0.068411240
1640844854951160064,-0.170456280,0.175631640,9.652441980,0.141085710,-0.020055480,0.054638100
1640844854952750080,-0.300834660,0.449834170,10.323498730,0.088533780,0.092521320,0.058099640
1640844854955760128,-0.036989470,0.682371740,9.946374890,0.038397310,-0.042627760,0.050210960
1640844854958279936,-0.199394850,0.380542400,10.327138900,0.063204770,-0.090357660,0.067187850
1640844854960790016,-0.023563030,0.437719320,9.475308420,0.104548040,-0.007154050,0.061987340
1640844854962689792,-0.452237250,0.266578410,10.312494280,0.117303430,-0.051389640,0.052939360
1640844854966169856,-0.613211570,0.273787740,10.341097830,0.078582760,-0.059612110,0.066465150
1640844854967969792,-0.244867380,0.383043350,9.487323760,0.012041630,-0.104938440,0.059066710
1640844854971049984,-0.342920240,0.250949800,10.032924650,0.012078880,-0.025255980,0.059455640
1640844854972630016,-0.065037660,0.558228790,9.909815790,0.041802230,-0.002090630,0.054727500
1640844854975709952,-0.089495850,0.528228340,10.427581790,0.057260700,-0.101037340,0.041507190
1640844854977639936,0.076078530,0.575853820,9.797669410,0.035637620,-0.075900550,0.070229180
1640844854980749824,0.254992310,0.626379550,9.552923200,-0.009875000,-0.084197520,0.069436440
1640844854982990080,-0.191019770,0.354587940,10.452644350,-0.033175950,-0.034734610,0.080056490
1640844854985799936,0.221344500,0.240319480,9.526832580,-0.003325940,-0.066307190,0.084225830
1640844854987729920,-0.117641270,-0.041214100,10.219602580,0.043845170,-0.103569040,0.049741570
1640844854990680064,-0.126365150,0.101893850,9.579500200,0.025133790,-0.007481870,0.055950890
1640844854992780032,-0.134594770,0.158894630,9.689979550,-0.029025980,-0.124987980,0.071249900
1640844854995679744,-0.474403440,-0.051568980,10.334071160,-0.045636300,-0.068655600,0.060014430
1640844854998179840,0.231423180,0.113918880,8.918052670,-0.004725160,-0.033266830,0.040338940
1640844855001159936,-0.096785840,0.092224160,10.388723370,0.045199690,-0.057475260,0.041438640
1640844855002729984,-0.049192830,0.229886790,9.963284490,0.031673910,0.006219750,0.060306490
1640844855005839872,0.106154870,0.013964500,9.871357920,-0.000631810,-0.155420600,0.057855240
1640844855007719936,-0.467806820,-0.359660690,10.344377520,0.022979080,-0.123757130,0.072343630
1640844855010659840,0.129605490,-0.276540310,8.488982200,0.073544680,-0.068204100,0.048595670
1640844855012630016,-0.136790470,-0.286000070,9.946875570,0.075601060,-0.028310720,0.047737370
1640844855015820032,-0.193780480,0.061280990,10.322032930,0.019183750,0.034713750,0.051653400
1640844855017949696,0.092639670,0.053188330,9.969192500,0.031545760,-0.160366310,0.036375220
1640844855020720128,-0.269709440,-0.134889980,10.133469580,0.086861860,-0.152173650,0.044143200
1640844855022660096,-0.122555600,0.261530040,8.912881850,0.122775150,-0.059497370,0.028929120
1640844855025819904,-0.431175710,0.168513850,10.086140630,0.091028220,-0.094747540,0.026738640
1640844855027760128,-0.573356630,0.232162730,10.233409880,0.036922100,-0.087106230,0.049684950
1640844855031139840,-0.112367610,0.271963720,9.381787300,0.065578530,-0.155615790,0.039507450
1640844855032679936,-0.215689700,0.097895520,10.093392370,0.091931230,-0.091533360,0.043486060
1640844855035840000,-0.040487780,0.475189030,9.864818570,0.085757670,-0.060342260,0.038234890
1640844855038240000,0.002356530,0.401858900,10.089159010,0.058311230,-0.155532360,0.018969180
1640844855040659968,0.003535340,0.411545810,9.850544930,0.020080800,-0.135524570,0.030113750
1640844855042670080,0.077383420,0.599868480,9.471206670,0.040841100,-0.119797910,0.031365450
1640844855045719808,-0.294254540,0.319961460,10.325984950,0.047679260,-0.123503800,0.025206800
1640844855047819776,-0.374273270,0.415504900,10.065651890,0.043576960,-0.151005390,0.039322680
1640844855051139840,-0.428121360,0.247038410,9.825442310,0.042322280,-0.189234330,0.031904880
1640844855055800064,-0.388136980,0.172466020,9.912934300,0.004783270,-0.114417080,0.037404900
1640844855056219904,-0.188662780,0.575154300,9.869998930,-0.010684130,-0.106091800,0.039130450
1640844855057709824,0.021653130,0.515714940,10.096405980,-0.033569340,-0.146408390,0.026755030
1640844855060770048,0.459256170,0.526776670,9.646652220,-0.024735930,-0.107049950,0.028367340
1640844855062809856,0.352517370,0.526797350,9.917802810,0.016817450,-0.108079610,0.013636050
1640844855065729792,0.069949120,0.440186740,10.277341840,-0.012858210,-0.149247080,0.017142300
1640844855068159744,0.015702780,0.445911470,9.727877620,-0.065504020,-0.209002200,0.035911800
1640844855071480064,-0.142319590,0.019975500,9.490043640,-0.076590480,-0.142551960,0.036333510
1640844855072699904,0.001684200,-0.036569070,9.656736370,-0.031171740,-0.045438110,0.031431020
1640844855075719936,-0.196460960,0.031477780,10.326162340,0.013002750,-0.070625550,0.033563380
1640844855077949952,-0.105809630,0.040292930,10.156970980,-0.034222010,-0.170041640,0.040239100
1640844855080699904,0.039166630,0.069790310,9.659690860,-0.068008910,-0.168566420,0.037588180
1640844855082700032,0.046002460,-0.086656700,9.322896960,-0.051176550,-0.083068010,0.024634600
1640844855085779968,0.243390680,0.052468870,9.658773420,0.001187620,-0.075718770,0.019603970
1640844855088249856,0.137520570,0.086572410,10.213286400,0.022396450,-0.053732100,0.026163460
1640844855090659840,0.145288230,-0.161587240,10.025540350,-0.002500410,-0.135032830,0.022026900
1640844855093309952,-0.050884340,-0.147096740,10.037606240,0.015956160,-0.179100050,0.048595660
1640844855095879936,-0.109818230,-0.146487850,9.174057960,0.012049080,-0.106100760,0.044031440
1640844855097730048,0.155138340,-0.193227340,9.344485280,0.003775950,-0.073127460,0.045868750
1640844855100869888,-0.003135530,-0.059995360,10.150660510,0.045661620,0.024685270,0.037653740
1640844855102680064,0.185117130,-0.096764880,9.997670170,0.062881420,-0.098992880,0.014770030
1640844855105700096,-0.075417960,-0.039015610,10.248728750,0.095407670,-0.178326670,0.035122030
1640844855107659776,-0.199931370,-0.081222330,9.307181360,0.048147140,-0.123617080,0.014232100
1640844855110880000,-0.122050660,-0.327699540,9.395502090,0.058382740,-0.096461160,0.020599370
1640844855113189888,-0.356607940,-0.211759540,9.917277340,0.117249790,-0.017659370,0.026224550
1640844855115699968,-0.041176310,-0.135660690,9.831089970,0.118047000,-0.091001400,0.008319320
1640844855117959936,-0.101547460,-0.013220980,10.208417890,0.121440000,-0.107301770,0.044400990
1640844855121409792,-0.062647440,0.062863160,9.647511480,0.090439630,-0.128458460,0.027029220
1640844855124460032,0.026812930,-0.038395990,9.500344280,0.112283230,-0.140731050,0.018720330
1640844855125789952,0.126912770,0.256546710,9.274653430,0.137296330,-0.047050420,0.013120470
1640844855128800000,0.063502240,0.293755230,10.084379200,0.108671190,-0.051856040,-0.011622910
1640844855130759936,-0.281186250,0.308958590,10.716575620,0.120097380,-0.115436320,0.007031860
1640844855132819968,-0.184029850,0.240382890,9.577358250,0.117519520,-0.228351380,0.006191430
1640844855135959808,-0.344069990,0.036053410,9.610960960,0.127074110,-0.142264340,0.010411440
1640844855137939968,-0.125467140,0.241616870,9.299372670,0.121226910,0.017260020,0.014173990
1640844855140790016,-0.282081370,0.212949720,10.656369210,0.088478630,-0.111007700,0.004881620
1640844855143329792,-0.129350260,0.442280860,10.328375820,0.106164810,-0.155784170,0.009515880
1640844855146179840,0.401604030,0.559033570,9.023180960,0.079996870,-0.176796330,-0.009095670
1640844855147790080,-0.090045740,0.506984470,10.308890340,0.071960680,-0.081270920,-0.007417800
1640844855150820096,-0.020791840,0.669901850,9.845734600,0.076262650,-0.054641070,-0.006908180
1640844855152730112,-0.145031200,0.457736520,10.336986540,0.056324900,-0.231368850,-0.012163820
1640844855156069888,-0.074675840,0.496260670,9.788298610,0.053878130,-0.100123880,0.016413630
1640844855162889984,0.767202970,0.369612280,8.775679590,0.021092590,-0.028225780,0.015516580
1640844855163769856,1.268964170,0.005389060,10.027075770,0.047948960,0.052842510,0.047926610
1640844855164379904,2.563612460,-0.010921380,9.035861020,0.101776410,0.192868680,0.058542190
1640844855165740032,3.312432290,-0.369359850,9.591519360,0.114558640,0.190791500,0.048285730
1640844855167849984,2.960238220,-0.363912760,10.102338790,0.103557120,0.248794260,0.080600390
1640844855170859776,2.552261590,-0.169818340,9.105098720,0.059108440,0.142788890,0.073297330
1640844855172780032,0.991402920,-0.514149490,9.525981900,0.053450470,0.156518830,0.073306260
1640844855176239872,0.050820830,-0.133661050,8.433994290,0.112435210,0.269775030,0.059397510
1640844855177779968,-1.160334940,0.276906760,9.583742140,0.140465780,0.285285650,0.042428070
1640844855180770048,-1.544189210,0.639139590,10.124691960,0.071680550,0.382773610,0.073425470
1640844855182759936,-1.016191720,0.671287060,10.143707280,0.054721530,0.331510630,0.088246170
1640844855185819904,-0.342602850,0.375261100,10.035731320,0.103700160,0.397266480,0.076650090
1640844855187769856,0.868680540,0.218284960,9.297059060,0.177756000,0.446616170,0.098165890
1640844855191670016,1.474216580,-0.093432520,9.446212770,0.178611290,0.469543130,0.107905280
1640844855193169920,1.617529630,-0.429576160,9.624691960,0.113308440,0.386384130,0.082719330
1640844855195739904,1.396627070,-0.670388640,9.133654590,0.117738540,0.340025160,0.079268220
1640844855197739776,0.828431840,-0.575963260,8.724385260,0.137121980,0.351612300,0.043942040
1640844855200849920,-0.163976880,-0.280542640,9.704225540,0.163134950,0.443367750,0.026403370
1640844855202689792,-0.708821480,0.158115600,9.795136450,0.154761980,0.436644320,0.022186340
1640844855205720064,-1.419684770,0.243264480,10.642272950,0.156454770,0.324846890,0.034701840
1640844855209959936,-1.261014100,0.348901990,9.277105330,0.192813620,0.419564600,0.052621970
1640844855210880000,-1.038355710,0.083585840,9.493189810,0.206613540,0.364148620,0.054539740
1640844855212750080,-0.844898520,-0.200504090,9.984395980,0.247733320,0.470215170,0.061094770
1640844855215709952,0.315117660,-0.169697330,8.809618000,0.239883410,0.398205280,0.051054370
1640844855217779968,0.623268190,-0.482639340,10.219721790,0.219188660,0.398554000,0.071942820
1640844855220989952,1.147329690,-0.178332300,9.353977200,0.216338080,0.503602800,0.057670480
1640844855223160064,0.930946050,-0.200195400,10.349121090,0.222489270,0.307136800,0.035546730
1640844855226349824,0.313452690,0.158278820,9.787329670,0.249947650,0.365020330,0.047016140
1640844855230209792,0.261675660,0.586466610,8.398782730,0.215418650,0.302860140,-0.017231700
1640844855230850048,-0.902175610,0.666551590,10.282794000,0.177335770,0.414706830,-0.008144980
1640844855232689920,-1.181938170,0.949202180,9.604981420,0.176869380,0.397671820,-0.017955900
1640844855235989760,-1.328473570,0.564140800,10.444694520,0.214542430,0.241704260,-0.021208820
1640844855237880064,-1.260549070,0.502711000,9.901232720,0.228175550,0.385369450,0.030857330
1640844855240849920,-0.444818970,0.193327310,9.406288150,0.203661620,0.348010660,0.034727160
1640844855242899968,-0.288313330,-0.152127370,10.786279680,0.172865390,0.399959120,0.069077300
1640844855245990144,0.867862460,-0.068385440,8.930713650,0.165590630,0.366510450,0.069487090
1640844855247819776,1.177440640,-0.338354410,9.770134930,0.198057340,0.311855970,0.030316420
1640844855250989824,1.016857980,0.122791010,9.706721310,0.180269790,0.459057180,0.006943940
1640844855252719872,0.701807980,0.415071670,9.706987380,0.149005650,0.281779500,-0.039964910
1640844855255960064,-0.349120140,0.573429170,10.586282730,0.128726680,0.244839520,-0.035375360
1640844855257799936,-0.587433400,1.046648260,8.876250270,0.105406330,0.302503970,-0.044944870
1640844855260779776,-1.241271970,0.865995410,9.949788090,0.123415890,0.286272200,-0.025287270
1640844855263109888,-1.338372710,0.919005570,9.955773350,0.116811680,0.404667880,0.003159050
1640844855265689856,-0.640655640,0.569549380,9.441542630,0.115361820,0.308041300,-0.001208480
1640844855269059840,-0.497414410,0.001420050,10.387015340,0.115875900,0.322786000,0.011636320
1640844855270979840,0.382425430,-0.058519200,9.245038990,0.103053470,0.353978570,0.003014510
1640844855272819968,0.668758630,-0.709207000,9.839311600,0.106488180,0.272671880,0.002250080
1640844855275800064,0.857530530,-0.859032690,9.669607160,0.136494650,0.372813640,-0.004640220
1640844855279729920,0.872685020,-0.701081450,9.432767870,0.178502530,0.327661720,-0.032274430
1640844855281049856,0.107056690,-0.663785820,10.271465300,0.180289150,0.274810190,-0.010880830
1640844855282739968,-0.218756420,-0.039700310,9.216644290,0.143188240,0.265318190,-0.023654100
1640844855285769984,-0.725479540,0.003378430,9.454445840,0.135424750,0.240632890,-0.043652960
1640844855288029952,-0.908730920,0.432685490,9.401724820,0.174976920,0.343978430,-0.051268940
1640844855290749952,-0.799592020,0.814288140,9.575329780,0.206451150,0.320285560,-0.081871460
1640844855292780032,-0.814748350,0.544517870,10.353385930,0.184400380,0.293861360,-0.061340640
1640844855297109760,-0.423138260,0.358034940,9.847693440,0.180563320,0.222840880,-0.042687350
1640844855298169856,-0.209766920,-0.472451980,9.515464780,0.223597930,0.210592180,-0.042320800
1640844855301659904,0.247484560,-0.921534000,9.080013280,0.257006380,0.282335310,-0.023798650
1640844855302879744,0.325968060,-0.997792180,9.693550110,0.273607700,0.311484930,-0.027956070
1640844855306010112,0.468906020,-1.210233930,9.889277460,0.257331160,0.275312360,-0.035884980
1640844855307760128,0.330046560,-0.913991330,9.803970340,0.292645420,0.178979310,-0.045664600
1640844855310749952,-0.116836640,-0.503961860,9.361695290,0.315353330,0.194738840,-0.083173830
1640844855313159936,-0.369444760,0.065899680,9.260729790,0.305308490,0.204893980,-0.102445510
1640844855318240000,-1.056978820,0.737595680,9.930636410,0.301010910,0.219233350,-0.114960990
1640844855319320064,-1.183547970,0.967892890,9.581516270,0.277779970,0.156725910,-0.124964130
1640844855322389760,-1.080458280,1.073430540,9.531058310,0.315634940,0.128072520,-0.086475910
1640844855323239936,-1.121174930,0.791865710,9.748145100,0.326962800,0.199097390,-0.087209050
1640844855328259840,-0.524823370,0.291276720,9.755806920,0.309249760,0.154039280,-0.069825360
1640844855333060096,-0.285427810,-0.064381150,9.974494930,0.323845510,0.114211460,-0.068904460
1640844855333659904,0.436097890,-0.486025120,9.094399450,0.286774340,0.152951480,-0.085254020
1640844855335990016,0.462717560,-0.573988620,9.846128460,0.296463070,0.151832420,-0.099606830
1640844855336869888,0.015366200,-0.438891110,10.233423230,0.301811070,0.085614610,-0.126494440
1640844855337769984,0.031063960,-0.278663370,9.389510150,0.301177830,-0.000761450,-0.149263430
1640844855342589952,-0.494514970,0.241153940,9.402653690,0.311832160,0.054633630,-0.144299860
1640844855343219968,-0.944523390,0.699753460,9.726519580,0.275903880,0.126376730,-0.157958240
1640844855345809920,-1.158807160,1.184716460,10.210180280,0.254751710,0.005538760,-0.136950580
1640844855347849728,-1.124771000,1.279413100,9.747014050,0.240568860,-0.028777130,-0.130619120
1640844855351009792,-0.476857600,1.137829900,9.023896220,0.242549180,0.059863930,-0.144605350
1640844855353070080,-0.416412380,1.042726400,10.050414090,0.252123210,0.088664890,-0.145910700
1640844855355779840,-0.315447960,0.666804730,10.423127170,0.199727700,0.006279350,-0.150501730
1640844855360899840,0.280206620,0.212888540,9.636676790,0.171205400,-0.099095710,-0.143292550
1640844855361489920,0.143916290,-0.329290810,9.623284340,0.195310990,-0.029909610,-0.146819650
1640844855362769920,0.279045550,-0.529458820,9.326425550,0.218252810,0.032953910,-0.143311920
1640844855366279936,-0.075876640,-0.502800880,10.197302820,0.230890510,-0.018008060,-0.141394120
1640844855369050112,-0.402003530,-0.305272310,10.086110120,0.186021630,-0.080269580,-0.142771010
1640844855370749952,-0.219929010,0.123753070,9.279940610,0.165493760,-0.109243390,-0.159826890
1640844855372779776,-0.643842460,0.469550490,9.655144690,0.171086210,-0.019258260,-0.182677820
1640844855376139776,-0.510954980,0.908643960,9.545458790,0.181803110,-0.011803210,-0.190086650
1640844855377819904,-0.654812930,0.973100480,10.232841490,0.199070570,-0.076292460,-0.193606320
1640844855380739840,-0.815229950,0.660314980,9.970370290,0.195950280,-0.133533790,-0.189653040
1640844855382989824,-0.442646350,0.397513390,9.183909420,0.201745350,-0.175288320,-0.168603670
1640844855385799936,-0.537167490,-0.162177030,9.572139740,0.179336980,-0.089824200,-0.154124200
1640844855387949824,0.098667340,-0.619460880,9.294763570,0.175090180,-0.047662850,-0.148917750
1640844855391049984,0.183572580,-0.818333390,10.120069500,0.237448480,-0.077231210,-0.164160120
1640844855392740096,0.171064060,-0.840862390,9.948409080,0.255459520,-0.128477810,-0.179950880
1640844855395849984,0.154811100,-0.545802180,9.505476000,0.243923100,-0.230573160,-0.190030050
1640844855397789952,-0.482693310,-0.385299800,9.631443020,0.226281610,-0.188922930,-0.204831390
1640844855400829952,-0.455339100,-0.122400970,8.941186900,0.247676670,-0.157381590,-0.220604260
1640844855402690048,-0.785035250,0.333197710,9.779677390,0.316500690,-0.159062450,-0.221002120
1640844855406019840,-0.920679150,0.557605330,10.019340520,0.295364860,-0.139808670,-0.218702900
1640844855407800064,-0.693061350,0.597754840,9.897228240,0.270554450,-0.256276190,-0.193537820
1640844855410849792,-0.817712190,0.409672830,9.708933830,0.283424500,-0.261907220,-0.193013240
1640844855412989952,-0.130688150,0.250430760,8.584930420,0.271709290,-0.208780170,-0.198477520
1640844855416119808,-0.030092140,0.130353090,9.609856610,0.295080240,-0.157868880,-0.205725450
1640844855417739776,-0.084049980,-0.059410820,10.190073010,0.282800200,-0.166536880,-0.226038690
1640844855420879872,0.075336880,-0.160919220,9.896137240,0.291264090,-0.364235070,-0.211425160
1640844855422849792,-0.344819490,-0.290041510,9.702322960,0.301386510,-0.333103540,-0.214143140
1640844855425819904,-0.430540740,-0.310205400,9.214162830,0.285466050,-0.255805250,-0.225666200
1640844855428150016,-0.894037720,-0.020101480,10.202246670,0.309199120,-0.281411410,-0.219206530
1640844855430799872,-0.966047700,0.345509110,9.889499660,0.289566810,-0.322647390,-0.224341500
1640844855432780032,-0.350745380,0.751913070,9.024036410,0.272899900,-0.348503890,-0.220929130
1640844855435840000,-0.703533710,1.054709080,9.983643530,0.248792800,-0.286872710,-0.232681680
1640844855437709824,-0.403561710,1.150082470,9.696409230,0.225013540,-0.326819780,-0.236056790
1640844855440790016,-0.343117680,1.001803640,9.906663890,0.238217430,-0.432536100,-0.226438080
1640844855442829824,-0.413738010,0.728852870,9.698200230,0.231932130,-0.375291790,-0.240695510
1640844855446060032,-0.058600970,0.462809530,9.387582780,0.198987160,-0.353810280,-0.226412760
1640844855447949824,-0.403796790,0.095037420,10.245092390,0.175800950,-0.391085540,-0.214557380
1640844855450769920,-0.145923690,-0.299674060,9.445920940,0.173135150,-0.388513590,-0.220026110
1640844855456470016,-0.066547240,-0.383101700,9.368817330,0.225785420,-0.438341560,-0.233395440
1640844855457100032,-0.401444410,-0.164944370,9.721023560,0.220188540,-0.392030180,-0.233706860
1640844855459329792,-0.033792340,0.179385900,9.269538880,0.158368080,-0.408427510,-0.233003530
1640844855461550080,-0.232760520,0.291217030,10.081588750,0.140194590,-0.408922140,-0.237628830
1640844855463769856,-0.149924040,0.461126920,9.678179740,0.182245700,-0.372991060,-0.255453590
1640844855465819904,-0.189139860,0.720446940,9.705689430,0.237090920,-0.465221790,-0.260061060
1640844855467799808,-0.719591140,0.611489470,9.833405490,0.199115290,-0.468777180,-0.237736120
1640844855470899712,-0.379643050,0.414513890,8.821050640,0.138250040,-0.493748580,-0.226694380
1640844855476599808,-0.460420190,-0.116628220,9.418743130,0.161628430,-0.429578160,-0.227731470
1640844855479630080,-0.152379200,-0.253247890,9.374969480,0.212284940,-0.378546180,-0.238126550
1640844855481259776,0.203105270,-0.142991390,9.880292890,0.221842570,-0.428114890,-0.249341170
1640844855481989888,-0.041844810,-0.314434860,10.272958760,0.176519200,-0.451755610,-0.249224930
1640844855482729984,-0.016369910,-0.382151900,9.542849540,0.186857600,-0.565303920,-0.241571680
1640844855485760000,-0.452060430,-0.455050920,9.263040540,0.269620180,-0.558190170,-0.272116150
1640844855487729920,-0.525826510,-0.187746520,8.815907480,0.257688760,-0.469118450,-0.280350450
1640844855490799872,-0.598548650,0.224399730,9.776090620,0.227083300,-0.451324940,-0.272661480
1640844855492819968,-0.741646530,0.388695690,10.350696560,0.201088230,-0.495611190,-0.266665310
1640844855498419968,-0.243019240,0.607803110,9.634498600,0.223186640,-0.603848870,-0.252181320
1640844855499169792,-0.288426400,0.788529040,9.601656910,0.243982690,-0.519153480,-0.253933700
1640844855500789760,-0.071769410,0.817633690,9.413652420,0.196415200,-0.471127120,-0.257690250
1640844855502720000,-0.219684540,0.715566460,10.093833920,0.182288900,-0.567214250,-0.248476910
1640844855505719808,-0.273670080,0.323920430,9.566859250,0.188827510,-0.588192160,-0.262184470
1640844855507750144,-0.135461910,0.054849590,9.266917230,0.209724950,-0.611589910,-0.266325560
1640844855512509696,-0.601634320,0.097919170,10.018622400,0.203399360,-0.545486810,-0.264751940
1640844855514629888,-0.480301530,-0.089947530,9.843051910,0.147143040,-0.575104530,-0.274641870
1640844855515769856,-0.329171150,0.042235510,10.000563620,0.163015750,-0.622911870,-0.267577260
1640844855517799936,-0.213253840,0.433420660,9.615742680,0.170497640,-0.563676710,-0.289693500
1640844855520740096,0.122925990,0.778275550,9.369535450,0.123360780,-0.590483960,-0.270147680
1640844855522680064,-0.024821510,0.926530240,9.839577670,0.104297720,-0.589871410,-0.257144900
1640844855525819904,0.183908220,0.671183290,9.373008730,0.120267290,-0.582528230,-0.282967150
1640844855528559872,0.048959360,0.686279650,9.814791680,0.154505710,-0.621400830,-0.261625740
1640844855530909952,-0.293545420,0.584800180,9.920747760,0.108292720,-0.586453260,-0.249171290
1640844855534329856,-0.052751630,0.042127820,9.584675790,0.051313650,-0.625400360,-0.253723620
1640844855535779840,-0.085007940,-0.148128210,9.661130910,0.095839810,-0.571689010,-0.263093410
1640844855537699840,0.028807930,-0.293935180,9.329339030,0.133189560,-0.530018030,-0.284087660
1640844855540769792,0.046275260,-0.165818630,9.802762990,0.134699060,-0.586323560,-0.270269870
1640844855543360000,-0.258160440,0.006417330,9.732070920,0.092776140,-0.616508840,-0.278641370
1640844855546579712,-0.149291200,-0.176708160,9.431005480,0.071552420,-0.664864540,-0.284232200
1640844855547719936,-0.395070940,-0.050533190,9.625201230,0.158408330,-0.600394730,-0.287729590
1640844855554439936,-0.454490300,0.184024410,9.575727460,0.170086370,-0.571641390,-0.309777320
1640844855554949888,-0.375361170,0.256574450,10.228763580,0.133259640,-0.617899060,-0.290240440
1640844855555650048,-0.437906150,0.309485050,9.941688540,0.119242090,-0.621227980,-0.284829740
1640844855557819904,-0.060541930,0.106080740,9.310026170,0.137376830,-0.702962400,-0.279294040
1640844855560779776,-0.088913060,0.208533380,9.332740780,0.173898090,-0.595686020,-0.264388380
1640844855562789888,0.169252570,0.255796050,9.222741130,0.143641260,-0.561820090,-0.304529130
1640844855565739776,0.080684740,0.246867630,10.463733670,0.111335540,-0.632445570,-0.292004700
1640844855567749888,0.105505760,0.319776740,9.759016040,0.131852950,-0.640252410,-0.290809630
1640844855570769920,0.022704160,0.064046840,9.694602010,0.139296080,-0.703434710,-0.313377470
1640844855572739840,-0.526212930,0.262289610,10.191726680,0.158226500,-0.623106960,-0.296656820
1640844855576059904,-0.573813560,0.207309470,9.357339860,0.132966040,-0.667333660,-0.311908220
1640844855577809920,-0.779825570,0.190626560,10.105175970,0.122267020,-0.737548050,-0.288105010
1640844855580829952,-0.415918710,0.607360540,9.169242860,0.117155920,-0.594447610,-0.289808300
1640844855582680064,-0.058475800,0.616814320,9.769212720,0.070232160,-0.645412560,-0.306521390
1640844855585680128,-0.072755380,0.885278700,10.722986220,0.067397970,-0.605121430,-0.266596760
1640844855587780096,0.459112050,0.714917480,9.568623540,0.086833560,-0.673762080,-0.283841880
1640844855594029824,0.284464690,0.455668630,10.314060210,0.095808520,-0.741718770,-0.286218610
1640844855594830080,0.150820310,0.756184340,9.441793440,0.069284450,-0.609305500,-0.270061220
1640844855595820032,0.186748300,0.145857710,9.329906460,-0.009474160,-0.706121500,-0.279539910
1640844855597730048,-0.198291000,-0.078621010,10.194858550,0.037820650,-0.629431130,-0.267341820
1640844855600839936,0.009302650,0.009454020,9.218592640,0.092282910,-0.602293130,-0.306026730
1640844855602749952,-0.293811680,-0.013926780,10.378468510,0.064958650,-0.699475530,-0.293500810
1640844855605729792,-0.443704930,0.491276980,9.967338560,-0.002442300,-0.636669990,-0.280903280
1640844855608569856,0.085235630,0.141319600,9.109911920,-0.032848120,-0.685544430,-0.307962300
1640844855610839808,-0.251332910,0.189597090,10.267072680,0.066337000,-0.609424830,-0.290341760
1640844855612769792,0.050060120,0.615684150,9.305148120,0.099189590,-0.592681940,-0.304520190
1640844855618429952,0.090957320,0.198374270,10.061817170,0.030753020,-0.716300430,-0.287507500
1640844855619160064,-0.044207820,0.104011780,10.022903440,0.011427700,-0.627906680,-0.263805720
1640844855620679936,0.322128360,-0.273941730,9.192676540,0.049476330,-0.655600550,-0.306567640
1640844855622839808,0.012812830,-0.349883880,10.211326600,0.100314640,-0.636197690,-0.304496380
1640844855626459904,0.167089400,0.126281350,9.388378140,0.075894610,-0.553308550,-0.321123090
1640844855627820032,0.031120380,-0.120972100,10.109992980,0.014656780,-0.679513930,-0.328433600
1640844855631150080,-0.364611570,-0.012186960,10.109289170,0.062695170,-0.670917450,-0.303293820
1640844855632900096,-0.134062050,0.173648000,8.904415130,0.107276460,-0.673061730,-0.326038990
1640844855636420096,-0.544506790,0.163767830,10.315931320,0.101193810,-0.647026420,-0.315484460
1640844855640709888,-0.562470440,0.446225350,10.077896120,0.073431440,-0.586818220,-0.306354490
1640844855641229824,-0.249400270,0.373825340,9.939795490,0.045952200,-0.732381760,-0.323751570
1640844855643149824,-0.223457310,0.345628770,10.106878280,0.076481720,-0.657749300,-0.291547270
1640844855647320064,0.365552960,0.582686600,9.151531220,0.084616270,-0.600066780,-0.310711620
1640844855648320000,0.234055560,0.489281480,10.434471130,0.047384200,-0.637398780,-0.310592350
1640844855650749952,0.256298010,0.449998200,10.106086730,0.033237040,-0.620539610,-0.290285050
1640844855655569920,0.500549020,0.359665160,9.536884310,0.036337970,-0.720307410,-0.326746760
1640844855657159936,-0.019760920,0.299610260,10.266171460,0.044569380,-0.637950060,-0.313392340
1640844855662349824,0.003337230,0.420118060,9.662116050,0.015200680,-0.602677520,-0.315153600
1640844855662999808,-0.325762420,0.261939170,10.372409820,0.006829200,-0.681056200,-0.325144890
1640844855664259840,-0.412799660,0.210826960,10.111496930,0.023432080,-0.629222570,-0.314407110
1640844855665979904,-0.032664900,0.525538330,9.432487490,0.010851030,-0.624180020,-0.311650430
1640844855667820032,-0.162113800,0.599347830,10.327898030,-0.023490200,-0.617249370,-0.313937750
1640844855671689984,0.406957330,0.523509740,9.661960600,-0.043936080,-0.568793830,-0.300346310
1640844855673270016,0.659666660,0.392688960,9.705166820,-0.004303460,-0.598132730,-0.317081900
1640844855675750144,0.451314360,0.185522810,10.315195080,0.033497810,-0.562559130,-0.309380890
1640844855679139840,0.544305560,0.145964190,9.671343800,0.004656610,-0.614233370,-0.301215140
1640844855680999936,0.134518640,-0.113188970,9.907139780,-0.028909750,-0.645196560,-0.304849540
1640844855682700032,0.097938280,-0.380696710,9.544977190,-0.024196510,-0.538328470,-0.301612970
1640844855685900032,0.127092000,-0.161542400,9.556768420,0.012031200,-0.516281960,-0.324603920
1640844855687849984,-0.193395480,-0.027992370,10.444714550,0.038549320,-0.520595910,-0.336022760
1640844855690699776,0.001395230,0.132700190,10.024189950,0.004796680,-0.566348550,-0.325405690
1640844855692879872,-0.021428820,0.246804160,9.723343850,0.017361350,-0.593596700,-0.328731630
1640844855695950080,0.060428620,0.147501190,9.436484340,0.024048990,-0.527881210,-0.325521920
1640844855698060032,0.299378660,0.243669660,9.674316410,0.030376020,-0.460915360,-0.322318140
1640844855700739840,0.132223040,0.096333210,10.294216160,0.064891580,-0.479903910,-0.318558510
1640844855702919936,0.313342960,-0.061874100,10.097517970,0.068235420,-0.578275320,-0.305797250
1640844855706490112,0.264383020,-0.024824320,9.592761040,0.061714660,-0.540301320,-0.294508100
1640844855707909888,0.239292670,-0.124760430,9.497685430,0.034505130,-0.474047660,-0.308360190
1640844855710749952,0.041267680,-0.063212440,10.396064760,0.041519110,-0.460302920,-0.315813780
1640844855713260032,0.001044830,0.202697050,9.982543950,0.083987420,-0.501775740,-0.338590170
1640844855715709952,0.160663170,0.336860270,9.786832810,0.061221430,-0.545388460,-0.347535310
1640844855717819904,-0.074095500,0.603075210,10.155620570,0.048118840,-0.437203140,-0.322359860
1640844855720729856,-0.194189030,0.560413540,10.052796360,0.034572190,-0.483293920,-0.333252610
1640844855722739968,-0.429255660,0.437798830,10.522578240,0.044010590,-0.582034950,-0.315488900
1640844855725819904,-0.289998620,0.439709070,9.551934240,0.073875510,-0.494901900,-0.306515460
1640844855727939840,-0.067078970,0.384277550,9.719679830,0.034351650,-0.470635350,-0.326880900
1640844855730799872,-0.260718520,0.595268790,10.940831180,-0.016106670,-0.456409250,-0.291048050
1640844855732869888,0.359774650,0.423213420,9.770802500,-0.015634300,-0.492307600,-0.306597440
1640844855735729920,0.544924080,0.225930320,10.091795920,0.010502340,-0.516812560,-0.333647430
1640844855737779968,0.284878940,0.594025310,10.315771100,0.032182050,-0.406681090,-0.320884640
1640844855740729856,0.274178530,0.398488760,10.029277800,-0.017388170,-0.501282630,-0.342127680
1640844855742789888,-0.055322540,0.344377990,10.495483400,-0.056391970,-0.561215040,-0.332309340
1640844855746429952,0.159096810,0.486941810,9.371398930,-0.031851240,-0.427369830,-0.331927900
1640844855748139776,0.199348550,0.276575540,9.850765230,-0.034007440,-0.402557940,-0.345501360
1640844855751030016,-0.148166370,0.488440600,10.984580990,-0.013166670,-0.393605320,-0.320176840
1640844855752699904,0.111857710,0.437291120,9.991062160,-0.035835810,-0.480906750,-0.324989910
1640844855755769856,0.221525180,0.125138310,9.816775320,-0.060069570,-0.514812830,-0.321856200
1640844855757880064,0.269980910,0.264404000,9.604742050,-0.043790050,-0.346076520,-0.296264950
1640844855760819968,0.488783780,-0.052353990,9.808013920,-0.039255620,-0.327460500,-0.329287350
1640844855762799872,0.123472240,-0.287687630,11.064885140,-0.001800060,-0.424499870,-0.332369000
1640844855765789952,0.198877230,-0.088856820,9.982128140,0.024868550,-0.452490150,-0.335393850
1640844855768090112,0.206518830,-0.265008930,9.515656470,-0.019024310,-0.447525140,-0.341558490
1640844855770819840,-0.158461110,-0.195127650,10.199831010,-0.023147470,-0.343421130,-0.336009260
1640844855772729856,0.176254140,0.087031770,9.712094310,0.002966820,-0.318971370,-0.351546760
1640844855775960064,0.203332680,0.136956690,10.365264890,0.044043370,-0.366987290,-0.348564980
1640844855777799936,0.222965540,0.436917300,10.381230350,0.047151750,-0.339612360,-0.329835740
1640844855781159936,0.214173180,0.438349220,10.131561280,0.007666650,-0.394031490,-0.332737030
1640844855782939904,-0.119244170,0.059090210,10.420887950,0.026980050,-0.413945380,-0.329707650
1640844855785760000,-0.076129450,0.094153110,9.770442960,0.050365930,-0.362744960,-0.329551130
1640844855787779840,0.031010180,0.100170200,9.916580200,0.055505350,-0.332285520,-0.346033360
1640844855790749952,-0.040679620,0.049984610,10.613020900,0.035791100,-0.281733300,-0.338020920
1640844855792819968,0.203393270,0.369710000,10.462151530,0.004607440,-0.327546950,-0.332938220
1640844855795679744,0.232334510,0.246302740,10.379343990,0.016516450,-0.368826120,-0.333491000
1640844855798489856,0.306296590,0.250017290,10.016166690,0.049619390,-0.330878850,-0.335069090
1640844855800859904,0.237373430,0.674008370,10.062351230,0.046829880,-0.288397070,-0.338254900
1640844855802870016,-0.053982440,0.616232750,10.606340410,-0.006780030,-0.329902830,-0.334069220
1640844855805750016,-0.001352900,0.444473680,10.365622520,-0.031490630,-0.355981290,-0.319725280
1640844855807760128,-0.056486050,0.387572740,10.029375080,0.024841730,-0.310324130,-0.339832990
1640844855810860032,-0.191994120,0.298890350,10.399499890,0.035835810,-0.292700590,-0.351329240
1640844855813979904,-0.098709580,0.544495340,10.398440360,-0.019125640,-0.293885170,-0.312800740
1640844855817420032,0.186101420,0.381956430,10.096715930,-0.059311100,-0.309515000,-0.324772300
1640844855818320128,0.460390390,0.076932830,10.270433430,-0.042307380,-0.258697600,-0.330886240
1640844855820940032,0.482053820,0.362419160,10.308815000,0.018368660,-0.239229200,-0.330559940
1640844855822789888,0.377865400,0.139646160,10.476064680,0.022405380,-0.296027990,-0.333295700
1640844855825729792,0.183417540,-0.041497550,10.514080050,-0.031384840,-0.325350520,-0.323046740
1640844855829380096,0.066529580,0.027061560,9.842234610,-0.009991230,-0.306059420,-0.319904060
1640844855831539968,0.047946360,-0.186351950,9.957509040,0.003324450,-0.231860620,-0.341525670
1640844855832949760,0.064613750,0.137265000,10.476083760,-0.002844630,-0.192467840,-0.335463850
1640844855835779840,0.116400300,0.320221390,10.502863880,0.005273520,-0.210602610,-0.335346160
1640844855837779968,0.163014430,0.165438430,10.499427800,-0.004270670,-0.289280710,-0.340873090
1640844855840729856,0.066237300,0.411531810,10.080519680,0.030261280,-0.270846520,-0.327002940
1640844855842769920,-0.040498070,0.249280960,9.848885540,0.024603310,-0.240689560,-0.342024860
1640844855845829888,-0.126163210,-0.031840520,10.466647150,0.004704300,-0.223572540,-0.362069880
1640844855847800064,-0.259999870,0.077963260,10.489856720,0.047375270,-0.214914980,-0.348156660
1640844855851169792,0.003433940,-0.109766280,10.151915550,0.059011590,-0.268073380,-0.359359470
1640844855853129984,-0.018083740,-0.044512910,10.650358200,0.038293010,-0.241217020,-0.345054300
1640844855855719936,0.090146840,0.184677080,10.245826720,0.029353800,-0.195103880,-0.340466200
1640844855857839872,0.239319850,0.027543080,10.504313470,0.026740130,-0.265158740,-0.355316700
1640844855860809984,0.221510570,0.383842650,10.540235520,0.059492880,-0.218786300,-0.360676620
1640844855862850048,0.366712420,0.702796400,9.990714070,0.045879190,-0.201369840,-0.369127090
1640844855865739776,-0.016630560,0.642583310,10.957897190,-0.004664060,-0.241521000,-0.360576750
1640844855867849728,-0.130471920,0.707717480,10.552457810,0.008682900,-0.239563000,-0.360037330
1640844855870759936,-0.031983800,0.528549080,9.929184910,0.022375580,-0.253865120,-0.366635650
1640844855872730112,-0.247414500,0.444068670,10.792250630,0.032360850,-0.193943100,-0.344759230
1640844855875729920,-0.200710580,0.574165340,10.657050130,-0.000213090,-0.167961450,-0.342172440
1640844855877959936,0.058559300,0.290463720,10.469623570,-0.056500740,-0.277152690,-0.339257720
1640844855880839936,0.213989530,0.136155070,10.453089710,-0.014026460,-0.213755650,-0.344513300
1640844855882799872,0.483325960,0.301615540,9.916586880,0.011296570,-0.144730490,-0.374729930
1640844855886040064,0.315307410,0.277766110,10.807510380,-0.013169650,-0.197117050,-0.366763800
1640844855887840000,0.089796570,0.269402980,11.028899190,-0.022380050,-0.217740250,-0.352497400
1640844855890899968,0.266510610,0.231327190,9.947982790,-0.025796900,-0.243765160,-0.360958280
1640844855892849920,0.031536550,0.247827950,10.299353600,-0.022839010,-0.220374760,-0.355859190
1640844855895979776,0.033531770,0.381923380,10.239664080,-0.025062270,-0.089289250,-0.347955520
1640844855897769984,0.094578060,0.218335080,10.494320870,-0.030830500,-0.150212660,-0.366492570
1640844855900809984,-0.199836520,0.097728480,11.199966430,0.018264350,-0.239638950,-0.360071630
1640844855903149824,0.038358580,0.187583770,9.968351360,0.022953750,-0.218524050,-0.358417630
1640844855905700096,-0.035752430,0.089901460,10.047996520,-0.025647880,-0.194047440,-0.371508390
1640844855907820032,-0.260594820,0.008397680,10.951538090,-0.012536350,-0.137761250,-0.368046760
1640844855910980096,0.070424800,0.003366850,10.358441350,0.023210050,-0.170971450,-0.385344120
1640844855913489920,0.068592090,0.109588900,10.549966810,0.059819210,-0.231385250,-0.373353060
1640844855915949824,0.048515230,0.372194380,10.564682960,0.026573240,-0.160735820,-0.363828240
1640844855917809920,0.194541720,0.528991640,10.270133970,-0.039227310,-0.176273290,-0.372117790
1640844855920929792,-0.007335800,0.412260680,10.834409710,-0.009810930,-0.206907110,-0.369925800
1640844855922759936,0.075323390,0.565866650,10.535788540,0.031009310,-0.178554620,-0.378966300
1640844855925779712,0.209825950,0.755449470,10.235793110,0.028915700,-0.179904710,-0.392892990
1640844855928119808,-0.065090880,0.713146920,10.970887180,-0.030037760,-0.165386500,-0.375759630
1640844855931629824,-0.016377130,0.638688560,10.726255420,-0.066247580,-0.165058670,-0.362362000
1640844855933590016,-0.071820450,0.296305120,10.539922710,-0.014139710,-0.226014880,-0.374907280
1640844855935729920,-0.161621540,0.207054590,10.523270610,0.036895280,-0.194153200,-0.375494390
1640844855937919744,0.087179550,0.510666070,10.186805730,-0.021402540,-0.138272360,-0.361618400
1640844855940739840,0.191064830,0.354105200,10.652036670,-0.097070630,-0.142619010,-0.361219080
1640844855945139968,0.371918950,0.177874940,10.839084630,-0.076706690,-0.153596680,-0.368641260
1640844855946759936,0.466763290,0.479151370,10.444612500,-0.009532270,-0.161434720,-0.384815070
1640844855947739904,0.217001600,0.517950000,10.574172020,-0.000262260,-0.189538310,-0.385786590
1640844855950739968,0.031609310,0.589301880,10.558486940,-0.075876720,-0.192441060,-0.363785030
1640844855952739840,0.131142800,0.564676700,10.048681260,-0.100389120,-0.144989800,-0.370664890
1640844855955819776,0.198183670,0.239760380,10.361392020,-0.061756380,-0.085856020,-0.380848350
1640844855957809920,0.209764230,0.430580740,10.857250210,-0.017470130,-0.078754140,-0.365533020
1640844855960719872,0.148159800,0.338130380,10.781888960,-0.024968390,-0.138808790,-0.370894400
1640844855962829824,0.097961750,-0.029228510,10.469868660,-0.072966520,-0.211751510,-0.368061720
1640844855965829888,0.140465770,0.014840500,9.936773300,-0.058659920,-0.143630800,-0.366266130
1640844855968000000,0.133340880,-0.079188140,9.970027920,-0.022745130,-0.037181380,-0.404696260
1640844855970779904,0.010885470,-0.222724420,11.068318370,-0.017789010,-0.078631940,-0.399051610
1640844855973260032,-0.240427050,0.172907250,11.144490240,0.010217720,-0.157471020,-0.400459770
1640844855976950016,-0.073402050,0.167043980,10.016257290,-0.004793700,-0.212974830,-0.393033060
1640844855977799936,0.011067170,0.165609050,10.128952030,-0.039748850,-0.135210160,-0.368328360
1640844855982029824,-0.068227740,0.458590180,10.511015890,-0.009182100,-0.006665290,-0.379909600
1640844855982729984,0.119963660,0.315433380,10.928445820,0.025071210,-0.110329690,-0.402297110
1640844855985689856,0.151026370,0.552716550,11.043420790,0.033952300,-0.201043500,-0.372231040
1640844855987779840,0.238990550,0.674969260,10.035910610,-0.007772450,-0.119471560,-0.398933830
1640844855990929920,0.211848690,0.299032240,10.421518330,-0.056302540,-0.114317250,-0.400815900
1640844855994119936,-0.271283570,0.289344220,11.371001240,-0.004281100,-0.107479100,-0.390630990
1640844855996839936,-0.136637780,0.283650880,10.332180980,0.045059630,-0.164561000,-0.422376450
1640844855997839872,0.011799970,0.210928140,10.510017400,0.009138880,-0.181901470,-0.397613640
1640844856001189888,-0.205557450,0.703901770,10.764932630,-0.056861340,-0.060588130,-0.383557380
1640844856002820096,0.040690410,0.660863700,10.565618520,-0.100877890,-0.127838550,-0.398935470
1640844856005779968,0.026305110,0.519008640,11.223926540,-0.044086580,-0.192701830,-0.375817750
1640844856007819776,0.044686280,0.896244410,10.453154560,0.019046670,-0.129851700,-0.405018060
1640844856010799872,0.196048040,0.803918600,10.409072880,-0.034579630,-0.148068340,-0.406256350
1640844856012719872,-0.025573700,0.770514670,11.324063300,-0.124193740,-0.152252610,-0.366435920
1640844856015839744,0.314032020,0.637418690,10.243496890,-0.123964270,-0.111095620,-0.378738400
1640844856018619904,0.490489450,0.222892340,10.641995430,-0.068727140,-0.134634970,-0.399512080
1640844856020699904,0.263189850,0.579550150,11.172844890,-0.043092670,-0.073711570,-0.384348660
1640844856023030016,0.361009000,0.647084120,10.306111340,-0.108978150,-0.126172620,-0.382983680
1640844856025799936,0.349287840,0.277328760,10.815836910,-0.167968910,-0.180119310,-0.378188550
1640844856028219904,0.191703130,0.365561520,10.490205760,-0.120501220,-0.047595800,-0.389516350
1640844856030779904,0.219875990,0.292946190,10.214943890,-0.067029890,-0.077076240,-0.407135520
1640844856033189888,-0.225483790,0.254082410,11.623346330,-0.072555240,-0.129638610,-0.391522080
1640844856036329984,-0.331622720,0.340535700,10.697438240,-0.113803150,-0.116205220,-0.386378140
1640844856037799936,-0.059292480,-0.012631110,10.057571410,-0.115206860,-0.193326210,-0.392246340
1640844856040669952,-0.093513640,0.074735600,10.731942180,-0.069867070,-0.073312220,-0.377406210
1640844856042749952,0.408371360,0.357500550,9.985573770,-0.082135200,0.023967030,-0.394450070
1640844856046329856,0.570013520,0.136904980,11.125643730,-0.078663230,-0.091964010,-0.393702120
1640844856047819776,0.296949740,0.186352120,11.492476460,-0.047022110,-0.111922640,-0.390276400
1640844856051059968,0.524769900,0.266970280,9.647012710,-0.044535100,-0.163720550,-0.407530400
1640844856052879872,0.115341360,0.106920100,10.572089200,-0.063301630,-0.135536490,-0.396993790
1640844856055919872,-0.284228120,0.302234230,10.808721540,-0.075973570,0.015921890,-0.403817090
1640844856057779968,-0.064911200,0.396537100,10.297364230,-0.047618150,-0.109392400,-0.412744310
1640844856060779776,-0.325803970,0.369890720,11.192891120,-0.020325190,-0.142353790,-0.387169360
1640844856062779904,-0.229715230,0.551235970,10.384992600,-0.052565340,-0.037282710,-0.393933060
1640844856065749760,-0.136144650,0.347109020,10.638036730,-0.067894160,-0.134110470,-0.395014970
1640844856068079872,-0.397273990,0.206707860,11.342043880,-0.036254530,-0.138548020,-0.386472080
1640844856071120128,0.163228410,0.362340480,9.961403850,-0.033457580,-0.083404780,-0.402922960
1640844856073499904,0.205748950,0.342630330,10.721694950,-0.041195750,-0.090080500,-0.397096600
1640844856075849984,-0.131072030,0.421021460,11.776882170,-0.066368280,-0.099453350,-0.386925130
1640844856077809920,0.330038310,0.608256520,10.253059390,-0.078535090,-0.159992280,-0.386694100
1640844856080859904,0.188371410,0.580521400,10.478269580,-0.060376540,-0.172930970,-0.379577280
1640844856083849984,0.062138810,0.872376080,10.807587620,-0.093860930,-0.039346520,-0.379876760
1640844856085839872,0.203545150,1.143804910,10.604120250,-0.124491750,-0.079017890,-0.379338890
1640844856088409856,-0.019880350,0.955440580,11.395740510,-0.125576560,-0.186705600,-0.370511410
1640844856090729984,0.013619150,0.887551610,10.824620250,-0.133143380,-0.116027910,-0.374953450
1640844856092819968,0.014391930,0.745446680,10.448815350,-0.125259160,-0.116226080,-0.388695300
1640844856095719936,-0.377128660,0.487489070,11.370725630,-0.129416580,-0.130186960,-0.363209810
1640844856097829888,-0.127321850,0.480695640,10.717987060,-0.175526720,-0.141148240,-0.343404680
1640844856100950016,0.416274100,0.352934960,10.136215210,-0.179207300,-0.108638410,-0.353589680
1640844856102829824,0.442700830,0.326039250,11.093293190,-0.183774530,-0.040122870,-0.347077850
1640844856105679872,0.718913320,0.635947940,10.922876360,-0.178289440,-0.039780150,-0.342281190
1640844856107780096,0.655445870,0.481025460,11.030004500,-0.167763220,-0.139173840,-0.356711420
1640844856110829824,0.425900040,0.512857500,10.873418810,-0.181882100,-0.140799600,-0.346884130
1640844856112800000,0.260862800,0.815426770,10.145284650,-0.203986500,-0.078603630,-0.338022470
1640844856116089856,0.036801070,0.565916900,10.551509860,-0.225745140,-0.063762080,-0.339420170
1640844856117859840,-0.043402940,0.261896880,10.975146290,-0.205138370,-0.016896430,-0.311481980
1640844856121280000,-0.041480520,0.206462380,10.873023030,-0.124448560,-0.049449510,-0.329725440
1640844856122749952,-0.009435630,0.021972240,10.767689700,-0.132229920,-0.093495850,-0.330343900
1640844856125720064,0.166271270,0.084117950,10.511854170,-0.210101930,-0.074219710,-0.317056510
1640844856128000000,0.388458940,0.073747030,10.284820560,-0.221915560,0.009454790,-0.331224530
1640844856130829824,0.558322550,-0.251686130,10.788292880,-0.161017490,0.017362830,-0.348684190
1640844856133719808,0.447930310,0.019601610,11.178829190,-0.070321550,-0.049924850,-0.332249670
1640844856139569920,0.374265820,0.285504040,10.429179190,-0.075367090,-0.063943870,-0.327460500
1640844856140579840,0.203167020,-0.041880040,10.564292910,-0.166831880,-0.067858390,-0.305615370
1640844856141079808,-0.215280830,0.063982740,10.899870870,-0.145559030,-0.010533630,-0.299084130
1640844856142829824,-0.132493360,0.154725760,10.172714230,-0.057213020,-0.013981760,-0.327399400
1640844856145740032,0.022829620,0.216589570,10.685803410,-0.052088490,-0.029377640,-0.334611510
1640844856147800064,-0.199420450,0.718599080,11.159867290,-0.089365250,0.032939020,-0.321303340
1640844856150879744,-0.014637270,0.411369000,10.666990280,-0.120387990,-0.053161380,-0.332367450
1640844856152879872,0.035717870,0.143080980,10.945103650,-0.059552490,-0.109982510,-0.305449990
1640844856155849984,-0.060690630,0.413909880,10.575044630,-0.007542970,0.000122190,-0.314737860
1640844856157769984,0.219836740,0.196411700,10.493763920,-0.047734380,-0.003390010,-0.320048660
1640844856160969984,-0.056626430,0.150299580,11.732527730,-0.067839030,-0.061634190,-0.293676500
1640844856162860032,0.169055130,0.356101540,10.601869580,-0.064599510,-0.054565070,-0.299863490
1640844856166029824,0.437515170,0.262656810,10.240490910,-0.058837250,-0.054420530,-0.306770210
1640844856168039936,0.049632830,0.575323760,11.378866200,-0.051720440,0.020803510,-0.292642380
1640844856170739968,-0.074717450,0.756516810,10.884511950,-0.057542320,-0.030227010,-0.313256680
1640844856172789760,-0.019696150,0.568122860,10.756789210,-0.061173740,-0.157897170,-0.309471820
1640844856175750144,-0.253682640,0.796057760,10.956564900,-0.063198830,-0.040681670,-0.283710660
1640844856177860096,-0.212302640,0.762134190,10.645098690,-0.087852780,0.020006300,-0.290912420
1640844856180719872,-0.250498440,0.536396150,11.483292580,-0.078631940,-0.086821620,-0.274230570
1640844856183130112,-0.108125950,0.586796100,11.094888690,-0.053805120,-0.070256000,-0.253458320
1640844856185730048,0.338724140,0.488609760,10.107610700,-0.072398770,-0.051991630,-0.282227930
1640844856187810048,0.374678910,0.635375500,10.981464390,-0.118847190,-0.035966940,-0.265681740
1640844856190809856,0.524363880,0.765146200,10.991055490,-0.146497800,0.023143000,-0.256906450
1640844856192849920,0.714661720,0.440049260,10.792484280,-0.116784860,-0.046893950,-0.285986010
1640844856195829760,0.359947290,0.342174890,11.450833320,-0.044870370,-0.069782140,-0.278386470
1640844856198339840,0.043734180,0.374667700,10.786636350,-0.050412130,-0.036188960,-0.269006220
1640844856200769792,-0.130832510,0.218692000,10.495287900,-0.115406540,-0.081835690,-0.263006990
1640844856202819840,-0.305472670,0.115646440,10.963188170,-0.129427030,-0.034348670,-0.238525910
1640844856205709824,-0.011790530,0.091896240,10.306017880,-0.081010170,0.055544080,-0.257137420
1640844856207810048,0.143329160,0.248664950,10.873765950,-0.028385220,0.003658240,-0.274519620
1640844856210779904,0.086775760,0.522866960,11.494373320,-0.037391480,-0.007376070,-0.241445020
1640844856212930048,0.421481070,0.479813400,10.541234020,-0.099593420,-0.031359500,-0.247137280
1640844856216259840,0.363064740,0.296811850,10.669295310,-0.072433060,-0.060623880,-0.249420110
1640844856218309888,0.365021590,0.246564840,10.639836310,-0.021156670,0.040219730,-0.242112610
1640844856220699904,0.535777630,0.201703850,10.408825870,-0.013184550,0.080928210,-0.261354450
1640844856222769920,0.056006020,0.031676660,11.484692570,-0.003400440,-0.009459260,-0.249278520
1640844856225920000,0.018642900,-0.063920050,10.860815050,-0.008745490,-0.036728390,-0.240980100
1640844856227859968,0.072224720,0.041238190,10.086441990,-0.013910240,-0.034889580,-0.247973250
1640844856230819840,-0.141442340,0.030575260,10.794742580,0.008715690,0.061595440,-0.250707570
1640844856232800000,-0.050199720,0.156809910,11.079404830,0.032415990,0.107398640,-0.259625910
1640844856235669760,-0.025626020,0.314024720,11.036481860,0.066825750,-0.025857990,-0.251515240
1640844856237890048,-0.008759270,0.257345140,10.688787460,0.084821890,-0.038355590,-0.237460480
1640844856240679936,0.147360300,0.335315020,10.258588790,0.051596760,0.030717260,-0.234232870
1640844856242909952,-0.047169790,0.290864740,10.947192190,0.049792230,0.032678240,-0.236059730
1640844856245750016,0.000300870,0.239177960,10.997076990,0.086575750,0.021453210,-0.246134400
1640844856247910144,0.349917200,0.489564600,10.562373160,0.093641880,0.015577670,-0.261823830
1640844856251139840,0.163511600,0.677856620,10.982293130,0.072857720,0.055533650,-0.258913610
1640844856252780032,0.007022760,0.608120200,11.150185590,0.047859550,0.011493270,-0.263069570
1640844856255659776,-0.061634450,0.646580100,10.727754590,0.061953070,-0.049841410,-0.254048440
1640844856257769728,-0.302238400,0.659454170,10.614337920,0.078518680,-0.024883450,-0.264199050
1640844856260769792,-0.304763050,0.523728310,10.886059760,0.078485890,0.054906310,-0.269335480
1640844856263059968,-0.432689250,0.670213580,11.484256740,0.059631480,0.020298360,-0.265082750
1640844856265729792,-0.287120130,0.730206610,11.227130890,0.043138850,-0.060401860,-0.271838930
1640844856268179968,0.239669440,0.692891720,10.511805530,0.023151930,-0.000092390,-0.266972180
1640844856270749696,0.352864770,0.894411860,10.802175520,0.028601290,0.087428110,-0.274713430
1640844856272869888,0.106630450,0.942656400,11.502389910,0.034286090,0.007256870,-0.291955500
1640844856275709952,0.306907420,0.970418750,10.861144070,0.008177760,-0.084912780,-0.288228720
1640844856277920000,0.416461530,1.094076280,10.284857750,-0.034281600,-0.011141600,-0.288459600
1640844856281219840,-0.040326530,0.889648800,11.202896120,-0.046135490,0.065733490,-0.299395650
1640844856284119808,-0.163013280,0.713544610,11.583828930,-0.024852160,0.008201600,-0.298008320
1640844856286020096,-0.288461800,0.740207310,11.241165160,-0.008243320,-0.066973280,-0.304721330
1640844856287829760,-0.207492370,0.678610440,10.713200570,-0.044626000,-0.037460030,-0.304542510
1640844856290659840,0.089122620,0.758372660,10.529486660,-0.111167130,0.066325070,-0.284892350
1640844856292879872,0.210826720,0.853834690,10.999533650,-0.127156090,0.068052110,-0.295931130
1640844856295949824,0.440808300,0.601207670,11.239205360,-0.075747070,0.025781990,-0.313256710
1640844856297890048,0.554099080,0.568342150,11.076757430,-0.029496850,0.020171700,-0.314010680
1640844856300779776,0.189980150,0.650407610,11.082675930,-0.051441790,-0.029599660,-0.319367620
1640844856303429888,-0.079353460,0.521930580,10.829491620,-0.123326470,-0.037007030,-0.311417820
1640844856305899776,0.073483570,0.392359730,10.394521710,-0.154939260,0.029055780,-0.307284330
1640844856307809792,-0.053085230,0.326035650,10.859433170,-0.071574760,0.098380450,-0.336256650
1640844856310849792,-0.096273970,0.524898650,11.224376680,-0.018474460,0.049053140,-0.341193380
1640844856312779776,0.088462930,0.866545740,10.955403330,-0.083570170,-0.011216100,-0.329522760
1640844856315840000,0.090691340,0.786479350,10.772412300,-0.169135630,0.002871450,-0.328110190
1640844856317910016,0.268337550,0.439630390,10.693897250,-0.145107540,0.056809200,-0.332827930
1640844856320719872,0.281355050,0.475611150,10.924106600,-0.032292310,0.073321190,-0.348188040
1640844856323170048,0.061884130,0.405209270,11.161990170,-0.012259190,0.043538220,-0.351344050
1640844856325719808,0.018843890,0.192283850,10.992749210,-0.079335280,-0.011926890,-0.339216050
1640844856328270080,-0.190651980,0.143048150,10.791133880,-0.119884330,-0.021496420,-0.335902070
1640844856330710016,-0.252956420,0.068838220,10.337620740,-0.083029270,0.012351570,-0.357082520
1640844856332880128,0.118965940,0.426670670,10.349719050,-0.047126410,0.066822770,-0.378115420
1640844856335820032,0.048590090,0.857547460,11.283401490,-0.061395780,0.126299260,-0.383891170
1640844856338059776,-0.094331820,0.848118600,11.650964740,-0.080011790,0.000548360,-0.388988880
1640844856340780032,-0.059947660,0.820807340,10.989340780,-0.067855420,-0.118623670,-0.375170980
1640844856342959872,-0.115824120,0.873571930,10.314311980,-0.065369910,-0.030048200,-0.373676450
1640844856345739776,-0.290952380,0.674560900,10.759563450,-0.085748740,0.074282290,-0.382679700
1640844856347790080,-0.326238160,0.716228540,11.500851630,-0.095172230,0.013676290,-0.371085170
1640844856350819840,-0.105014060,0.687277260,11.164961810,-0.086145110,-0.065714130,-0.374555590
1640844856352890112,0.267424290,0.653646830,10.524237630,-0.106823470,-0.016941130,-0.394722910
1640844856355759872,0.230818410,0.968334790,11.064034460,-0.137783600,0.042699280,-0.380791720
1640844856357859840,-0.048263900,0.993678150,11.510367390,-0.158344220,-0.012837350,-0.398124780
1640844856360989696,-0.012271750,0.921677050,10.919739720,-0.151732580,-0.122152290,-0.406025410
1640844856362909952,0.041202550,1.071870090,10.579504970,-0.134722900,-0.061824930,-0.394599230
1640844856365720064,-0.329948780,1.142680530,11.147782330,-0.176660750,0.015997890,-0.413069220
1640844856367859968,-0.404811080,1.066053750,11.436849590,-0.228965330,-0.055380170,-0.391648800
1640844856370759936,-0.199177980,0.962579730,11.146821020,-0.215844840,-0.095565630,-0.390851590
1640844856373129728,0.084489590,1.032823440,10.791363720,-0.219959070,-0.030139090,-0.410685030
1640844856375899904,0.353062150,1.254564290,10.863661770,-0.272823900,0.001211460,-0.391285180
1640844856377830144,0.556032060,1.390178560,11.120094300,-0.315989580,-0.023430590,-0.377172260
1640844856380719872,0.622517760,1.037451030,11.153509140,-0.316827000,-0.030289590,-0.404098660
1640844856382789888,0.546336710,0.817661170,10.961922650,-0.279325280,-0.063088550,-0.406342830
1640844856385969920,0.101909260,0.774872840,11.115699770,-0.257140430,-0.067672130,-0.398062230
1640844856387859712,-0.320696000,0.574111880,11.033119200,-0.327283230,-0.074140740,-0.411696820
1640844856390859776,-0.183300230,0.438193170,10.668013570,-0.386814830,-0.059846050,-0.384152020
1640844856394719744,-0.193363770,0.331290870,11.022010800,-0.331597030,0.011290610,-0.403542880
1640844856395809792,-0.083424640,0.458474400,11.108444210,-0.276894900,0.001676380,-0.420372250
1640844856398000128,0.240907030,0.860913460,10.975937840,-0.303618610,-0.060492770,-0.396870140
1640844856400689920,0.247620700,0.954276320,11.119977000,-0.373877640,-0.054621700,-0.392381940
1640844856402889984,0.382408590,0.673519370,10.785007480,-0.387758050,-0.040455160,-0.391712810
1640844856405890048,0.419535250,0.653329910,10.696846960,-0.304380090,-0.056095430,-0.382122460
1640844856408259840,0.320360000,0.594463770,10.872803690,-0.265356900,0.008508560,-0.405563470
1640844856410799872,0.232288520,0.330238730,11.076125140,-0.313192610,-0.002247100,-0.398403440
1640844856412940032,-0.017101520,0.314573760,11.226431850,-0.324606900,-0.079131130,-0.371739270
1640844856415719936,-0.093717080,0.268868300,10.604151730,-0.333790510,-0.079703330,-0.397822320
1640844856417920000,0.000678430,0.233812020,10.457211490,-0.330579280,-0.026839980,-0.399471880
1640844856421149952,-0.095769420,0.528580490,11.027811050,-0.279228480,0.034305460,-0.410902560
1640844856422870016,-0.079294550,0.690261720,11.229162220,-0.278779890,-0.025010110,-0.430010290
1640844856425760000,-0.035057540,0.699994150,11.085408210,-0.298638730,-0.121188180,-0.389844240
1640844856428959744,-0.111886050,0.805400790,10.841824530,-0.302590490,-0.075988490,-0.385516940
1640844856430779904,-0.101418090,0.561098870,10.914908410,-0.308081570,-0.040301680,-0.394867450
1640844856432819968,-0.238442880,0.608275230,11.328760150,-0.279241860,-0.088913760,-0.383734760
1640844856436369920,0.067122690,0.965066370,10.575022700,-0.274546440,-0.073294360,-0.393238750
1640844856437839872,0.359893920,0.904771330,10.623950960,-0.354945720,-0.027784710,-0.397536220
1640844856440809984,0.145353080,1.045825960,11.676153180,-0.375443700,-0.048910080,-0.379478960
1640844856442819840,0.128239010,1.063434720,11.122094150,-0.323964720,-0.115764160,-0.393109080
1640844856445769984,0.212707500,0.794165370,10.705070500,-0.311397110,-0.151576130,-0.406710860
1640844856447939840,-0.120620520,1.068388340,11.087014200,-0.344225760,-0.049769880,-0.384761390
1640844856450690048,-0.270253960,1.112377050,11.052859310,-0.396364960,-0.056581200,-0.376150010
1640844856453959936,-0.173105420,0.868595480,11.355985640,-0.428031530,-0.156351950,-0.370542790
1640844856455999744,-0.039791030,1.051750780,10.937376980,-0.391829070,-0.095234830,-0.355653550
1640844856457890048,0.277706770,1.020335440,10.543699260,-0.362002820,-0.037677590,-0.384151910
1640844856460790016,0.201706750,1.080656050,11.710906030,-0.412124400,-0.076532360,-0.382046430
1640844856462909952,0.222344290,1.349983450,11.367225650,-0.476291870,-0.115884860,-0.359019730
1640844856466199808,0.637060520,1.064741850,10.319250110,-0.497892500,-0.126220300,-0.374594360
1640844856467859968,0.485139760,0.887893920,11.149605750,-0.471262690,-0.061011330,-0.376909970
1640844856470690048,0.122122260,0.942746520,11.313126560,-0.415144920,-0.009994210,-0.358679980
1640844856473009920,0.167912570,0.726195630,10.935370450,-0.438232810,-0.141225790,-0.363664420
1640844856475800064,0.047514080,0.624582290,11.220376970,-0.499552580,-0.136394800,-0.333464210
1640844856477910016,0.177686960,0.671111940,10.385504720,-0.518427850,-0.008639690,-0.322599770
1640844856480769792,0.489490090,0.583353220,10.495491030,-0.492723320,-0.003534560,-0.342682000
1640844856482829824,0.349621030,0.526786740,11.843838690,-0.445614810,-0.008873640,-0.346079470
1640844856485740032,0.431408460,0.695362750,11.048675540,-0.438359440,-0.037156050,-0.353142650
1640844856488260096,0.421483810,0.675273480,10.625788690,-0.464899900,-0.144155340,-0.357630850
1640844856490659840,0.069265250,0.542421940,10.931132320,-0.505247830,-0.061860690,-0.337824260
1640844856492909824,0.404918130,0.491802250,9.954206470,-0.491550620,0.060109800,-0.340305270
1640844856495810048,0.463592680,0.432191640,11.078302380,-0.413657810,0.025413930,-0.343021810
1640844856497890048,0.320547280,0.466970920,11.751647950,-0.390465560,0.024625660,-0.321444870
1640844856500699904,0.602845370,0.630997480,10.502190590,-0.445573120,-0.023533410,-0.318272410
1640844856504910080,0.447451080,0.396759150,10.855022430,-0.469426900,-0.046207020,-0.316740660
1640844856506199808,0.227225660,0.186425520,10.948768620,-0.430846270,0.061687840,-0.329639110
1640844856507830016,0.331061480,0.453099940,10.330993650,-0.366893440,0.026084490,-0.354607430
1640844856510639872,0.038943800,0.473420920,11.015944480,-0.357952770,0.021868950,-0.345273410
1640844856512859904,-0.112575430,0.379752900,11.418245320,-0.404837790,0.013297800,-0.323641360
1640844856515729920,-0.009187530,0.460956160,10.841755870,-0.392580060,-0.029136240,-0.311404470
1640844856520769792,0.159459430,0.475303410,10.499135020,-0.350475400,0.016134980,-0.313513070
1640844856521499904,0.539989890,0.630290270,10.875027660,-0.371715520,0.122506940,-0.315070150
1640844856523020032,0.569247190,1.004544500,11.254314420,-0.368411840,0.145593300,-0.306864080
1640844856526259968,0.499127660,0.821040870,11.394734380,-0.372569350,-0.037440670,-0.326663320
1640844856527859968,0.466924010,0.747271540,10.758416180,-0.367735420,-0.057110200,-0.310205010
1640844856530779904,0.123215110,0.779441950,10.277095790,-0.350266780,0.061042620,-0.315758650
1640844856533299968,-0.145201500,0.559381600,11.054614070,-0.360046420,0.107464210,-0.331649270
1640844856535820032,-0.360647890,0.665716410,11.932337760,-0.380389390,0.026075550,-0.295312730
1640844856537969920,0.059996560,0.798332330,10.742076870,-0.385493100,0.026407840,-0.303466620
1640844856540629760,0.474285070,0.739941900,10.465326310,-0.391458060,0.086405880,-0.310167670
1640844856542840064,0.425292070,1.007601380,11.390277860,-0.392553270,0.127781970,-0.283336700
1640844856545689856,0.489724610,1.147255060,11.041550640,-0.396071430,0.075618950,-0.299204980
1640844856547859968,0.754946950,0.928091350,10.650415420,-0.409069750,-0.002720950,-0.306730060
1640844856550679808,0.602365850,0.956401050,11.040571210,-0.410404860,0.091683860,-0.275720690
1640844856553920000,0.362432540,0.933155950,10.857251170,-0.417342840,0.170920830,-0.280900360
1640844856555689728,0.301973490,0.517496110,11.309556960,-0.412768210,0.051037970,-0.278654750
1640844856558070016,0.070713240,0.510578100,11.254673960,-0.387498800,0.072482240,-0.264008340
1640844856560760064,0.224665790,0.574081180,10.066707610,-0.400903850,0.124700370,-0.279302900
1640844856562830080,0.254307240,0.568327720,10.778276440,-0.434963410,0.121188190,-0.259460510
1640844856565850112,0.326787080,0.699327890,11.158049580,-0.436812700,0.181473810,-0.260159400
1640844856567849984,0.655581710,0.661471840,10.650047300,-0.408530290,0.156095670,-0.280374350
1640844856570809856,0.587046030,0.498504520,11.241366390,-0.355929140,0.115263480,-0.272659990
1640844856572819968,0.337719080,0.565896750,11.065386770,-0.348907800,0.150616470,-0.259560380
1640844856575849984,0.344221620,0.495941100,10.292075160,-0.402253960,0.116957740,-0.258521740
1640844856578189824,0.280221310,0.292568360,10.753524780,-0.401444790,0.135387500,-0.240382550
1640844856580619776,0.402044450,0.282474550,10.487957000,-0.352758200,0.258162650,-0.253431500
1640844856583040000,0.598530950,0.481318950,10.545003890,-0.318867030,0.234510050,-0.270167050
1640844856585680128,0.364981890,0.494241390,11.571526530,-0.325393710,0.182355940,-0.254100560
1640844856587859968,0.451194580,0.392384500,10.831400870,-0.350393350,0.180524600,-0.252230470
1640844856590779904,0.295041470,0.300119790,10.517618180,-0.316344200,0.147400800,-0.258800420
1640844856593309952,-0.009108060,0.167347650,10.819788930,-0.267522070,0.201828780,-0.253175230
1640844856595919872,0.070747490,0.245650980,10.674624440,-0.260862740,0.249157880,-0.268039110
1640844856598490112,-0.026025230,0.496416360,11.127849580,-0.279319290,0.193806010,-0.256191190
1640844856600879872,0.163997380,0.533132670,10.863542560,-0.286120120,0.182953450,-0.236165540
1640844856602889984,0.477258950,0.734467150,10.507184030,-0.285561410,0.212886930,-0.226338250
1640844856605700096,0.431852220,0.896116610,10.990655900,-0.266237650,0.277268890,-0.233493780
1640844856608179712,0.409476970,0.765377160,11.368487360,-0.252048700,0.240062180,-0.252752040
1640844856610710016,0.499346610,0.871192280,10.947035790,-0.255870760,0.147685410,-0.235737850
1640844856612859904,0.421624570,0.823139790,10.534161570,-0.271113160,0.225175930,-0.240103900
1640844856615769856,0.303703700,0.614268780,10.808935170,-0.296033950,0.283932690,-0.242146880
1640844856617809920,0.115942730,0.733140170,11.408609390,-0.288866460,0.235658900,-0.234170290
1640844856620699904,0.010135680,0.669033830,11.086390500,-0.253997740,0.210358200,-0.238841790
