timestamp,accel_x,accel_y,accel_z,gyro_x,gyro_y,gyro_z
1640786324631680000,-0.092277450,0.331438750,9.913836480,-0.050354000,0.031037630,-0.010970230
1640786324632099840,0.071988110,0.083694310,9.309734340,-0.069597350,0.055062760,-0.011053680
1640786324633230080,-0.304669650,0.014729120,10.205386160,0.006327030,-0.028736890,-0.015206630
1640786324637049856,-0.317392680,0.176408320,9.753823280,-0.002437830,0.031471260,-0.012214480
1640786324638439936,-0.044204680,0.197590380,9.161244390,-0.055558980,-0.002934040,-0.019110740
1640786324644099840,-0.209596140,0.056023040,10.051620480,-0.045292080,0.058320160,-0.022189320
1640786324644909824,0.142460090,0.247104790,9.347598080,0.002145770,0.114755330,-0.031323730
1640786324648679936,-0.167497470,0.295196090,10.276770590,0.010816750,-0.032943490,-0.027579070
1640786324649220096,-0.222435030,0.202386920,9.823300360,-0.034637750,-0.003388520,-0.004281100
1640786324652129792,0.022812940,-0.000389750,8.987395290,-0.023490190,-0.022648270,-0.016798080
1640786324653270016,-0.446370930,-0.162994150,10.134273530,0.023852290,0.046473740,-0.028163200
1640786324657349888,-0.095715440,0.035584580,9.403732300,0.034795710,0.094813110,-0.028723480
1640786324659479808,-0.068378260,0.197451590,10.288635250,-0.003974140,-0.012707710,-0.033874810
1640786324662079744,-0.072171170,0.339676920,9.936092380,-0.045210120,0.055690120,-0.008581580
1640786324663209984,0.219924490,0.524081590,9.275529860,-0.044706460,-0.000901520,-0.024093680
1640786324667039744,-0.419162690,0.489336340,10.430423740,-0.012235340,-0.006560980,-0.036691130
1640786324668269824,-0.354116680,0.526989640,9.383837700,0.025178500,0.004477800,-0.033020980
1640786324674479872,-0.381005820,0.405181290,9.863605500,0.022402410,-0.063259910,-0.034636260
1640786324675399936,-0.474832480,0.201211660,9.870327950,-0.025235110,0.065331170,-0.014176960
1640786324677110016,0.020181540,0.282659530,9.465375900,-0.036443760,0.041547410,-0.009723010
1640786324678249728,-0.193728860,0.325527460,10.674583440,-0.050792100,0.024358930,-0.001810490
1640786324682349824,0.070629660,0.362461450,9.455658910,-0.074133280,0.001661480,0.001834330
1640786324683970048,0.363959370,0.291446600,9.500261310,-0.039805480,-0.069777670,-0.014683610
1640786324687180032,0.165184290,0.193966250,9.577538490,-0.002962350,0.087699300,-0.029212240
1640786324688230144,0.242078810,0.212517430,9.388945580,-0.004921850,0.051645930,-0.028409070
1640786324692149760,-0.155735600,0.004643540,10.743264200,-0.030684470,0.006230180,-0.010371210
1640786324693709824,-0.250481010,-0.175157890,9.621408460,-0.040002170,0.014340880,-0.001774730
1640786324697430016,-0.265796390,-0.117095340,9.657958030,0.000248850,-0.085073710,-0.003096460
1640786324698339840,-0.571592330,0.005660190,9.553434370,-0.015515090,0.082911560,-0.017586350
1640786324702349824,-0.210972700,0.246284990,9.096467970,-0.048145640,0.033076110,-0.040055810
1640786324703199744,-0.146703820,0.396271290,10.369044300,-0.007382030,0.036208330,-0.026126200
1640786324707140096,0.039444920,0.559713420,9.588848110,-0.009498000,0.090727210,-0.031301380
1640786324708429824,0.111414970,0.598315950,10.277895930,-0.032863020,-0.052341830,-0.009186570
1640786324712199936,-0.226556550,0.417085470,10.277361870,-0.030736630,0.013315680,0.008657570
1640786324713270016,-0.091155040,0.158208680,9.242239950,-0.037026410,-0.026701390,-0.011837480
1640786324717020160,-0.305023610,0.006700970,10.153722760,0.008782750,-0.000828500,-0.001309810
1640786324718179840,-0.199464890,0.081159940,9.524260520,-0.000305470,0.087386370,-0.016829370
1640786324722159872,0.023061590,0.260731400,9.878285410,-0.065088280,-0.000180300,-0.015075500
1640786324723219968,-0.046410150,0.504407940,10.187638280,-0.104242570,0.053040680,0.001464780
1640786324727219712,0.119219300,0.606352510,9.620817180,-0.123445680,0.019122660,-0.024132430
1640786324728189952,-0.103583250,0.640519800,10.326358800,-0.051565460,-0.034929810,-0.006219740
1640786324732009984,-0.257508310,0.572934630,9.626354220,-0.002045930,0.011932850,-0.002267960
1640786324733219840,-0.032483670,0.256421330,9.397159580,-0.060281160,-0.016365950,-0.003337860
1640786324737239808,-0.209029940,-0.072183630,9.956364630,-0.056296590,0.064292540,0.030817090
1640786324738349824,-0.071712320,-0.126615990,9.725451470,-0.055676710,0.067044800,0.015999380
1640786324742269952,-0.022725120,0.023165520,10.046588900,-0.094377990,-0.009995700,0.023300950
1640786324743229952,-0.077833480,0.057265060,9.784624100,-0.109772390,0.007317960,0.030228500
1640786324747469824,0.181016460,0.066885900,9.392944340,-0.086526570,0.026886170,-0.019459420
1640786324748250112,-0.091934790,0.141496000,9.969058990,-0.004315380,0.042989850,-0.022619960
1640786324752219904,-0.172892780,0.154567330,9.941524510,0.013411050,0.043638050,-0.025248520
1640786324753619968,-0.185652510,0.216460560,10.118966100,-0.044828650,-0.022967160,-0.008779760
1640786324757050112,-0.544157560,0.064600100,10.041868210,-0.060670080,-0.023171310,0.033417340
1640786324758569984,-0.326054330,0.047261860,9.364244460,-0.066849590,-0.000955160,0.020365410
1640786324763330048,-0.362455900,0.207737220,9.867101670,-0.026541950,0.028704100,0.009007750
1640786324763830016,-0.253555090,0.330019860,10.056744580,-0.009004770,0.051198900,0.010658800
1640786324767069696,0.195961480,0.543308140,9.973261830,-0.042791670,-0.000967090,0.012405220
1640786324768339968,0.029839050,0.436806680,10.199658390,-0.069621210,0.000487270,0.012236840
1640786324772089856,0.122932650,0.507610380,9.829781530,-0.084294380,0.014004110,0.011307000
1640786324773440000,-0.096357450,0.437568220,10.048101430,-0.051969280,-0.027848780,0.019237400
1640786324777189888,-0.393533530,0.157009990,9.982914920,-0.044384600,-0.026397410,0.022698940
1640786324778289920,-0.063235290,0.057945180,9.424609180,-0.036001210,-0.000265240,0.033938880
1640786324782109952,-0.217978610,-0.140398190,9.936672210,-0.012631720,0.036944450,0.029982630
1640786324783239936,0.009543110,0.034029170,9.895809170,-0.060880180,0.074079620,0.037185840
1640786324787069952,0.206660780,0.255298550,9.941699980,-0.094568740,0.018134710,0.042311850
1640786324788219904,-0.005216130,0.261017560,10.146270750,-0.096249570,-0.021849570,0.035414100
1640786324792239872,0.241291110,0.347136620,9.348876000,-0.053724650,0.002968310,0.024472180
1640786324793249792,-0.100568220,0.271638540,9.788094520,-0.002744790,0.012007360,0.015343730
1640786324797039872,-0.283468660,0.008596910,10.001556400,-0.017696620,0.053450470,0.021572410
1640786324798209792,-0.044167230,-0.092019260,9.666853900,0.002481040,-0.000090900,0.036250050
1640786324802139904,-0.330873730,-0.244376410,10.041484830,-0.013293330,0.014877320,0.046336650
1640786324803219968,-0.065979490,-0.122228030,9.465950970,-0.071959200,0.047911700,0.045134130
1640786324807350016,-0.064729450,-0.027549010,10.056371690,-0.039072330,0.007218120,0.031244750
1640786324808749824,-0.046647430,0.117910800,9.949289320,-0.011223550,0.044117860,-0.000715260
1640786324813900032,0.297845300,0.453390360,9.453572270,0.016799570,0.019374490,-0.005422530
1640786324814369792,-0.043501300,0.470153930,10.467865940,0.012877580,0.059323020,0.010927020
1640786324817449728,-0.005178050,0.452594190,9.918001170,-0.034698840,0.036786500,0.022611020
1640786324818279936,-0.188242820,0.388199450,10.105520250,-0.023877620,-0.051288310,0.041164460
1640786324822069760,-0.310223460,0.257437970,9.751230240,-0.019523500,0.046861180,0.044462080
1640786324823249920,-0.096698660,0.292997210,9.355632780,-0.010930000,0.037820640,0.041213630
1640786324827139840,-0.307002400,0.344135910,10.534164430,-0.012248760,0.041346250,0.043106090
1640786324829249792,0.104082520,0.384252280,9.546278000,-0.063736740,0.079432140,0.044550000
1640786324832049920,0.235285580,0.288342000,9.979345320,-0.066538160,0.003765520,0.017559530
1640786324833299968,0.069087130,0.330842350,10.351250650,-0.026772920,0.096523770,0.021363790
1640786324837029888,0.096675730,0.341583340,9.497317310,-0.020787120,0.013832750,0.025092070
1640786324838219776,-0.311898950,0.070068710,10.423238750,-0.035458800,-0.047172610,0.027452410
1640786324842219776,-0.085855070,-0.126045320,9.120027540,-0.031653050,0.092633070,0.033220650
1640786324843329792,-0.095898750,-0.224234510,9.580175400,0.014378130,0.039812920,0.022996960
1640786324847089920,-0.313541470,-0.065831520,10.499517440,0.012405220,0.116840000,0.035701690
1640786324848239872,0.125876230,0.189266930,9.401908870,-0.047661370,0.052991510,0.043916710
1640786324852059904,-0.144692910,0.116958060,10.601265910,-0.054445860,-0.040844080,0.039413580
1640786324853179904,-0.038958650,0.251829920,9.372059820,-0.012041630,0.093039860,0.024192040
1640786324857349888,-0.101437440,0.208002460,9.531198500,0.034458940,0.005732480,0.006191430
1640786324858969856,-0.659319460,0.069153180,10.912929530,0.050418080,0.042705230,0.000739100
1640786324862560000,-0.175184670,0.137767490,9.215995790,0.023287530,0.030608480,0.020933150
1640786324863430144,-0.404333590,-0.007389410,10.449901580,-0.001688300,-0.038595490,0.027455390
1640786324868669952,-0.368282970,0.053967150,9.912715910,-0.009031590,0.105150050,0.024281440
1640786324870849792,0.118476150,0.351604130,9.494462970,0.004078450,0.004406270,0.017276410
1640786324872419840,-0.298269900,0.521879730,10.834620480,0.011627380,-0.002762680,0.032292300
1640786324873529856,0.221556400,0.646337990,9.125205990,-0.019028780,0.046171250,0.028412050
1640786324877840128,0.292310060,0.521722560,10.002083780,-0.005850200,-0.024373830,0.023932750
1640786324878749952,-0.253830490,0.486623760,10.601321220,0.009791550,0.081011650,0.032027070
1640786324882319872,0.043838830,0.298016670,9.475085260,-0.013187530,-0.007347760,0.037851930
1640786324883280128,-0.430390330,0.000060220,10.592379570,-0.000205640,-0.068309900,0.033256420
1640786324887079936,-0.373740020,-0.073435520,9.230146410,0.008243320,0.029563900,0.023299460
1640786324888669952,0.076645640,-0.038115760,9.118215560,-0.009810920,0.027422610,0.007513170
1640786324892129792,-0.292918890,0.194599760,10.488997460,-0.016127530,0.109460970,0.011284650
1640786324894409984,0.161892620,0.257213530,9.911202430,-0.042520470,0.062897800,0.014270840
1640786324897110016,0.124966070,0.304236860,10.440219880,-0.003978610,-0.061686340,0.021198390
1640786324898609920,-0.325392250,0.273491080,9.928531650,0.025300680,-0.001889470,0.020743900
1640786324902940160,-0.051767030,0.030907990,9.216599460,0.013788050,-0.005643070,0.009216370
1640786324904499968,-0.432445200,-0.045107630,10.112219810,0.052972140,0.027583540,0.013908740
1640786324907009792,-0.376211370,-0.044113010,9.943176270,0.036743280,0.041860350,0.011597570
1640786324908289792,0.032356260,0.148081650,9.880688670,-0.008888540,0.003950300,0.013692680
1640786324912950016,-0.232862310,0.486928160,10.336171150,-0.034058090,0.023357570,0.016896430
1640786324915190016,-0.045478870,0.637705150,10.095902440,-0.066614160,0.020916760,0.013011690
1640786324918479872,-0.086291600,0.679735300,10.082197190,-0.006763640,-0.030654670,0.007154050
1640786324919030016,-0.303120230,0.585439090,10.042304990,0.041200220,-0.017844140,-0.001226370
1640786324922019840,0.009194110,0.474841620,9.463149070,0.019958620,0.016403200,0.003123280
1640786324923219968,-0.144370350,0.313577830,9.927916530,-0.020878020,0.029477480,0.025986140
1640786324927150080,-0.113283160,0.081683460,10.207572940,-0.085531170,0.033584230,0.029574330
1640786324928239872,0.121595070,-0.011708910,9.849178310,-0.047251590,-0.017520790,0.024177140
1640786324932109824,0.031508550,0.002856680,9.899805070,0.013354420,-0.015230480,0.013634560
1640786324933309952,0.193384300,0.179937450,9.689007760,-0.027123100,0.056783850,0.003485380
1640786324937049856,0.149480210,0.166519060,9.902594570,-0.043816870,0.041675570,-0.004042690
1640786324938269952,0.008305560,0.114673330,10.194602970,-0.030873710,0.016725060,-0.000905990
1640786324942489856,-0.058928480,0.203258220,9.793313030,0.004595520,0.011253360,0.007805230
1640786324944929792,-0.410653740,0.101622650,10.045598030,-0.008578600,-0.013551120,0.015068060
1640786324948570112,-0.388781460,-0.046107090,9.819060330,-0.023995340,0.016100710,0.020472710
1640786324950949888,-0.336315300,-0.084197030,9.864768030,0.019274650,0.022780890,0.002355870
1640786324952039936,-0.275308550,-0.015058660,9.986090660,0.035962470,0.063310570,-0.009131430
1640786324953199872,-0.014330430,0.386167260,10.082462310,0.001932680,0.024987760,-0.009730460
1640786324957020160,-0.035261110,0.624716460,10.369277000,-0.064595050,-0.006844100,-0.002282860
1640786324958299904,0.236994740,0.671649930,9.464279170,-0.086358190,0.012548270,0.010383130
1640786324962289920,0.028315640,0.576774240,10.177689550,-0.016029180,0.008618830,-0.006747250
1640786324963249920,-0.270667400,0.445631060,10.379418370,0.032985210,0.038194660,-0.000905990
1640786324967099904,-0.118458230,0.302805450,9.726874350,0.031471250,-0.054577000,0.018514700
1640786324968219904,-0.373511250,-0.039503610,10.297586440,-0.039212410,-0.013081730,0.017592310
1640786324972039936,-0.032219400,-0.104898230,9.224499700,-0.085057320,0.078888220,0.006794930
1640786324973260032,0.034727760,0.007250320,10.078384400,-0.022348760,0.009149310,0.008682910
1640786324983049984,-0.142960620,0.201285140,10.562396050,-0.024078790,0.067132720,-0.004771350
1640786324983670016,0.225391940,0.305122350,9.365557670,-0.044184930,-0.030119720,-0.006414950
1640786324984119808,-0.109811410,0.038774130,10.524151800,0.005850200,-0.057522960,-0.013031070
1640786324984539904,-0.133799720,0.012525550,9.361971860,0.032757220,0.082959240,-0.021344420
1640786324987030016,-0.153740600,-0.024044080,9.754002570,0.042487680,-0.025784970,-0.011605020
1640786324988189952,-0.503663420,-0.049786900,10.826858520,0.006105010,0.027011330,0.002001230
1640786324992419840,-0.004197500,0.086720330,9.067273140,-0.028590860,0.003699960,-0.004190210
1640786324993799936,-0.168353450,0.184059900,10.410407070,0.003339350,-0.037896630,-0.006419420
1640786324997059840,-0.248481500,0.473330770,10.079450610,0.003616510,0.107923150,-0.015205140
1640786324998329856,0.011929500,0.513170060,9.729734420,0.005757810,-0.050787630,-0.031708180
1640786325002060032,-0.227666080,0.591645180,10.799648280,0.024503470,-0.035151840,-0.025235110
1640786325003239936,0.089559740,0.464170190,9.227037430,0.000274180,0.052294140,-0.020477180
1640786325007089920,-0.055940270,0.210856880,10.347223280,-0.005193050,-0.019317870,-0.023257730
1640786325009510144,-0.370579540,0.312508490,10.640363690,0.006675720,0.048017500,0.002786520
1640786325014499840,-0.025817190,0.083883220,9.513815880,-0.025734310,-0.054311750,-0.003710390
1640786325015120128,-0.174479590,0.043888890,10.239818570,-0.012865660,-0.045701870,-0.005574520
1640786325017239808,0.068328840,0.294895020,9.329892160,-0.003384050,0.089834620,-0.014382600
1640786325018289920,0.228336540,0.292489680,10.068665500,-0.029122830,0.033015010,-0.016786160
1640786325022060032,-0.060049300,0.408813270,10.826354030,-0.034226470,0.043591860,-0.003816190
1640786325023299840,0.168411250,0.244432430,9.825984950,-0.019606950,-0.044848030,-0.010845070
1640786325028209920,-0.029139340,-0.088382550,10.053277970,0.036330520,-0.061486670,-0.025817750
1640786325029229824,-0.270527810,-0.032336400,9.490744590,0.050427020,0.052851440,-0.025472050
1640786325032169728,-0.169141010,-0.186519710,9.760560040,0.004938240,0.031851230,-0.028668350
1640786325034499840,-0.359672370,-0.155465540,10.505054470,0.008073450,0.025069720,-0.022315980
1640786325037039872,-0.011648100,0.174508150,9.646553990,0.009554620,0.016669930,-0.010663270
1640786325038249984,0.079433250,0.355840800,10.123856540,-0.013987720,0.007236000,-0.017315150
1640786325042169856,-0.171852740,0.478708420,10.299605370,-0.000013410,0.055214770,-0.027781720
1640786325043490048,0.043160200,0.476854860,9.948521610,0.029796370,-0.003163520,-0.035625700
1640786325049369856,-0.197428970,0.402301220,10.302261350,0.069980320,-0.016644600,-0.041602550
1640786325049799936,-0.173080240,0.344484240,9.721600530,0.045993930,0.022247440,-0.023089350
1640786325052059904,-0.000474160,0.321672620,9.953871730,-0.017793470,0.012047590,-0.009278950
1640786325053249792,-0.280216340,0.279842640,10.353890420,-0.041005020,0.036469110,-0.001053510
1640786325057319936,0.077257220,0.314284060,9.954934120,-0.044867400,0.025044380,-0.013785070
1640786325058249984,0.122888880,0.472348270,10.270480160,0.012412670,0.001902880,-0.027634200
1640786325062229760,0.018376680,0.497754420,10.025419240,0.018586220,0.028078260,-0.023175780
1640786325063289856,0.343321770,0.382255050,9.709927560,-0.038915880,0.049981470,-0.022503740
1640786325067079936,0.048564550,0.170357330,10.237832070,-0.018402930,0.045734650,-0.011646750
1640786325068239872,-0.026577450,-0.042753380,10.093842510,0.005966430,0.030729180,-0.007808210
1640786325072079872,0.003512850,0.017430750,9.849737170,0.025750700,0.004741550,-0.007356700
1640786325074159872,-0.269183010,-0.032014500,10.005558970,-0.029887260,0.028713050,-0.006356840
1640786325077459712,0.016065600,-0.017805170,9.732402800,-0.049586600,0.069534780,-0.028701130
1640786325078439936,-0.001877970,0.158775720,10.048254970,0.022104380,0.073392700,-0.041438640
1640786325082159872,-0.099428490,0.328586790,10.294687270,0.023874640,0.068959600,-0.033198300
1640786325083239936,0.025996280,0.470155950,10.071386340,-0.010931490,0.007130210,-0.022444130
1640786325087040000,-0.238010000,0.234274700,10.106654170,-0.000898540,-0.001400710,-0.014145670
1640786325088450048,-0.263653520,0.080185220,9.718443870,0.013433400,0.038059060,-0.017303230
1640786325092279808,-0.306824680,0.046613110,10.093818660,0.055485970,0.056241460,-0.027471780
1640786325095779840,-0.336247300,0.033052730,10.466406820,0.043104580,0.055502350,-0.020597880
1640786325097609984,-0.009428290,0.238120790,9.970390320,0.000250340,0.017827750,-0.002506370
1640786325098199808,-0.014419400,0.299435260,10.196611400,-0.013579430,0.043192500,-0.003579260
1640786325102020096,0.050895360,0.474868450,10.015481950,-0.012710690,0.071962180,-0.004404780
1640786325103299840,-0.058789780,0.698868160,10.203495980,0.016571580,-0.012905900,-0.012014810
1640786325107099904,-0.137920380,0.652128580,10.150685310,-0.001907350,0.002387170,-0.014755130
1640786325108249856,0.174211500,0.459905060,9.458284380,-0.021785500,0.048737230,-0.009401140
1640786325112150016,-0.078928700,0.184859540,10.564854620,0.016616280,0.070685150,-0.010553000
1640786325113299968,-0.089483830,0.142149600,10.333200450,0.021868940,0.091563170,-0.000934300
1640786325117070080,-0.076355120,0.079024720,10.048371320,-0.015956160,-0.045871730,0.012248750
1640786325118219776,-0.251484780,-0.206171300,10.074764250,-0.041021400,0.003996490,0.014562900
1640786325122119936,0.183969070,-0.146692540,8.897068020,0.006663800,0.087702280,-0.002677740
1640786325123270144,-0.164817240,0.015841070,10.546582220,0.061175230,0.070886320,-0.027959050
1640786325127209984,-0.153439630,0.173384880,10.484237670,0.010338430,0.106748940,-0.020408630
1640786325128259840,0.131090660,0.243223290,10.074497220,-0.001716610,-0.037866830,-0.006335970
1640786325132019968,-0.421208320,0.090509150,10.892498020,0.036115950,-0.001747910,-0.000482800
1640786325133230080,-0.153273050,0.215389700,9.154733660,0.047147270,0.066161160,-0.010044870
1640786325137319936,-0.397174630,0.241173180,10.253827100,0.068244350,-0.021059810,-0.014130770
1640786325138239744,-0.413922880,0.316000040,10.329397200,0.029633940,0.108297170,0.003580750
1640786325142579968,0.245223660,0.423337880,9.342095380,0.002893810,0.028926140,0.000265240
1640786325143869952,-0.156250010,0.360777290,11.093059540,0.023019320,0.015914440,0.004270670
1640786325147369984,0.138675120,0.591328020,9.795048710,0.007344780,0.090633350,-0.003321470
1640786325148219904,0.169369610,0.409906920,10.066426280,0.019863250,-0.048738720,-0.001639130
1640786325152249856,-0.352989940,0.173690050,10.800351140,0.036510830,0.033961240,0.013263520
1640786325153280000,0.202596280,-0.009947790,8.981093410,0.047864020,0.036627050,0.003096460
1640786325157100032,-0.051027790,-0.196724950,10.290246010,0.083416720,0.012753910,-0.000044700
1640786325158219776,-0.176311490,0.043460540,10.101674080,0.023280090,0.158219040,0.011384490
1640786325162139904,0.180462350,0.022818230,9.765331270,-0.036704540,0.005766750,0.018472970
1640786325163399936,-0.199350920,-0.067892010,10.877182960,0.037427250,-0.004844370,0.022220610
1640786325167069952,0.006873230,0.156518770,9.324136730,0.100088130,0.063034890,-0.020639600
1640786325168609792,-0.124078310,0.137965020,10.100305560,0.101523120,0.024865570,-0.026981540
1640786325172059904,-0.438073190,0.227812540,10.548246380,0.069305290,0.109724690,-0.011023880
1640786325173229824,-0.114572380,0.188255820,9.884171490,0.052425270,0.004012880,-0.005313750
1640786325177199872,-0.208628220,0.141691300,10.328085900,0.078754110,0.001725550,0.007978080
1640786325178279936,-0.135237310,0.438306390,9.682640080,0.059197840,0.086341810,0.003266330
1640786325182179840,-0.009199650,0.455447380,10.219326970,0.043472650,0.044716890,0.011661650
1640786325183310080,-0.133472990,0.406377020,10.468018530,0.058159240,0.071343790,0.006996100
1640786325187019776,0.092772660,0.533315180,9.901013370,0.071351230,0.009299820,-0.003181400
1640786325188239872,0.001930170,0.409521970,10.329362870,0.067023940,0.018170470,-0.008445980
1640786325192179968,-0.027923700,0.494279620,9.658670430,0.028970840,0.087347630,0.000186260
1640786325193859840,-0.054838940,0.438957810,10.338087080,-0.016924740,0.036388640,0.012689830
1640786325197870080,-0.322930160,0.144499180,10.627110480,0.013685230,0.066082180,0.014352800
1640786325198299904,-0.091762110,0.170456170,9.734730720,0.091673440,-0.006359820,0.012764340
1640786325202119936,-0.113584450,0.232158530,10.136809350,0.073556600,0.033009050,0.020982330
1640786325203300096,0.004113880,0.139876230,9.417593000,-0.010788440,0.127574800,0.019030270
1640786325207039744,0.196036040,0.135634440,10.177150730,-0.010016560,0.061538830,0.018890200
1640786325208259840,-0.052018320,0.155662370,10.674880030,0.053516040,0.084610280,0.009307270
1640786325212119808,-0.022302610,0.277462750,9.646865840,0.055740780,-0.000348690,-0.001437960
1640786325213289984,-0.297917340,0.189627250,10.533709530,0.036908680,-0.016908340,0.000807640
1640786325217100032,-0.407240270,0.010476080,9.700664520,0.051970780,0.083948670,-0.005067880
1640786325218459904,-0.192959850,-0.026280290,9.691338540,0.083066530,0.026173890,-0.009326640
1640786325222060032,-0.272459810,0.233668040,10.550392150,0.088721510,0.107455250,0.003446640
1640786325223249920,0.030817940,0.436204430,9.852215770,0.014550980,0.087812530,0.012367960
1640786325227239936,0.069778730,0.481226120,10.574896810,-0.011923910,-0.006240610,0.025996570
1640786325228269824,-0.183914180,0.581801240,10.239922520,0.025142730,0.050723560,0.000715260
1640786325232179968,-0.154388370,0.420541230,9.759396550,0.063762060,-0.003506240,-0.013758240
1640786325233569792,-0.470448940,0.423660220,10.505710600,0.103966910,0.009639560,0.001330670
1640786325237040128,-0.399599970,0.320244940,9.920534130,0.051334510,0.070418420,0.009472670
1640786325238230016,-0.126748320,0.141709950,10.144999500,-0.017882880,0.030563770,0.020349030
1640786325242459904,-0.185964330,0.355132940,10.515549660,0.003120300,0.065481650,0.021289290
1640786325243799808,0.031970800,0.469317200,10.026698110,-0.005801020,0.048935410,0.018323950
1640786325248329984,0.033569510,0.534565090,10.225015640,-0.010189410,-0.026708840,0.011076030
1640786325249019904,0.021280130,0.383816300,9.804651260,0.016948580,0.030635300,0.001226370
1640786325252349952,0.212125140,0.131344770,9.614840510,0.039888920,0.077764690,-0.012707710
1640786325253249792,-0.184548740,0.146069770,10.675376890,0.065624720,0.065127020,0.007775430
1640786325257040128,-0.221512750,0.051235860,10.396254540,-0.007349250,0.022505220,0.021535160
1640786325259899904,-0.084722330,-0.121928570,9.941794400,-0.035068400,-0.030551850,0.028379270
1640786325262109952,-0.324245150,-0.162449240,9.959368710,0.034956630,0.041067600,0.011178850
1640786325264320000,-0.079430500,-0.008882570,9.575140000,0.059050320,0.094687950,-0.012183190
1640786325267289856,-0.174991180,0.145803380,10.355854030,0.066538160,0.040465590,-0.030928850
1640786325268389888,-0.097969380,0.242406470,10.327920910,0.048178440,0.039227310,-0.015844410
1640786325272089856,0.190837650,0.380007920,9.808150290,0.031796100,0.018684570,0.000713770
1640786325273239808,-0.277110580,0.367933360,10.574557300,0.031206020,0.025972730,0.004900990
1640786325279869952,-0.116082450,0.365749540,10.017219540,0.031170250,0.056263820,0.012978910
1640786325280549888,-0.208088040,0.259755280,10.131690980,0.077624620,-0.013080240,0.009571020
1640786325282619904,-0.365267010,0.131158280,10.246367450,0.084507470,0.034311410,-0.003117320
1640786325287010048,0.156706380,0.271527320,9.478724480,0.053845350,0.082977120,-0.010031460
1640786325287559936,-0.095044600,0.378823700,10.660340310,0.032675270,0.039744380,-0.000818070
1640786325288219904,-0.016130770,0.545578900,10.409424780,-0.035969910,0.069649520,-0.000883640
1640786325292379904,0.281566530,0.623462500,9.759661670,-0.015382470,-0.012554230,-0.005225840
1640786325295399936,-0.182977080,0.411139580,10.571483610,0.049245360,0.024615230,-0.007641320
1640786325297289728,0.041012330,0.405329110,9.580011370,0.070397560,0.087726120,-0.004561250
1640786325298579968,-0.060976460,0.158274080,10.105718610,0.055430840,0.002886360,0.001251700
1640786325302039808,-0.211526330,-0.103216220,10.291138650,0.013355910,0.090461990,0.017502910
1640786325303319808,0.229320760,-0.047820160,9.413374900,0.018423800,0.072440510,0.016917290
1640786325307059968,-0.230050130,0.003405410,10.735191350,0.030852860,0.027544800,0.014662740
1640786325308450048,-0.124072280,0.249517750,9.852318760,-0.010381640,0.064839420,0.000618400
1640786325312229888,-0.012057330,0.197028740,9.860080720,0.024199490,-0.002284350,-0.028248130
1640786325313900032,-0.359774500,0.065828980,10.500067710,0.089877840,0.083817550,-0.036950410
1640786325317220096,-0.113354390,0.286492940,9.673735620,0.097757590,0.076134500,-0.023409720
1640786325318349824,-0.357563380,0.168789000,10.666418080,0.071030880,-0.006289780,-0.004588070
1640786325322019840,-0.330639090,0.236530570,10.034468650,0.021463630,0.046834350,0.021031500
1640786325323259904,-0.084508990,0.362676530,9.633432390,0.003357230,-0.006376210,0.013025110
1640786325327239936,-0.234458850,0.326019080,10.376117710,0.050754860,0.085271910,0.010569400
1640786325328300032,-0.028480600,0.604544880,10.064930920,0.073649000,0.081951920,-0.009039050
1640786325332039936,-0.051685100,0.668140470,10.712605480,0.047312680,-0.013683740,-0.010019540
1640786325333279744,0.045052130,0.476597730,9.881571770,0.006449220,0.046212960,-0.004859270
1640786325337070080,0.026041450,0.456641550,9.816002850,0.016660990,0.013941530,-0.013425950
1640786325338230016,-0.318851230,0.271839830,10.527016640,0.032107530,0.052508720,-0.004561250
1640786325342139904,-0.185988870,0.202504410,9.625002860,0.018447630,0.025485460,0.001573560
1640786325343319808,-0.221686200,-0.018445570,10.336088180,0.012831390,-0.030052660,0.007727740
1640786325347440128,-0.095119650,-0.128696200,9.782746320,0.033958260,0.110255190,0.000593070
1640786325348389888,0.106615910,0.007029750,9.819995880,0.061810020,0.046330680,0.004151460
1640786325352039936,-0.170902340,0.077531110,11.023952480,0.038611890,0.062647470,0.000421700
1640786325353329920,0.095715770,0.217397230,9.616942410,0.003813210,0.014370680,0.004477800
1640786325357070080,-0.002858120,0.223615930,10.126607890,0.045801700,-0.077293810,-0.008676950
1640786325358490112,-0.250890910,0.165576380,9.814891820,0.058673310,0.115847580,-0.023208550
1640786325362149888,-0.112988020,0.237764510,9.601062770,0.071057680,0.040794910,-0.039875510
1640786325364899840,-0.535202380,0.243740280,11.313352580,0.080095240,-0.007347760,-0.018844010
1640786325367019776,-0.211044540,0.321748380,9.512415890,0.042171780,0.032494970,0.001882020
1640786325368259840,-0.047861350,0.286688720,9.873055460,0.009244680,-0.046019260,0.005234780
1640786325372019968,-0.370454370,0.416488050,10.739673610,0.022988020,0.113375500,0.010164080
1640786325373240064,-0.064111390,0.356363240,9.707253460,0.031198570,0.016458330,-0.007340310
1640786325380689920,-0.194531860,0.308004920,10.745692250,0.076135990,-0.082702940,-0.006055830
1640786325383259904,-0.157549100,0.328476520,9.851239200,0.067071620,0.059883310,-0.013969840
1640786325383780096,0.187529970,0.225135730,9.647285460,0.029684610,-0.002713500,-0.017718970
1640786325384349696,-0.201503890,0.407656100,10.959440230,0.014051800,0.042043630,0.008918340
1640786325387040000,0.068290800,0.412127550,9.785037990,-0.027814510,0.042290990,0.010770560
1640786325388239872,0.190509830,0.308301360,10.227896690,0.005923210,-0.048768520,0.000257790
1640786325392269824,-0.110870510,0.531497300,10.235291480,0.056374070,0.051954390,0.009234250
1640786325393349888,0.088277970,0.351223620,9.522483830,0.003580750,0.033918020,-0.006417930
1640786325397500160,-0.096718430,0.159268200,10.338861470,0.004808610,0.014418360,-0.002038480
1640786325398680064,-0.171191220,0.156086040,10.044754980,0.034779300,0.048786400,-0.008878110
1640786325402099968,-0.015619380,0.042783690,9.940579410,0.026150040,0.002440810,-0.017948450
1640786325403259904,-0.358988490,0.140232240,10.426359180,0.004683430,0.026142600,-0.016064940
1640786325407019776,-0.180685920,0.093577390,9.913478850,-0.019684440,0.027729570,-0.019447510
1640786325408439808,-0.080947720,0.044822190,10.002233510,0.030697880,0.008413200,-0.025662780
1640786325412339968,-0.186698760,0.319593190,10.027117730,0.075817120,0.062386700,-0.026008490
1640786325413619968,0.050296380,0.469389200,10.076851840,0.012385850,0.034262240,-0.004352630
1640786325417069824,-0.153188810,0.429215550,10.508691790,-0.020264090,-0.005704170,0.011332330
1640786325418279936,-0.093192500,0.354384150,10.111981390,-0.017331540,0.012557210,0.007739660
1640786325422030080,-0.149399790,0.322717990,10.297663690,0.027377900,0.014962260,-0.018477440
1640786325423339776,-0.479592290,0.339528410,10.485998150,0.061643120,0.008298460,-0.033321980
1640786325427310080,-0.193798420,0.502460540,9.909115790,0.008216500,-0.006087120,-0.015579160
1640786325428459776,-0.147490650,0.519575950,9.946685790,-0.054103140,0.012741990,0.001543760
1640786325432039936,-0.149394360,0.471972580,10.107001300,-0.066505370,0.044514240,0.012542310
1640786325433280000,0.088461560,0.595779540,10.258441930,-0.024250150,0.024062390,0.011679530
1640786325437019904,-0.182143170,0.525061430,10.613709450,0.013369320,-0.024501980,0.015322860
1640786325438249728,-0.042156690,0.296822010,9.984662060,-0.032171610,-0.020033120,0.011117750
1640786325442659840,0.034084400,0.098434440,9.835890770,-0.015118720,-0.003443660,0.004975500
1640786325444699904,-0.196887970,-0.110834150,10.141764640,-0.000055130,0.052689010,0.004239380
1640786325447320064,0.051597390,-0.019168710,9.920600890,-0.018242000,0.039021670,0.003248450
1640786325448259840,-0.167961240,-0.014675630,10.440514560,-0.022315980,-0.025556980,0.022120780
1640786325452039936,-0.123526260,-0.045244220,10.025877000,-0.021576880,-0.009536740,0.019553300
1640786325453229824,0.012627060,0.148920100,9.766364100,0.031407180,0.001846250,0.000521540
1640786325457499904,-0.336471800,0.231268580,10.511617660,0.032311670,0.043906270,-0.000220540
1640786325458829824,-0.225464630,0.394536200,10.261915210,0.004662570,0.006484990,0.001366440
1640786325462139904,-0.198597830,0.467611340,10.365287780,0.022585690,-0.063066190,0.023631750
1640786325464140032,-0.244596780,0.427325640,10.052812580,-0.008374450,0.014275310,0.025960800
1640786325467049728,-0.111030060,0.551621970,9.927062030,-0.012288990,0.003519650,0.021182000
1640786325468250112,-0.309573200,0.477616010,10.745227810,0.015188750,-0.007382040,0.024779140
1640786325472100096,-0.112851430,0.497677000,9.977141380,-0.001661480,-0.004766880,0.027422610
1640786325473729792,0.043804980,0.413694380,10.064177510,-0.010427830,-0.061036650,0.032305720
1640786325477469952,0.029002940,0.325526650,10.192337990,-0.021353360,0.053007900,0.032877930
1640786325478540032,0.149887030,0.519121590,9.860364910,-0.029058760,0.022342800,0.042565170
1640786325482939904,-0.197940930,0.411194150,10.938547130,-0.037004050,-0.039528300,0.044423340
1640786325483480064,-0.076465010,0.256581340,9.834013940,-0.032760200,-0.039483610,0.041206180
1640786325487000064,-0.093856010,0.160407570,9.646863940,0.025932500,-0.075846910,0.025071210
1640786325488369920,-0.296437560,0.127275270,10.113554950,0.021505360,0.070549550,0.024388730
1640786325492110080,0.083539310,0.200272320,9.720201490,-0.026118760,0.057087840,0.039407600
1640786325493569792,-0.136143540,0.156643580,11.058937070,-0.025266410,-0.034038730,0.045856830
1640786325497959936,0.084336890,0.249010670,9.805425640,-0.010229650,0.012190640,0.052812700
1640786325498409984,0.150714440,0.325694740,9.644939420,-0.000545380,-0.076065950,0.036400550
1640786325502080000,-0.321718010,0.237405140,10.620438580,-0.005151330,0.026987500,0.029055780
1640786325503340032,0.092594500,0.256114870,9.382679940,0.023114680,0.026690960,0.026272240
1640786325507010048,-0.211376520,0.196976620,10.816611290,0.069677830,-0.055779530,0.034542390
1640786325508270080,-0.108541460,0.343579830,10.119000430,0.010405480,0.067974630,0.043484570
1640786325512909824,0.220122490,0.498194430,9.790277480,-0.034999850,-0.036478050,0.055636470
1640786325513880064,-0.290461810,0.440910400,11.197111130,-0.024034080,0.015886130,0.060527030
1640786325517060096,0.055027500,0.619636420,9.408989910,-0.022628910,0.029076640,0.041653210
1640786325518259968,0.056983280,0.562595900,10.169177060,0.029520690,-0.087311870,0.041563810
1640786325522049792,-0.142565030,0.553529620,10.303867340,0.025735790,0.095754850,0.044767560
1640786325523279872,0.321367320,0.496109400,9.438304900,-0.043533750,0.041998920,0.046776230
1640786325527139840,-0.076752060,0.259216520,11.117603300,-0.045236940,-0.011260810,0.070025010
1640786325528309760,0.023425130,0.268664900,9.823889730,-0.023035710,0.061532860,0.058752300
1640786325532049920,0.206643090,0.061536360,9.731859210,0.009162730,-0.044433780,0.061459850
1640786325533280000,-0.296690430,0.007043960,10.598735810,0.016315280,0.059063740,0.058425970
1640786325537070080,0.061521700,-0.075233810,9.422333720,-0.006648900,0.058534750,0.033028420
1640786325538259968,-0.033221420,-0.156821980,10.355838780,0.036889320,0.000162420,0.029176480
1640786325542109952,-0.214146580,0.262898530,10.226605420,0.031733520,0.087532390,0.032895800
1640786325544139776,0.011825880,0.474028380,9.989154820,-0.039623680,-0.001974400,0.044122340
1640786325547219968,-0.292844360,0.457756490,10.503755570,-0.017030540,-0.003549460,0.063683090
1640786325548519936,-0.183386330,0.557548400,9.762708660,0.026461480,0.039930640,0.048717860
1640786325552019712,-0.168039350,0.501160860,10.211714740,0.051194430,0.023347140,0.050851700
1640786325553629952,-0.354462770,0.478413130,10.407729150,0.048819180,0.046923760,0.049152980
1640786325557060096,-0.055700500,0.586757840,10.073452000,-0.023828450,-0.004805630,0.055651370
1640786325558249984,-0.011351940,0.412371250,10.145336150,-0.052380570,0.011457500,0.064735110
1640786325562109952,0.077661690,0.437488020,9.818569180,-0.044947860,0.066371250,0.047886380
1640786325564179968,0.186487080,0.516991850,10.351276400,-0.017555060,0.054255130,0.050213930
1640786325567010048,-0.111385890,0.349122910,10.544544220,0.016862160,0.011388960,0.054122520
1640786325568499968,0.055538970,0.210753160,9.865419390,-0.007580220,-0.044853990,0.048550970
1640786325572049920,0.026449400,0.105401360,9.745244980,-0.013214350,0.030528010,0.050935150
1640786325573279744,-0.173829470,-0.015475680,9.872668270,-0.004792210,0.098612900,0.061546270
1640786325577159936,-0.024720450,0.145003320,10.330148700,-0.014565890,0.056824100,0.062455250
1640786325578449920,-0.182022110,0.125845450,10.464671130,-0.000965600,0.006861990,0.073404610
1640786325582039808,-0.004268450,0.054198140,9.764764790,0.008994340,0.004740060,0.056684010
1640786325583299840,-0.001662310,0.193150820,9.843267440,0.035198030,0.059691080,0.031541290
1640786325587020032,-0.314002010,0.209033740,10.357989310,0.033803290,0.059980160,0.031827390
1640786325588239872,-0.042926510,0.239220100,10.047269820,0.016763810,0.007230040,0.045846400
1640786325592019968,-0.014044050,0.349218220,10.020939830,0.043010710,0.004519520,0.053307430
1640786325593639936,-0.135560570,0.414884150,10.084419250,0.000764430,0.071357190,0.049026310
1640786325598080000,0.016624210,0.528081180,10.082748410,-0.013999640,0.056657200,0.066268450
1640786325598609920,-0.324189600,0.439954220,10.725651740,0.025585290,-0.017684700,0.051262970
1640786325602399744,-0.193130110,0.512677070,9.798900600,0.030085440,-0.003273790,0.040429830
1640786325604610048,0.000980830,0.557976780,9.615489960,0.019586090,0.004892050,0.035418570
1640786325606989824,-0.190928710,0.527543310,10.518853190,-0.019203130,0.104743260,0.047859550
1640786325608290048,0.045015350,0.608603360,10.204266550,-0.050015750,0.056365140,0.064815580
1640786325612209920,-0.052352960,0.481021140,10.684219360,-0.028452280,-0.036010150,0.065663460
1640786325613319936,-0.038639290,0.381439510,9.850949290,-0.002484020,0.024557110,0.074177990
1640786325617740032,0.040923360,0.364057960,9.552013400,0.000731650,0.001089270,0.066569450
1640786325618939904,-0.135744110,0.154768390,10.295745850,-0.019906460,0.066794450,0.067044780
1640786325622069760,0.116328860,0.158898710,9.665539740,-0.041952730,0.081281350,0.063768020
1640786325623309824,0.037140010,0.130279780,10.543328290,-0.015772880,0.012932720,0.059399010
1640786325627460096,-0.149503930,0.176241760,10.350277900,-0.004434590,0.062423950,0.059482460
1640786325628919808,-0.145522060,0.355304180,9.916903500,-0.038942690,-0.039626660,0.051110980
1640786325632019968,-0.370184060,0.109573100,10.212875370,-0.026187300,0.000654160,0.048261880
1640786325633329920,-0.194326880,0.120105060,9.269018170,0.031325220,0.076957040,0.030800700
1640786325637100032,-0.309902580,0.338224800,10.522967340,0.045369580,0.034414240,0.034345690
1640786325638309888,-0.247182040,0.429863420,10.465804100,-0.016859170,0.062404580,0.059159100
1640786325642079744,0.023112020,0.482059000,9.996114730,-0.049196190,-0.036843120,0.069558630
1640786325643859968,-0.121265460,0.438853530,10.592298510,-0.033527610,0.008139010,0.066174550
1640786325647140096,-0.117143530,0.408310170,9.647634510,0.003840030,0.057668980,0.052198770
1640786325649779968,-0.176450270,0.451774150,10.423717500,0.040115420,-0.042092810,0.050336130
1640786325652099840,-0.241448060,0.383611620,10.301012990,0.012922290,0.027322770,0.054650010
1640786325653359872,0.131345580,0.358355190,9.311687470,-0.042366990,-0.010824210,0.045564770
1640786325657049856,0.014736810,0.469496040,10.569516180,-0.052167480,0.041949750,0.057785220
1640786325658350080,-0.039684790,0.525971530,10.106695180,-0.046387310,0.083474820,0.062711540
1640786325662079744,0.052320510,0.473576040,10.284762380,-0.039137890,-0.048235050,0.059607630
1640786325663579904,-0.193447460,0.329850850,10.366255760,0.000388920,-0.013849140,0.062799460
1640786325667140096,-0.005186310,-0.030547730,9.220417020,0.015214090,0.024944550,0.050483660
1640786325668359936,-0.123569230,-0.170706330,10.105032920,0.027239320,0.032468140,0.053854290
1640786325672029952,-0.250764340,-0.109048110,10.284294130,0.013530260,0.051112480,0.061023240
1640786325673260032,0.001010520,-0.118269120,9.919120790,-0.036594270,-0.011087950,0.052459540
1640786325677090048,0.023672230,0.190695930,10.120819090,-0.009173150,0.006178020,0.059549520
1640786325678360064,-0.177760880,0.309273360,10.130326270,0.007620450,0.043703620,0.041393930
1640786325684019968,-0.188956010,0.449302230,10.185182570,0.016197560,-0.024396180,0.027717660
1640786325684659968,-0.254060390,0.525170740,10.125638010,0.069922220,-0.032356380,0.028754770
1640786325686990080,-0.227970020,0.465006890,9.889594080,0.046753880,0.015115740,0.034278630
1640786325688299776,-0.105809930,0.712278430,9.935887340,0.000138580,0.018198790,0.043120980
1640786325692039936,-0.248513620,0.688247260,10.560076710,-0.059251490,0.012364980,0.059176990
1640786325693509888,0.000593450,0.646488670,10.002268790,-0.067025420,0.006833670,0.052422290
1640786325697180160,0.038079510,0.618691620,10.198699950,-0.002384190,-0.037923460,0.036449730
1640786325698400000,-0.013513240,0.492972280,10.170639040,0.018012530,0.033453110,0.031748420
1640786325702179840,0.210774120,0.462565750,9.553018570,-0.020693240,0.005117060,0.038796660
1640786325703749888,0.034999490,0.193091240,10.455633160,-0.072757880,0.008511540,0.040124350
1640786325707069952,0.148728190,0.011571320,9.793357850,-0.059281290,0.070290260,0.034248830
1640786325708339968,0.025284690,0.112470360,10.188946720,-0.001926720,-0.042676930,0.035732980
1640786325712219904,-0.299913050,0.117917080,10.380033490,-0.011563300,0.023165350,0.036174060
1640786325715339776,-0.005801150,0.116713410,9.340826990,-0.036449730,0.001949070,0.027787690
1640786325717009920,-0.245433760,0.060189870,10.502410890,-0.017187000,0.022967160,0.008687380
1640786325718380032,-0.176561760,0.211958720,9.740786550,0.023913390,0.095027710,0.001056490
1640786325722070016,-0.063386140,0.469469190,10.131737710,0.018027430,-0.039945550,0.009243190
1640786325723330048,-0.208095040,0.578324020,10.492621420,-0.044995550,0.025230650,0.030820070
1640786325727160064,0.061740070,0.484143020,9.380703930,-0.072515000,0.013047460,0.037369120
1640786325728309760,-0.147777390,0.281000410,10.640783310,0.001227860,-0.022874770,0.025253000
1640786325732100096,-0.225398850,0.235250430,10.095405580,0.059005630,0.076115130,0.006569920
1640786325733690112,-0.006973590,0.296669930,9.889639850,0.024090710,-0.047245630,0.008440020
1640786325737030144,-0.172395710,0.298012520,10.467947960,-0.033202760,0.012899930,0.027447940
1640786325738289920,-0.020067290,0.346657990,9.492239000,-0.082001100,0.047779090,0.003369150
1640786325742119936,0.021930280,0.526175020,10.156687740,-0.051727890,-0.002405050,0.013777610
1640786325743749888,-0.194009720,0.650697650,10.503875730,0.002752240,0.039844210,0.022384530
1640786325747299840,-0.174853500,0.501863360,10.125295640,-0.020760300,-0.032716990,0.011885170
1640786325748359936,-0.106618640,0.265183240,10.049028400,-0.006102030,-0.052592170,0.024178620
1640786325752139776,-0.130135600,0.035203930,9.821022030,0.005760790,0.052015490,0.009386240
1640786325753339904,-0.017457390,0.029990610,9.969846730,-0.022134180,0.063402960,0.020943580
1640786325756999936,-0.019373900,0.089364710,10.329975130,-0.034235420,0.005431470,0.030064580
1640786325758359808,0.008498720,0.079735990,10.091254230,-0.047831240,-0.019881130,0.020797550
1640786325762269952,0.072115350,0.134660720,9.597265240,-0.015509130,-0.000368060,0.008255240
1640786325763409920,-0.245673210,0.136746970,10.333816530,0.030180810,0.014144180,-0.014361740
1640786325767719936,-0.317831190,0.192770730,10.289609910,0.024849180,0.021688640,-0.020118060
1640786325768309760,-0.223064800,0.230912210,10.014512060,0.027407710,-0.042474270,0.005523860
1640786325772009728,-0.294918330,0.232234640,10.201751710,0.017008180,0.002674760,0.014001130
1640786325773329920,-0.093303870,0.482447300,9.598937990,-0.021284820,0.044342880,0.023394820
1640786325777689856,-0.229175760,0.551321150,10.533065800,-0.027962030,-0.019277630,0.019536910
1640786325778970112,-0.149229350,0.524079320,10.111303330,0.002829730,0.003249940,0.014789400
1640786325784119808,0.147771950,0.598856990,9.641502380,0.033761560,-0.059840080,0.000116230
1640786325784879872,-0.049663420,0.529852150,10.356450080,0.020612770,0.018906590,-0.004559750
1640786325786979840,0.104226100,0.462504540,9.697151180,-0.018636880,0.055173040,0.018766520
1640786325788280064,-0.037408670,0.312552510,10.563707350,-0.046648080,-0.053589050,0.018483400
1640786325792110080,-0.137473420,0.111284900,9.977545740,-0.022540980,-0.005999210,0.014555450
1640786325794349824,-0.017755460,0.016412650,9.316868780,0.033666190,-0.056324900,0.003370640
1640786325799650048,-0.314312040,0.011971940,10.270972250,0.031511480,0.018979610,-0.009052450
1640786325800069888,-0.195403770,0.029292940,9.630134580,-0.016272060,0.045813620,-0.021226700
1640786325801990144,-0.061762060,0.022113190,10.343923570,0.003083050,-0.052364170,-0.015212600
1640786325803360000,-0.218947100,0.166875120,10.312852860,0.038051610,0.039766730,-0.017379230
1640786325807030016,-0.053631110,0.414642690,9.524629590,0.013928120,-0.050391260,-0.006419420
1640786325808499712,-0.182941730,0.406776280,10.339939120,-0.002537670,-0.045208630,-0.003488360
1640786325812130048,-0.214345050,0.303970190,9.582136150,0.026564310,0.020818410,-0.011490290
1640786325813619968,-0.117378350,0.265242960,9.873235700,0.062955920,-0.042536860,-0.026781860
1640786325817029888,-0.303862900,0.454597530,10.460500720,0.066435340,-0.003933910,-0.020964440
1640786325818359808,-0.179202230,0.556510980,9.899458890,-0.013330580,-0.034642220,-0.021341450
1640786325822000128,-0.005177200,0.461466280,9.980833050,-0.055846580,-0.040681660,-0.009767710
1640786325823360000,-0.171942830,0.484603400,10.181019780,0.001159310,0.014658270,-0.027684870
1640786325827680000,-0.171236230,0.452787370,10.159980770,0.045053650,-0.036354370,-0.040027500
1640786325828719872,-0.095556870,0.477072830,9.897472380,0.063335900,-0.073723500,-0.034195180
1640786325832209920,-0.185433950,0.232904520,9.842756270,0.006753210,-0.041864820,-0.025486950
1640786325833299968,0.096851530,0.052776460,9.474164960,-0.029093030,0.010932980,-0.025333460
1640786325837019904,0.066203380,0.059424670,10.155142780,0.034289060,0.002405050,-0.027148430
1640786325838340096,-0.115015270,0.164706440,10.460323330,0.036512320,-0.011652710,-0.021556020
1640786325842109952,-0.014443340,0.268260600,9.810074810,0.001421570,-0.101125230,-0.029201810
1640786325844899840,-0.228952080,0.052626050,9.980561260,0.009720030,-0.077694650,-0.046703220
1640786325847079936,-0.267659810,0.094884650,9.449232100,0.058099630,0.023289030,-0.064763430
1640786325848369920,-0.397219120,0.257568300,10.223176000,0.078096990,-0.045822560,-0.072436030
1640786325852000000,-0.430174350,0.354670490,10.378469470,0.037667160,-0.037500260,-0.050567100
1640786325853309952,-0.034248810,0.537554140,9.488640790,-0.007779900,-0.071448070,-0.028142330
1640786325857489920,-0.164576750,0.454267260,10.351152420,-0.005288420,-0.032225250,-0.038349630
1640786325858269952,-0.115794440,0.460809470,9.840295790,0.039544700,-0.007687510,-0.045646730
1640786325862159872,-0.074319270,0.505096440,10.272750850,0.079564740,-0.113862760,-0.053490700
1640786325863409920,-0.205957060,0.402382280,10.120952610,0.049597020,-0.061449410,-0.057631730
1640786325867019776,0.054781390,0.421645160,9.284242630,0.005389750,-0.069899860,-0.058844690
1640786325868290048,-0.073086120,0.461635800,10.321513180,-0.028793510,-0.032098600,-0.055609640
1640786325872089856,-0.075040080,0.438851390,9.796863560,-0.033646830,0.008930270,-0.053957110
1640786325873590016,-0.023443420,0.303637740,10.203641890,0.002221760,-0.111347440,-0.052523620
1640786325877280000,-0.213939880,0.067536570,10.272119520,0.063148140,-0.073225790,-0.058932610
1640786325878350080,-0.088079890,-0.115597560,9.178654670,0.082992010,-0.080859650,-0.068555760
1640786325882159872,-0.258067970,-0.108428250,10.132318500,0.052489350,-0.060543420,-0.067338350
1640786325883719936,-0.215373470,-0.034453990,9.748637200,0.000311430,0.001610820,-0.063040850
1640786325887099904,0.104457370,0.131691900,9.839886670,-0.008808080,-0.083672990,-0.059588250
1640786325888480000,-0.006043070,0.404845740,10.463337900,0.049218540,-0.040763620,-0.057549780
1640786325892099840,-0.082626450,0.525755230,9.961709020,0.047619640,-0.053557750,-0.082601610
1640786325893600000,-0.209838610,0.519299030,10.235722540,0.038199130,-0.131431210,-0.079698850
1640786325897779968,-0.386325870,0.334207560,9.941530230,0.080621260,-0.101467970,-0.070376700
1640786325898309888,-0.281405300,0.149849980,9.626646040,0.085644420,-0.065359480,-0.094203650
1640786325902079744,-0.081396190,0.504092690,9.834727290,0.047728420,-0.046360500,-0.062750280
1640786325903309824,-0.005793810,0.582859220,10.158338550,-0.030118230,-0.020116560,-0.048032410
1640786325907059968,0.154164270,0.666003640,10.243067740,-0.075075030,-0.052672630,-0.052981080
1640786325908339968,0.060755960,0.717393880,10.282588010,0.007942320,-0.134736300,-0.059615080
1640786325912279808,-0.029401960,0.519173380,9.710325240,0.068701800,-0.115939970,-0.073750320
1640786325914000128,0.078927960,0.444139960,9.239538190,0.053092840,-0.058440860,-0.078287710
1640786325917120000,-0.185108780,0.120825550,10.286108970,0.006215270,-0.014123320,-0.059875850
1640786325918329856,-0.125749450,-0.017334340,10.106884960,-0.026702880,-0.039002300,-0.057069960
1640786325922889984,-0.048151240,0.083912890,9.986892700,0.001266600,-0.132100280,-0.050637130
1640786325923589888,-0.206788050,0.161649660,10.026810650,-0.015799700,-0.054882480,-0.060245390
1640786325927109888,0.000095920,0.343647660,9.400053980,-0.023199620,-0.072531400,-0.082319970
1640786325928659968,-0.224100560,0.202876280,10.427416800,0.029706960,-0.074581810,-0.094518070
1640786325931990016,-0.089871320,0.313142540,9.771400450,0.075046740,-0.022901600,-0.105124730
1640786325933329920,-0.082316980,0.447991400,10.155472760,0.048264860,-0.136138510,-0.087307390
1640786325937180160,-0.228442760,0.434179690,10.326274870,-0.041061640,-0.062993180,-0.061251230
1640786325938390016,0.020788290,0.446105330,9.372377400,-0.056329380,-0.077517330,-0.058850650
1640786325942370048,-0.268304710,0.394505170,10.612341880,-0.004641710,-0.105054660,-0.082626930
1640786325943960064,-0.094250750,0.543964920,9.606057170,0.037454070,-0.035697230,-0.094220040
1640786325947180032,-0.002800080,0.597473980,9.974208830,0.026215610,-0.130440290,-0.089722870
1640786325948519936,-0.239501270,0.541533290,10.514985080,-0.041654710,-0.051838170,-0.080320250
1640786325952009984,0.107875290,0.564467310,9.235654830,-0.082847480,-0.084348020,-0.085449230
1640786325953440000,-0.082518370,0.465070550,10.420654300,-0.045609480,-0.112105910,-0.078190860
1640786325957020160,-0.186978250,0.349965960,9.875190730,-0.025767090,-0.003346800,-0.085815810
1640786325958569984,0.030545890,0.171510590,9.759402280,-0.012809040,-0.145977780,-0.094352660
1640786325962019840,-0.196925220,-0.114487200,10.473874090,0.014752150,-0.095614810,-0.091148910
1640786325963340032,0.123852350,-0.146305370,8.990766530,-0.003376600,-0.009852650,-0.111162670
1640786325966990080,0.019579760,0.032965110,10.349205020,-0.027677420,-0.092226290,-0.099816940
1640786325968479744,-0.144502790,0.216521280,10.315528870,-0.047633060,-0.037543480,-0.076657540
1640786325972049920,0.171231880,0.249330130,9.406037330,-0.043605270,-0.128713270,-0.094035270
1640786325973289984,-0.211833790,0.378476350,10.394397740,0.034020840,-0.103743360,-0.095294410
1640786325977219840,-0.350076740,0.337300390,9.759987830,0.037580730,-0.024534760,-0.117239370
1640786325978439680,-0.166134030,0.234032930,9.998970030,0.025767090,-0.121288020,-0.125807540
1640786325982029824,-0.373948130,0.375586390,10.343431470,0.031016770,-0.070428850,-0.105714810
1640786325983340032,-0.000384350,0.427058990,9.477020260,-0.029766560,-0.068534910,-0.116612020
1640786325987040000,0.097937010,0.734781320,9.974267960,-0.071695450,-0.084362930,-0.093424330
1640786325988279808,-0.026749720,0.783444110,10.192508700,-0.066877900,-0.014933940,-0.087246300
1640786325992029952,0.173947710,0.572637440,10.110134120,-0.043810900,-0.088243190,-0.102368000
1640786325993350144,-0.080752010,0.397742600,10.315762520,0.049169360,-0.146394980,-0.104188920
1640786325997030144,0.025782120,0.137956460,9.473281860,0.039024650,-0.058408090,-0.113664590
1640786325998299904,0.052422810,0.041090820,9.509193420,-0.031931710,-0.027298930,-0.103071350
1640786326002009856,-0.218534510,-0.060201040,10.326187130,-0.082306550,-0.020074840,-0.082594150
1640786326003320064,0.129472780,0.054371310,9.817235950,-0.079029810,-0.054599340,-0.081600260
1640786326007229952,0.010309670,0.207414110,9.980017660,0.007160010,-0.099991270,-0.090621420
1640786326011719936,-0.175630440,0.294655410,10.034022330,0.013087690,-0.029145180,-0.109751530
1640786326013259776,-0.045840610,0.307302270,9.714045520,-0.008089840,-0.067800270,-0.116495780
1640786326014159872,-0.378778460,0.135524080,10.260465620,0.025568900,-0.088667880,-0.124673550
1640786326017259776,-0.049522220,0.271753370,9.542333600,0.022743640,-0.019872190,-0.114029650
1640786326018299904,-0.122943060,0.506667020,9.985621450,-0.007200240,-0.071381040,-0.100590290
1640786326022039808,-0.233651280,0.494847300,10.252547260,-0.071270770,-0.052921480,-0.080551210
1640786326023629824,0.197977900,0.548793440,9.497512820,-0.052946810,-0.048236550,-0.086668130
1640786326028149760,-0.207111110,0.467249510,10.534132960,0.023530420,-0.080306840,-0.108774010
1640786326028620032,-0.014977170,0.586936410,9.894655230,0.025850540,-0.048431750,-0.104655330
1640786326032049920,0.217101770,0.624522570,9.553456310,-0.020886960,-0.083147000,-0.101277230
1640786326033449984,-0.108661480,0.429332820,10.331373210,-0.100247560,-0.011192260,-0.098939250
1640786326037019904,0.275265630,0.453152600,9.530440330,-0.098711260,-0.007931890,-0.103841720
1640786326038380032,-0.053908200,0.320104900,10.429851530,-0.011418760,-0.103628630,-0.101456030
1640786326042279936,-0.165137510,0.242470070,9.817586900,-0.007033350,-0.046324730,-0.090758500
1640786326043340032,0.040397230,0.165537310,9.403573990,-0.035776200,-0.083293020,-0.100402540
1640786326047149824,-0.278452960,-0.138164070,10.218789100,-0.045335290,-0.023102760,-0.092166670
1640786326048419840,0.137611610,-0.017855600,9.335693360,-0.026066600,0.028420980,-0.093270830
1640786326052019712,0.027887200,0.111665460,10.433094020,0.000509620,-0.029996040,-0.097501280
1640786326053400064,-0.116958700,0.303202870,10.277984620,-0.044585770,-0.038370490,-0.077092660
1640786326057169920,0.137826550,0.317692280,9.409184460,-0.046789650,-0.120648760,-0.080025200
1640786326058379776,-0.179396940,0.123315530,10.054487230,0.020654500,-0.013306740,-0.095464290
1640786326062070016,-0.170485110,0.331147160,9.695039750,0.046509500,0.025181470,-0.110010830
1640786326063350016,-0.276366920,0.413698050,10.503596310,0.024224820,-0.080519920,-0.100448730
1640786326067040000,-0.139249770,0.553583150,9.920254710,-0.047530240,-0.027687850,-0.092218820
1640786326068329728,0.087003170,0.727824690,9.550155640,-0.094708810,-0.049339230,-0.084787610
1640786326072029952,-0.097195300,0.698293920,10.428335190,-0.066529220,0.004318360,-0.091312830
1640786326073679872,0.105806890,0.663868130,9.726989750,-0.012710690,-0.012286010,-0.077819820
1640786326079769856,-0.168425080,0.356858280,10.537858010,0.027428570,-0.118139410,-0.074952850
1640786326080569856,-0.083716940,0.071016300,9.643770220,-0.000503660,-0.031560660,-0.068195150
1640786326082119936,0.101619940,-0.092298910,9.230973240,-0.024451320,-0.040481990,-0.058522820
1640786326083770112,-0.304588620,-0.226137790,10.649737360,-0.047142800,0.024951990,-0.063048300
1640786326086999808,0.166991650,0.040897080,9.510128020,-0.054606800,-0.003910060,-0.060097870
1640786326088329984,0.069481900,0.093552700,10.290580750,-0.013324620,-0.111894310,-0.071902570
1640786326092179968,-0.041257520,0.195566480,9.763937000,0.008830430,0.034776330,-0.090792780
1640786326093439744,0.130300550,0.424958110,9.431827550,0.026009980,-0.039929160,-0.096333040
1640786326097119744,-0.509828980,0.343927890,11.002455710,0.017131870,-0.056709350,-0.081889330
1640786326098510080,-0.084763140,0.427481380,9.116003990,-0.008982420,-0.028520830,-0.061033670
1640786326102059776,-0.102842670,0.407487570,9.909929280,0.004452470,-0.091759850,-0.055822720
1640786326103350016,-0.313975570,0.495654700,10.346302030,-0.032114980,0.078466540,-0.042551760
1640786326107399936,0.188926980,0.606680040,9.522840500,-0.042459370,-0.029873850,-0.045681000
1640786326108649984,-0.219839510,0.344014140,10.934296610,-0.004878640,-0.083351140,-0.049948690
1640786326114409984,0.090945200,0.435611870,9.309245110,0.000704820,0.007313490,-0.073188550
1640786326114959872,0.249143320,0.460284860,9.589128490,-0.007392470,-0.083483760,-0.064530970
1640786326117080064,-0.160190250,0.357815680,10.399701120,-0.044970210,0.052490840,-0.049908470
1640786326118319872,0.277407880,0.409151940,9.397770880,-0.079855320,0.012612350,-0.052142140
1640786326122010112,-0.042319540,0.204491850,10.649918560,-0.030058620,-0.072592490,-0.038447970
1640786326123659776,-0.105704690,0.088119620,9.807139400,0.001202520,0.021804870,-0.043633580
1640786326128279808,-0.006782070,0.063712610,9.662967680,0.012184680,-0.064566740,-0.057291990
1640786326128790016,-0.291656520,-0.125548960,10.140728950,-0.006121400,0.013796990,-0.053867710
1640786326132019968,0.130709570,0.037939020,9.127984050,-0.031733520,0.020247700,-0.065627690
1640786326133369856,0.086175690,0.253095300,10.169565200,-0.021928550,0.020308790,-0.051702560
1640786326137029888,0.075677100,0.492194560,10.043356900,-0.038389870,0.056579720,-0.039429960
1640786326138360064,0.082272630,0.534492020,10.304337500,-0.047816340,-0.078006090,-0.044921040
1640786326142159872,-0.066540430,0.318506750,10.054561610,-0.000286100,-0.015710290,-0.044065710
1640786326143399936,-0.079863820,0.191135670,9.466870310,0.053645670,0.013524290,-0.052861870
1640786326147109888,-0.432659030,0.131638120,10.602452280,0.057324770,0.003282730,-0.064536930
1640786326148359936,-0.114246790,0.323603750,9.371157650,-0.014132260,0.011563300,-0.036679210
1640786326152059904,0.069810840,0.381434020,9.773819920,-0.087580080,-0.039772690,-0.035713620
1640786326153379840,0.073460440,0.517553990,9.997436520,-0.083808610,0.112426300,-0.050364450
1640786326157110016,0.244935020,0.701280590,9.821426390,-0.018562380,0.024013220,-0.046911840
1640786326158350080,-0.196475950,0.518331940,11.096483230,0.023016340,-0.059406460,-0.053785750
1640786326162259712,0.087917580,0.283263360,9.226518630,0.009697680,0.007262830,-0.031760340
1640786326163769856,0.062882780,-0.160433380,9.518350600,0.018252430,-0.039757790,-0.033469500
1640786326167029760,-0.276843910,-0.375871210,10.103683470,0.020648540,0.122413030,-0.019381940
1640786326168300032,0.155136150,-0.204961540,9.265325550,0.001755360,0.051525250,-0.020504000
1640786326172029952,-0.270794240,-0.188538570,10.997157100,-0.004974010,-0.046715140,-0.022675090
1640786326173629952,0.025029980,0.058121400,9.389374730,-0.007189810,0.039510430,-0.043684240
1640786326177199872,0.151247070,0.271572470,9.494082450,0.055921090,-0.029714410,-0.072883090
1640786326178839808,-0.470126930,0.475186910,10.812781330,0.070784970,0.086028870,-0.080776200
1640786326182479872,-0.030916370,0.720489080,9.394246100,0.032170120,0.023366510,-0.059056290
1640786326183399936,-0.235903930,0.592623650,10.428606030,0.026766960,-0.085440280,-0.023473800
1640786326187029760,-0.225024490,0.477856340,9.546413420,0.010533630,0.091736010,-0.012598930
1640786326188369920,0.087910230,0.386662990,9.486304280,0.029575830,0.015950200,-0.016351040
1640786326195940096,-0.422966660,0.206150520,11.069997790,0.055031470,0.020557640,-0.006760660
1640786326197249792,0.074952030,0.261439380,9.326950070,0.022935870,0.000081960,-0.016576050
1640786326197829888,0.228588040,0.115563240,9.811437610,0.012589990,-0.036077200,-0.036384170
1640786326198339840,0.029156980,0.352288100,9.872920990,-0.005652010,0.125329210,-0.042499600
1640786326201969920,0.191228760,0.455230240,9.795820240,-0.008265670,0.029592220,-0.023835900
1640786326203349760,-0.247956950,0.235364290,10.747090340,0.026732690,-0.022305550,-0.018499790
1640786326207190016,-0.206579090,0.080611090,9.479636190,0.056476890,-0.034621350,-0.026020410
1640786326208429824,-0.179075790,-0.284723550,9.592954640,0.108741250,-0.026477880,-0.029394030
1640786326212270080,-0.338040650,-0.235502090,9.691336630,0.100208840,0.122354950,-0.035665940
1640786326213669888,-0.167333920,0.046519120,10.003982540,0.028701130,0.025135280,-0.025928030
1640786326217039872,-0.030742140,0.249260290,10.238395690,-0.006303190,0.000867250,0.000467900
1640786326218339840,0.293376450,0.636260090,9.209956170,-0.001202520,0.023464860,-0.011090940
1640786326221999872,0.035689850,0.740361750,10.339922900,0.041893130,0.019365550,-0.026589630
1640786326223599872,-0.141127710,0.703448470,10.040536880,0.081385690,0.058862580,-0.028552120
1640786326228029952,-0.268385830,0.448926690,10.018058780,0.110203040,-0.089418890,-0.023446980
1640786326228679936,-0.432865230,0.174043700,10.080764770,0.090125200,-0.000950690,-0.024123490
1640786326232019968,-0.082440090,0.246238050,8.864338870,0.026671590,0.058454290,-0.007945300
1640786326233329920,-0.255101560,0.344750050,10.454451560,-0.021609660,0.011911990,0.002071260
1640786326236989952,0.021601300,0.445021840,9.846735950,-0.043757260,0.097356740,0.000967090
1640786326238359808,0.397336300,0.535084720,9.666818620,0.025102500,-0.050002340,-0.021235650
1640786326242560000,0.002807160,0.460765600,10.506674770,0.085458170,0.007891660,-0.032466650
1640786326244750080,0.379025790,0.437688230,8.797486310,0.062805410,0.067548460,-0.026030840
1640786326247799808,-0.073465110,0.100386900,10.384652140,0.028543180,-0.025224690,-0.006386640
1640786326249639936,-0.340808780,-0.087736090,10.093602180,0.007805230,0.068649660,0.016002360
1640786326252049920,-0.011772970,-0.134153650,9.154592510,0.043664870,-0.049437590,0.017754740
1640786326253360128,-0.582150760,-0.123073160,10.522857670,0.067326410,-0.003999470,0.006537140
1640786326257169920,-0.172587390,0.198890600,9.119890210,0.028628110,0.090709340,-0.016602880
1640786326259369728,-0.094926510,0.352079210,10.165012360,0.042307380,-0.031128520,-0.032153720
1640786326262060032,-0.244578880,0.540822680,10.313984870,0.057432060,0.063997510,-0.033876300
1640786326263840000,0.375289320,0.914274510,9.121091840,0.038936750,-0.011588630,-0.037139660
1640786326267000064,-0.061005110,1.006683710,10.533675190,-0.002381210,-0.018733740,0.000649690
1640786326268359936,-0.057195070,0.839253900,9.588675500,-0.032107530,0.059922040,0.023433560
1640786326272229888,-0.061290820,0.514697910,10.006274220,0.025650860,-0.067995490,0.012670460
1640786326274030080,-0.498437370,0.128394650,10.292962070,0.083363060,0.000457470,0.019858780
1640786326280689920,-0.054644890,0.096448630,9.053553580,0.050134950,-0.006867950,0.000719730
1640786326282259968,-0.076289740,0.137011470,10.010848050,-0.027818980,0.029110910,0.016266110
1640786326283020032,0.080422390,0.151457190,9.602895740,-0.091648090,0.109842430,0.016492610
1640786326283520000,0.293058510,0.341801880,10.047594070,-0.040148190,-0.027352570,-0.008419160
1640786326287010048,-0.004872040,0.502829910,10.159450530,0.033293660,-0.002865490,-0.007611510
1640786326288600064,-0.056532440,0.362623720,9.387744900,0.031594940,-0.043421980,-0.010170040
1640786326292440064,-0.361396220,0.076668370,10.158353810,0.032131380,-0.033143170,-0.013732910
1640786326293859840,-0.371617020,-0.104369620,9.379323010,0.052805250,0.039075310,0.006094580
1640786326297139968,-0.334452570,-0.115513150,10.043297770,0.055633490,-0.028435890,0.012506550
1640786326298319872,-0.284591350,0.317434490,10.041508670,-0.005094710,0.042529400,0.034697360
1640786326302070016,0.101918620,0.551618160,9.463055610,-0.077854100,-0.040362780,0.042732060
1640786326303529984,0.001405710,0.584875170,10.438747410,-0.033855440,-0.008860230,0.012409690
1640786326307209984,0.140717490,0.823664130,9.418919560,0.038598480,0.030162940,-0.006839630
1640786326308620032,-0.137082370,0.688673680,10.404696460,0.063757600,-0.103373830,-0.016425550
1640786326312939776,-0.282592560,0.595911380,10.014393810,0.022988020,-0.018352270,0.015005470
1640786326314040064,0.033313370,0.290900230,8.949143410,-0.052151090,-0.027044120,0.020815430
1640786326317009920,-0.400268110,0.030896310,10.561593060,-0.053974990,-0.003114340,0.027647620
1640786326318320128,-0.071283840,0.112640940,9.384330750,0.006498400,0.040833650,0.048331910
1640786326322080000,0.117081340,0.066170290,9.709918980,0.010308620,-0.093100970,0.029782960
1640786326323399936,-0.078374910,0.145212550,10.054147720,-0.020392240,0.005994740,0.018857420
1640786326327109888,0.486700890,0.257026400,8.774225230,-0.035326190,0.004692380,0.010366740
1640786326328369920,0.008595700,0.184094340,10.550565720,-0.003631410,-0.013011690,0.006994610
1640786326332130048,-0.124217690,0.368210670,9.939161300,0.006696580,0.030228500,0.011305510
1640786326333349888,0.008755340,0.379525240,9.686139110,-0.000278650,-0.118441880,0.029610100
1640786326337149952,-0.493564460,0.152192670,10.120062830,0.006914140,-0.034412740,0.040270390
1640786326338419968,-0.130540210,0.170102910,8.869915010,0.005826350,0.030222540,0.033999980
1640786326342619904,-0.336480500,0.204015280,10.508814810,0.018508730,-0.020967430,0.017754730
1640786326344199936,-0.253748740,0.382870760,10.001111030,0.000791250,0.008130070,0.025700030
1640786326348379904,0.332987250,0.601931510,9.395244600,-0.020743910,-0.084944070,0.020802020
1640786326348969984,0.037706260,0.750294860,10.189349170,-0.053396830,0.019189720,0.012926760
1640786326352189952,0.108640360,0.867240130,9.588124280,-0.077366830,-0.000730160,0.024414060
1640786326353669888,-0.109866860,0.579897110,10.412704470,-0.023800140,-0.095784660,0.033153600
1640786326356989952,-0.496878620,0.229961710,9.910991670,0.019292540,-0.054329640,0.028644510
1640786326358670080,-0.156155440,0.051621050,9.178042410,0.021915140,-0.116050240,0.033511220
1640786326362119936,-0.269868760,-0.043530410,9.801835060,-0.015819070,0.041517620,0.042875110
1640786326363770112,0.119414700,0.146840560,9.411586760,-0.095987340,0.071285680,0.046168280
1640786326367009792,0.257429150,0.225626540,10.578991890,-0.092807410,-0.024050480,0.049649180
1640786326368409856,0.226220650,0.425274400,9.937883380,-0.043235730,-0.038275120,0.016717610
1640786326371990016,0.291798620,0.463096440,9.268010140,-0.009790060,-0.122518840,0.002126400
1640786326373359872,-0.218007300,0.308252870,9.798463820,0.006021560,-0.002472100,-0.005473200
1640786326377080064,-0.431115450,0.070817950,9.477739330,-0.011211640,-0.014053290,-0.000827010
1640786326378629888,-0.561050710,-0.144732770,10.356740950,0.017531210,-0.114652510,0.028459720
1640786326382040064,-0.436094670,0.045071770,9.529312130,0.006437300,0.004124640,0.049534440
1640786326383399936,-0.176158370,0.311732080,9.725781440,-0.077824300,-0.042521950,0.046311320
1640786326387019776,-0.212832780,0.538609920,10.467460630,-0.094828010,-0.000621380,0.056788330
1640786326388339968,0.193269240,0.716613170,9.415676120,-0.050309300,-0.047691170,0.019460920
1640786326392410112,0.199958770,0.787934120,10.098057750,0.006999080,-0.116765510,0.002907220
1640786326393679872,0.162638890,0.830891370,9.569575310,0.003303590,-0.006991620,0.012092290
1640786326397409792,0.200686200,0.665089190,9.690401080,-0.086958710,-0.056548420,0.013306740
1640786326398360064,-0.228617710,0.285557750,10.539356230,-0.108945380,-0.048804280,0.054521860
1640786326402079744,-0.144503740,0.059563570,9.477944370,-0.068189210,-0.060468920,0.035859650
1640786326403399936,-0.208658490,0.020339040,9.815784450,-0.032338500,-0.105820600,0.027973950
1640786326407040000,-0.351702150,-0.012734240,9.560903550,-0.029064720,0.003154580,0.034588580
1640786326408550144,0.025649660,0.066450280,9.382410050,-0.088299810,-0.030562290,0.001007320
1640786326412320000,-0.019758510,0.235076110,10.171377180,-0.086689020,-0.024482610,0.006313620
1640786326414429952,0.115370090,0.377555070,9.641049390,-0.052973630,-0.013120470,0.011561810
1640786326417110016,0.085674760,0.529415250,10.095061300,-0.068424650,-0.084070860,0.003907080
1640786326418479872,-0.351391910,0.286485280,10.059888840,-0.064836440,-0.071124740,0.025889280
1640786326422030080,-0.141320140,-0.014879670,9.294970510,-0.013339520,-0.104546570,0.026945770
1640786326423419904,-0.337666930,-0.168899160,9.792033200,0.040347870,-0.032687190,0.005015730
1640786326427099904,-0.271676570,0.039524890,9.576068880,-0.006493930,0.002940000,0.002282860
1640786326428379904,0.089715480,0.477669780,10.037713050,-0.105871250,-0.059074160,0.015194710
1640786326432059904,0.070401190,0.684038040,9.961690900,-0.150747600,-0.028111040,0.020533800
1640786326433670144,0.298643710,0.897899990,9.735347750,-0.123113390,-0.063715870,0.005140900
1640786326437019904,-0.010502830,0.943072920,10.291923520,-0.020307300,-0.064755980,0.003495810
1640786326438370048,-0.299457460,0.557363210,9.778566360,0.007475910,-0.086270270,0.010897220
1640786326442390016,-0.291850030,0.170682360,9.797030450,-0.020016730,-0.136020750,0.024382770
1640786326443569920,-0.423276420,-0.249700530,9.479600910,-0.063212220,-0.037436190,0.036787990
1640786326448189952,-0.043759630,-0.309236500,9.271369930,-0.098426640,-0.028473140,0.026091940
1640786326448659968,0.169384270,0.068504970,9.988718030,-0.097107890,0.011655690,0.027200580
1640786326452059904,0.249504180,0.263665350,10.008509640,-0.118939590,-0.006130340,0.019110740
1640786326453399808,0.409650330,0.319330570,10.102801320,-0.075028840,-0.119239090,-0.009979310
1640786326457059840,0.048870790,0.320903210,9.703880310,0.017002220,-0.085495420,-0.020943590
1640786326458599936,-0.162416990,0.150802200,9.337339400,-0.001579520,-0.067198300,-0.035120550
1640786326463480064,-0.520495060,0.084102240,10.013942720,-0.021161140,-0.072923300,0.004079940
1640786326464199936,-0.633880790,-0.092918950,9.764138220,-0.040203330,-0.059987600,0.031687320
1640786326467350016,-0.382326300,-0.090644790,9.686383250,-0.053277620,-0.089450190,0.029729310
1640786326468339968,-0.363519130,0.312493150,9.963694570,-0.041894630,-0.032640990,0.024417050
1640786326472029952,-0.027379730,0.407867880,9.853752140,-0.063426790,-0.031259660,0.001455840
1640786326473420032,0.097831510,0.582598390,10.134170530,-0.023683910,-0.100974740,-0.011441110
1640786326481839872,0.085913930,0.674287560,9.834480290,0.001424550,-0.102153440,-0.022649770
1640786326482880000,0.335540240,0.587187710,9.324004170,-0.040069220,-0.089396540,-0.017465650
1640786326483510016,0.008867720,0.434701380,9.961126330,-0.054129970,-0.051881380,0.016409160
1640786326483980032,-0.021762090,0.238539900,10.049957280,-0.067116330,-0.036534670,0.029127310
1640786326487030016,-0.113133070,0.032694050,10.027447700,-0.042542810,-0.129131990,0.022429230
1640786326488369920,-0.215384870,-0.051612400,9.648128510,0.005996230,-0.124247360,0.017680220
1640786326492319744,0.094530860,0.110557720,9.029251100,-0.038132070,-0.016516450,0.002062320
1640786326493350144,-0.063259390,0.157443820,9.854578970,-0.069202490,-0.014400480,-0.010333950
1640786326497009920,0.034157190,0.291568640,10.088946340,-0.071355690,-0.037577740,-0.003167990
1640786326498479872,0.185635640,0.492726420,9.768007280,-0.035052000,-0.098979500,-0.004971030
1640786326502080000,-0.146413640,0.397320000,9.916996960,-0.026670100,-0.093851980,0.002931060
1640786326503389952,-0.077303240,0.228922200,9.533958440,-0.040343400,-0.056858360,0.003132220
1640786326507040000,-0.249072130,-0.108736950,9.791811940,0.018168990,-0.072155900,-0.006234650
1640786326508559872,-0.199865640,-0.187441470,9.683942790,0.043536720,-0.042796130,-0.003527100
1640786326515980032,0.062688130,0.203394140,9.598876950,0.004674490,-0.051289800,-0.002028050
1640786326516969984,-0.069823810,0.487537210,9.928131100,-0.100123900,-0.053030260,0.003336370
1640786326517329920,0.227406340,0.692250790,9.598284720,-0.130261500,-0.050157320,0.001846250
1640786326518359808,0.057357250,0.865810280,10.091885570,-0.046716630,-0.060509150,-0.025247040
1640786326521989888,-0.123784150,0.752643350,10.068540570,0.006037950,-0.053271650,-0.036439300
1640786326523419904,-0.143307160,0.614130500,9.811545370,0.030390920,-0.116270800,-0.017251080
1640786326527119872,-0.401020290,0.231630490,9.829708100,-0.037463020,-0.087225460,0.003555420
1640786326528369920,-0.024175520,-0.049194750,9.013930320,-0.095665450,-0.040563940,0.016845760
1640786326532049920,0.005490040,-0.007533120,9.828697200,-0.056956710,-0.020894410,0.020799040
1640786326533679872,0.111808320,0.053783020,10.008422850,-0.066024070,0.024046000,0.011651220
1640786326537050112,0.389478620,0.234958690,9.797124860,-0.057493160,-0.103947540,-0.004769860
1640786326538400000,0.108790610,0.168394220,10.152453420,-0.039505960,-0.077438360,-0.024162230
1640786326542419968,0.223336160,0.062341910,9.011845590,-0.017684700,-0.018449130,-0.043620170
1640786326543449856,-0.235322730,0.032449710,10.027955060,0.041879710,-0.073689230,-0.040261450
1640786326547319808,-0.367567090,0.113367140,9.898936270,-0.008887050,-0.009343030,-0.027573110
1640786326548389888,-0.085631170,0.117148440,9.317423820,-0.049620860,-0.077852600,0.004585090
1640786326552029952,-0.366672220,0.055191290,10.408030510,-0.016993280,-0.041048230,0.017829240
1640786326553409792,-0.015100910,0.254826520,9.383077620,-0.001302360,0.015044210,-0.012218950
1640786326556989952,-0.023499450,0.450177340,9.989174840,0.028973820,-0.092209880,-0.015325850
1640786326558650112,-0.033075860,0.520140410,9.988002780,0.006254020,-0.010436770,-0.008852780
1640786326562299904,0.359857560,0.581349070,9.109062190,-0.034007430,-0.048974160,-0.020621720
1640786326563399936,-0.076040390,0.569258750,10.420858380,-0.026452550,-0.052852940,-0.018709900
1640786326567159808,0.056908350,0.578414260,9.619510650,-0.032061340,0.011543930,-0.007362660
1640786326568369920,-0.173290310,0.280639590,10.066074370,-0.014518200,-0.101993980,-0.016254190
1640786326572019712,-0.425364430,0.078434270,10.150233270,-0.002312660,-0.064100330,-0.005981330
1640786326573380096,0.066363620,-0.016776720,8.857391360,0.012606380,-0.046254690,-0.018116830
1640786326577400064,-0.061613150,-0.050741410,9.819076540,0.004725160,0.013925140,-0.017739830
1640786326581869824,0.283815320,0.230821250,9.589724540,-0.046184660,0.085620590,0.007161500
1640786326583049984,0.315445010,0.276636990,10.203543660,-0.049784780,-0.063279280,-0.007924440
1640786326583749888,0.139220980,0.285428400,9.971282960,-0.019490720,-0.063444670,-0.007830560
1640786326587009792,0.140642550,0.404165630,9.174964900,0.016091770,-0.060586640,-0.030957170
1640786326588359936,-0.444043900,0.113609950,10.135046010,0.013566020,-0.033843520,-0.043359400
1640786326592169984,-0.332038400,-0.032932120,9.433762550,0.037266320,0.012196600,-0.032679740
1640786326593449728,-0.312455240,0.029396440,10.007318500,0.061310830,-0.047178570,-0.026199220
1640786326597029888,-0.284770610,0.247548800,9.862701420,-0.026629870,0.025545060,-0.008718670
1640786326598439936,0.184142320,0.526645660,9.447282790,-0.082564350,-0.030767920,0.004692380
1640786326601999872,-0.018531400,0.548064050,10.476358410,-0.052106380,-0.018532570,-0.019490720
1640786326603389952,0.248080150,0.631261050,9.413769720,0.004965070,0.006541610,-0.042422120
1640786326607379968,0.114154150,0.649738730,10.258397100,0.062927600,-0.089533630,-0.049026310
1640786326608839936,-0.124885140,0.466654270,9.940801620,0.002582370,0.014178460,-0.041551900
1640786326615719936,0.115830000,0.334179640,9.075884820,-0.064653150,-0.048442180,-0.023898480
1640786326616420096,-0.293651820,0.057730330,10.536100390,-0.057925280,-0.014638900,-0.011983510
1640786326617049856,0.024935490,0.070743380,9.163369180,-0.025860970,0.048410890,-0.015309450
1640786326618389760,0.072964940,0.204223390,9.911368370,0.019128620,-0.090165440,-0.015719240
1640786326622010112,-0.078252600,0.299271260,10.000144000,-0.031198570,0.069537770,-0.023399290
1640786326623579904,0.398141740,0.192893520,9.021319390,-0.069443880,0.003311040,-0.041455020
1640786326627460096,0.004400690,0.132600460,10.662013050,0.001695750,-0.018788870,-0.048743190
1640786326628819968,-0.014510860,0.353252350,9.471260070,0.012882050,0.048786410,-0.045323370
1640786326632269824,-0.021175090,0.191250000,9.652224540,-0.021794430,-0.105792280,-0.035899880
1640786326633359872,-0.431602060,0.060625890,10.152972220,-0.022777920,0.018788880,-0.031304360
1640786326636999936,-0.091518820,-0.062232430,9.120191570,0.007568300,0.026547910,-0.047570470
1640786326638379776,-0.258878470,-0.086012620,10.404388430,0.063604140,-0.021928550,-0.046782210
1640786326642169856,-0.087875090,0.438089400,9.728487010,0.016902390,0.045372560,-0.048203770
1640786326644079872,0.247182730,0.658809420,9.688766480,-0.079695870,-0.046934180,-0.026564300
1640786326647159808,0.030934810,0.684016470,10.084564210,-0.089922550,0.020353500,-0.020571050
1640786326649319936,0.163119080,0.755085230,9.595859530,-0.039206450,-0.004658100,-0.059664250
1640786326652029952,-0.175689500,0.472426270,10.330240250,0.047823790,-0.044053800,-0.043897330
1640786326653410048,-0.253466840,0.276775240,9.561261180,0.058309750,-0.012066960,-0.043787070
1640786326657199872,-0.231192440,0.037564560,9.860507010,-0.022056700,-0.052729250,-0.046190620
1640786326658449920,-0.113042980,-0.173760770,9.485487940,-0.054876510,0.045453020,-0.018884240
1640786326662169856,0.222317130,0.004353300,9.345131870,-0.041365630,0.030952690,-0.026775900
1640786326664399872,0.151614560,0.235400170,10.374307630,-0.044515730,0.039927670,-0.035937130
1640786326666980096,0.405328070,0.393167730,9.487836840,-0.035692750,0.017265980,-0.021357840
1640786326668379904,0.177297070,0.154924420,10.164681430,0.020240250,-0.084151330,-0.050233300
1640786326672049920,-0.158714070,0.081976570,9.574298860,0.052765010,0.036726890,-0.067877750
1640786326673760000,-0.168396260,0.067768540,9.192035680,0.033751130,-0.025308140,-0.062903770
1640786326677399808,-0.630812700,-0.016570510,10.548443790,0.000783800,-0.011956690,-0.039821870
1640786326678700032,-0.177938190,0.163723980,8.957956310,-0.017301740,0.032879410,-0.022381550
1640786326682759936,-0.044941340,0.329546390,9.948479650,-0.006403030,-0.048218670,-0.029705470
1640786326683429888,-0.083185680,0.568714440,10.225543020,-0.018738210,0.114485630,-0.034463410
1640786326687000064,0.436502040,0.698904040,9.492736820,0.003185870,-0.005581970,-0.048892210
1640786326688760064,-0.038031800,0.640432600,10.937078480,0.028704110,-0.078274310,-0.054945060
1640786326692069888,0.143733380,0.598928750,8.967663760,-0.006917120,0.008140500,-0.059391560
1640786326697029888,0.141425400,0.451283990,9.413726810,-0.036522750,-0.062341990,-0.052297120
1640786326698230016,-0.457660590,0.247244240,10.348917960,-0.035545230,0.069570550,-0.026157500
1640786326698569984,-0.018797650,0.130562080,9.247414590,-0.032754240,0.011804700,-0.035263600
1640786326701979904,-0.270549950,0.144821330,10.558600430,0.003650780,-0.074277830,-0.027911370
1640786326703399936,-0.176763420,0.279740630,9.424273490,-0.026567280,0.045517090,-0.017534200
1640786326707039744,0.336845010,0.316909370,9.273041730,-0.069996710,0.000064080,-0.034055120
1640786326708359936,0.033119450,0.342589470,10.238368990,-0.056448590,0.075139110,-0.026464470
1640786326712229888,0.386384490,0.287016960,9.359252930,-0.021792950,0.039480630,-0.036980220
1640786326714999808,0.228992800,0.275071080,10.223407750,0.015570230,-0.021462140,-0.046931220
1640786326716979968,-0.270854920,0.104838920,9.873395920,-0.015825030,0.005508960,-0.047647960
1640786326718400000,-0.234968830,-0.148913220,9.480514530,-0.022463500,-0.088903310,-0.052197290
1640786326722259968,-0.468099770,-0.230217050,9.470028880,0.019408760,0.039672860,-0.056608020
1640786326723379968,-0.289045510,0.084761180,9.382284160,0.011847910,0.070242580,-0.066664820
1640786326727109888,-0.224111050,0.516006050,10.510582920,-0.032757220,0.041742630,-0.044190890
1640786326728399872,0.035832820,0.806659820,9.709584240,-0.087733570,0.009238720,-0.022509690
1640786326732029952,0.136316980,0.807157460,9.897522930,-0.080256160,-0.059583780,-0.029966240
1640786326733430016,-0.066191230,0.672732890,9.857421880,-0.003854930,0.041025880,-0.044026970
1640786326737409792,-0.191688690,0.360502240,9.769127850,0.042939180,-0.028504430,-0.058433410
1640786326738439936,-0.419030760,0.074197310,10.316226960,0.039938090,-0.056387490,-0.054329640
1640786326742019840,-0.185480950,0.001255750,8.995181080,-0.038608910,0.013385710,-0.047002730
1640786326745049856,-0.040188510,-0.002004920,9.817737580,-0.107966370,-0.002300740,-0.046215960
1640786326747119872,-0.020493730,0.398889990,10.042063710,-0.087636710,0.085356840,-0.028371810
1640786326749959936,0.340129520,0.684966440,9.516842840,-0.073742870,-0.027731060,-0.046694270
1640786326752059904,0.174726140,0.710939530,10.265378950,-0.047564510,-0.048086050,-0.036376710
1640786326753809920,0.179566980,0.719610390,9.312490460,-0.027219960,0.031508510,-0.038383900
1640786326756989952,-0.039520620,0.300940780,9.928840640,-0.042662030,-0.033372640,-0.050921740
1640786326758380032,-0.379899230,-0.008869840,9.975377080,-0.032524770,0.014978650,-0.044137240
1640786326762039808,-0.101773690,-0.026735350,9.180328370,-0.044775010,-0.022771960,-0.047715010
1640786326763729920,-0.265961650,-0.167478220,9.996756550,-0.062006700,0.002762680,-0.037580730
1640786326767059968,-0.168615400,0.040017550,9.510044100,-0.076252230,0.052204730,-0.042776760
1640786326768369920,0.018473470,0.155359750,9.997929570,-0.067342830,-0.038662560,-0.057908900
1640786326772079872,-0.022998230,0.180323600,9.834933280,-0.016012790,0.027433040,-0.070001180
1640786326773440000,0.153355060,0.431784060,9.451255800,0.010517240,-0.006766620,-0.072440510
1640786326777179904,-0.181209400,0.513875310,10.460191730,-0.041605540,-0.013649460,-0.059208280
1640786326778499840,-0.161235530,0.446425860,9.476341250,-0.076517460,-0.012537840,-0.030186770
1640786326782109952,-0.219133120,0.290790170,9.989562990,-0.057798630,-0.071357200,-0.036090610
1640786326783409920,-0.482754470,0.238738330,9.956936840,-0.030122700,0.045378500,-0.052213660
1640786326787059968,-0.145461380,0.355684220,9.417387960,-0.010479990,-0.032962860,-0.044018030
1640786326788369920,-0.238377470,0.378348740,10.475399020,-0.038751960,-0.019983950,-0.043471160
1640786326792440064,0.171529290,0.529097440,9.013481140,-0.104132320,0.046119100,-0.048579280
1640786326793459968,0.349898040,0.590296860,9.808153150,-0.112879280,-0.047782060,-0.046007350
1640786326797109760,0.119879660,0.516212940,10.156255720,-0.088648500,0.079314420,-0.035324700
1640786326799180032,0.293680670,0.352826800,9.456069950,-0.050802530,-0.026139620,-0.048811730
1640786326802199808,-0.308494090,0.027649210,10.794242860,-0.003527110,-0.111487530,-0.040487950
1640786326803399936,-0.236410470,-0.303529470,8.828501700,-0.027750430,-0.001816450,-0.040715930
1640786326807190016,-0.109219800,-0.473885740,9.259998320,-0.029721860,-0.021782520,-0.052131710
1640786326808659968,-0.579739570,-0.221505600,10.495925900,-0.037810200,0.091317290,-0.041329860
1640786326812599808,0.072432350,0.096992380,9.288809780,-0.079435110,-0.019668040,-0.036372240
1640786326814019840,0.087494400,0.367482900,10.146175380,-0.052873790,-0.066050890,-0.038608910
1640786326817090048,0.085459030,0.616733310,9.527442930,-0.045932830,0.074444710,-0.061282520
1640786326818409984,0.217924770,0.501115080,9.871137620,-0.012657050,-0.030396880,-0.072023280
1640786326822000128,-0.352427300,0.333677710,10.531508450,0.038582090,-0.035898380,-0.064854310
1640786326823489792,-0.196147220,0.218295220,9.288837430,0.018617510,-0.072158880,-0.056558850
1640786326827119872,-0.309592250,0.131494850,9.700654030,-0.032010680,-0.038971010,-0.027544800
1640786326828950016,-0.364626850,0.264394760,9.624485970,-0.089827180,0.058174140,-0.021614130
1640786326832239872,-0.088276320,0.329235730,10.111895560,-0.078122320,-0.017377730,-0.028961900
1640786326833639936,-0.018057120,0.523908560,10.054933550,-0.018122790,-0.005522370,-0.039897860
1640786326837009920,0.278079660,0.768436670,9.508922580,-0.030262770,-0.054496530,-0.059945890
1640786326838400000,0.222890210,0.732227210,9.949977870,-0.070984670,0.004836920,-0.048901150
1640786326842069760,0.195458560,0.533941210,9.395645140,-0.083380930,0.024212890,-0.049382450
1640786326843489792,-0.099033760,0.239765390,10.304225920,-0.055117920,-0.089843570,-0.043620170
1640786326847089920,-0.145969000,0.020816800,9.483400340,-0.020119550,0.009131430,-0.024390220
1640786326848409856,-0.162823380,-0.118381100,9.358899120,-0.039386750,-0.041015450,-0.035671890
1640786326852079872,-0.477613990,-0.223600940,10.462075230,-0.066030020,0.003704430,-0.031259650
1640786326853410048,0.040632830,-0.061345880,8.968982700,-0.066405530,0.019657610,-0.039587910
1640786326857440000,-0.034835000,0.184735520,10.017779350,-0.036545100,-0.049912930,-0.065203010
1640786326858479872,-0.008433470,0.599894290,9.780308720,-0.050285450,0.059869890,-0.048860900
1640786326862449920,0.275887610,0.796329680,9.396084790,-0.088638070,-0.062301750,-0.045661630
1640786326863409920,-0.242909450,0.510016440,10.574884410,-0.072836880,-0.053600970,-0.042845300
1640786326867040000,-0.068074670,0.428766760,9.223350520,-0.013345480,0.001080330,-0.043658920
1640786326868419840,-0.374445590,0.248772400,10.250992770,0.012615330,-0.092919170,-0.058093680
1640786326872059904,-0.465630350,0.216886310,9.924764630,-0.048676140,-0.003220140,-0.035274030
1640786326873900032,0.131140690,0.317619200,9.096709250,-0.118649010,-0.039336090,-0.024820870
1640786326879219968,-0.079923120,0.233698290,10.285979270,-0.131331380,0.022470950,-0.039808460
1640786326880059904,0.246539760,0.579752450,9.583917620,-0.083275130,0.031323720,-0.039319690
1640786326882099968,0.074297720,0.601684090,10.367324830,-0.051361330,-0.104379660,-0.038750470
1640786326883499776,-0.087698000,0.419274120,9.774542810,-0.081479550,-0.046233840,-0.038732590
1640786326886989824,0.117428020,0.259792720,9.155179980,-0.074066230,-0.074812770,-0.028596810
1640786326888449792,-0.289558020,-0.045101700,10.175801280,-0.059667230,0.014586750,-0.025932490
1640786326892129792,0.042794170,-0.027241890,9.266252520,-0.061395780,0.044883790,-0.010249020
1640786326893449984,-0.095334020,0.048768750,10.454337120,-0.064030270,-0.062876930,-0.004889070
1640786326897189888,-0.003457760,0.109762300,9.677022930,-0.110848270,-0.003591180,-0.014835600
1640786326898489856,0.299486760,0.262209620,8.922849660,-0.076963010,-0.069607790,-0.035986310
1640786326901999872,-0.206526340,0.318640140,10.261612890,-0.054651500,0.025761130,-0.055961310
1640786326903460096,0.037164810,0.455735530,9.343028070,-0.065596410,0.033479930,-0.050033630
1640786326907379968,-0.274383780,0.231387880,10.416580200,-0.015303490,-0.128012910,-0.023214520
1640786326908589824,-0.378492950,0.112906720,9.925493240,-0.038105250,0.001212950,-0.011105840
1640786326912379904,-0.140134270,0.142476570,9.213077550,-0.054541240,-0.046581040,0.006148220
1640786326913539840,-0.481832770,0.035397390,10.602380750,-0.057068470,-0.032120950,0.002358850
1640786326917019904,0.023739480,0.309941350,9.295214650,-0.070652370,0.009338560,0.001779200
1640786326918419712,0.268250230,0.474770220,9.636503220,-0.046958040,-0.064755980,-0.009104610
1640786326922040064,0.271001400,0.702753960,10.033418660,-0.088635070,0.043840700,-0.013606250
1640786326923729920,0.471814330,0.948403780,9.632967000,-0.115957860,0.003007050,-0.001329180
1640786326927059968,0.028402310,0.570708630,10.494403840,-0.094260280,-0.073046980,0.006623570
1640786326928949760,-0.137978290,0.380238320,9.728561400,-0.049807140,-0.065514450,0.011000040
1640786326932109824,-0.254497290,0.072881030,9.309617040,-0.013241170,-0.084215420,0.019691890
1640786326933430016,-0.255597140,-0.174989910,9.417694090,-0.059990580,0.036118930,0.033017990
1640786326937039872,-0.097533240,-0.203677970,9.863398550,-0.103844720,0.058506440,0.027346620
1640786326938419712,0.091503630,-0.069846180,10.058361050,-0.095310810,0.017631060,0.029835110
1640786326942179840,0.293190120,0.208421620,9.773734090,-0.077772150,-0.042647120,0.014963740
1640786326943490048,0.143236490,0.410991070,9.748433110,-0.066323590,-0.030140580,-0.000838940
1640786326947029760,0.130529460,0.425202250,9.480669020,-0.071533020,-0.010316070,-0.010146200
1640786326948499968,-0.201861280,0.236484990,9.849788670,-0.018773970,-0.040975220,-0.009909270
1640786326952009984,-0.257110000,0.120867560,9.641784670,0.012768810,0.011911990,0.005339090
1640786326953430016,-0.193215880,0.230943160,9.770209310,-0.040666750,-0.001947580,0.018265840
1640786326957360128,-0.478904840,0.236820670,10.261146550,-0.100076210,-0.038296000,0.032934550
1640786326958550016,-0.074062480,0.351326700,9.393412590,-0.116249930,-0.035868600,0.027430060
1640786326963330048,-0.085576240,0.508818980,9.681290630,-0.069330630,-0.003597140,0.005061920
1640786326964390144,-0.017690010,0.645444990,9.921368600,-0.043334070,0.028638540,0.004735590
1640786326966990080,0.221973780,0.732196510,10.030880930,-0.057761380,-0.012926760,0.008574130
1640786326968379904,-0.017078770,0.454251650,10.031054500,-0.080178700,-0.050058970,0.015938290
1640786326972079872,0.128856630,0.243682000,9.526199340,-0.102542330,-0.044104450,0.022737680
1640786326973680128,-0.158294530,0.069048080,9.833778380,-0.068564710,-0.003790860,0.032339990
1640786326977159936,-0.222599180,-0.163187240,9.663146020,-0.063671180,-0.012604890,0.029815730
1640786326979159808,0.059402020,-0.103863780,9.687296870,-0.051388150,-0.043599310,0.026449560
1640786326982230016,0.105049090,-0.013375110,9.402746200,-0.064745570,0.050614790,0.014169520
1640786326983859968,0.390879810,0.188196690,9.541732790,-0.092670320,0.048142680,0.018011030
1640786326986979840,0.043889050,0.423777910,10.509252550,-0.081290300,0.023366510,0.030060110
1640786326988420096,-0.022851260,0.390092130,9.824399950,-0.092598800,-0.061748920,0.016757850
1640786326992219904,-0.060926370,0.171213240,9.546285630,-0.017523770,-0.115521250,0.037603080
1640786326993749760,-0.554818750,-0.041917800,9.477875710,0.024929640,0.041458010,0.018310550
1640786326997649920,-0.370975260,-0.174808650,9.630222320,-0.002290310,0.029657780,0.020742420
1640786326998390016,-0.500396670,-0.111134260,10.462517740,-0.012159350,-0.031584500,0.048208240
1640786327002009856,-0.059869020,0.093636130,9.600443840,-0.070878880,-0.020404160,0.037392990
1640786327003419904,0.333486320,0.412937850,9.610960960,-0.080679360,0.004987420,0.045034290
1640786327007049984,0.117550400,0.742015360,10.110839840,-0.053945180,0.052142150,0.034688420
1640786327008930048,0.269257010,0.746146680,10.172991750,-0.037202240,-0.035046040,0.023274120
1640786327012280064,0.085184950,0.626586740,9.955735210,0.004839900,-0.069053480,0.039251150
1640786327013509888,-0.043731760,0.370420280,9.435134890,-0.005918740,-0.053760410,0.033962730
1640786327017029888,-0.057573720,0.096638110,9.564180370,-0.036150220,0.015281140,0.049969560
1640786327018380032,-0.202228250,0.062329500,9.701363560,-0.054837770,0.055107480,0.074429820
1640786327021999872,-0.122370690,0.023294020,10.292509080,-0.081206860,-0.032171610,0.071004030
1640786327023459840,0.016312090,0.040407800,9.672527310,-0.045168400,-0.008769330,0.066260990
1640786327027350016,0.193091210,0.176155700,9.185289380,-0.023262210,-0.023168330,0.041513150
1640786327028620032,0.014846740,0.145688010,10.201602940,-0.027212500,0.040142240,0.026640300
1640786327032039936,0.126921800,0.150442750,9.472909930,-0.015370550,0.045356150,0.034132600
1640786327033389824,0.008640990,0.071983780,10.187478070,0.011938810,-0.088559090,0.043474140
1640786327037009920,-0.235055570,0.044857870,9.793558120,0.002343950,0.026483840,0.053571170
1640786327038409984,-0.028628750,0.108110530,9.052063940,-0.023639200,-0.026686490,0.056570770
1640786327042479872,-0.445946810,-0.017583980,10.588119510,-0.010918080,-0.014840070,0.050151360
1640786327044819712,-0.049941760,0.267703380,9.100036620,0.024738910,0.067834560,0.036364800
1640786327047869952,0.094661490,0.552808460,9.885738370,0.020320720,-0.038446490,0.035157800
1640786327049659904,-0.123197700,0.734734060,10.357357980,-0.047600270,0.069603320,0.052607060
1640786327052029952,0.387418930,0.839884940,9.219990730,-0.082047280,-0.001731510,0.057879100
1640786327053409792,-0.089370280,0.513286950,10.625856400,-0.035649540,-0.056770460,0.056341300
1640786327057099776,-0.094416600,0.274539680,9.437852860,0.032286350,0.033906110,0.058630110
1640786327058549760,0.051411780,0.074577400,9.556706430,0.051954390,-0.058540710,0.058402130
1640786327062070016,-0.276551930,-0.198281260,10.113908770,-0.009498000,0.051344940,0.071011480
1640786327064559872,0.359353990,-0.088213880,9.002534870,-0.066588810,0.053995850,0.068874660
1640786327066969856,0.288141460,0.042740830,10.222512250,-0.052954260,0.033579770,0.059746210
1640786327068369920,0.243404220,0.359973790,9.703266140,-0.031900410,0.080543760,0.054571030
1640786327072059904,0.266654820,0.613366840,9.883813860,-0.020675360,-0.049638750,0.048466030
1640786327073669888,-0.201340320,0.335130690,9.925394060,-0.008212030,-0.008262690,0.044809290
1640786327077189888,-0.104007040,0.049020620,8.971266750,0.040820240,0.008843840,0.038909910
1640786327078539776,-0.517066600,-0.139045890,10.279685020,0.083675980,0.055278840,0.051680210
1640786327082039808,-0.454009800,-0.133243350,9.612524030,0.030939280,0.067749630,0.072243810
1640786327083439872,-0.170596670,-0.063559880,9.993908880,-0.025075670,-0.060127670,0.090897080
1640786327086979840,-0.035883970,0.094179270,9.640814780,-0.039204960,0.081995130,0.081335010
1640786327088549888,0.313887360,0.358157990,9.285795210,-0.006006660,0.045897070,0.035403670
1640786327092419840,0.045256460,0.553278330,10.735540390,0.064231460,0.028547650,0.027269120
1640786327093550080,0.237861510,0.746119800,9.490832330,0.050188610,0.011506680,0.026674570
1640786327096999936,0.125967950,0.474560530,9.900732040,0.011907520,-0.068578110,0.045894080
1640786327098409984,-0.211173920,0.393012910,9.926983830,-0.002913180,0.091710690,0.065201520
1640786327102020096,-0.128213750,0.242621910,9.490915300,0.005790590,0.019985440,0.077266990
1640786327103499776,-0.422295180,0.052134480,10.533801080,0.033879280,-0.017805400,0.090439620
1640786327107019776,-0.036224990,0.286721890,9.060963630,0.016582010,0.037370620,0.062239170
1640786327108769792,0.258968470,0.177696530,9.345475200,-0.010983650,0.025436280,0.059010090
1640786327112099840,0.196082760,0.285767110,10.068750380,-0.011110310,0.156147760,0.063931940
1640786327114599936,0.353778840,0.436231640,9.979228970,-0.000019370,0.032462180,0.049839910
1640786327116940032,0.053902790,0.119244640,10.389707570,0.027127560,-0.044637910,0.057479740
1640786327118409984,0.064354170,0.084442460,9.033467290,0.061163300,0.014595690,0.060948730
1640786327122149888,-0.206746160,-0.160133730,9.617064480,0.054098670,0.023126600,0.043880940
1640786327123440128,-0.393109920,-0.269198890,9.766757970,0.050236280,0.099599370,0.043338540
1640786327127120128,-0.120192290,0.044780040,9.543332100,0.057046130,0.012201070,0.049680480
1640786327128609792,-0.118031700,0.159290520,9.978943820,0.033980600,0.054924180,0.066792960
1640786327131970048,0.188199560,0.583529770,9.281373020,0.002312660,0.093658270,0.062307720
1640786327133420032,-0.072027910,0.711297870,10.576048850,0.011129680,0.007921460,0.053177780
1640786327137090048,-0.063247150,0.485774370,9.823369980,0.042770800,0.047907230,0.045584140
1640786327138500096,0.006264750,0.384533170,9.420963290,0.120730710,-0.031113620,0.038005420
1640786327142360064,-0.391458540,0.155338990,10.242321010,0.097332880,0.051622090,0.045262270
1640786327143469824,-0.016466770,0.147778820,9.068875310,0.029115380,0.084571540,0.065074870
1640786327147279872,-0.142287870,0.122405070,10.366818430,0.003461540,-0.012080370,0.068832930
1640786327148429824,-0.017867000,0.333384720,9.667946820,-0.022877750,0.103493020,0.064899020
1640786327152109824,0.405518890,0.638794420,9.178782460,0.011850890,0.008071960,0.062942490
1640786327153479936,0.000692850,0.646097600,10.565785410,0.030963120,0.068156420,0.049054630
1640786327157260032,0.383608130,0.585290670,8.969506260,0.013674790,0.097903590,0.037023420
1640786327158499840,0.090525500,0.258427980,10.098367690,0.053022800,-0.032153730,0.041328370
1640786327162070016,-0.299830820,-0.052707690,9.965133670,0.049886120,0.111709540,0.060762470
1640786327163429888,-0.093328650,-0.245928140,9.189449310,0.039333110,0.008386370,0.064109270
1640786327166970112,-0.657871310,-0.422613320,10.645079610,0.046680860,-0.006251040,0.075462470
1640786327168499968,-0.096889440,-0.294518020,8.773577690,0.038224460,0.090473890,0.059936940
1640786327172000000,0.155841470,-0.079540290,9.636755940,0.071468960,0.058844690,0.038363040
1640786327173449984,-0.103647120,0.409348070,10.523680690,0.064688920,0.145876420,0.039631130
1640786327177100032,0.468402740,0.784548940,9.418901440,0.021155180,-0.008107720,0.036183000
1640786327178599936,0.141823430,0.811461270,10.244809150,0.018356740,-0.016829370,0.054982300
1640786327181979904,0.053631400,0.825542750,9.352311130,0.027334690,0.093738750,0.047853600
1640786327183409920,-0.158845620,0.484421760,10.079051970,0.072614860,0.016684830,0.052578750
1640786327186980096,-0.567281780,0.265432060,10.279610630,0.086845440,0.029435750,0.061661000
1640786327188439808,-0.219595570,0.113255030,9.197942730,0.038971010,-0.005458300,0.061780230
1640786327192209920,-0.171188610,-0.008507760,9.730339050,-0.006476050,0.069460280,0.056891150
1640786327193430016,-0.003452630,0.298490140,9.610565190,-0.027959050,0.137093660,0.058750810
1640786327196979968,0.137157810,0.325862770,10.423441890,-0.019399820,0.029280780,0.060479340
1640786327198429696,0.247107540,0.419428350,9.895888330,0.017309190,0.033360720,0.052505730
1640786327202019840,0.308282260,0.406977210,9.418431280,0.054974860,-0.023871660,0.052064660
1640786327203439872,-0.039885430,0.080805120,9.879364010,0.048263370,0.073468690,0.052565340
1640786327207229952,0.006453540,-0.000708470,9.244139670,0.035157800,0.081048910,0.057588520
1640786327212160000,-0.326203610,-0.186942590,10.468546870,0.031514460,-0.008474290,0.064766400
1640786327212869888,-0.182655420,-0.074843080,9.515352250,0.038914390,0.078019510,0.066995620
1640786327213469952,-0.077118510,0.188105210,9.409637450,0.021907690,-0.000852350,0.041860350
1640786327217129984,-0.413259860,0.363848720,10.414632800,-0.004749000,0.070573400,0.031368440
1640786327218439936,0.098199420,0.587593080,9.038964270,0.001560150,0.071166460,0.028154250
1640786327221999872,-0.203735010,0.506904780,10.555088040,0.062969330,-0.027252740,0.020197030
1640786327224169984,-0.150112330,0.525581180,9.805693630,0.066690150,0.078988080,0.041773910
1640786327227150080,0.099770770,0.454418210,9.402706150,0.027179720,-0.037148590,0.059068200
1640786327228399872,-0.459447770,0.134361730,10.736471180,-0.008268650,0.023420150,0.069546690
1640786327232159744,0.066786860,0.139366080,8.955526350,-0.002239640,0.061450900,0.064948200
1640786327233510144,-0.003430850,0.163787070,10.221282960,0.033782430,-0.051584840,0.047414010
1640786327236960000,0.008316670,0.403729590,9.832657810,0.022982060,0.106272110,0.044818230
1640786327238449920,0.550330640,0.703415570,9.036151890,-0.037345290,0.024984780,0.029931970
1640786327242139904,-0.024527700,0.581803980,10.818308830,-0.058597330,0.035436450,0.039808460
1640786327243510016,0.100470740,0.603727040,9.446427350,-0.025711950,0.047703090,0.036302210
1640786327247040000,-0.042148370,0.457266780,9.845574380,0.027093290,-0.080573570,0.041459500
1640786327248620032,-0.543891370,0.067061980,9.958095550,0.004215540,0.051294270,0.050584980
1640786327251999744,-0.045871440,-0.106093790,8.867361070,-0.021076200,0.035782160,0.042068960
1640786327253459968,-0.302037750,-0.287663550,10.268631940,0.009791550,0.037598620,0.054533790
1640786327256989952,-0.067158040,-0.194053160,9.471307750,0.008264180,0.098924350,0.052435690
1640786327258449920,0.225604500,0.178031940,9.916233060,-0.030632320,-0.025522710,0.040118400
1640786327261979904,-0.019462070,0.209092800,10.065207480,-0.044625990,0.042408700,0.043676790
1640786327263510016,0.209905450,0.257399740,9.232897760,-0.007477400,0.005060430,0.017452240
1640786327267049984,-0.157647450,0.351585720,10.232154850,0.060251360,0.007329880,0.010895730
1640786327268430080,-0.323894230,0.327142030,9.660732270,0.054761770,0.039704140,0.017869470
1640786327272329728,-0.317238660,0.266260240,10.006620410,0.018967690,-0.069247190,0.040823220
1640786327273530112,-0.407560170,0.205692200,9.589603420,-0.005559620,0.035598870,0.057290490
1640786327277210112,-0.157054800,0.262064040,9.495284080,-0.034964080,0.021409990,0.034944720
1640786327278489856,-0.163516770,0.476919170,10.473927500,0.004568700,0.036950410,0.053830440
1640786327282129920,0.108007160,0.657500860,9.598575590,-0.006198880,-0.001044570,0.037652250
1640786327283520000,0.253380060,0.611558850,9.938287730,-0.033868850,-0.053304440,0.030882660
1640786327287040000,0.165767800,0.542093340,9.496198650,-0.025260450,0.056241450,0.031781200
1640786327288729856,0.037724240,0.256782030,9.777693750,-0.009442870,-0.012519960,0.025352840
1640786327292049920,-0.368312930,0.023890660,10.562806130,0.016233330,-0.032265490,0.040531160
1640786327294589952,-0.150627720,-0.091191860,9.095240590,0.004145500,-0.046269600,0.043065850
1640786327297119744,-0.139655920,-0.214825900,9.689186100,-0.027003890,-0.020077820,0.033015010
1640786327298439936,-0.115901250,0.082750540,9.586678500,-0.030627850,0.125031190,0.049836930
1640786327301969920,0.159860610,0.165946220,9.733697890,-0.038394340,0.010292230,0.031229860
1640786327303510016,-0.015917490,0.327140360,10.488260270,0.002007190,-0.037552420,0.031282010
1640786327307040000,0.188870220,0.371611950,9.010046010,0.030876700,-0.017240650,0.032199920
1640786327308470016,-0.131582660,0.092926900,9.932804110,0.019674000,-0.048650800,0.010502340
1640786327312029952,-0.506027940,0.020395790,10.026180270,0.034247340,0.032232710,0.018039350
1640786327314710016,-0.218131530,-0.119376700,9.487487790,0.052908070,-0.048843030,0.014995040
1640786327316989952,-0.443684880,-0.005226000,10.236561780,0.047895310,-0.032155220,0.013871490
1640786327323680000,-0.123894840,0.394175350,9.268117900,-0.012235350,0.036524240,0.023424630
1640786327325009920,0.078870450,0.624615670,9.883259770,-0.056713810,-0.031363960,0.023831430
1640786327325809920,-0.129819270,0.688426730,10.178643230,-0.021116440,0.000086430,0.018371640
1640786327327309824,0.272860620,0.820725440,9.393226620,0.020052490,-0.045701870,0.009769200
1640786327328429824,-0.061238750,0.631595250,10.240951540,0.045348700,-0.053252280,0.011725720
1640786327332189952,-0.178837870,0.332335590,9.552776340,0.011664630,-0.005057450,0.012335180
1640786327333459968,0.032201860,0.096182200,9.586141590,-0.034579630,-0.050178180,0.020320710
1640786327336969728,-0.320532770,-0.211550120,9.935485840,-0.014746190,-0.002317130,0.024056430
1640786327338719744,0.013233880,-0.115644710,9.275868420,0.014430280,-0.026272240,0.019299980
1640786327342039808,-0.054497470,0.015395760,9.880636220,0.011748070,-0.030104810,0.012701750
1640786327343609856,-0.054990690,0.127949890,9.580990790,-0.029243530,-0.001548230,-0.002343950
1640786327348199936,0.286023260,0.259649460,9.570201870,-0.017514820,-0.021372740,-0.018812720
1640786327348769792,-0.094198510,0.320174400,10.047661780,0.043411550,0.008028750,-0.015303490
1640786327352009984,-0.130933170,0.381049570,9.810803410,0.039595370,-0.054991250,-0.007669630
1640786327353459712,-0.213875110,0.283935190,9.893235210,0.030335780,-0.077117990,0.006008150
1640786327356979968,-0.356693980,0.039637750,9.475932120,0.025300680,-0.027050080,0.010375680
1640786327358520064,-0.165848150,0.000833290,9.526663780,0.042076410,-0.015841420,-0.004665550
1640786327361999872,-0.228911590,0.178996620,9.916669850,0.066323590,0.009387730,-0.012633210
1640786327363569920,0.037704270,0.442835540,9.792179110,-0.008739530,-0.032153720,-0.023324780
1640786327367030016,0.253132130,0.690104540,9.812964440,-0.038602950,-0.037626930,-0.011524560
1640786327368419840,0.182043460,0.726597960,9.735198020,-0.031557680,-0.008046630,-0.023059550
1640786327372320000,0.132647400,0.601609110,9.942902570,0.011760000,-0.031185150,-0.021865960
1640786327373479936,-0.255249290,0.406450210,10.144817350,0.082257400,-0.046963990,-0.009189550
1640786327377410048,-0.342533470,0.129856970,9.580794330,0.031629200,-0.090847920,-0.011923910
1640786327381639936,-0.198303540,-0.008596490,9.204514500,0.004799660,-0.061438980,0.002615150
1640786327382220032,-0.119426760,-0.036407020,9.336623190,-0.016419590,0.063435730,0.004319850
1640786327383489792,0.229250730,0.169231410,9.744589810,-0.036929540,0.054296850,-0.002677740
1640786327386999808,0.180434200,0.426567820,10.335651400,-0.005871060,-0.033999980,-0.008717180
1640786327388729856,0.363518630,0.486125950,9.594221120,0.000026820,-0.050954520,-0.028166180
1640786327392079872,0.144200970,0.345218390,9.511029240,0.026401880,-0.055255000,-0.045049190
1640786327396090112,-0.271689770,0.197591510,9.813660620,0.045585640,-0.006213780,-0.055138770
1640786327397069824,-0.203525600,0.132964830,9.387679100,0.023362040,-0.016205010,-0.049068030
1640786327398449920,-0.435166000,0.056287080,9.911617280,0.027698280,-0.033101440,-0.015015900
1640786327402030080,-0.263630210,0.249843430,9.684034350,-0.020632150,0.016608830,-0.012885040
1640786327403479808,-0.131441830,0.467995610,9.684151650,-0.048404930,-0.028167670,-0.013698640
1640786327406999808,-0.219957350,0.485433130,10.054259300,-0.022691490,-0.013522810,-0.023272630
1640786327408649984,0.213010980,0.663152160,9.497700690,0.011619930,-0.011117760,-0.046674910
1640786327413609984,-0.020161160,0.648610830,10.063639640,0.036327530,-0.051909690,-0.057356060
1640786327414789888,0.084186740,0.639387490,9.639092450,-0.014010070,-0.010707980,-0.030192730
1640786327416940032,0.243813430,0.556080160,9.377353670,-0.064882640,-0.032514330,-0.029014050
1640786327418419712,-0.111696020,0.274295180,9.954176900,-0.070190430,-0.011408330,-0.018300120
1640786327422089728,0.156426620,0.241299580,9.386536600,-0.026391450,-0.003159050,-0.003984570
1640786327423499776,-0.174040750,0.070999260,9.905007360,0.011272730,-0.039058930,-0.015497210
1640786327427059968,-0.123218590,0.017882750,9.618624690,-0.014862420,-0.009572510,-0.035032630
1640786327429199872,0.124437260,0.144913810,9.364062310,-0.038743020,-0.005657970,-0.051121410
1640786327431979776,-0.145449850,0.179580510,9.962386130,-0.059130800,0.026161970,-0.054426490
1640786327433469952,0.061375420,0.417424650,9.613461490,-0.053298470,0.000035760,-0.044307110
1640786327436950016,-0.181198940,0.365740750,10.067729950,-0.018033390,-0.064973540,-0.035840280
1640786327438690048,-0.165383650,0.223171800,9.516139030,-0.006601210,-0.023244320,-0.037892160
1640786327442149888,-0.181835440,0.120752160,9.549400330,0.040468580,-0.033344330,-0.029300150
1640786327443589888,-0.420486000,-0.011351800,10.039708140,0.018483400,0.003091990,-0.035999720
1640786327448039936,0.042703210,0.238696490,9.321430210,-0.030700860,-0.026883180,-0.036856530
1640786327448619776,0.001065540,0.429195970,10.047631260,-0.043395170,-0.029446180,-0.035098200
1640786327451979776,0.235157280,0.702712540,9.475522040,-0.096593790,0.042715670,-0.055515770
1640786327453449984,0.277744050,0.918534760,9.732661250,-0.056782360,-0.045669080,-0.045941780
1640786327457100032,-0.146780770,0.712147180,10.368542670,-0.024935610,-0.003048780,-0.050145400
1640786327458669824,-0.101405460,0.511454700,9.419074060,-0.002822280,-0.065290930,-0.046402230
1640786327462299904,-0.372806340,0.215996190,9.850526810,0.003916030,-0.118649010,-0.019268690
1640786327463460096,-0.154344990,-0.024124000,8.953168870,-0.068989400,0.074784460,-0.004099310
1640786327466959872,0.088859270,-0.134501610,9.491782190,-0.085105000,0.037218630,-0.005102160
1640786327468439808,-0.092576350,-0.047372230,10.731701850,-0.051790480,0.030891600,-0.016088780
1640786327472379904,0.458258960,0.186734390,9.139631270,-0.047197930,-0.036694110,-0.045619900
1640786327473760000,0.208229900,0.214001820,9.644378660,-0.018714370,-0.075300040,-0.060370570
1640786327477120000,0.043905180,0.285711560,9.521107670,-0.038324290,0.071467460,-0.079418700
1640786327478560000,-0.005875770,0.247746540,9.459785460,-0.005000830,-0.035674870,-0.070609160
1640786327482019840,-0.401421070,0.154297660,10.215952870,0.021891300,-0.040984160,-0.029353800
1640786327483449856,-0.080107760,0.226028400,9.220053670,-0.015084450,0.037427250,-0.011733170
1640786327486990080,-0.228069510,0.139633700,9.976604460,-0.036539150,-0.013995170,-0.004717710
1640786327488889856,-0.196114880,0.172846960,9.929131510,-0.028352440,0.038592510,-0.012390310
1640786327492179968,0.072161180,0.333859120,9.382974620,-0.004382430,-0.021260980,-0.050240760
1640786327493520128,-0.003783240,0.400397240,9.888527870,-0.004675980,-0.014540550,-0.059714920
1640786327496989952,0.231526610,0.669331070,9.493555070,-0.040698050,0.038549310,-0.063301630
1640786327498449920,0.008728670,0.480108290,10.151033400,-0.058107090,-0.006033480,-0.055836150
1640786327502019840,-0.084569510,0.428686230,9.964301110,-0.043727460,-0.011216100,-0.046010310
1640786327503449856,-0.107077110,0.383922190,9.686610220,0.001944600,-0.040514770,-0.032071770
1640786327507040000,-0.262578670,0.167518930,9.701965330,-0.011533500,-0.000138580,-0.027737020
1640786327508750080,0.060815570,0.219085630,9.145535470,-0.041440130,0.020934640,-0.016693770
1640786327514149888,-0.006293360,0.133036690,9.794293400,-0.049193200,0.037594140,-0.025205320
1640786327514819840,0.303437650,0.242254170,9.433462140,-0.053766370,0.076080860,-0.025366250
1640786327516969984,0.179548230,0.382200030,10.165380480,-0.028765200,-0.008401270,-0.028829280
1640786327518429952,-0.148275200,0.222343130,10.166269300,-0.049969560,-0.019925830,-0.047181540
1640786327522169856,0.109240230,0.139579520,8.941411970,-0.013154750,-0.062637040,-0.041608520
1640786327523480064,-0.358066620,-0.103014090,9.825752260,0.031824410,0.038979940,-0.047026580
1640786327527020032,-0.177579280,-0.132743090,9.375680920,0.014482440,0.098039220,-0.047957900
1640786327528950016,-0.118816850,0.067067790,9.985737800,0.012663010,-0.041390960,-0.018563870
1640786327531999744,-0.193874330,0.132294880,9.980615620,-0.024172660,0.022797290,-0.005079810
1640786327533509888,0.267858300,0.349698360,8.991624830,-0.052405890,0.013828280,-0.011476870
1640786327537149952,-0.216841040,0.395431940,10.528358460,0.005266070,0.006981190,-0.030526520
1640786327538459904,-0.061449460,0.513005200,9.685362820,0.026628380,0.040510300,-0.046236820
1640786327542150144,-0.008637010,0.496370520,9.565141680,0.056159500,-0.071296080,-0.038884580
1640786327543469824,-0.281048660,0.390650510,10.033336640,-0.000184770,0.029715900,-0.024922190
1640786327547079936,0.058232000,0.456355240,9.196479800,-0.057382890,0.046381350,-0.002017620
1640786327548440064,-0.231177430,0.290005620,10.342616080,-0.028696660,-0.045219070,0.013968350
1640786327552009728,0.006715310,0.391859470,9.603850360,-0.022317470,0.027634200,-0.000265240
1640786327553700096,0.330415130,0.529666600,9.219272610,-0.008231400,-0.004057590,-0.001035630
1640786327557159936,0.057494260,0.356812120,10.171381000,-0.027653580,0.053758920,-0.004787740
1640786327558949888,0.299451890,0.323110400,9.532734870,-0.038190190,0.041638310,-0.020866100
1640786327562419968,0.081727300,0.137230590,9.728382110,-0.002463160,-0.042508540,-0.015385450
1640786327563510016,-0.079711670,0.019884770,9.636618610,-0.000864270,0.024320190,-0.011888150
1640786327566999808,-0.217874170,-0.035428410,9.544939990,-0.009436910,0.016334650,-0.012283030
1640786327568549888,-0.310340610,-0.197347820,9.756947520,-0.001694260,-0.025603170,0.003524120
1640786327572000000,-0.079249730,-0.153278110,9.417083740,0.024659930,0.030454990,-0.006087120
1640786327573829888,-0.021498850,0.075341030,9.501213070,0.044225160,0.075404350,-0.013192000
1640786327577139968,0.083906160,0.406293930,10.040257450,0.006610160,0.027081370,0.000947710
1640786327579279872,0.006001620,0.630468310,10.097035410,-0.024783610,-0.022159520,0.004002450
1640786327581959936,0.159737720,0.569728970,9.274474140,-0.024026640,-0.033167010,-0.001989310
1640786327583489792,0.035904980,0.513987720,9.686357500,0.038020320,0.024123490,-0.023841860
1640786327586969856,-0.348841130,0.452719570,10.099296570,0.069355950,0.055374210,-0.027789180
1640786327588480000,-0.108602410,0.389383850,9.657329560,0.018337370,-0.044523180,-0.011055170
1640786327592179968,-0.174648360,0.238147330,9.782759670,-0.020596390,-0.049686440,-0.000037250
1640786327593499904,0.157538880,0.236677750,8.990378380,-0.066609680,0.097115350,-0.001586970
1640786327596979968,0.233088430,0.374282180,9.834491730,-0.025451190,0.061741470,0.009052460
1640786327598439936,-0.116248940,0.320999890,10.543076520,0.018134720,0.014954810,0.013363360
1640786327602129920,0.386278570,0.297238590,9.155570030,0.010433790,-0.043430930,-0.007960200
1640786327603520000,0.017817800,0.134563270,9.583536150,0.025090580,-0.015725200,-0.015619400
1640786327607280128,-0.203317080,-0.056497900,9.535062790,0.001695750,0.095112620,-0.018349290
1640786327612310016,-0.036989560,-0.081763590,9.507802960,0.023704770,0.010338430,-0.011929870
1640786327613109760,-0.433388710,-0.108696450,10.219517710,0.050051510,-0.018018480,-0.004279610
1640786327614189824,0.044474220,0.037670770,9.089274410,0.017358360,0.024531780,0.003747640
1640786327617129984,-0.056438080,0.158010660,9.669001580,0.033777950,0.022980570,-0.008198620
1640786327618500096,-0.188612330,0.307890860,10.154079440,0.016130510,0.064177810,-0.027662520
1640786327622010112,0.132934840,0.544751470,9.637225150,0.044265390,-0.014774500,-0.021718440
1640786327623869952,-0.070009860,0.544134970,9.745468140,0.060246890,-0.037115810,-0.019380450
1640786327627069952,0.149058910,0.617044450,9.320693020,0.014251470,0.054559110,-0.018441680
1640786327628519936,0.014330300,0.630359530,9.797014240,0.004328790,0.058370830,0.000303980
1640786327632000000,-0.230887200,0.304221270,10.300746920,0.006745760,-0.002689660,0.007340310
1640786327633900032,-0.060718670,0.229597140,9.644104000,0.035624210,-0.022858380,-0.003798310
1640786327636979712,-0.003356050,0.249278040,9.212820050,0.059498850,0.009620190,0.001175700
1640786327638459904,0.106930960,0.257919160,9.552835460,-0.011272730,0.079464900,0.003996490
1640786327642079744,0.161783700,0.261299820,9.883296970,-0.032646950,0.093339380,-0.002516810
1640786327646710016,0.196886020,0.244738860,9.834248540,-0.011557340,-0.001282990,-0.012625750
1640786327647239936,0.041443690,0.234207140,9.832042690,0.037427250,-0.019550330,-0.005361440
1640786327648509952,-0.173181300,0.131405220,9.257812500,0.061890480,0.032928580,-0.002527240
1640786327652059904,-0.282827560,-0.039868960,9.640068050,0.028190010,0.003921980,-0.015874210
1640786327653489920,-0.378926340,-0.140775040,9.740607260,0.043721490,0.055548540,-0.011080500
1640786327657049856,-0.049271190,0.004505750,9.259758000,0.062642990,0.066250570,-0.017426910
1640786327658499840,-0.109399830,0.359787080,10.148326870,0.030928860,0.034990910,-0.008659070
1640786327662169856,-0.019209380,0.573384280,9.745385170,-0.010067220,0.036273900,0.010269880
1640786327664179968,0.166636010,0.577138190,9.589764600,-0.008137530,-0.022485850,-0.006456670
1640786327666960128,-0.263237950,0.395757530,10.042995450,0.067327920,0.016079840,-0.013679270
1640786327668439808,-0.020671650,0.346647380,9.295454030,0.104379650,0.034187740,-0.019572680
1640786327671990016,-0.183689730,0.282822910,10.112127300,0.081294780,-0.001530350,-0.012819470
1640786327673669888,-0.323524890,0.150449160,9.858420370,0.009876490,0.028930600,0.002518300
1640786327677769984,0.160819890,0.267227740,9.198286060,-0.044582790,-0.012110170,-0.005544720
1640786327679089920,-0.080895860,0.315147340,9.781151770,0.002154710,0.052775440,0.003331900
1640786327682040064,0.064986530,0.367667700,9.579798700,0.048360220,0.070564440,-0.003489850
1640786327683670016,0.034618660,0.398335370,10.135273930,0.071330370,-0.032012170,-0.024218860
1640786327686990080,-0.156160070,0.174828170,9.662467000,0.046168280,-0.003847480,-0.012373930
1640786327688499968,0.126720340,0.057512990,9.137820240,0.040663780,0.016112630,-0.004251300
1640786327692080128,-0.193928500,0.006472250,9.882560730,0.051306190,0.077636550,0.002436340
1640786327693809920,-0.139505540,0.028739270,9.740132330,0.024077290,0.012288990,0.004908440
1640786327697249792,0.096887490,0.104363390,9.687760350,0.052797790,-0.030206150,0.006532670
1640786327698489856,-0.015971270,0.135720980,9.311597820,0.067666160,0.051184000,-0.011157990
1640786327701989888,0.034079800,0.173793780,9.760750770,0.059689590,0.035026670,-0.027017300
1640786327703460096,-0.235565570,0.244820040,10.109433170,0.086392450,0.028745830,-0.033761560
1640786327707000064,-0.159424170,0.306630880,9.474499700,0.075058640,-0.042571130,-0.032047930
1640786327708519936,-0.164705810,0.373270420,9.656080250,0.069609280,-0.003993510,-0.007840990
1640786327712169984,-0.249450610,0.399918110,9.440226550,0.041009490,0.075887150,-0.002339480
1640786327713719808,-0.246102110,0.312414530,10.272913930,0.035433470,-0.006480520,0.007614490
1640786327717029888,-0.270139520,0.310838070,10.097195630,0.097896170,-0.000599030,0.012110170
1640786327718489856,-0.024048010,0.353111590,9.310836790,0.088699170,-0.034023810,-0.009877980
1640786327721959936,0.062672210,0.473606850,9.702886580,0.051155690,0.019013880,0.005209450
1640786327723510016,0.213820440,0.624493480,9.267449380,0.000309940,0.099711120,0.006468590
1640786327727139840,0.285748990,0.483671670,10.039666180,-0.018163030,0.006021560,-0.009442870
1640786327728479744,0.078360480,0.440875620,10.005448340,0.055181990,0.001865630,-0.002509360
1640786327732000000,0.118649790,0.293776330,9.301721570,0.080406670,-0.023859740,-0.015905500
1640786327733499904,-0.294908140,-0.006918290,9.986217500,0.069281470,-0.000382960,-0.007146600
1640786327736950016,-0.337039680,-0.105687270,9.408482550,0.042909390,0.038875640,-0.012111660
1640786327738489856,-0.105313960,-0.194303320,9.551009180,0.033426280,0.003954770,-0.013414020
1640786327742060032,-0.166280310,0.028989750,9.677441600,0.061903890,0.072211030,-0.008594990
1640786327744239872,0.114452410,0.378789130,9.569867130,0.039270520,0.032871960,-0.013400620
1640786327748090112,-0.005552070,0.387377140,10.323781970,0.023587050,-0.015689430,-0.014902650
1640786327749519872,0.006922920,0.288311540,9.409584050,0.080981850,-0.003808740,-0.012928250
1640786327751999744,0.066956840,0.195522930,9.717411990,0.127604600,-0.010313090,-0.043493510
1640786327753430016,-0.323607030,0.170397830,9.971432690,0.125771780,0.067703430,-0.029578810
1640786327756979968,-0.163108200,0.422045680,9.545999530,0.059385600,-0.022648270,-0.003942850
