timestamp,accel_x,accel_y,accel_z,gyro_x,gyro_y,gyro_z
0.000000000,-1.621542930,0.516699190,10.698142050,-0.026761000,0.069768710,-0.072352580
0.001539946,-0.387993960,0.992128970,9.772281650,-0.007291140,-0.010600690,-0.033724310
0.007410049,0.297127810,1.046764610,10.479850770,-0.008358060,-0.028376280,0.018322460
0.008090019,1.169407610,0.765605510,9.271554950,-0.031892960,0.062143810,0.076824430
0.010720015,1.717089530,0.412489300,9.522048000,-0.030289590,-0.024525820,0.085845600
0.011780024,1.336673380,-0.154970230,9.968599320,-0.013919180,0.078931460,0.052566830
0.015310049,1.448921680,-0.336058110,9.028620720,-0.001242760,0.005836780,0.015613440
0.016590118,0.181440700,-0.509076650,10.859591480,-0.006137790,0.005504490,-0.027015810
0.019930124,-0.588294150,-0.483301130,9.542838100,-0.024555630,0.030903520,-0.065669420
0.021539927,-1.371622920,-0.089019480,9.649308200,0.001537800,-0.146584230,-0.069811940
0.024810076,-2.191585300,0.168532400,9.824813840,0.007954240,0.004558270,-0.059543550
0.026449919,-1.513455270,0.555504020,8.452769280,-0.007070600,-0.004151460,-0.035959490
0.029850006,-1.533822300,0.799674330,10.993194580,0.028450790,-0.002381210,-0.007937850
0.031840086,-0.360385600,0.988772630,9.698167800,0.003120300,0.074110930,0.018782910
0.035069942,0.907939790,1.049173120,9.693275450,-0.025989120,-0.098733600,0.055943430
0.036560059,1.126791480,0.694060500,10.489550590,-0.052230070,0.113137080,0.072206560
0.040519953,1.917919870,0.258638590,8.877893450,-0.022034350,0.049547850,0.074066220
0.041520119,1.104254130,-0.061478450,10.720176700,0.051458190,-0.109726190,0.047028070
0.044820070,0.722743450,-0.249680090,8.917372700,0.001253190,0.025495890,0.013369320
0.046499968,0.261960420,-0.328133170,8.930089950,-0.064748530,-0.068220500,-0.044770550
0.049880028,-1.176771520,-0.179055380,10.914899830,-0.064672540,0.084769730,-0.088077790
0.051769972,-0.988692580,0.241232040,9.172539710,-0.032687190,0.022938850,-0.097019980
0.054939985,-1.489852550,0.580569680,10.659128190,0.014536080,-0.101856890,-0.066430870
0.057039976,-1.162877440,0.844863590,9.505633350,-0.024499000,0.092537700,-0.001506510
0.059839964,-0.345611510,0.621225540,9.238103870,-0.032134350,-0.022214650,0.061117110
0.061510086,-0.306107370,0.272574130,10.756355290,0.019711260,0.052440170,0.081375250
0.064870119,0.954381110,0.214260490,8.947096820,0.014226140,0.037311020,0.051029030
0.069000006,1.016478300,0.018415890,10.425142290,-0.012385840,0.001278520,0.042612850
0.069819927,0.955627860,0.018996050,10.000005720,-0.048851970,0.107842690,0.010198350
0.072619915,0.947559420,0.062473400,9.398577690,-0.039771200,-0.091466310,-0.017830730
0.074800014,0.021700870,0.101124810,9.869931220,-0.000524520,-0.019389390,-0.010986630
0.076479912,-0.212220890,0.228410720,8.449453350,-0.005650520,0.039929140,-0.033932920
0.079849958,-1.137751700,0.247495440,10.346754070,0.003211200,-0.007499750,-0.025334950
0.081559896,-1.386201380,0.413111690,10.120687480,-0.001946090,0.026918950,-0.015644730
0.084880114,-0.969843570,0.605141100,9.789039610,-0.041434170,-0.095874060,-0.017288330
0.086539984,-0.856794890,0.530268250,10.395174030,-0.056035820,0.065915290,0.018288200
0.090650082,0.004346210,0.461011140,9.444080350,-0.028301780,0.081440810,0.024649500
0.091480017,0.161868890,0.288890450,10.867526050,0.024028120,-0.042553250,0.025834150
0.094830036,0.982733430,0.279701350,9.205246930,-0.000299510,0.036601720,0.047872960
0.096560001,1.341863870,0.077549700,9.161334040,-0.054010750,-0.008739530,0.024487080
0.100460052,0.854336080,-0.156094610,10.425414090,-0.053417690,0.116828080,0.004886090
0.102220058,0.918489160,-0.035322830,9.224177360,-0.008638200,0.039683280,-0.029143690
0.104900122,-0.047708030,-0.044060410,10.409799580,0.017090140,-0.055255000,-0.035913290
0.107010126,-0.498817590,0.085725700,9.195290570,-0.000275670,0.087796140,-0.002644960
0.109879971,-1.157239790,0.028512520,9.566223140,0.014689570,-0.051653390,0.009609760
0.111500025,-1.884070400,-0.101404890,10.566556930,0.039954490,-0.005386770,0.010131300
0.115060091,-1.245796440,0.278096380,8.862559320,0.039137910,-0.023515530,-0.003163520
0.116889954,-1.182717800,0.443540570,10.492622380,-0.010018050,-0.026403370,-0.012391800
0.119990110,-0.269021240,0.683336500,9.955114360,-0.037506220,0.129912810,0.004053120
0.121599913,0.496892540,0.905759100,10.019593240,-0.007916990,-0.040182470,0.007542970
0.124799967,0.811705170,0.746976260,10.461481090,0.004950170,-0.015455490,0.043764710
0.126490116,1.714570760,0.641096890,8.547635080,0.003995000,0.035035610,0.073853140
0.129810095,1.154452320,0.066004000,9.978254320,-0.001302360,0.021189450,0.059701500
0.131560087,0.807222010,-0.235223640,9.798900600,0.001724060,0.075282160,0.032636520
0.134939909,0.225279390,-0.262044910,9.685286520,0.010003150,-0.059816250,-0.005613270
0.136590004,-0.813283380,-0.399823070,10.204028130,-0.025880340,-0.023977450,-0.048108390
0.140480042,-1.199790840,-0.101498310,9.434757230,0.001151860,0.018754600,-0.063897670
0.141599894,-1.920444010,0.143050340,10.321826930,0.025220220,-0.049373510,-0.079824040
0.144819975,-1.530915260,0.479438960,9.602509500,0.023871660,-0.033473970,-0.033681090
0.146860123,-0.920541230,0.814860520,9.585553170,0.010249020,-0.001083310,0.004336240
0.149869919,-0.306809780,0.805256780,10.155125620,-0.039602810,0.062598300,0.033979110
0.151499987,0.779133200,0.884523030,9.818875310,-0.012287500,0.000874700,0.076697790
0.154860020,1.247981910,0.612250860,10.000316620,0.000192220,-0.004136560,0.063361230
0.157890081,1.810379860,0.217543170,9.140438080,-0.022205710,0.055314600,0.070011620
0.159800053,1.272821190,0.005305160,9.983162880,0.018875300,0.020332630,0.050520910
0.161489964,0.441474850,-0.334618240,9.878149990,0.009790060,-0.009675320,0.006423890
0.164969921,-0.230267410,-0.222799550,9.320334430,-0.009000300,-0.116457050,-0.024446850
0.166889906,-1.370602250,-0.023050730,10.017640110,-0.047338010,-0.023654100,-0.077167150
0.169980049,-1.312756300,0.269430700,9.296695710,-0.079236920,0.049255790,-0.096395610
0.171580076,-1.517823580,0.733029010,10.606391910,0.005880000,-0.003139670,-0.060157480
0.174849987,-0.915016060,0.888875780,10.161948200,-0.002092120,0.062166150,-0.022144610
0.176490068,0.139669060,0.893962200,9.436451910,-0.023445490,-0.015483800,0.072769820
0.180010080,0.314524290,0.499567060,10.292639730,-0.013181570,0.042210520,0.103278470
0.181790113,1.341768030,0.042228910,8.933920860,-0.022342800,0.059802830,0.078934420
0.184839964,1.256728530,-0.142179000,9.982789990,0.015436110,-0.009040540,0.063200290
0.186589956,1.047726150,-0.365318210,9.879962920,-0.011903050,0.107887410,0.004315380
0.190010071,0.838774920,-0.323720540,9.578001020,-0.028763710,0.008435550,-0.029163070
0.191540003,-0.513925610,-0.212228180,10.515892030,0.014144180,-0.016808510,-0.038790700
0.195329905,-0.810921070,0.052645800,8.850447650,-0.000181790,-0.028690700,-0.067080550
0.196510077,-1.623397710,0.432538060,9.530297280,0.006130340,-0.055019560,-0.043542680
0.202790022,-1.918864970,0.741379380,9.610245700,-0.010830160,0.056855380,-0.025512270
0.203500032,-1.228093030,0.938868170,9.814694400,-0.027289990,-0.026902560,-0.001421570
0.204890013,-0.910015050,0.996406910,10.677210810,-0.017268960,0.004145500,0.046373900
0.207119942,0.482538580,0.775520860,9.582647320,-0.043866030,0.050492580,0.053696330
0.209870100,1.024183630,0.389375930,10.597805980,-0.008231400,0.035835800,0.072073920
0.211649895,1.321648600,0.080300750,9.884209630,0.018213690,0.049789250,0.067214680
0.215310097,1.638209820,-0.248784710,9.258047100,-0.022111830,-0.089263920,0.025166570
0.216500044,0.867701890,-0.344906270,9.496868130,-0.038756420,0.018343330,-0.001940130
0.219899893,0.580012740,-0.321145210,8.772629740,-0.045117740,0.040936470,-0.056616960
0.221570015,-0.509679020,-0.112901690,10.531478880,-0.017365810,0.009948010,-0.084467220
0.224859953,-1.152194980,0.312043250,9.972934720,0.009572510,0.029091530,-0.057686860
0.226500034,-1.487670660,0.440718830,10.055856700,0.007358190,-0.109398370,-0.017075240
0.229850054,-1.958133700,0.427731390,10.211132050,0.022329390,-0.024014710,0.015568740
0.231750011,-1.163743020,0.657110150,8.716836930,0.012129550,-0.042593480,0.027529900
0.234839916,-0.804674090,0.618935940,10.367394450,-0.021527710,-0.010508300,0.043925650
0.236550093,0.217797100,0.535352290,9.603946690,-0.037835530,0.115284320,0.047516820
0.240080118,1.062615630,0.496755810,10.049566270,-0.009572510,-0.073318180,0.044587260
0.241499901,1.089360710,0.260705500,10.613844870,0.011536480,-0.002312660,0.037716330
0.244970083,1.682889100,0.229387760,8.393009190,-0.018300110,-0.037574770,0.027915840
0.246589899,0.865189370,-0.070076670,10.165921210,-0.033062700,-0.048065190,0.008101760
0.249870062,0.326510040,-0.180514130,9.300121310,-0.014910100,0.093251470,-0.013917690
0.251549959,-0.153105720,0.050494880,9.500788690,0.005263090,-0.095330200,-0.036117430
0.254899979,-1.249913690,0.122977670,10.903618810,-0.019784270,0.000528990,-0.025351350
0.256959915,-0.963984610,0.394597080,8.900821690,-0.048650800,0.004915890,-0.014761090
0.259900093,-1.573709010,0.441194000,10.871157650,-0.025342410,-0.090597570,-0.014203790
0.261519909,-1.235184070,0.493587140,9.874713900,-0.005516410,0.056132670,0.009696190
0.264899969,-0.223789410,0.623184500,9.113456730,0.000733140,-0.089539610,0.023375450
0.267260075,-0.061283340,0.367753180,10.628677370,-0.020618740,0.043669340,0.026178360
0.269880056,1.296242240,0.427308260,8.578112600,-0.040668250,0.081704560,0.029857460
0.271640062,1.424463030,0.241563260,10.246840480,-0.035993750,-0.038568680,0.024634610
0.274970055,1.465789320,-0.005916930,9.653329850,-0.035105640,0.125531850,0.035032630
0.276580095,1.251434560,-0.133250460,9.254559520,0.009799000,-0.015150010,0.016674400
0.280119896,-0.345989050,-0.336713880,10.824647900,0.035178670,-0.065143410,-0.006410480
0.281510115,-0.729489030,-0.078397240,8.690677640,0.016638640,-0.068953630,-0.021302700
0.284810066,-1.651446580,0.099163650,9.761151310,-0.031009320,-0.087124110,-0.059357290
0.286540031,-1.914557810,0.446423290,10.022333150,-0.067028410,0.108116870,-0.069558620
0.290199995,-1.257193450,0.993571040,9.946061130,-0.028528280,-0.013680760,-0.048260400
0.291709900,-0.837912620,1.086663600,10.989756580,-0.022429220,-0.002777580,-0.004898010
0.294840097,0.509242000,1.100712420,9.197001460,-0.035774710,0.033581260,0.056657200
0.296720028,0.998580990,0.674203160,9.966637610,-0.033749640,-0.019741060,0.072605910
0.300019979,1.525207280,0.008652100,9.446547510,-0.041320920,0.085283820,0.066705050
0.301539898,1.846624140,-0.375669180,9.127345090,-0.002171100,0.009943550,0.036819280
0.304929972,0.979420720,-0.794382570,10.520689960,-0.008285050,0.057446960,-0.003121790
0.306509972,0.562045100,-0.853135650,9.297185900,-0.007794800,0.015674530,-0.038133570
0.309859991,-0.583777900,-0.754161240,10.054276470,0.020280480,-0.091619780,-0.072512030
0.311569929,-1.122377870,-0.446719110,9.206035610,0.013357400,0.055408480,-0.075677040
0.314870119,-1.249209400,-0.091122050,9.182409290,0.055992610,0.022108860,-0.067560370
0.316499949,-1.389349460,0.081166100,10.578746800,0.100287800,0.101853910,-0.037060680
0.319880009,-0.350891170,0.440292540,9.462063790,0.132702280,0.078304100,0.021708010
0.321549892,0.072031810,0.425577760,10.372885700,0.118790570,0.025995080,0.056403880
0.325010061,0.929870840,0.395155700,9.519812580,0.067067150,0.157940400,0.091210010
0.326499939,1.207342980,0.273780940,9.641041760,0.090703380,0.066882370,0.078839060
0.330110073,0.972010370,0.051869150,10.170116420,0.132012380,0.064615910,0.043904790
0.331569910,1.187223430,0.158603340,8.888769150,0.125516950,0.053370000,-0.014603140
0.334820032,0.364326750,0.017800800,9.880884170,0.087605420,0.076897440,-0.061437490
0.336560011,0.020969960,0.106506620,9.712327960,0.074145180,0.172361750,-0.083158900
0.340699911,-0.614105460,0.221529930,9.971839900,0.112120810,0.067542490,-0.079256290
0.341639996,-1.055780290,0.233512630,9.929028510,0.124555830,0.052423780,-0.033442680
0.344850063,-1.039858340,0.319421230,9.225901600,0.131647300,0.070370750,0.015063590
0.346829891,-1.337429290,0.124525360,9.808432580,0.119289760,0.070911650,0.025212760
0.349859953,-0.626843690,0.210397560,9.553256990,0.123497840,0.069782150,0.030486290
0.351540089,-0.167247680,0.297119860,10.147418020,0.123247510,0.119376190,0.012740490
0.354969978,0.403252570,0.395450590,10.128767010,0.095644580,0.136084840,0.004217030
0.356620073,0.847977100,0.653913020,10.091306690,0.108166060,0.045481320,0.023627280
0.359839916,0.821723220,0.487825130,9.464556690,0.088268520,0.061917310,0.020045040
0.361560106,1.095155950,0.444353460,8.535540580,0.085344920,0.069853670,0.020399690
0.364929914,0.320539000,0.239216240,9.863534930,0.116442170,0.143677000,-0.000756980
0.366660118,-0.065580220,0.105112280,9.564743040,0.111113510,0.125922260,-0.031408670
0.369879961,-0.644386350,0.295548950,10.307160380,0.104451190,-0.034327810,-0.028349460
0.371659994,-1.170193430,0.197436660,10.066107750,0.056155030,0.083149970,-0.046330690
0.375070095,-0.898903970,0.383129030,9.187846180,0.036980220,0.074382130,-0.040145220
0.376559973,-1.340428590,0.520982620,10.766755100,0.086784370,0.080366420,-0.016960500
0.380120039,-0.434319170,0.515579640,9.069165230,0.078423320,0.100909180,-0.013114510
0.381540060,0.223593070,0.672688780,9.685118680,0.078605120,0.014002620,0.009134410
0.384809971,0.436912950,0.474949090,10.160987850,0.051927580,0.180782380,0.016587970
0.386549950,1.484455940,0.230512280,8.970241550,0.038117170,0.094081480,0.014215710
0.392410040,0.958130600,0.136289670,10.616889000,0.081250080,0.076951090,0.022864340
0.393000126,1.085846900,-0.176659210,9.019691470,0.070837140,0.188618900,0.020764770
0.394799948,0.377184300,-0.294784400,9.780896190,0.107720490,0.023642180,0.015975530
0.396660089,-1.026334640,-0.292293910,10.309894560,0.114732970,0.045876200,-0.016103680
0.399930000,-0.922232570,-0.150346220,8.394039150,0.077177590,-0.023339690,-0.045563280
0.401580095,-1.788442970,0.220444720,10.276639940,0.072790690,0.048516690,-0.063036380
0.404959917,-1.417243600,0.670952500,9.754253390,0.046892460,0.191210260,-0.073628130
0.406519890,-0.751690750,1.030736570,10.493721960,0.081756720,0.020170210,-0.034716730
0.409830093,-0.345879640,1.231801510,10.584676740,0.088308750,0.085434330,0.006434320
0.411580086,1.144330020,1.051244380,8.673851970,0.033739200,0.068008900,0.052481890
0.414849997,1.237499480,0.470840690,10.053046230,0.053730610,0.117437560,0.081925090
0.416549921,1.588701610,-0.051757710,9.119891170,0.077125430,0.181791170,0.030739610
0.420020103,1.539356590,-0.439826550,9.673957820,0.093735760,0.037840010,0.012354550
0.422840118,0.495926470,-0.772608520,10.137801170,0.090338290,0.142399970,-0.012829900
0.425630093,-0.134628880,-0.874421720,9.513495450,0.070750720,0.040510300,-0.069923710
0.426539898,-1.604434130,-0.564775230,10.546037670,0.117710260,-0.026384000,-0.062757730
0.430210114,-1.967025160,-0.009064190,8.859004020,0.108020020,0.030517580,-0.076489160
0.433350086,-2.034865140,0.622233030,9.582542420,0.077106050,0.004749000,-0.063902140
0.434969902,-1.786343220,1.246059180,10.008412360,0.080263640,0.174865160,-0.001163780
0.436569929,-0.464532350,1.548946620,9.614933970,0.066320610,0.034908950,0.018772480
0.439939976,0.340337990,1.533442970,10.652546880,0.062261530,0.053814050,0.071060660
0.441570044,1.658656480,1.088295700,8.900862690,0.049752000,0.143550340,0.086134680
0.444859982,1.974474790,0.297397320,10.084432600,0.071564320,0.055377190,0.057582570
0.446949959,1.649110790,-0.147919090,9.914471630,0.092276940,0.129738450,0.025168060
0.449820042,1.442627190,-0.571267960,8.874484060,0.042337190,-0.014594200,-0.030662120
0.451980114,-0.067182850,-0.788094400,10.448244090,0.023438040,0.046807530,-0.071710350
0.454910040,-0.766885100,-0.503019870,8.954657550,0.027163330,0.106550760,-0.095787640
0.456579924,-1.832804320,-0.160626050,10.294100760,0.069426010,-0.040036440,-0.097969170
0.459830046,-2.309748410,0.391344310,10.152112010,0.087764860,0.100944940,-0.052709870
0.461590052,-1.676401850,0.858362380,9.041643140,0.074209280,-0.002521280,-0.005847220
0.464809895,-1.550101640,0.934138180,10.773108480,0.058208410,0.020748370,0.032849610
0.466639996,0.038765330,1.151242020,8.675649640,0.041069090,0.143817070,0.062303250
0.469939947,0.939925310,0.936745410,9.856008530,0.040493910,0.024969870,0.072576110
0.471600056,1.244460700,0.518147290,10.494168280,0.047931080,0.156675260,0.071291630
0.474849939,1.895666840,0.228396180,8.870725630,0.063009570,-0.016668440,0.032602250
0.476540089,0.879237410,-0.276471080,10.533592220,0.048466040,-0.079302500,-0.010085110
0.480210066,0.607799530,-0.299777360,8.651251790,0.017704070,0.069953510,-0.037084520
0.481539965,-0.277723520,-0.217100810,9.651209830,0.002092120,-0.025187430,-0.085246560
0.484940052,-1.398015260,0.060470200,10.658350940,0.005808470,0.087216500,-0.084912780
0.486530066,-1.199023490,0.730013250,9.014336590,0.011913480,-0.014872850,-0.061938170
0.490380049,-1.756529930,0.831307950,10.706951140,-0.022225080,-0.063233080,-0.007951260
0.491539955,-1.120895860,0.778730990,9.277798650,0.004293020,0.085498390,0.035490100
0.494810104,-0.413645540,0.641118050,9.596948620,0.057330730,-0.029718880,0.022999940
0.496850014,0.008355030,0.316181150,10.358916280,0.062735400,0.080157820,0.045479840
0.500139952,1.209884290,0.215446030,8.937735560,0.022837520,0.065584480,0.052717330
0.501580000,0.969464300,-0.248160840,10.548721310,-0.022280220,-0.007371600,0.014518200
0.504909992,0.937465370,-0.278480500,9.344701770,0.001329180,0.003990530,0.006327030
0.506680012,0.557510910,-0.221100570,8.994765280,0.048342350,-0.116099440,-0.051820290
0.509809971,-0.378027770,-0.131634430,9.773242000,0.037649280,0.026273730,-0.075256830
0.511569977,-0.728638830,0.508329930,9.389936450,0.035226350,0.011673570,-0.062598300
0.514950037,-1.418922420,0.771106240,10.791847230,-0.009097160,-0.081534690,-0.054863100
0.516560078,-1.064174410,1.110967040,9.602430340,-0.043170150,-0.016328690,0.009439890
0.519870043,-0.718477490,1.209135530,9.697527890,-0.017111000,-0.017985700,0.045987960
0.521640062,-0.480095300,0.854805410,10.320584300,-0.012467800,0.078734760,0.042396790
0.524869919,0.336060490,0.694186690,9.412672040,0.026841470,-0.035610800,0.048092010
0.526609898,0.542492990,0.158188160,10.073030470,-0.009387730,-0.076852740,0.007773940
0.530110121,1.088799720,-0.305385860,9.079000470,-0.068697350,0.055091090,-0.016091760
0.531709909,0.851347090,-0.449714540,9.848241810,-0.024959440,-0.012509520,-0.040651860
0.535439968,0.397071720,-0.637151120,10.252815250,-0.003901120,0.011527540,-0.075435620
0.536550045,0.289507300,-0.326908980,9.005352970,0.025688110,-0.057120620,-0.047498940
0.540319920,-0.712713240,-0.179265480,10.148477550,0.021475550,-0.048454110,-0.030647220
0.541549921,-0.957521800,0.028041430,9.390932080,0.002229210,0.009985270,-0.012972950
0.544790030,-1.260069610,0.521337150,9.750947000,0.053323810,-0.118112550,0.001491610
0.546590090,-1.189279200,0.834150430,9.966276170,0.011365120,-0.009629130,-0.000579660
0.549829960,-0.429124470,1.151880380,9.322261810,-0.031001870,0.027784710,0.009320680
0.551599979,-0.446517410,1.173547980,10.855804440,-0.005440410,-0.026956210,0.018444660
0.554879904,0.315517810,1.036809680,9.756989480,-0.018274790,-0.043772160,0.018328430
0.556610107,0.821008800,0.742456140,9.131771090,-0.012293460,-0.129786150,0.033225120
0.559809923,0.801011380,0.167528660,9.484675410,-0.046637650,0.015531480,0.002454220
0.561569929,1.017233250,-0.164452030,9.255482670,-0.036691130,0.048777470,-0.025679180
0.565310001,0.321757730,-0.414656460,10.520221710,0.009162720,-0.069767240,-0.035297870
0.566600084,0.178773330,-0.404672270,9.679464340,-0.029838090,-0.044521690,-0.032050910
0.569880009,-0.415919450,-0.301385370,9.680827140,-0.029811270,-0.057655580,-0.017313660
0.571579933,-1.224368810,-0.175290470,10.182688710,-0.010280310,-0.051315130,-0.011587140
0.574880123,-1.210939170,0.267947440,9.575566290,0.005809960,-0.088591880,-0.024035580
0.576570034,-1.254566190,0.640707140,9.850269320,0.018009540,-0.067925460,-0.018215180
0.580320120,-0.603455420,0.979520380,9.570841790,-0.035949050,0.000131130,0.006128850
0.582279921,-0.027471490,1.080935480,9.990194320,-0.040195870,-0.015182790,0.027406220
0.584830046,0.630503360,0.901075840,9.631168370,-0.039920210,-0.019137560,0.046542290
0.586679935,1.195893290,0.646734830,9.425789830,-0.026407840,-0.036045910,0.040884320
0.589930058,0.974178490,0.138804900,9.828470230,-0.007095930,-0.004161890,0.032183530
0.591599941,0.859091400,-0.163495140,9.346662520,-0.027224420,-0.076133000,-0.002212820
0.594969988,0.124492990,-0.336309050,10.025914190,-0.035475200,-0.088715550,-0.017002230
0.596659899,-0.424522820,-0.350013880,9.640225410,-0.052736700,-0.007495280,-0.024437900
0.599859953,-0.952063500,-0.022096670,10.175042150,-0.044929990,-0.082933920,-0.036169590
0.601589918,-1.521244410,0.279176860,10.524304390,-0.036397580,-0.048659740,-0.019158420
0.604880095,-0.917702380,0.653588530,9.144276620,-0.044892720,-0.079555800,-0.007449090
0.606539965,-0.825255630,0.836590470,10.103087430,-0.038647660,-0.070019070,0.001098220
0.609829903,0.018225900,0.815385220,9.185550690,-0.038920350,0.052295630,0.015419720
0.611639977,0.909150120,0.720721780,9.418844220,-0.037503240,-0.043058400,0.023083390
0.614850044,0.858191850,0.279805150,10.499109270,-0.032061330,0.032164160,0.045251840
0.616590023,1.373227830,-0.045768780,9.135704990,-0.024631620,-0.028553610,0.052693490
0.619889975,0.398706140,-0.368053410,10.430701260,-0.004163380,-0.142937900,0.029455130
0.621619940,-0.167758260,-0.430960060,9.210605620,-0.018353760,-0.064943740,0.011378530
0.624830008,-0.486253290,-0.192622990,9.071733470,-0.057189170,-0.127410890,-0.030200190
0.626689911,-1.463167790,0.081956490,10.696397780,-0.051587820,0.024414060,-0.066070270
0.629889965,-0.985683500,0.724838730,9.517229080,-0.033216170,-0.026476380,-0.052338830
0.631680012,-1.076774950,1.126330850,10.794392590,-0.035336620,-0.141471640,-0.015591080
0.634840012,-0.473093060,1.192611690,9.495647430,-0.065010790,-0.003926460,0.035002830
0.636579990,0.525717910,1.017454740,9.009705540,-0.066857040,-0.079406810,0.053316370
0.639909983,0.470805850,0.495243310,10.305968280,-0.041785840,0.034168370,0.047223270
0.642019987,1.480424280,0.134201960,8.838687900,-0.027045610,0.002127890,0.050538780
0.644900084,1.109977480,-0.417107280,10.562942500,-0.031812490,-0.057803100,0.021611150
0.646549940,0.520800710,-0.776120190,9.917018890,-0.047716500,0.014980140,-0.000549850
0.649830103,0.056024560,-0.669759750,9.432264330,-0.026217100,-0.180748090,-0.029520690
0.651600122,-1.098788140,-0.576230590,10.030386920,-0.023293500,-0.072169310,-0.055153670
0.654900074,-1.035492300,0.044145760,8.558280940,-0.023606420,-0.038799640,-0.057153410
0.656599998,-1.539810780,0.656509940,10.744601250,-0.015908480,-0.065857180,-0.051407520
0.659929991,-1.154589890,1.130884530,9.959990500,-0.036112970,0.014568870,-0.002442300
0.661560059,-0.143351820,1.476562740,9.524481770,-0.046017760,-0.124411280,0.049313900
0.664849997,-0.028191600,1.237573150,10.438542370,-0.057686860,0.025698540,0.074602670
0.666790009,0.936810370,0.875337540,8.776017190,-0.040978190,-0.014381110,0.083717710
0.669869900,0.813851770,0.332902640,10.317920680,-0.003345310,-0.124593090,0.060819090
0.671619892,0.929469820,-0.241049380,9.258377080,-0.050291420,0.020223860,0.013017650
0.677170038,0.862646580,-0.505648850,9.330293660,-0.073066350,-0.109922870,-0.028008220
0.677659988,-0.142953140,-0.635715660,10.825647350,-0.072796630,0.007624920,-0.064085420
0.679840088,-0.072417070,-0.310931620,8.952424050,-0.061690820,-0.046557200,-0.066187990
0.681610107,-0.960703070,-0.032745850,10.623097420,-0.028857590,-0.142832100,-0.025425850
0.684809923,-1.108139160,0.240631120,9.501006130,-0.030779840,0.014382600,0.003993510
0.686739922,-0.768162190,0.529991510,9.077832220,-0.009357930,-0.144355000,0.023096800
0.690530062,-0.962868690,0.673885290,10.545402530,-0.008590520,-0.003573300,0.037601590
0.691560030,0.142503410,0.844030860,8.981448170,-0.044356290,0.036880380,0.033979120
0.694859982,0.177338560,0.704188110,10.784991260,-0.031259660,-0.105845950,0.032737850
0.696579933,0.584188280,0.630594130,9.690575600,-0.031997260,0.005388260,0.031858680
0.699860096,1.102726940,0.502992270,8.690453530,-0.062099080,-0.125069900,0.014138220
0.701600075,0.456201290,0.160403010,10.148783680,-0.071828070,-0.013725460,0.021381680
0.704879999,0.595276770,-0.011131060,8.869732860,-0.069811930,0.034461910,-0.016944110
0.706640005,-0.106730500,-0.097753250,10.354125020,-0.026722250,-0.134357800,-0.026914480
0.709909916,-0.444869430,0.007798040,10.029257770,-0.041323900,-0.016230340,0.006034970
0.711580038,-0.452256770,0.033332500,9.432178500,-0.068919370,-0.058114530,-0.000427660
0.714839935,-1.095951910,0.040856160,10.830217360,-0.044584270,-0.037546460,0.013157730
0.716589928,-0.593475340,0.419009390,9.319422720,-0.024063880,-0.026199220,0.016772750
0.719899893,-0.386148100,0.423486020,9.793093680,-0.029428310,-0.107327100,0.012637680
0.721630096,0.002385740,0.600311760,9.670554160,-0.046196580,0.045077500,0.016269090
0.725419998,0.584149660,0.758975450,9.406366350,-0.075565280,-0.023029750,0.003737210
0.726550102,0.661731240,0.489079590,10.084722520,-0.081437830,-0.017891820,0.016564130
0.730170012,1.018210890,0.395977820,9.137085910,-0.046896940,0.022989520,0.033299630
0.731570005,0.402145000,-0.071509050,10.158093450,-0.007788840,-0.026477880,0.035855190
0.734869957,-0.164609570,-0.292048570,9.834714890,0.011335310,-0.057145950,0.037772960
0.736570120,-0.656894150,-0.301385940,9.398674960,-0.020292400,-0.151142490,0.002962350
0.741650105,-1.059927820,-0.363375220,9.630257610,-0.073151300,-0.038604440,-0.024214390
0.742320061,-0.916776600,0.100157040,9.559771540,-0.051538650,0.022654240,-0.041061640
0.744810104,-0.924695490,0.484465300,10.763740540,-0.019162890,-0.020645560,-0.055938960
0.746829987,-0.009241760,0.923893990,9.818024640,-0.023387370,-0.016260150,-0.003789370
0.749799967,0.401949790,1.085535170,9.894956590,-0.038047130,-0.060252850,0.032758710
0.751559973,0.650909070,0.699412050,9.775646210,-0.064465400,0.011742120,0.035968430
0.755000114,1.115996720,0.554199100,8.894309040,-0.036035480,-0.028020150,0.045707810
0.758870125,0.680294510,0.043639450,9.984281540,-0.020737950,0.000272690,0.033892690
0.759850025,0.615482030,-0.332676560,9.587296490,-0.028610230,0.059731320,0.014770030
0.761569977,-0.266887610,-0.370039640,10.232597350,-0.011415780,-0.086487830,-0.003169480
0.764869928,-0.881295920,-0.455988140,9.733965870,-0.046244270,-0.087982420,-0.030626360
0.766779900,-0.847593490,-0.184126730,8.683884620,-0.045791270,-0.046746430,-0.040909650
0.769900084,-1.486317280,0.122861360,10.219416620,-0.015290080,0.000274180,-0.066964330
0.771699905,-0.894927440,0.556456920,9.824725150,-0.001336630,0.002433360,-0.046643610
0.775170088,-0.350095240,1.037555220,10.063956260,0.004340710,-0.093126300,-0.003050270
0.776530027,0.187284340,1.034108880,10.014338490,-0.076833370,0.022205710,0.033093990
0.779880047,1.019685030,0.797452150,9.703357700,-0.070345400,0.029858950,0.066506860
0.781569958,0.664237680,0.375430230,10.653594970,0.008286540,-0.018368660,0.047720970
0.784820080,1.025215150,0.145198270,9.229631420,0.008234380,-0.082264830,0.017808370
0.786659956,0.741020320,-0.047117320,9.221933360,-0.031939150,-0.063464050,-0.005044040
0.789860010,0.085803670,-0.234203200,9.459909440,-0.100705010,0.071413820,-0.049355630
0.792150021,-0.146569390,-0.039026880,9.697218890,-0.094746060,-0.013925140,-0.069245680
0.794780016,-0.914886950,0.121538940,10.289682390,-0.021635000,-0.039497020,-0.059327480
0.796760082,-0.767481150,0.238197420,9.168929100,-0.018471480,-0.040964780,-0.025050350
0.799849987,-1.176716920,0.264020830,10.173985480,0.015679000,-0.040744250,0.025190410
0.801800013,-1.056873800,0.133010040,9.684660910,0.001776220,-0.005716090,0.031960010
0.804980040,-0.288739980,0.116145780,9.599220280,-0.007379060,-0.087420640,0.030772390
0.806720018,-0.110702690,0.199618030,10.382818220,0.007431210,0.055941940,0.021408500
0.809819937,0.770061190,0.349462930,9.535583500,-0.023722650,0.018315020,-0.006258490
0.811619997,0.783706070,0.680924300,10.617700580,-0.022181870,-0.075167420,-0.005851690
0.814830065,0.963089820,0.801403640,9.229125020,-0.057946140,-0.003004070,0.006073710
0.816529989,1.043176290,0.675485370,9.016352650,-0.078096990,-0.059837110,0.002317130
0.819999933,0.067102770,0.567481640,10.190621380,-0.021353360,0.055433800,0.003841520
0.821619987,0.086881350,0.312016900,9.001021390,-0.015553830,-0.005020200,-0.012835860
0.824870110,-0.671004300,0.070395920,10.446250920,-0.027272110,-0.071884710,0.006982690
0.826590061,-1.066047310,-0.161120160,9.845675470,-0.052294140,0.047324600,-0.005646050
0.830169916,-0.982829270,-0.383742930,9.582524300,-0.043199950,-0.099027150,-0.028489530
0.834049940,-1.392894980,-0.292313670,10.406353000,0.010041890,-0.039236250,-0.030660630
0.835779905,-0.348070260,0.004809030,8.708879470,-0.018471480,0.003124770,-0.039088730
0.837170124,-0.092890490,0.212340030,10.493053440,-0.026698410,-0.019150970,-0.019314890
0.839869976,0.361992270,0.655698600,10.093424800,-0.018416350,0.070558500,0.007005040
0.841609955,1.262126800,0.841886820,9.289336200,-0.044547020,-0.091600420,0.036375230
0.844850063,0.886966940,0.714144830,10.204434390,-0.034047670,0.015409290,0.074355310
0.846580029,1.105526800,0.635659040,8.810995100,-0.020676850,0.056365140,0.059713420
0.849800110,0.188841720,0.171237800,10.456861500,0.004333260,-0.081530220,0.038975480
0.851870060,-0.504584730,0.086810040,9.689291000,-0.005780160,-0.037385520,-0.005674360
0.854929924,-0.635758400,0.091911700,9.081527710,-0.066745290,-0.101439650,-0.050687790
0.856630087,-1.459600450,-0.077274160,10.548013690,-0.078442690,0.023636220,-0.070917610
0.859829903,-1.003893140,0.256423000,9.412667270,-0.048995030,0.018581750,-0.082983080
0.861560106,-0.795313180,0.363564340,10.511801720,-0.018140670,-0.077676770,-0.045052170
0.864850044,-0.233896610,0.326765890,9.796273230,-0.010152160,0.046835840,0.029934940
0.866800070,0.638839300,0.367723880,9.347736360,-0.006991620,-0.059853500,0.043930110
0.869950056,0.655620520,0.076208960,10.266302110,-0.020651520,0.003986060,0.063024470
0.871599913,1.358994480,0.086544340,8.614465710,-0.013709070,0.042091310,0.069686770
0.874809980,0.932027760,-0.055920620,10.324810030,-0.001302360,0.001828370,0.033976130
0.876590014,0.321026410,-0.067714380,10.014792440,0.011348720,0.059758130,0.024141370
0.880280018,-0.204566630,0.181488660,9.381387710,0.024557120,-0.168287800,-0.010176000
0.881649971,-1.258440490,0.222722860,10.006861690,-0.018623470,-0.083984420,-0.051361330
0.884799957,-1.138838290,0.650809050,8.321831700,-0.056447100,0.005894900,-0.061422600
0.886640072,-1.539659500,0.924007890,10.555569650,-0.043019660,-0.049616400,-0.066135810
0.890219927,-0.959534470,0.994222520,10.221117970,-0.048117340,0.067172940,-0.022053720
0.891599894,0.083570030,1.060387970,9.626934050,-0.023812060,-0.090715290,0.036939980
0.894850016,0.261363690,0.518617750,10.817561150,-0.046265120,0.013946000,0.068062540
0.896840096,1.300287490,0.121739940,8.726445200,-0.046928230,0.046035650,0.069037090
0.901439905,1.089437250,-0.295742090,10.175497060,-0.012969970,-0.087793180,0.043678290
0.902280092,1.043927910,-0.595652340,9.630898480,-0.024296350,0.074405980,0.001673400
0.904860020,0.916804370,-0.456030730,8.945223810,-0.019632280,-0.046271090,-0.034871700
0.910959959,-0.406842080,-0.348681060,10.741117480,-0.026190280,-0.031004850,-0.058434900
0.911479950,-0.481265960,0.074526480,8.743100170,-0.047419970,0.013150280,-0.057664520
0.912120104,-1.339471340,0.388052940,10.029988290,-0.008390840,-0.100679720,-0.034171350
0.914999962,-1.716149210,0.607244130,10.090549470,0.008681420,0.027124590,-0.012642150
0.916630030,-1.101680040,0.916132030,8.953213690,0.015954670,-0.088894390,0.007663670
0.919860125,-0.969368760,0.863136650,10.364635470,-0.011594590,-0.049343710,0.028748810
0.921669960,0.265202910,0.818626220,9.262771610,-0.061155860,0.120131690,0.041867800
0.924809933,0.648085830,0.569033150,10.592876430,-0.031507020,-0.021301210,0.029781460
0.926599979,0.953808610,0.355392220,10.470947270,-0.015246870,-0.029198830,0.035315750
0.930279970,1.564635750,0.209714310,8.686332700,-0.028656430,-0.072687860,0.017337500
0.934870005,1.001319770,-0.159412890,9.720051770,-0.050885980,-0.005777180,-0.015267730
0.935509920,0.728189650,-0.129852980,9.318181040,-0.057658560,0.090344250,-0.038018830
0.936569929,0.065924880,-0.081437140,9.943186760,-0.039397180,-0.032036010,-0.051672760
0.940400124,-0.561192330,0.009321770,10.079956050,-0.030285130,0.009305780,-0.025609140
0.941580057,-0.979010940,0.202685360,9.528229710,-0.018745660,-0.014872850,-0.002734360
0.944839954,-1.544265510,0.198171110,10.119480130,-0.011169910,-0.054070350,-0.003087520
0.946969986,-1.225035790,0.405977400,9.351259230,-0.010062750,-0.031541300,0.002282860
0.949860096,-0.836442950,0.530026380,9.722529410,-0.027740000,0.004366040,-0.009121000
0.951570034,-0.136155460,0.591228430,10.000328060,-0.049944220,0.086010990,0.002704560
0.955029964,0.546658520,0.742269690,10.124940870,-0.025902690,-0.003589690,0.012293460
0.956990004,1.007691740,0.639439400,9.845103260,-0.043632100,-0.015369060,0.022941830
0.959789991,1.520805720,0.515954850,8.898200990,-0.067523110,0.016714630,0.042545800
0.963040113,0.974327980,0.166895880,9.746256830,-0.061200560,0.037547950,0.022841990
0.965500116,0.739729050,-0.073217690,9.454938890,-0.035198040,0.049914430,0.004202130
0.966639996,0.018894580,-0.122341330,10.029746060,-0.011327860,-0.039404630,-0.023753940
0.969899893,-0.774989430,-0.214621500,10.163853650,-0.046765800,0.018700950,-0.034300980
0.971689939,-0.980260310,-0.080294230,9.576253890,-0.063610080,-0.002284350,-0.042909390
0.974839926,-1.673414230,0.090268950,10.468454360,-0.038564210,-0.012595950,-0.042819980
0.976599932,-1.071945910,0.310291620,9.266579630,-0.035077340,0.018700950,-0.023062530
0.980900049,-0.645796660,0.533495010,9.756666180,-0.000038740,-0.014778970,-0.000846390
0.982180119,-0.152793820,0.566350460,9.838453290,-0.018483400,0.075037760,0.017248090
0.984800100,0.992780920,0.665375410,9.196519850,-0.039482120,0.009311740,0.038999320
0.986670017,1.012827280,0.379256580,10.249004360,-0.037206720,0.050869590,0.062024600
0.990250111,1.360514520,0.007343500,9.412336350,-0.024648010,0.085797910,0.057192160
0.991569996,0.736539190,-0.166284560,10.254059790,0.053331260,-0.058509420,0.026860840
0.995120049,-0.106962140,-0.316086470,9.629273410,0.040952850,-0.031954050,-0.020159780
0.996580124,-0.254904720,-0.048749480,8.734852790,-0.026553870,-0.052638360,-0.060857840
0.999819994,-1.325183030,0.167764870,10.388996120,-0.063495350,0.065486130,-0.077493500
1.001640081,-1.147283200,0.568835140,9.610817910,-0.055740780,0.045026840,-0.073997680
1.004820108,-1.050328140,1.012756590,10.603985790,-0.007888670,-0.071051720,-0.044316050
1.006769896,-0.592318360,0.988614680,9.834417340,-0.021688640,0.078955300,0.022062660
1.009880066,0.362334580,0.726409080,9.377815250,-0.021290780,0.005200510,0.059416890
1.011919975,0.367154030,0.274077800,10.545684810,0.003148620,0.062331560,0.060296060
1.015120029,1.293999670,-0.115191690,8.623881340,-0.019462410,0.035329170,0.043398140
1.016580105,1.084367750,-0.484409840,10.091297150,0.002790990,-0.008267160,0.035847720
1.019870043,0.560012640,-0.650266230,9.791807170,0.010706480,0.139552370,-0.006143750
1.025409937,0.165765490,-0.498366090,9.489488600,0.012409690,-0.106737040,-0.038304920
1.026000023,-0.986328360,-0.178694400,10.354730610,0.021339950,-0.045774880,-0.049823520
1.026649952,-0.885198890,0.312049840,8.416022300,-0.023077430,0.042404230,-0.084264580
1.029799938,-1.470506670,0.853446010,10.567582130,-0.000488760,-0.045201190,-0.065419080
1.032140017,-1.275218130,1.312143450,10.075263980,0.002366300,0.069047510,-0.029666730
1.034869909,-0.115276040,1.410316710,9.218520160,-0.039044020,-0.060680510,0.017356870
1.039999962,-0.058151750,1.132048250,10.967089650,-0.030323860,0.084649030,0.071859370
1.040519953,0.835663560,0.597676870,9.354723930,-0.027158860,0.098733630,0.053812570
1.041620016,0.893027900,0.081146270,10.367104530,0.005748870,-0.131499750,0.042560700
1.044840097,0.776825370,-0.318352670,9.487565990,-0.010727350,0.042685870,0.018477440
1.046580076,1.017865540,-0.742753030,8.445899010,-0.058721000,0.002478060,-0.029823180
1.049849987,-0.106581110,-0.819330750,10.714740750,-0.014460090,0.042930240,-0.042469790
1.051620007,-0.224087390,-0.555083870,9.228643420,0.022998450,0.061513480,-0.070734330
1.054860115,-0.694957440,-0.189446420,10.000511170,0.040477510,-0.114142900,-0.046627220
1.056580067,-1.338521360,0.291245280,10.083864210,0.032034520,0.047063820,-0.004704300
1.059969902,-0.981512130,0.668705170,9.062161450,0.010721390,-0.049468870,-0.001549720
1.061599970,-1.137378810,0.950410660,10.553908350,0.018599630,-0.061801080,0.027447940
1.065160036,-0.078380760,1.185133810,9.064113620,0.009810920,0.095601390,0.034900010
1.066659927,0.438094140,1.032255410,10.433149340,0.002996620,0.028797990,0.018502770
1.069930077,0.503822330,0.973450660,10.844347950,-0.004728140,0.060300530,0.035831340
1.072520018,1.177922490,0.710622430,9.127387050,-0.046120580,-0.111623120,0.017754730
1.074909925,0.773443160,0.116153780,9.738474850,-0.065018240,-0.040620570,0.006340450
1.076639891,0.739059870,-0.047905500,8.651439670,-0.037331880,0.098820030,-0.013703110
1.079839945,0.199904080,-0.403409180,9.912405010,-0.005131960,0.005479160,-0.053915390
1.082279921,-0.338571040,-0.470589520,10.292518620,0.005283950,0.064456470,-0.032722950
1.084779978,-0.608283580,-0.362370430,9.793014530,0.010627510,-0.025804340,-0.012986360
1.086630106,-1.469941620,-0.493443520,10.689361570,0.013183060,-0.067429270,-0.011660160
1.090389967,-1.192835210,-0.039899350,8.869867320,0.041061640,-0.049862270,0.002476570
1.092260122,-1.017582650,0.317656400,9.599919320,0.045177350,-0.040613120,-0.011725720
1.094820023,-0.387618420,0.608633940,9.896671300,0.010530650,0.136882070,-0.005443390
1.096650124,0.439646480,1.199839590,9.957822800,0.023417180,0.017976760,0.016929210
1.099819899,0.655990540,1.188470600,10.796821590,-0.011205670,-0.038571660,0.032649930
1.101720095,1.526154280,1.067067620,8.870487210,-0.037330390,0.011043250,0.065402690
1.104880095,1.174372200,0.716248870,9.702302930,-0.010025500,-0.011686980,0.047877440
1.107029915,0.714011310,0.042118430,9.798654560,0.004781780,0.097854460,0.021177530
1.109819889,0.410476890,-0.133425100,9.298388480,0.035606320,-0.030399860,-0.000670550
1.111589909,-0.713989140,-0.406646250,10.595657350,-0.021770600,-0.026714810,-0.033953790
1.115099907,-0.860849680,-0.523921250,9.376316070,-0.064961610,0.027902430,-0.055176020
1.116620064,-1.527669430,-0.249594420,10.080486300,0.000125170,-0.071868300,-0.074131790
1.119910002,-1.485697980,0.037719460,9.928891180,0.013905760,0.016549230,-0.053983930
1.121659994,-0.638470170,0.411310520,9.207859040,0.042942170,0.023221970,-0.016418100
1.124910116,-0.459522280,0.598402200,10.572277070,0.034990910,0.033904610,0.021138790
1.126539946,0.742854480,0.735571150,9.475355150,0.003755090,0.038267680,0.059552490
1.129770041,1.246107700,0.725371780,9.628122330,0.018560890,0.006714460,0.079907480
1.131629944,1.295081620,0.533295690,9.900962830,-0.009362400,0.087876630,0.060622390
1.134920120,1.139676330,0.451281400,9.693348880,0.002959370,0.011855360,0.043037530
1.136630058,0.143949400,0.128030060,9.967129710,0.024397670,-0.064754490,0.018583240
1.141360044,-0.296976120,0.117428530,9.102458000,-0.015898050,-0.058326130,-0.040584800
1.142390013,-1.072228190,0.149649890,9.702854160,-0.022222100,0.012370950,-0.074450680
1.144769907,-1.454031230,0.279853760,10.063293460,-0.040251020,0.057311360,-0.094208130
1.146579981,-1.162293670,0.557696880,10.181665420,-0.029413400,-0.028710070,-0.060260300
1.149810076,-0.815752690,0.537671090,10.064294820,-0.008133050,0.015461450,0.007513170
1.151819944,0.115474400,0.379675840,9.479657170,-0.021640950,0.039276470,0.059959300
1.154939890,0.324700710,0.077234170,10.404375080,0.028672820,0.032246110,0.076130040
1.158780098,0.957574430,-0.146924050,9.358962060,0.038865210,0.024539230,0.070507830
1.159790039,1.136119840,-0.234541160,9.754167560,0.009721520,-0.021572410,0.040405990
1.161600113,0.631190840,-0.251264600,10.162281990,0.016026200,0.072811540,0.013262040
1.164819956,0.483665440,0.050867890,9.221866610,-0.000084940,-0.037449600,-0.012545290
1.169759989,-0.456869600,0.360261050,10.061028480,0.003163520,-0.062279400,-0.018619000
1.170269966,-0.756630120,0.614503260,8.961956020,0.004856290,0.047358870,-0.021155180
1.171880007,-1.171517610,0.826327200,9.864364620,0.006054340,-0.060445070,-0.029206270
1.175570011,-1.604941130,0.944725160,10.466429710,0.021676720,-0.016501550,-0.009772180
1.176640034,-0.565729680,0.899402320,8.978816990,-0.020186600,-0.050081320,0.007165970
1.179860115,-0.467741010,0.466876210,10.845462800,-0.027889020,0.024096670,0.008620320
1.181649923,0.275670290,0.281275960,10.039685250,-0.013206900,0.114780660,0.018149610
1.185179949,0.844362200,-0.037282870,10.122831340,0.007109340,-0.106178230,0.020399690
1.186789989,0.725473460,-0.250469950,10.125507350,0.004972520,-0.030842420,0.016456840
1.189909935,1.294114470,-0.223741770,8.354244230,-0.024303800,0.007140640,0.006406010
1.191630125,0.465198430,-0.240370450,10.335906980,-0.020475680,-0.027604400,-0.006641450
1.194809914,0.214114990,0.067768770,9.461660390,-0.000931320,0.069552660,-0.015622380
1.196569920,-0.047680900,0.366852490,9.728637700,0.009509920,-0.043815370,-0.008550290
1.201050043,-1.237718940,0.380254270,10.908389090,0.024987760,0.013318660,0.007230040
1.203799963,-1.208104970,0.669431750,9.035206790,0.029052800,-0.095725070,0.013652440
1.204849958,-1.531063560,0.647530020,9.766592980,0.003063680,-0.162239370,-0.001598890
1.206779957,-1.033017750,0.601772190,8.951873780,-0.034673510,0.063499820,-0.016608840
1.209850073,-0.087052620,0.785693710,9.716053010,-0.036546580,0.023853780,-0.041843940
1.211590052,0.193868800,0.645834510,11.427895550,-0.034300990,0.055918100,-0.030198690
1.214829922,1.414432050,0.640571240,9.476563450,-0.030536950,-0.026431680,0.019578630
1.216820002,1.433010820,0.301984940,10.333391190,-0.044220690,-0.080312780,0.041082500
1.219949961,1.246315600,-0.267473310,9.248752590,-0.036215790,0.090603530,0.057522960
1.221679926,0.940107170,-0.453118180,9.132043840,0.013127920,-0.065425040,0.025123360
1.224800110,-0.213383470,-0.678505540,10.410063740,0.030101840,0.029613080,-0.008752940
1.226589918,-0.479281780,-0.408999950,9.047250750,0.011676550,0.006459650,-0.025461610
1.229779959,-1.506239530,-0.015417040,10.834654810,-0.000421700,-0.097185380,-0.046865640
1.231600046,-1.697532060,0.381597790,9.567928310,-0.030332800,0.008168820,-0.048865380
1.235379934,-1.215747480,0.851420100,8.917277340,-0.003428760,-0.115314110,-0.030490750
1.236660004,-1.199675680,0.935648020,10.385089870,0.021709500,0.062553590,-0.019636750
1.239870071,-0.016416820,1.026612760,9.041069030,0.025822220,0.049874190,0.018221140
1.241669893,0.403844390,0.904424310,10.686844830,0.022457540,-0.132276120,0.049942740
1.244810104,1.203725580,0.504440900,9.559419630,-0.050687790,0.053143510,0.064593560
1.246639967,1.707425480,0.091488960,9.318986890,-0.049832470,-0.010550020,0.057142980
1.249850035,0.756678820,-0.315488760,11.383746150,0.008025770,0.027062000,0.023770330
1.251990080,0.859569190,-0.298413570,9.047732350,0.018997490,-0.041002040,-0.009471180
1.254899979,-0.052217680,-0.201956840,9.780098920,-0.000005960,-0.159345570,-0.031638150
1.257649899,-0.839666660,0.002743150,9.453145980,-0.062830750,0.079852350,-0.053024300
1.259819984,-0.844885110,0.297050030,8.916823390,-0.053225450,-0.028444830,-0.076760360
1.261610031,-1.518754840,0.497416080,10.869542120,0.001426040,-0.026397410,-0.048549470
1.264859915,-0.739011290,0.679153680,9.093209270,0.010016560,0.050967940,-0.000412760
1.268189907,-0.647032260,0.417911680,10.207092290,0.035724050,-0.082981590,0.044219200
1.269880056,-0.515138800,0.096385060,10.342313770,0.035747890,-0.002942980,0.081720950
1.273560047,0.491306990,-0.087911470,8.758221630,0.026454040,-0.087790210,0.049969560
1.276459932,0.451473330,-0.285774410,10.281438830,0.018675630,-0.021226710,0.023943190
1.276920080,0.989286240,0.092839670,9.518699650,0.005108120,0.101728740,-0.003658240
1.279819965,0.925120710,0.406909820,10.300972940,-0.004968050,-0.067748140,-0.024788080
1.281670094,0.519465740,0.746753510,10.323182110,-0.032557540,-0.022028390,-0.011111790
1.285290003,0.545277660,1.006058930,8.946741100,-0.044929980,-0.034928330,0.003169480
1.286649942,-0.330015600,0.703333800,9.981900220,-0.006878380,-0.021582850,-0.002671780
1.290309906,-0.557377400,0.650459650,9.428685190,0.033499300,0.033892690,0.002276900
1.291670084,-0.748056290,0.361196430,9.702200890,0.004139540,-0.047065310,-0.003631410
1.294850111,-0.955591740,-0.066575390,10.145494460,-0.044292210,0.012868640,-0.002545120
1.296590090,-0.761620040,-0.225137080,9.718699460,-0.036820770,-0.027517970,-0.001992290
1.300570011,-0.753575560,-0.503574970,10.066782000,0.005751850,-0.071343790,-0.013075770
1.302629948,-0.080834660,-0.282348130,9.234392170,0.044137240,-0.022153560,-0.003290180
1.305000067,0.148310350,-0.039159220,9.905277250,0.025853510,0.003816190,-0.012256210
1.308180094,0.598150190,0.134589450,10.004411700,-0.005258620,0.037963690,0.022193790
1.309870005,0.843245090,0.580185530,9.916716580,0.008387860,-0.045232470,0.036549570
1.311579943,0.706562760,0.728406550,9.981885910,-0.003142660,-0.018110870,0.025323030
1.314929962,0.751994070,0.890536900,9.118571280,0.000841920,0.024268030,0.044113410
1.316790104,-0.203884840,0.844572130,10.264998440,0.023955110,-0.040516260,0.006674230
1.319880009,-0.420760360,0.663011070,9.577515600,-0.004863740,-0.023980440,-0.015097860
1.321660042,-0.650628860,0.549757780,9.574002270,-0.020971900,-0.059299180,-0.028294330
1.324790001,-1.198387740,0.267723830,10.395823480,-0.056925420,0.013253090,-0.056079030
1.326639891,-0.596136210,0.126851440,9.363217350,-0.047630060,-0.006881360,-0.039206440
1.329799891,-0.617058040,-0.011554250,10.232246400,-0.005352500,-0.046317280,-0.013551120
1.335109949,0.045888380,-0.290402140,9.528264050,-0.003230570,0.042590500,0.024610760
1.335860014,0.561808050,-0.436518280,9.698775290,0.050288440,-0.020597880,0.060248380
1.336640120,0.396281480,-0.476331860,10.408130650,0.059147180,-0.012812020,0.044696030
1.340650082,1.096149560,-0.277512400,9.111050610,0.023172800,-0.013287370,0.037875780
1.341690063,0.549643340,0.053006700,10.226203920,0.030131640,0.021810830,0.018170480
1.344779968,0.148136790,0.509880600,9.976612090,0.007382040,0.053229940,-0.014184420
1.346740007,-0.127186660,1.073294160,9.750514980,0.024400650,-0.116375100,-0.016264620
1.349810123,-0.744138480,1.272903320,9.496898650,-0.005827840,-0.051328550,-0.032147770
1.351650000,-0.520235480,1.387258290,8.763811110,-0.061030680,0.023433570,-0.042766330
1.354900122,-0.901582660,1.259987950,10.468605040,-0.036948920,0.037373600,-0.023396310
1.356580019,-0.479038800,0.859432880,9.955059050,-0.046928230,0.021097060,-0.000782310
1.359810114,0.185647470,0.412010880,9.920410160,-0.062468650,-0.053474310,0.040280820
1.361649990,0.217187170,-0.344955350,10.123184200,-0.047695640,0.081479550,0.069773200
1.364880085,0.706130450,-0.946905670,9.509777070,-0.023537880,0.014001130,0.045652690
1.367010117,0.283772800,-1.099158530,10.620318410,0.053808090,-0.041672590,0.007481870
1.369859934,0.410825250,-0.880582450,9.088432310,0.020776690,0.012801590,-0.026622420
1.371720076,0.281354810,-0.346683170,9.563387870,-0.013697150,-0.024026630,-0.035291910
1.374830008,-0.373048840,0.365940240,10.282470700,-0.010469560,0.098547350,-0.027310850
1.376640081,-0.063208540,1.025498510,9.113872530,-0.017406050,-0.018459560,-0.014404950
1.380130053,-0.661742510,1.462716460,10.452881810,0.008207560,-0.026802720,0.022037330
1.381639957,-0.596284330,1.487529400,9.134012220,-0.003927950,0.070366260,0.028313700
1.384829998,-0.527655420,1.267580030,9.706756590,-0.005613270,-0.097931930,0.038358570
1.386709929,-0.711286780,0.919747170,10.263178830,-0.030805170,0.017243620,0.052143640
1.389899969,0.271549220,0.328071920,8.876185420,-0.094695400,0.026746100,0.036053360
1.391649961,0.017656050,-0.265563910,11.244606970,-0.056412820,0.025296210,0.022521620
1.395030022,0.370613220,-0.389072000,10.107146260,-0.031991310,0.082476450,-0.007492310
1.396579981,0.727186740,-0.570839940,9.680880550,-0.029735270,-0.129739940,-0.012111660
1.400259972,0.193136140,-0.569141860,10.135196690,-0.023493170,0.029692060,-0.008764860
1.401730061,0.608977910,-0.257582720,8.439230920,-0.021336970,0.055927050,-0.032515830
1.404850006,-0.063249960,-0.036344820,10.432174680,0.005435940,-0.015579160,-0.016279520
1.406610012,-0.236445490,0.483894440,9.676710130,0.006316600,0.092327600,0.003790860
1.409780025,-0.261902870,0.682060720,9.618796350,-0.007927420,-0.053973500,0.025311110
1.411910057,-1.167853710,0.601380050,10.707864760,0.011505190,-0.013314190,0.043189530
1.414819956,-0.735382740,0.705572070,8.849141120,0.017581880,-0.041329860,0.019767880
1.416850090,-0.878314850,0.446127770,10.230478290,0.002157690,-0.075496740,-0.003923480
1.419899940,-0.524060250,0.394136460,9.758496280,-0.013522810,0.106109690,-0.002433360
1.421649933,0.238807630,0.459169000,9.843558310,-0.035232310,-0.017824770,-0.022417310
1.424779892,0.308987320,0.306577710,10.946486470,-0.054647030,0.013376770,0.014624000
1.427129984,1.151532170,0.293721850,9.058084490,-0.031167270,0.001274050,0.023254750
1.429790020,0.933252450,0.022945720,10.132428170,-0.009790060,-0.024645030,0.001895430
1.431659937,0.696571290,-0.103320950,9.595987320,0.010384620,0.085248060,0.014270840
1.435519934,0.573137280,-0.049840330,9.391443250,0.016726560,-0.043970350,-0.013713540
1.436650038,-0.267109780,-0.218428430,10.524560930,-0.020539760,0.051119920,-0.022731720
1.440269947,-0.476175550,-0.044223130,9.353833200,-0.011073050,0.039555130,-0.009863080
1.442420006,-1.266074180,0.007251290,10.568538670,0.030259790,-0.078305610,-0.029292700
1.444770098,-1.277561900,0.233806510,9.553226470,0.022114810,0.017321110,-0.019386410
1.446589947,-0.943148140,0.595833000,9.195755000,0.022588670,-0.048735740,0.000157950
1.449800014,-0.903642000,0.550308640,10.561422350,-0.007525090,0.047823790,-0.000531970
1.451669931,0.257938920,0.786770520,9.254211430,0.002655390,0.045993930,0.028771160
1.454859972,0.582863090,0.770678820,10.426202770,0.013364850,-0.045497720,0.040957340
1.456599951,1.145529150,0.510313870,9.780142780,-0.024284420,0.096853080,0.047637520
1.459899902,1.369490860,0.394100960,9.293237690,0.009556110,-0.013983250,0.041931860
1.461640120,0.597273770,0.070016380,10.552490230,0.013475120,-0.018310550,-0.004629790
1.464920044,0.609628920,-0.010918240,8.974264140,-0.017620620,0.010991100,-0.029519200
1.467050076,-0.363315280,-0.110321450,10.214138980,-0.002454220,-0.040285280,-0.048169490
1.469990015,-1.032483340,-0.109468200,10.392621040,-0.025583800,0.070187460,-0.065170230
1.471679926,-1.088156460,0.251142200,9.640474320,-0.007571280,-0.047115980,-0.036601730
1.474790096,-1.481684800,0.289601240,10.538055420,-0.001320240,-0.036963820,0.009433930
1.476900101,-0.734068570,0.420479800,9.276655200,-0.019867720,0.051675750,0.032813850
1.479860067,-0.338062470,0.442190410,9.827698710,0.026892130,-0.022847950,0.045050680
1.481620073,0.342348960,0.454157080,9.804028510,0.004842880,0.055360810,0.048704450
1.484810114,1.198425530,0.324546750,9.334296230,-0.008742510,0.071018940,0.047443810
1.486769915,0.926796730,0.003070620,10.620789530,0.031867630,0.035546720,0.032900270
1.490260124,0.794619500,0.008961730,10.021331790,0.044073170,-0.027836860,0.008173290
1.491800070,0.208386110,-0.044337770,9.567339900,0.040473050,-0.117616360,-0.022384520
1.494820118,-0.345573100,0.085512620,9.269985200,-0.013695660,-0.014522670,-0.055943430
1.496639967,-0.720887660,0.493436400,9.617276190,-0.040218230,0.052958730,-0.059162080
1.500000000,-1.126802210,0.663842980,10.547298430,-0.026550890,0.032846630,-0.038473310
1.501709938,-0.707998990,0.940509140,10.194797520,-0.014844540,-0.017744300,0.009152290
1.504889965,-0.517533600,0.828806100,10.309495930,0.001175700,-0.003574790,0.048370660
1.507709980,-0.009311190,0.483531650,9.573925020,-0.009989740,0.029610100,0.067749620
1.509829998,0.435296950,0.174383520,9.667510990,-0.013135370,-0.004263220,0.060461470
1.511660099,0.630616840,-0.405207630,9.737684250,0.015120210,0.066544120,0.042735040
1.515160084,0.957727130,-0.662741780,9.473348620,0.045508150,0.020878020,0.011062620
1.516599894,0.257149850,-0.689951600,10.546241760,0.073283930,-0.023974480,-0.029462580
1.519850016,0.023500340,-0.509986160,9.407748220,0.039313730,-0.023028260,-0.041267280
1.521699905,-0.368832920,-0.019746530,9.735857960,0.014507770,-0.076091300,-0.046175720
1.524950027,-1.055158620,0.436693520,10.198903080,0.018547470,0.057737520,-0.050494080
1.526639938,-0.651158330,1.100859050,9.282429700,0.039310760,-0.027003890,-0.020334120
1.529839993,-0.836179790,1.478286030,10.637801170,0.028386720,-0.035344070,0.018765030
1.532160044,-0.087037580,1.419698950,9.443017010,-0.026999410,0.094966590,0.053136050
1.534850121,0.346515330,1.076281070,10.157423970,-0.027246770,-0.002542140,0.068196640
1.536639929,0.059012650,0.399714800,10.961690900,0.018797810,0.031487650,0.056394940
1.540999889,0.967720450,0.001616720,8.805378910,0.020909310,-0.053210550,0.027075410
1.542400122,0.477539360,-0.459758850,10.206874850,-0.000651180,-0.027294460,-0.010228160
1.544800043,0.437316720,-0.654763940,9.278771400,-0.043694680,0.122864540,-0.042782730
1.546639919,0.328100470,-0.545082030,9.720298770,-0.027617820,-0.045412790,-0.065551720
1.549870014,-0.606446330,-0.400711450,10.624544140,0.034198170,0.027413670,-0.049602990
1.551759958,-0.419878150,-0.116298150,9.105070110,0.062619160,-0.023853780,-0.021153690
1.554939985,-1.097754240,0.148649220,10.545928000,0.088360910,-0.090229520,0.005121530
1.558399916,-1.035654190,0.497053560,9.557124140,0.045903030,0.039441890,0.024764240
1.559770107,-0.324799630,0.882776200,9.545660020,0.006048380,-0.030215080,0.036980220
1.561690092,-0.489581970,1.033605460,11.036853790,-0.001129510,0.101111840,0.041165950
1.565180063,0.466075180,1.197225810,9.468009000,-0.003881750,0.006961820,0.037993480
1.566709995,0.573530080,1.079912900,10.273620610,0.010232630,-0.119249520,0.036495920
1.569989920,0.882028160,0.726298090,8.890249250,-0.029687590,0.068223500,0.023490190
1.571820021,1.136948350,0.256841210,9.134798050,-0.031988320,0.036354360,-0.013346970
1.575819969,0.218998690,-0.188851710,10.997073170,0.007288160,0.088696200,-0.025139750
1.576679945,0.291017710,-0.384932310,9.341420170,-0.014314060,-0.019605460,-0.017702580
1.579809904,-0.583244090,-0.538766740,10.554358480,-0.006389620,-0.101934380,-0.007262830
1.581809998,-1.149692180,-0.550847530,9.621608730,-0.010307130,0.063289710,-0.008891520
1.584789991,-1.175467370,-0.353341520,9.452236180,0.026379530,-0.093939910,-0.019161400
1.587150097,-1.474297290,0.029371030,10.749332430,0.066566470,0.012177230,-0.010481480
1.589849949,-0.387835710,0.592860280,8.903175350,0.032307210,0.049474850,-0.001120570
1.591690063,-0.116018180,0.907364190,10.695995330,0.020070370,-0.039738410,0.029177960
1.594820023,0.625397440,1.208743210,9.731165890,-0.013932590,0.106091820,0.051896280
1.596650124,1.492159840,1.121960640,8.939083100,-0.032220790,-0.036588320,0.069431980
1.600260019,0.975631300,0.651382390,10.613994600,0.029329960,0.053328270,0.062893320
1.601799965,1.089900490,0.418800260,8.810369490,0.037890680,0.044679650,0.017468630
1.604919910,0.206293140,-0.039816540,10.206426620,0.017602740,-0.116363170,-0.006262960
1.608720064,-0.568250300,-0.314628360,10.073438640,-0.028248130,0.070101020,-0.027428570
1.609800100,-0.772635280,-0.290645930,9.358522420,-0.049692390,-0.032091140,-0.068584080
1.611670017,-1.670932770,-0.182670330,11.108237270,-0.010928510,-0.030982490,-0.047186020
1.614860058,-1.006884810,0.256293210,9.162826540,-0.007207690,0.055632000,-0.031822920
1.616650105,-0.716259540,0.400897500,10.115210530,0.005140900,-0.048512220,-0.001262130
1.619899988,-0.317705360,0.481650590,10.282552720,0.029228630,0.076393780,0.041420760
1.621720076,0.950862650,0.641418460,8.712454800,0.012843310,-0.002901260,0.054624680
1.625000000,0.963008940,0.388165950,10.359415050,-0.002186000,0.037518150,0.086769460
1.626640081,1.323751210,0.247426700,9.470454220,0.010401010,0.141920120,0.089929980
1.629839897,0.771188380,-0.060853900,10.282114980,0.041382020,-0.075548910,0.034224990
1.631979942,-0.066609110,-0.103689070,10.051071170,0.046724080,-0.067050760,-0.004056100
1.635080099,-0.264492120,0.096707370,8.534379010,0.005078320,-0.039745870,-0.066362310
1.636759996,-1.253336190,0.244342040,10.351286890,-0.037805740,0.032740840,-0.104787970
1.639849901,-1.254341840,0.904396650,9.919193270,-0.037474930,0.060500200,-0.065647070
1.641639948,-0.917612020,1.155319330,10.207515720,-0.042802100,-0.049698360,-0.032012160
1.644779921,-0.488987240,1.033732060,10.247227670,-0.054374340,0.049278150,0.044606630
1.646680117,0.237866310,0.813719750,9.629690170,-0.021134320,0.036880370,0.071184340
1.649820089,0.466013970,0.020624830,10.345034600,0.006845590,0.013904280,0.058458750
1.652029991,1.130466580,-0.405650650,9.234764100,0.032785530,0.028944020,0.065080810
1.654880047,0.955832180,-0.805732610,9.876144410,0.038550790,0.019882620,0.025415420
1.657069921,0.625631090,-0.959200140,9.819846150,-0.001175700,0.069284440,-0.021962820
1.659830093,0.205523570,-0.354812150,9.379506110,-0.005932150,-0.047056380,-0.020231310
1.661629915,-0.679442580,-0.046600940,10.028646470,-0.010830160,-0.021059810,-0.044846530
1.665189981,-0.841388820,0.591341380,9.178517340,0.012440980,0.026130680,-0.040443250
1.666860104,-1.458130000,1.254991650,10.281107900,0.054658960,-0.058144340,-0.019657620
1.669919968,-1.232493640,1.281707760,9.960680960,0.000402330,0.017093120,0.004218520
1.671649933,-0.520745280,1.282911180,9.540621760,-0.008659060,0.004321340,0.047820810
1.674849987,-0.462856980,0.950568200,10.912355420,-0.006516280,0.046609350,0.039662420
1.677230120,0.496676060,0.607732830,9.743889810,-0.031417610,0.011494760,0.052532560
1.679840088,0.787848410,0.285160270,9.837968830,-0.020086770,-0.106109680,0.051999100
1.682260036,1.065596940,-0.255135510,9.433576580,-0.067353250,0.055469570,0.000317390
1.684859991,1.271257760,-0.452078940,9.199214940,-0.040109460,0.061200560,-0.025306640
1.686680079,0.388398200,-0.593371270,10.565497400,0.015699860,0.014352800,-0.032164160
1.689899921,0.280343470,-0.607604800,9.467822070,0.022514160,0.001864140,-0.020541250
1.691649914,-0.566958840,-0.421199710,9.880656240,0.049914420,-0.051334500,0.014947350
1.694750071,-1.412539240,-0.208473370,10.035410880,0.040914110,-0.018388030,0.013096630
1.696650028,-1.334004880,0.263577910,9.354144100,0.029467040,-0.073577460,0.013257560
1.701960087,-1.444974540,0.684532170,10.039375310,0.035771730,-0.006452200,0.004632770
1.702650070,-0.619854210,1.114241360,9.762307170,-0.002279880,0.068075960,-0.007539990
1.704900026,-0.119400140,1.404184340,10.630414010,0.017966330,-0.001274050,-0.001186130
1.706799984,0.597529290,1.353711490,9.946443560,-0.006988650,-0.022883710,0.026962160
1.709800005,1.521777750,0.985421540,9.085023880,-0.045338270,-0.032389170,0.037547950
1.711630106,1.356596350,0.416969000,9.654816630,-0.017385190,0.090269750,0.043563540
1.715209961,1.416606430,-0.130834880,9.332108500,-0.022920970,0.057780750,0.031514470
1.716809988,0.755463840,-0.612415910,10.284824370,0.000970070,-0.012263660,0.023782250
1.719919920,-0.062181860,-0.996653380,9.812765120,0.016151370,0.039772690,-0.005523860
1.721790075,-0.950982210,-0.910162450,9.974373820,0.021182000,-0.085781510,-0.043946510
1.724800110,-1.846535090,-0.561414360,10.052987100,0.039796530,-0.028359890,-0.056137140
1.726629972,-1.551957490,0.011553440,8.969039920,0.031666460,-0.006918610,-0.062644490
1.729850054,-1.479749920,0.725895050,10.534986500,0.039595370,0.007151070,-0.040262940
1.732130051,-0.580806490,1.274186610,9.747203830,0.025826690,0.105187300,0.018469990
1.734899998,0.594586670,1.523133040,9.681880950,-0.003023450,-0.028219820,0.061823440
1.736750126,0.964518430,1.180807590,10.351898190,0.014086070,0.075450540,0.104951860
1.740550041,1.789117570,0.694019850,8.854423520,0.036492940,0.051333020,0.098994390
1.741750002,1.209908840,0.083461860,10.413201330,0.052876770,-0.065049540,0.053973500
1.744790077,0.756507400,-0.411034200,9.385557170,0.030319390,0.037935370,0.004582110
1.746789932,0.408800130,-0.550720630,9.216289520,-0.012560190,-0.041869280,-0.058186050
1.750329971,-1.070747970,-0.550601180,11.069668770,-0.016164780,0.052903600,-0.099188070
1.751739979,-1.109833360,-0.003099470,9.303485870,-0.011901560,0.000318880,-0.093582280
1.754869938,-1.574901700,0.325543050,10.399179460,0.014442210,-0.104427340,-0.052823130
1.756680012,-1.439033030,0.545196120,9.754172330,0.045049190,0.086279220,-0.007583200
1.759779930,-0.428095970,0.847375040,9.085462570,0.054782640,-0.017625090,0.028850140
1.761660099,-0.313150410,0.730123520,10.757634160,0.038757920,0.035783650,0.057323280
1.764869928,1.107516290,0.523803830,8.831627850,0.017833710,0.099790100,0.086778410
1.766999960,1.311033490,0.204626590,10.342103000,0.032006200,0.003324450,0.062176590
1.769939899,0.923604910,-0.086591890,10.377833370,0.050133470,0.074070680,0.038494170
1.771699905,1.130050660,-0.047354770,8.717988970,0.057140000,-0.114257650,-0.013192000
1.774869919,-0.025061490,-0.049831450,10.069192890,0.004372000,-0.021266940,-0.074659300
1.776679993,-0.317977960,0.410591570,8.864805220,-0.046940140,0.100608160,-0.079888100
1.779880047,-0.869625810,0.713888470,10.415348050,-0.028195970,-0.043840700,-0.071845930
1.781699896,-1.195741420,0.838905690,10.567571640,-0.006821750,0.068312890,-0.029385090
1.784790039,-0.515828910,0.964022820,9.354063990,0.015178320,-0.003498790,0.026042760
1.786689997,-0.854613840,0.548401530,10.999363900,0.014330450,0.027373440,0.042988360
1.790169954,-0.108691990,0.328571980,9.151126860,-0.003936890,0.051482030,0.051589300
1.791650057,0.352957100,0.021114410,9.698121070,-0.000192220,-0.069578000,0.039324160
1.794960022,0.543463470,-0.353785340,9.767529490,-0.011350210,0.137050460,0.016762320
1.796649933,1.104357480,-0.215339590,9.095920560,0.004650650,0.034120680,-0.017841160
1.800359964,0.502546910,-0.225954250,10.807408330,0.015830990,0.017663840,-0.025659800
1.801670074,0.438345790,-0.086902170,9.136634830,0.005145370,0.053149470,-0.024530290
1.806270123,-0.276774790,0.132074830,10.009392740,0.046339630,-0.105361640,-0.026218600
1.806930065,-1.034516450,0.374437720,9.983815190,0.050294400,0.034394860,-0.019326810
1.809880018,-0.780241310,0.733610870,8.728030200,0.013694170,-0.038984420,-0.008073450
1.811779976,-1.192225460,0.825895910,10.839669230,-0.004495680,0.041587640,-0.000409780
1.814769983,-0.598731820,1.023355960,9.890326500,-0.028008220,0.136791180,0.011429190
1.816890001,-0.272435190,1.043614150,10.498990060,-0.012740490,-0.111763180,0.013245640
1.819839954,0.103634180,0.789176460,10.168738370,-0.024582450,0.000338260,0.007162990
1.821799994,1.095631960,0.544964550,8.291737560,-0.046700240,0.030575690,-0.009319190
1.824800014,0.786134780,0.064677170,10.477817540,-0.026889140,0.052309040,-0.021812320
1.826800108,1.080172540,-0.197666700,9.385038380,-0.028011200,0.144705190,-0.018256900
1.829890013,0.818145810,-0.552438080,9.782465930,-0.010177490,-0.053226950,-0.002987680
1.831690073,-0.215930610,-0.868028220,10.617448810,0.030119720,0.028857590,0.009983780
1.834840059,-0.553516510,-0.651899040,8.945062640,0.044672190,-0.026835500,-0.013351440
1.836669922,-1.619570730,-0.418158530,10.351243970,0.050322720,-0.111749780,-0.033609570
1.840780020,-1.487638590,0.190259740,9.429695130,0.022795800,0.068870190,-0.049509120
1.841710091,-1.052555080,0.888656910,9.706229210,0.008021300,0.009332600,-0.062899300
1.845099926,-0.805015090,1.435427190,10.986307140,0.000838940,0.047647950,-0.024169690
1.846650124,0.507518470,1.741925950,9.313161850,-0.014345350,0.040628020,0.015279650
1.850029945,0.957395320,1.417482020,10.055410390,-0.016163290,-0.026740140,0.034457450
1.851670027,1.399852510,0.976567510,9.533487320,-0.011467930,0.090508170,0.056661670
1.854870081,1.485716700,0.253069040,9.364969250,-0.015072520,0.026604540,0.041481850
1.856630087,0.765550850,-0.667928040,10.344653130,-0.012758370,0.013153260,0.013603270
1.859950066,0.306007390,-0.974899830,9.561552050,0.014038380,0.027196110,-0.028336050
1.861680031,-0.840602460,-1.136527300,10.118302350,0.000450020,-0.032062830,-0.086538490
1.864809990,-1.526901600,-0.818381370,9.724373820,-0.001297890,-0.033780930,-0.086383540
1.867239952,-1.806890370,-0.231716990,9.615590100,0.035382810,-0.045888130,-0.092813380
1.869899988,-1.668281080,0.347908940,9.891396520,0.036925070,0.012296440,-0.062550590
1.871740103,-0.729632500,1.163713100,9.676365850,0.045059630,0.023621320,0.005847220
1.874819994,-0.044132560,1.364001750,10.409479140,0.018040830,0.053204590,0.040347870
1.876699924,1.028890370,1.277370450,9.816198350,0.009289380,0.055104490,0.076557690
1.879760027,1.288195130,1.160215380,10.283422470,0.035370890,-0.032995640,0.069838760
1.881720066,1.307464600,0.532765510,9.669129370,0.002253060,-0.014163550,0.034506610
1.884840012,1.251502750,0.134757460,8.861784930,-0.010493400,-0.053104760,-0.001056490
1.886709929,0.150758450,-0.226151150,10.006586070,-0.019566710,0.022944810,-0.067240010
1.889990091,-0.123133820,-0.373036150,9.267774580,-0.053587560,0.059670210,-0.092969830
1.892030001,-1.042566060,-0.178661610,10.414922710,-0.021037460,-0.056292110,-0.060664120
1.894759893,-1.592256070,-0.284623240,10.363804820,-0.005938110,-0.012885040,-0.047978760
1.896689892,-1.184504510,0.029131810,9.245429990,0.032714020,-0.086727750,-0.016795100
1.900249958,-1.469031690,0.282679920,10.366317750,0.045989460,-0.021132830,0.012747940
1.902159929,-0.375106690,0.347155780,9.315464970,-0.001527370,0.073251150,0.025740270
1.904870033,0.225264250,0.573099730,10.333631520,0.027590990,-0.007450580,0.057356070
1.908319950,0.654546020,0.605932120,10.357064250,0.034251810,0.016990310,0.040987140
1.909850121,1.665494440,0.626109660,8.938245770,0.011816620,-0.046007330,0.030826030
1.911760092,1.150288820,0.557211760,10.049354550,0.008752940,0.004306440,0.006762150
1.914809942,1.057335380,0.441136630,9.169151310,-0.029714410,0.053608430,-0.039942560
1.916850090,0.429967640,0.428818170,9.821737290,-0.018206240,-0.050818920,-0.054137410
1.919879913,-0.637874010,0.285494180,10.083810810,-0.021204360,0.013835730,-0.049914430
1.921710014,-0.840259970,0.128597450,9.428421020,-0.023175770,-0.046366450,-0.029145180
1.924880028,-1.826670050,-0.059285200,10.625023840,0.029920040,-0.038471810,-0.007493790
1.926680088,-1.571386690,-0.110260380,9.462763790,0.015738600,-0.020551680,-0.010752680
1.929810047,-1.103631020,-0.092939880,10.121039390,0.016114120,-0.062567000,0.004036730
1.931710005,-0.558905960,0.069653630,10.011650090,0.018951290,0.065524880,0.010083620
1.935559988,0.713344220,0.300803900,9.454664230,0.005395710,-0.026498730,0.009624660
1.936739922,1.043884400,0.529664930,10.345499040,0.015875700,0.025771560,0.043064360
1.941479921,1.742848750,0.558280710,8.908662800,0.006026030,0.050689280,0.033572320
1.942369938,1.409559010,0.468030420,10.123295780,0.032092630,-0.053423650,0.025029490
1.944780111,0.616943840,0.385782660,9.820887570,0.052142150,0.030674040,0.008462370
1.946670055,0.112880070,0.290198860,9.243599890,0.014734270,-0.111988190,-0.025039910
1.950200081,-1.050607440,0.237150950,10.438501360,0.000721220,-0.027236340,-0.049521030
1.951679945,-1.224031450,0.398794170,8.970180510,-0.029730800,0.051419450,-0.071293120
1.954930067,-1.620066520,0.508893010,10.494816780,-0.035525860,-0.096750260,-0.065478690
1.957979918,-1.383337140,0.523946110,10.076358800,-0.009474160,0.042210520,-0.023067000
1.959800005,-0.361177890,0.505892630,9.156865120,0.016322740,-0.056444120,-0.006484990
1.961709976,-0.129268360,0.370986700,10.824322700,0.019624830,-0.017453730,0.039394200
1.964829922,1.250498890,0.251150010,8.710355760,-0.023536390,0.100705040,0.064821550
1.968820095,1.496935730,-0.128687400,10.242811200,-0.016555190,0.005431470,0.065359480
1.969789982,1.068431500,-0.292874310,10.781354900,0.043182080,0.093911570,0.058908760
1.971810102,1.057067750,-0.156530600,8.937050820,0.070700030,-0.127124760,0.014686590
1.975790024,-0.282700000,-0.040513580,10.169466020,0.013545160,-0.152216870,-0.032053880
1.976819992,-0.479514330,0.340406450,8.328071590,-0.043389200,0.073112550,-0.068302460
1.979830027,-1.125312920,0.670733390,9.937648770,-0.037717820,-0.010524690,-0.106759370
1.981960058,-1.641018150,1.057109240,11.030570030,-0.002627070,0.050583480,-0.074642900
1.984849930,-0.789989530,1.321766020,9.262800220,-0.000819560,-0.059008600,-0.009915230
1.987730026,-0.905019400,0.816718580,10.756368640,-0.020614270,-0.081908700,0.033278760
1.989820004,-0.140857440,0.388307420,9.367726330,-0.010672210,0.052256880,0.069783620
1.993099928,0.553389490,-0.154162240,9.540560720,0.025716430,-0.070220240,0.056263800
1.994839907,0.734549460,-0.736530600,10.415861130,0.045582660,0.066053870,0.040400030
1.996659994,1.425386070,-0.503958280,9.286443710,0.046135490,0.044982140,0.031551720
2.000090122,0.820951340,-0.463156580,10.670074460,-0.008979440,-0.054672360,0.004632770
2.001980066,0.597434100,-0.103904610,9.267048840,-0.038293010,-0.005888940,0.001832840
2.005019903,0.100914200,0.413504930,9.087737080,0.012406710,-0.061394290,-0.031264130
2.006700039,-0.883374570,0.619890690,10.073196410,0.037598610,0.036074220,-0.047151740
2.009809971,-0.997940420,1.074461820,9.335417750,0.062897810,-0.032077730,-0.022675100
2.011709929,-1.412822480,0.936018590,10.465714450,0.026920440,-0.067560380,-0.002187490
2.015579939,-0.943511900,0.672092320,9.713617320,-0.022210180,0.024807450,0.024934110
2.016649961,-0.669345970,0.490433870,10.105520250,0.001265110,-0.047345460,0.027702750
2.020270109,-0.142340670,0.067298660,10.252818110,-0.015026330,0.014765560,0.024515390
2.021739960,0.836552500,-0.116885570,9.218618390,0.030121200,-0.019615880,0.033098460
2.024930000,0.922222970,-0.230424670,10.177845000,0.043670840,-0.008238850,-0.001877550
2.026669979,1.420319800,-0.149306040,9.179984090,-0.014214220,0.049737100,0.006151200
2.029850006,1.155627010,-0.033213350,9.698904040,-0.005987290,-0.014145670,0.034910440
2.032109976,0.404692920,-0.044455580,10.324254040,0.017221270,0.047679250,0.017543140
2.036000013,-0.091503520,0.224667300,9.431226730,0.058160710,-0.043024120,0.021974740
2.036689997,-1.315818790,0.450951460,10.173770900,0.069245700,-0.110059980,0.008386370
2.039900064,-1.433263780,0.604252990,9.153148650,-0.008922820,-0.023777780,-0.019834940
2.042360067,-1.501892570,0.719472230,9.633770940,-0.007736680,-0.033865870,-0.041769440
2.044780016,-1.264276150,0.793040280,10.343140600,-0.004251300,0.038515040,-0.051842630
2.046700001,-0.094693650,0.877784010,9.682868000,-0.005453830,0.008495150,-0.028397140
2.049860001,0.316161600,0.566838560,10.404441830,0.008822980,-0.017724930,0.028473140
2.051939964,1.174323680,0.258627240,9.678753850,-0.010608140,0.018557900,0.065951060
2.054929972,1.413680200,-0.122187760,9.630586620,0.006112460,-0.038765370,0.066465150
2.057150126,1.140084270,-0.406872240,9.706295010,0.018511710,0.012168290,0.058960920
2.059789896,1.024393200,-0.389628860,9.413869860,0.020606820,0.039523840,0.026154520
2.061779976,-0.151348230,-0.297364920,10.447183610,0.037752100,0.002959370,0.000397860
2.065109968,-0.726909100,0.196990370,9.650075910,0.007702410,-0.085273390,-0.015281140
2.068619967,-1.265566830,0.555245520,9.339434620,-0.018621980,-0.082497310,-0.034475330
2.069829941,-1.548784610,0.818390310,9.350864410,-0.022490330,0.040179500,-0.053386400
2.072230101,-1.254015210,1.257028460,9.974696160,-0.007085500,0.003065170,-0.047490000
2.074840069,-0.861372590,1.212568160,10.383212090,0.001844760,-0.013385710,-0.005134940
2.076679945,0.297861040,0.927925650,9.442867280,-0.034333770,-0.008119640,0.055548550
2.079839945,0.752972600,0.327726450,10.393641470,-0.032271440,0.032149250,0.072602940
2.082099915,1.025613430,-0.383314430,9.984551430,0.007909540,0.050103660,0.073432930
2.084919930,1.223117110,-0.611226020,9.765243530,0.039285430,-0.110687320,0.044158100
2.086780071,0.711125610,-0.792199190,9.850650790,0.016395740,0.008286540,-0.000944730
2.090110064,0.593652900,-0.515909790,8.911517140,-0.035680840,0.020749870,-0.032348930
2.091730118,-0.437683110,0.048182570,10.620983120,-0.019292540,-0.031675400,-0.056396420
2.094880104,-0.766310100,0.504537220,9.526838300,-0.016720600,0.038211060,-0.046323250
2.096719980,-0.854806780,0.948303100,9.439231870,0.019748510,-0.067190820,-0.012058020
2.102540016,-1.593712330,0.998727800,10.660457610,0.041806700,0.014127790,0.020612780
2.103440046,-0.835286440,0.934336540,8.767886160,0.027906890,-0.031647090,0.042894490
2.104799986,-0.711865370,0.593400360,10.320994380,0.009642540,-0.097645810,0.044602160
2.106800079,-0.030372710,0.117025070,9.755804060,-0.016790630,0.117732590,0.021386150
2.109790087,0.899981140,-0.068113890,9.733371730,-0.000019370,-0.011155010,-0.009180600
2.111740112,0.633345430,-0.205554140,11.252056120,0.025258960,0.005452340,-0.017039480
2.115309954,1.415492770,-0.111614420,8.760089870,-0.012637680,-0.010569390,-0.009502470
2.117429972,0.880079330,-0.124203600,9.934092520,0.002999600,-0.095210980,-0.001615290
2.119800091,0.282329590,0.000879500,9.556131360,0.006683170,0.090804700,-0.006465620
2.121740103,0.280965720,0.293034140,8.871820450,0.025612120,-0.027914350,0.002849100
2.124789953,-0.968544720,0.315692660,11.010355950,0.058226290,0.034558780,0.028422480
2.126699924,-0.879270370,0.475952950,9.355542180,0.023792680,0.031703710,0.011643770
2.129800081,-1.266088010,0.631294850,10.264891620,0.019791720,-0.138062240,0.008487700
2.131799936,-1.255337720,0.646761420,9.587856290,-0.006085630,0.015839930,-0.007534030
2.134939909,-0.243005020,0.741275130,8.739871980,-0.017681720,0.003191830,-0.037844480
2.136889935,-0.224355650,0.710096840,10.808882710,-0.000576670,0.070004170,-0.031103200
2.139859915,0.833172920,0.678218070,9.494476320,-0.019565220,0.063681600,0.002817810
2.141690016,1.129966620,0.293504030,10.481196400,-0.012683870,-0.074931990,0.036826730
2.144819975,0.966139020,-0.131668080,10.065042500,0.001415610,0.063695010,0.052303080
2.146899939,0.951500060,-0.370888890,9.165763850,0.011810660,-0.062170630,0.030677020
2.150020123,-0.015816390,-0.440204710,10.299716950,0.024490060,-0.024610760,0.015528500
2.151679993,-0.099468190,-0.263984470,8.775508880,0.004723670,0.062942500,-0.015147030
2.154860020,-0.759811160,0.119984420,10.404849050,0.000289080,-0.034511090,-0.035174190
2.156909943,-1.113155600,0.604542370,10.128520970,-0.021974740,0.057166810,-0.026276710
2.159830093,-0.734232370,0.866230190,9.096674920,-0.029106440,-0.062564020,-0.014995040
2.161760092,-0.949435290,0.903883580,10.485933300,0.013405090,0.020764770,0.001303850
2.164819956,-0.182316960,0.918366790,9.063767430,0.023563200,0.080153340,0.023378430
2.167119980,0.083658850,0.578598500,10.235239980,0.020058450,-0.084067880,0.040085610
2.169869900,0.513476430,0.186486600,9.947776790,-0.010630490,0.099325180,0.057354570
2.174730062,1.074256900,-0.119640200,9.322388650,-0.039255630,0.029112400,0.035060950
2.175379992,0.306460740,-0.448343520,11.316905020,-0.005075340,0.004580620,0.003631410
2.176670074,0.417455520,-0.255801230,9.137598990,0.012752410,-0.003254410,-0.027419630
2.180079937,-0.113248520,-0.085875880,9.631438260,0.007447600,-0.146806250,-0.055305660
2.181699991,-0.619156360,0.246137620,9.719478610,-0.017946960,0.076654550,-0.045491760
2.184849977,-0.358221290,0.677444640,8.906184200,-0.036109990,0.029326980,-0.031675400
2.186800003,-0.847622570,0.695283230,10.978917120,-0.009199980,0.000332300,0.007112320
2.190109968,-0.270413190,0.798688950,9.535407070,0.021108990,0.087416170,0.065109140
2.191699982,-0.325299800,0.495547710,10.136230470,0.030814110,-0.086770940,0.066679710
2.195029974,-0.400157540,0.167732920,10.177443500,0.019484750,-0.017388170,0.063945350
2.196759939,0.392152370,0.033129740,8.474390030,-0.000095370,-0.007890160,0.014674660
2.199899912,0.179154340,-0.233562960,10.278551100,-0.022584200,0.039780140,-0.026610500
2.201770067,0.597627400,0.032279200,9.927526470,-0.006975230,0.137652440,-0.042149420
2.205410004,0.522247310,0.332676230,10.363872530,-0.003822150,-0.046683860,-0.038522490
2.206759930,0.176999180,0.377778140,10.283093450,-0.023683910,-0.040833660,0.002636020
2.209800005,0.273630710,0.588365020,8.805711750,-0.010868910,-0.013317170,0.013890860
2.211920023,-0.374790280,0.391662480,9.801214220,-0.008104740,0.009211900,0.015151500
2.214879990,-0.303515200,0.274560510,9.518713950,0.018690530,0.082862380,0.047193470
2.216949940,-0.487664160,0.118577820,10.312947270,0.056679550,0.022982060,0.019012390
2.219909906,-0.673195240,-0.097634980,10.458235740,0.016564130,0.003160540,0.013852120
2.221750021,-0.423912350,0.118025790,9.422564510,-0.003413860,-0.066095600,0.022082030
2.226890087,-0.481081190,0.032997490,9.669492720,-0.033314520,-0.016576050,-0.018958750
2.228280067,0.032078840,0.214939060,9.197703360,-0.016982850,0.070007150,-0.022058190
2.229759932,0.050643770,0.620495800,10.271699910,0.042171780,0.012409690,-0.011228030
2.231790066,0.367737410,0.500886440,10.058045390,0.003956260,0.037953260,0.005747380
2.234899998,0.668019830,0.552041950,9.634191510,0.004982950,-0.023964050,0.053101790
2.236759901,0.091713380,0.341699990,10.538675310,0.002720950,0.016921760,0.033147630
2.240439892,0.166263760,0.121238370,9.442454340,0.000220540,-0.000850860,0.020822880
2.241760015,-0.437606870,0.209879580,9.999189380,0.030682980,-0.104935480,-0.003960730
2.244839907,-0.500803110,0.067362580,9.463150980,-0.014023480,0.029452150,-0.032259530
2.246710062,-0.259752630,0.196727290,9.265799520,-0.025218730,0.017885870,-0.033323470
2.250129938,-0.739259180,0.332841250,10.674609180,-0.012874600,0.024227800,-0.018924470
2.251719952,-0.029399260,0.232774200,9.405896190,-0.015775860,0.008991360,0.021442770
2.254899979,-0.052554120,0.064208480,9.992938040,0.053681440,-0.055880840,0.062561040
2.257230043,-0.089913420,-0.044991300,9.921613690,0.065553190,0.046615310,0.051164630
2.259989977,0.334165280,-0.063111820,9.473338130,0.042210520,-0.034679470,0.043763220
2.261749983,-0.057182800,-0.014084210,10.383406640,0.037617990,-0.007204710,0.009594860
2.264790058,0.367623810,0.193540080,9.475366590,0.005123020,0.046093760,-0.034163900
2.267159939,0.020642020,0.661492470,10.276165960,0.022205710,-0.033555920,-0.037768480
2.269880056,-0.232816950,0.941965160,9.975215910,-0.001095240,-0.010870400,-0.029572850
2.271749973,0.131125330,0.982442800,9.191149710,-0.028230250,-0.049182780,-0.025287270
2.274820089,-0.347435300,0.914940060,10.011898040,-0.002624090,0.009205940,-0.003427270
2.276870012,0.017849230,0.657264050,9.353889470,-0.017899270,0.043225290,0.022447110
2.279799938,-0.102582200,0.121447670,10.349081040,0.008897480,-0.005827840,0.044500830
2.281769991,-0.272219390,-0.280065660,10.168649670,0.035411120,0.008881090,0.059142710
2.284820080,-0.073386180,-0.495569680,9.592392920,0.013384220,-0.084984310,0.043664870
2.286750078,-0.404151530,-0.615709900,9.787343030,-0.003203750,-0.025944420,0.030469900
2.290060043,0.046575660,-0.372429400,8.979713440,0.000892580,0.038948660,-0.017881390
2.291820049,-0.037866940,0.101956350,10.439455990,0.033412870,0.025048850,-0.054933130
2.294879913,0.072815260,0.704763050,10.086303710,0.038853290,0.050507490,-0.040467090
2.296720028,0.462704060,1.087048410,9.755128860,0.002102550,-0.062477600,-0.014863910
2.299930096,0.005554290,1.073843000,10.373698230,-0.014936930,0.031417610,0.018990040
2.301990032,0.138147920,1.004750610,9.150669100,0.007571280,0.012046100,0.032299760
2.304840088,-0.367456200,0.731719140,10.326856610,0.006306170,-0.071467440,0.024525820
2.306760073,-0.508732560,0.278708610,9.643774030,-0.001628700,0.016669930,0.019364060
2.309880018,-0.197600110,0.074884460,9.216399190,-0.017996140,-0.067302580,0.001128020
2.311739922,-0.568478640,-0.142058820,10.517681120,-0.042977930,0.035618250,-0.003874300
2.314810038,0.189789120,-0.263566370,8.940392490,-0.050129000,0.072461390,0.026692450
2.317070007,0.125843120,-0.382838730,10.613248830,0.020664930,-0.031241780,0.031751390
2.319979906,0.013100970,-0.386141600,10.171431540,0.078384570,0.060506160,0.036279850
2.321810007,0.409364220,-0.096804310,8.952500340,0.078304100,-0.115217260,0.041480360
2.325079918,-0.196895870,-0.014624210,10.501201630,0.029036400,-0.023493170,0.019018350
2.326699972,0.251054850,0.260018290,8.922159190,-0.000938770,0.124949220,-0.012756880
2.329780102,-0.140050170,0.711706820,10.759735110,0.044882290,-0.041298570,-0.033190850
2.331729889,-0.491668940,1.014762520,10.674096110,0.038619340,0.035978860,-0.019478800
2.334959984,0.141498190,1.203044060,8.623853680,-0.004585090,-0.097730760,0.001885000
2.336790085,-0.624826730,0.959110080,10.479305270,-0.031524900,-0.042104720,0.013421480
2.340120077,-0.109879110,0.749364790,8.698948860,-0.044628970,0.095449400,0.030510130
2.342979908,0.051208820,0.317233320,9.916506770,-0.000052150,-0.054810940,0.040878360
2.344759941,-0.201380970,-0.265046920,10.807455060,0.031477220,0.091049080,0.057412690
2.346689939,0.361202930,-0.443098460,9.275433540,0.022825600,-0.031007830,0.042167310
2.350169897,-0.269692570,-0.709874930,10.721472740,0.017508860,-0.119540120,0.035159290
2.351759911,0.037128740,-0.613553110,8.768404960,0.005884470,0.042304400,-0.014577810
2.354990005,0.107186060,-0.120345810,9.394591330,0.038003920,-0.025105470,-0.057446950
2.359980106,-0.448736370,0.562628980,10.785658840,0.034765900,0.076524910,-0.052143640
2.360630035,0.252183440,1.237679960,9.128600120,-0.018358230,-0.022937360,-0.023999810
2.361720085,-0.083781640,1.335302830,10.602285390,-0.027775770,-0.048197810,0.004361570
2.364779949,-0.069134290,1.273704050,9.686705590,-0.011323390,0.089570880,0.037632890
2.366810083,-0.071918490,0.992746950,9.789156910,0.015832480,-0.088645530,0.043502450
2.369869947,-0.543012500,0.439859240,10.284873960,-0.000485780,-0.032535200,0.044848020
2.371999979,0.060274180,-0.001648410,8.499333380,-0.034755470,-0.019451980,0.026112800
2.376410007,-0.257963930,-0.366246220,10.215795520,-0.039099160,-0.019437080,-0.003598630
2.379130125,-0.020870830,-0.469998270,9.620122910,-0.043269990,0.092013190,-0.003695490
2.379800081,0.237959910,-0.474564880,9.866031650,-0.008653100,-0.067171450,-0.010477000
2.381779909,-0.113179000,-0.428224030,10.646202090,0.045736140,0.001665950,-0.006407500
2.384809971,0.222247840,-0.034392230,9.060881610,0.054711100,-0.042364000,-0.000174340
2.386859894,-0.148163870,0.229575040,10.249156950,0.034581120,-0.072400270,0.010329480
2.389909983,0.017160900,0.571963430,9.448559760,-0.005888940,0.102874640,0.015898050
2.393160105,0.075709910,0.918042480,9.873458860,-0.012268130,-0.010949370,0.006937980
2.394850016,-0.381037240,1.056643010,10.878932950,0.000932810,0.009001790,0.012736020
2.396729946,0.122712780,1.203706620,8.813669200,-0.015047190,-0.045111780,0.017867980
2.400900126,-0.237293510,0.848129750,10.012748720,-0.032600760,-0.088353460,0.004790720
2.404449940,-0.021372160,0.511043970,9.226718900,-0.045254830,0.104488430,0.012634700
2.410979986,0.239017400,0.065110940,9.384814260,-0.031898920,-0.013214350,0.016301870
2.412369967,-0.106532660,-0.498044220,10.844085690,0.008799140,0.044932950,0.023181740
2.413019896,0.271062550,-0.639593060,9.299000740,0.029930470,0.021795930,0.023253260
2.413490057,-0.342674610,-0.802951340,10.487100600,0.026890640,-0.129428480,0.019495190
2.414779902,-0.307508470,-0.602221490,9.279092790,0.015234950,0.026206670,0.005410610
2.416960001,-0.087593620,-0.053506490,8.926745410,0.026515130,-0.020968910,-0.031912330
2.419810057,-0.501599250,0.516261940,10.760635380,0.034908950,0.059816240,-0.038944190
2.422260046,0.204739060,1.367856380,9.348193170,0.011213120,0.057189170,-0.014384090
2.425820112,0.071711420,1.586893920,10.414028170,-0.041010980,-0.080411140,0.008934740
2.426700115,0.209421960,1.453729870,9.793615340,-0.049223010,0.057075920,0.050205000
2.429780006,0.351956070,1.148461340,9.179515840,-0.000031290,-0.011888150,0.040802360
2.431770086,-0.264373690,0.401975540,10.416142460,0.014176970,-0.028921660,0.030285120
2.435339928,0.019641730,-0.076065210,9.000188830,0.003075600,0.008943680,0.028274960
2.437969923,-0.306828200,-0.617754100,9.796690940,-0.033691520,-0.051780050,-0.011605030
2.440129995,-0.418473510,-0.864977600,9.873115540,-0.050976870,0.042407220,-0.023195150
2.441890001,-0.230991750,-0.608869550,9.488047600,0.000973050,-0.020480160,-0.033336880
2.444809914,-0.454559590,-0.468872340,10.389369960,0.026002530,-0.031049550,-0.036872930
2.446799994,-0.026257050,0.129281600,9.508832930,0.064688940,-0.004641710,-0.013273960
2.450190067,-0.035896900,0.647734640,9.885652540,0.045503680,-0.032904740,0.011292100
2.452529907,0.197293680,0.845264380,9.748597150,-0.014172490,0.038258730,0.038978460
2.454890013,0.371051160,1.156248930,9.796175000,0.005725030,0.020766250,0.052341820
2.456739902,0.012354850,0.994492230,10.459894180,0.007374590,0.014388560,0.045374040
2.462769985,0.174488920,0.859870020,9.370560650,0.012877580,-0.055883820,0.032565000
2.463330030,-0.215252620,0.621716500,9.663116460,-0.000417230,-0.076344620,0.004526970
2.464859962,-0.135197730,0.146932300,9.157731060,-0.051288310,0.032645460,-0.032702080
2.466860056,-0.220510810,0.075949710,9.646229740,-0.024846200,-0.011256340,-0.034861270
2.470420122,-0.391257320,-0.213192190,10.266987800,-0.013594330,0.018429760,-0.025452670
2.472120047,0.011917310,-0.401447560,9.512768750,0.005599860,-0.028026100,0.014430280
2.475709915,-0.367049960,-0.431171420,10.386360170,0.059209770,-0.059573360,0.029177960
2.476710081,-0.167824760,-0.468954180,9.557973860,0.039283920,-0.003349780,0.029204780
2.479809999,-0.076094970,-0.215875180,9.644833560,0.058461730,-0.071497280,0.020328170
2.481750011,-0.061917380,0.100562210,10.076768880,0.060276690,0.049130630,-0.008657580
2.485270023,0.473278400,0.739827450,9.514143940,0.027677420,0.035430490,-0.015072530
2.486809969,0.161153850,1.240001560,10.460022930,0.013263520,-0.035761300,0.021609660
2.489979982,0.473355980,1.231238600,9.289549830,-0.042751440,0.014047330,0.024551160
2.491810083,0.327412960,1.129805330,9.397242550,-0.005593900,-0.014624000,0.015072530
2.494780064,-0.339804650,0.754934430,10.085309030,0.044614080,0.005626680,0.015947220
2.496750116,-0.173197310,0.209395260,9.187345500,0.026099390,-0.041562330,0.001738970
2.500129938,-0.704329550,-0.376089190,10.048843380,0.029666720,-0.072237850,0.002242620
2.502200127,-0.633894680,-0.677730800,9.555062290,0.008367000,0.019261240,-0.022174410
2.505520105,-0.560585140,-0.643348570,9.900914190,-0.004409250,-0.042290990,-0.032582880
2.508100033,-0.639916420,-0.481129940,10.233822820,0.024832790,-0.035409630,-0.014157600
2.510970116,0.212610930,-0.031092590,9.305092810,0.045782330,-0.033545500,-0.020754330
2.511780024,0.177527830,0.504630800,10.188545230,0.065243240,-0.012110180,-0.002485510
2.515130043,0.722551050,0.853094160,9.493917470,0.028158730,0.039425490,0.041802230
2.516959906,0.922413710,0.944203140,9.906336780,0.014215710,0.013260540,0.041544430
2.519779921,0.405041130,0.900487070,10.350573540,0.049364580,0.039014230,0.045049190
2.521820068,0.349062980,0.918823180,9.321111680,0.032515830,-0.078277300,0.028605760
2.525170088,-0.429745670,0.644831300,9.705978390,-0.008089840,-0.087600950,-0.007323920
2.526799917,-0.513151650,0.390214440,8.702289580,-0.046379860,0.012397770,-0.044612590
2.529910088,-0.662937460,0.296772090,9.701678280,-0.038211050,0.000943240,-0.077052420
2.532299995,-0.866133510,0.042468690,10.265442850,-0.014770030,0.046026710,-0.050522390
2.534899950,-0.233425290,-0.096393530,9.686257360,0.018368660,-0.055831670,0.002259020
2.536849976,-0.325821280,-0.335982050,10.638964650,0.035953520,-0.037091970,0.030170380
2.539930105,0.203089420,-0.432154210,9.186809540,0.024181600,0.005559620,0.054194030
2.543770075,0.616404290,-0.378105040,9.712691310,0.037232050,-0.037790840,0.047138330
2.545310020,0.624545810,-0.214203360,10.140184400,0.056692970,0.132231430,0.013269490
2.546880007,1.075136300,0.443951870,9.429952620,0.052340340,0.011816620,-0.001658500
2.549880028,0.422121500,0.981528700,10.664676670,0.013668840,-0.025331980,-0.000204150
2.551769972,0.413486300,1.157722230,8.785971640,-0.052233040,0.058197980,-0.000111760
2.554899931,-0.063372310,1.198551890,9.503688810,-0.009822850,-0.052349270,-0.007516150
2.556730032,-0.939435480,1.028056030,10.135936740,0.026182830,0.080452860,-0.025750700
2.560230017,-0.595219790,0.741840000,8.811055180,0.004130600,-0.035685300,-0.016665460
2.561820030,-1.171882870,0.125548590,10.836376190,0.000102820,-0.035181650,-0.003887710
2.566760063,-0.752415900,-0.337413040,9.421078680,-0.030562280,0.091139980,-0.011920930
2.569319963,-0.299799920,-0.563617830,9.817816730,-0.007401410,-0.103481120,0.000853840
2.570240021,-0.272054730,-0.761164430,10.358474730,0.027026240,0.060796740,0.003346800
2.571729898,0.974569440,-0.654685020,8.566502570,0.038038200,0.046755380,-0.013217330
2.575200081,0.700799290,-0.173517760,10.891916280,0.083979960,0.010256470,0.007146600
2.576750040,0.993449690,0.295318340,9.635107040,0.034025300,0.108070660,0.007906560
2.581969976,1.193700910,0.691574510,9.393877980,0.001649560,-0.048600140,0.025084610
2.582839966,0.025437420,1.007501360,10.750103950,0.028137860,0.090360650,0.019225480
2.584820032,-0.078107660,1.165441270,8.934315680,0.027945640,0.025489920,-0.003623960
2.586740017,-1.079678890,1.152972820,10.264150620,0.033350290,-0.127948820,-0.003966690
2.589829922,-1.304856060,0.925762300,9.057192800,-0.014948850,0.045609480,-0.036700070
2.592319965,-0.879356150,0.581494630,8.889915470,-0.051164630,-0.009869040,-0.066730380
2.594939947,-1.152754070,0.233587290,10.801531790,-0.026305020,0.078828640,-0.040100510
2.598040104,-0.001124650,-0.216294620,9.390550610,-0.011733170,0.051198900,-0.021737820
2.599829912,0.386131640,-0.654222010,10.647697450,0.045938800,-0.059096530,0.021047890
2.601789951,0.709264520,-0.683844800,9.881777760,0.057329240,0.065851220,0.046104190
2.604830027,1.332331660,-0.759812410,9.160407070,0.025293230,-0.021196900,0.051106510
2.606800079,0.742215280,-0.511230050,10.490406040,0.047588340,0.077092650,0.049965080
2.609889984,0.754561480,0.095893840,9.331285480,0.069256130,0.074912620,0.014954810
2.611949921,-0.050498790,0.646168050,10.403366090,0.062848630,-0.054684280,-0.010737780
2.614809990,-0.559835490,1.326292990,9.439042090,0.012068450,0.028437380,-0.020192570
2.616739988,-0.661171850,1.547680380,8.968527790,-0.026673080,-0.021657350,-0.039583450
2.619800091,-1.324009180,1.546839480,10.299499510,-0.009636580,0.064979490,-0.046452880
2.621750116,-0.852685870,1.499930980,9.016529080,-0.013276930,0.035932660,-0.025546550
2.624989986,-0.700439330,0.656990410,10.173151020,-0.026488310,-0.041770940,0.009240210
2.626830101,-0.308596340,-0.158704180,9.870520590,-0.009955470,0.097648820,0.039315230
2.630840063,0.162470970,-0.758207980,9.816731450,0.021338460,-0.068418690,0.030195710
2.631760120,0.136636440,-1.356919050,10.522567750,0.040884320,-0.041349240,0.029337410
2.634890079,0.897639630,-1.194760200,8.813632970,0.042317810,0.050719090,0.005123020
2.636719942,0.683616100,-0.733401120,10.540220260,0.034047670,0.014002620,-0.021605200
2.640419960,0.553308610,-0.006308810,10.166147230,0.025682150,0.100427870,-0.000211600
2.641819954,0.667285620,0.845543500,9.181526180,0.036776070,-0.058685250,-0.000120700
2.645819902,-0.168831690,1.271448610,10.271661760,0.029689070,0.019156930,-0.003232060
2.646739960,-0.260843490,1.678422090,8.755082130,0.037406390,0.070360290,0.010092550
2.649790049,-1.009978180,1.619534610,10.221826550,0.021961330,-0.091971470,-0.000759960
2.651770115,-1.226239090,1.076361180,9.949003220,-0.017000730,0.023187690,0.006583330
2.654789925,-0.723416090,0.596009190,8.865583420,-0.001159310,-0.041680040,-0.016257170
2.657160044,-1.073182700,-0.085501280,10.804624560,-0.025288760,-0.006793440,-0.029172000
2.660020113,-0.164111630,-0.498591180,9.277379040,-0.018547480,0.046010320,-0.008009380
2.663439989,0.190025120,-0.807264330,10.124888420,0.029227140,-0.118708610,-0.017148260
2.664750099,0.564602490,-0.807672860,10.120531080,0.031988320,0.036044420,-0.013510880
2.666779995,1.370119810,-0.360367510,8.841944690,0.025571880,0.012817980,0.016477700
2.669860125,0.918046360,-0.136635050,10.740454670,0.010234120,0.035756830,0.022475420
2.671760082,0.994066540,0.272179630,9.720129970,0.039292880,0.105074070,0.035984810
2.674950123,0.255542610,0.785948220,10.010363580,0.097578750,-0.097267320,0.022928420
2.677069902,-0.777250230,1.066385030,10.004358290,0.038695340,-0.067909060,-0.002039970
2.682339907,-0.810093400,1.330798510,8.263916020,-0.024123490,-0.033578280,-0.027772780
2.683109999,-1.463772180,1.166733740,9.936327930,-0.051000730,-0.003859400,-0.070060790
2.684799910,-1.175293090,1.125542640,9.771654130,-0.053331260,0.084909800,-0.062330070
2.686729908,-0.632411720,0.817701220,9.965374950,-0.011861320,-0.039240720,-0.014846030
2.690269947,-0.335644330,0.036263470,10.539585110,-0.008034710,-0.027562680,0.024971370
2.692090034,0.539619450,-0.476504060,9.257846830,0.011643770,-0.036379690,0.045691430
2.694890022,0.675523160,-1.007133600,9.893443110,0.022299590,-0.043049460,0.058358920
2.698270082,1.120141270,-1.202916150,9.539628030,0.025855010,0.078351800,0.049500180
2.699840069,1.124728320,-0.843291520,10.008011820,0.067220640,0.038093330,0.008475780
2.701940060,0.606643680,-0.167063030,10.494683270,0.041420760,0.022253390,-0.012378400
2.704839945,0.423553020,0.666498900,9.350869180,-0.005255640,-0.034172830,-0.020100180
2.707129955,-0.332146290,1.255270240,9.559334750,-0.003123280,-0.025698540,-0.043565030
2.709929943,-0.721766530,1.778645750,9.219137190,-0.018315020,0.059984630,-0.052766500
2.713390112,-1.062757370,1.979138370,9.682981490,-0.003798310,-0.003620980,-0.027486690
2.714770079,-1.157897000,1.416765930,10.087817190,-0.031033160,0.017696620,0.016832350
2.716730118,-0.766436400,0.663043080,9.744994160,-0.019332770,-0.003920500,0.044123820
2.719789982,-0.785866560,-0.267250720,10.428982730,0.014460090,-0.046880550,0.040990110
2.721859932,-0.136512520,-0.858079080,9.555310250,-0.008569660,-0.019423660,0.027364490
2.724879980,0.338290300,-1.065726400,9.658810620,-0.012293460,-0.042724610,0.009831790
2.726769924,0.730553980,-0.980116610,9.950531960,-0.007781390,0.050550700,-0.003883240
2.730000019,1.314578770,-0.345687060,9.573290820,-0.006772580,0.044947860,-0.008216500
2.731820107,1.008313300,0.129777940,10.418518070,0.020655990,0.010156630,0.005048510
2.734899998,0.971925970,0.635238890,9.691821100,0.041344770,0.046212970,0.026163460
2.736779928,0.192710670,1.018728140,9.827135090,0.059537590,-0.035703190,0.014799830
2.739949942,-0.665848140,1.089529510,9.804383280,0.020089750,-0.013829770,0.018279260
2.741899967,-0.804974140,1.030727980,9.033177380,-0.000447030,-0.001206990,0.000444050
2.745810032,-1.414683820,0.768122790,10.013002400,0.002332030,0.018870830,-0.028941040
2.746740103,-1.147279620,0.645790700,9.700398450,-0.026878720,0.051188480,-0.026911500
2.749789953,-0.987324830,0.328519250,10.211050030,-0.037071110,-0.040465600,-0.006869440
2.751749992,-0.637905000,-0.180212150,10.131391530,-0.013628600,-0.042885540,0.012446940
2.755180120,0.277487100,-0.308970960,9.348696710,0.026640300,-0.056119270,0.018839540
2.756760120,0.535819290,-0.471506510,9.961112020,0.025589760,0.009788570,0.038121640
2.760060072,1.295070650,-0.521007540,9.559040070,0.021371240,0.101768980,0.037270780
2.763020039,1.222394470,-0.268002000,10.684469220,0.054284930,0.041441620,0.022509700
2.764760017,0.687271300,0.160525350,10.474296570,0.049893560,-0.029002130,0.008715690
2.766829967,0.553363560,0.659264560,9.097702980,0.011366610,-0.114580990,-0.008080900
2.769829988,-0.446938460,1.007261510,9.437711720,-0.015823540,0.007992980,-0.047759720
2.772180080,-0.662448170,1.400429130,8.933205600,-0.046087800,0.085859000,-0.062373280
2.775059938,-1.050716640,1.587166670,10.239998820,-0.033099950,0.016675890,-0.044091050
2.776770115,-1.254621860,1.142487650,10.225566860,-0.053252290,0.020901860,0.000077490
2.780110121,-0.758396800,0.481103420,9.678955080,-0.019378960,-0.092275440,0.042201570
2.781759977,-1.035704610,-0.303284050,10.429938320,0.022716820,-0.044225160,0.046022240
2.784820080,-0.168136810,-0.980894630,9.056982040,0.009147820,-0.022779410,0.034528970
2.786760092,0.431417850,-1.249169950,10.165866850,0.038638710,-0.015866760,0.014784930
2.789860010,0.785855830,-0.959806980,10.311878200,0.036081670,0.126020630,-0.024312730
2.792030096,1.487083550,-0.208198890,9.711009030,-0.004141030,-0.029984120,-0.012652580
2.794879913,0.973759230,0.520967250,10.666667940,-0.018952790,-0.024847690,-0.011241440
2.796839952,0.965034250,1.020567300,8.784688950,-0.020511450,0.020967430,-0.023058060
2.799839973,0.129363880,1.471871500,9.671018600,0.042915350,-0.070704520,-0.018058720
2.801880121,-0.790417910,1.570192340,9.867556570,0.029902170,0.087657580,-0.015656650
2.804800034,-0.870717880,1.290730710,9.256110190,-0.035429000,-0.031159820,0.003373620
2.806760073,-1.715027570,0.777997610,10.968968390,-0.043992700,-0.047382710,0.021851060
2.809900045,-1.319078560,0.178430680,9.130467410,-0.072442000,0.023868680,-0.003388520
2.812690020,-0.955803330,-0.367771210,9.747190480,-0.040072200,-0.111247600,0.000111760
2.814810038,-0.667348330,-0.801330150,10.299955370,0.027011330,0.054530800,-0.009229780
2.816760063,0.694448050,-0.965139090,9.011771200,0.039070850,-0.001889470,-0.026935340
2.820280075,0.775465070,-0.709377170,10.938894270,0.049386920,-0.048696990,0.013330580
2.821820021,1.430457230,-0.492657210,9.566963200,0.014480950,0.083285570,0.023777780
2.825299978,1.460267900,0.011624020,9.901461600,0.038148460,-0.052547450,0.016734010
2.826780081,0.352530210,0.828865710,10.735651970,0.064314900,-0.001339610,0.013595820
2.830320120,0.300431340,1.254961610,8.567481040,0.004388390,-0.063093010,-0.014652310
2.831749916,-0.787403050,1.655493740,9.915566440,-0.019472840,-0.098177790,-0.034014880
2.835040092,-1.226807480,1.793451070,9.257530210,-0.057657060,0.094059120,-0.050427020
2.836790085,-1.081068990,1.380628470,9.493109700,-0.077940530,-0.024800000,-0.034543870
2.839790106,-1.516965990,0.723612490,10.963647840,-0.027725110,0.002542140,0.016558170
2.842839956,-0.526879610,-0.123932380,9.288296700,-0.007274750,-0.031679860,0.022327900
2.844830036,-0.336623040,-0.988864180,10.328863140,0.020182140,-0.099633650,0.047273950
2.846829891,0.140533540,-1.407036900,9.552674290,0.018234550,0.033849490,0.045342750
2.849849939,1.021571280,-1.528920050,9.459461210,0.022722780,-0.038132070,0.003226100
2.852819920,0.778467600,-0.915153860,10.787689210,0.061929230,0.019238890,-0.013612210
2.854830027,1.195277450,0.063028150,9.411650660,0.028412050,-0.002522770,-0.026349730
2.856790066,0.771609660,0.869835260,10.265267370,-0.006645920,-0.072149930,-0.030235950
2.859889984,0.166545440,1.589187260,9.683832170,-0.004032250,0.024263560,-0.025147200
2.862430096,-0.136371970,2.042740110,9.167265890,0.011627380,-0.069391730,-0.030618910
2.864809990,-1.016564250,1.844798450,10.074558260,-0.009964410,-0.006216760,0.004574660
2.866919994,-0.940911650,1.316826580,9.005226140,-0.020207460,0.017629570,0.035867100
2.869869947,-1.186673520,0.449053760,10.415983200,-0.026473400,-0.058405090,0.026854870
2.871759892,-1.088901280,-0.354828690,10.030809400,-0.033479920,0.020667910,0.042672450
2.875329971,-0.390195070,-0.890222010,9.486530300,-0.026562810,-0.102494660,0.007259850
2.876790047,-0.193957160,-1.278506040,10.546429630,-0.008928780,-0.012689830,-0.039643050
2.880160093,0.774245560,-0.907793280,8.994865420,0.025974220,0.030934810,-0.035578020
2.881760120,0.958103900,-0.488856670,10.447637560,0.027547780,-0.054799020,-0.034229460
2.884929895,1.181343440,-0.092726910,10.015506740,0.026734170,0.089739260,-0.013509390
2.886770010,1.194112780,0.694816350,9.495658870,0.059141220,-0.048764050,-0.004602970
2.889820099,-0.006056280,1.122709870,10.891482350,0.024610760,-0.037631390,0.012779240
2.892280102,-0.254561630,1.420143720,8.730715750,-0.014708940,-0.040259960,0.032252080
2.894860029,-1.004330040,1.411417130,9.717632290,-0.009287900,-0.141713020,0.019830470
2.896860123,-1.272064690,1.152546640,9.561426160,-0.036379690,0.094616410,-0.005345050
2.903090000,-0.779276970,0.853436050,9.036767960,-0.051371750,0.022622940,0.007723270
2.903860092,-1.159933210,0.093870520,11.522740360,-0.033934410,-0.022146110,0.012047590
2.904760122,-0.188520880,-0.408462610,9.383792880,-0.000432130,-0.016401710,0.000645220
2.906769991,0.173490050,-0.671450140,9.678845410,0.022459030,-0.169995430,-0.002434850
2.909909964,0.456568510,-0.954468730,9.918218610,-0.014682110,0.072374930,0.001099710
2.911829948,1.320274950,-0.796216850,9.117271420,0.011116260,0.069598840,-0.022518630
2.914799929,0.658146200,-0.340464890,11.541811940,0.065708170,-0.013470650,-0.037598610
2.916790009,0.816181660,0.506421800,9.686495780,0.018878280,0.006701050,-0.019808110
2.919780016,0.427345840,1.110477090,9.320049290,-0.021921090,-0.151997790,-0.015948710
2.921799898,-0.463738200,1.382280710,9.819841380,-0.050279500,0.031645600,-0.018991530
2.925189972,-0.358574780,1.754329680,8.467035290,-0.054042050,0.040331490,-0.009021160
2.926800013,-1.009021280,1.319610000,10.600440980,-0.026750570,0.002190470,0.025373690
2.929879904,-0.870690460,0.684055810,10.182130810,-0.003312530,0.084604330,0.051152710
2.931910038,-0.748486520,0.072722940,10.011243820,-0.001727040,-0.104460130,0.038592510
2.934839964,-0.842768310,-0.647468630,10.256520270,-0.041051200,-0.061631200,0.026513630
2.936759949,0.133275290,-0.871900860,8.587217330,-0.054617230,0.016039610,-0.018207730
2.940040112,0.319091410,-0.874096450,10.170127870,-0.003597140,0.034242870,-0.061985850
2.941839933,0.847394230,-0.344759020,10.105417250,0.014032420,0.114938620,-0.057724120
2.944829941,1.180429220,0.233604800,9.988376620,-0.000317390,-0.029222660,-0.043861560
2.946980000,0.667086540,0.573767540,10.518817900,-0.015196210,-0.017955900,-0.015233460
2.949769974,0.394961240,1.128163220,9.205821040,-0.024987760,-0.032393640,0.000888110
2.951819897,-0.380697940,1.172963020,9.717027660,-0.031662000,-0.057569160,0.009870530
2.954780102,-0.697894100,1.000743630,9.444254880,-0.024016200,0.064899030,0.037798290
2.957139969,-0.882022620,0.776621400,9.857368470,0.000585620,0.004974010,0.029815730
2.959889889,-1.100888250,0.262001310,10.442885400,-0.031572580,0.015172360,0.027751920
2.962500095,-0.594662730,-0.114806410,9.416975020,-0.046066940,-0.021627550,0.026588140
2.965229988,-0.491916390,-0.539133910,10.114441870,-0.013278420,-0.051967800,-0.016160310
2.966759920,0.183341580,-0.510198410,9.468504910,0.013025110,0.034606460,-0.028245150
2.969789982,0.602102640,-0.259658600,9.668440820,0.010307130,-0.007790330,-0.022649770
2.971839905,0.749177750,-0.204764260,10.287529950,-0.007335840,0.059726830,-0.021982190
2.974950075,0.932975890,0.358554930,9.868412020,0.011245910,0.031630700,-0.017848610
2.976789951,0.175954820,0.702372310,10.688634870,0.007881220,-0.059133780,-0.002659860
2.980200052,-0.012270380,0.851975380,9.503877640,-0.021901730,-0.042103230,0.012700260
2.981800079,-0.386885320,0.980376060,9.214159010,-0.002308190,-0.069889430,0.010496380
2.984790087,-0.689325030,0.761456790,9.617940900,-0.016343590,0.078077620,0.007578730
2.986720085,-0.367396800,0.594580350,9.505925180,-0.030756000,0.109490770,0.030396880
2.990080118,-0.761130090,0.064760410,10.913961410,-0.013962390,-0.013843180,0.043556100
2.992429972,-0.330047910,-0.366111840,9.764016150,0.022198260,-0.047732880,0.041233000
2.995529890,-0.220704700,-0.495937820,9.387933730,0.054734950,-0.094261770,0.020526350
2.997179985,-0.219915430,-0.550099250,9.714193340,-0.000475350,0.029012560,-0.015276670
2.999860048,0.421731260,-0.270745960,9.584049220,0.003360210,0.068655620,-0.033044820
3.001869917,0.159160120,0.152686720,10.885287280,0.032129890,0.032120950,-0.058087710
3.004760027,0.479317550,0.726139490,10.020525930,0.007744130,-0.012481210,-0.046992290
3.007169962,0.355993150,1.169353010,9.807439800,-0.006368760,-0.085599720,-0.027267630
3.009840012,-0.000333820,1.311491010,9.330755230,-0.041730710,-0.002478060,-0.012183190
3.011889935,0.375303980,1.266748310,8.670627590,-0.058172650,0.037854910,0.021120900
3.014859915,-0.118683730,0.731350180,10.322946550,-0.022776420,0.140310820,0.057621300
3.016740084,-0.117687120,0.037707890,10.417278290,0.011478360,0.071325890,0.064969060
3.019789934,-0.450359850,-0.383129510,10.628241540,0.049196190,-0.111900270,0.053951150
3.021830082,-0.792494770,-0.775192980,9.452220920,-0.016383820,-0.065454830,0.012476740
3.024909973,-0.401537210,-0.775032820,8.656625750,-0.053620350,-0.030922890,-0.042942180
3.026839972,-0.580137490,-0.373915230,10.140254020,-0.000867250,0.113040220,-0.081911700
3.030499935,0.063858640,0.269316520,9.787933350,0.008389350,0.103874500,-0.087286520
3.031790018,0.306685810,0.928662420,10.782239910,0.014115870,-0.045123700,-0.037828090
3.034830093,0.368814980,1.132262710,10.128203390,-0.014536080,0.023840370,-0.012303890
3.036760092,0.586786750,1.275530220,9.190145490,-0.044035920,-0.073014200,0.011281670
3.039930105,-0.049626360,1.129512310,9.991804120,-0.032958390,0.001254680,0.040800870
3.041830063,0.295940190,0.565461930,8.832152370,-0.038176770,0.097893190,0.038607420
3.046370029,-0.081105330,0.178071890,10.423107150,0.002767150,0.014710430,0.041434180
3.047080040,-0.553663190,-0.215440010,10.429501530,-0.012040140,0.056147580,0.029468540
3.049770117,-0.198488030,-0.543809060,9.155994420,-0.070013110,-0.082503270,-0.001762810
3.051800013,-0.721524360,-0.525882780,10.210287090,-0.031763320,-0.019586090,-0.024636090
3.054769993,-0.248121070,-0.254995970,8.897504810,-0.005181130,0.085447740,-0.056825570
3.057009935,-0.120569530,0.131536950,10.043634410,0.009498000,-0.013938550,-0.035034120
3.059930086,-0.153356870,0.472066400,10.371206280,0.016047060,0.081230710,-0.003308060
3.064120054,0.462851940,0.597662450,9.523551940,-0.008490680,-0.012098250,-0.010567900
3.064860106,-0.209830190,0.839290980,10.913917540,-0.004786250,-0.053107750,0.006325540
3.066770077,0.026807000,0.935835180,9.125847820,-0.033657260,-0.004076960,0.007288160
3.069770098,0.082446380,0.686730740,9.486312870,-0.035864120,-0.063885760,0.000062580
3.071779966,-0.283029320,0.653527980,10.019251820,-0.021195410,0.111563510,0.015997890
3.075010061,0.323246390,0.435655950,9.315807340,-0.056470930,0.050379330,0.025102500
3.076869965,-0.104643050,-0.072501280,10.884341240,-0.048692530,-0.000855330,0.036376720
3.080620050,0.067626100,-0.299353420,9.438887600,0.000135600,0.018967690,0.024941570
3.081789970,0.096541320,-0.443656590,9.498359680,0.010713940,-0.071172420,-0.002157690
3.084810019,-0.374156500,-0.473985640,9.974564550,0.015053150,0.062398620,-0.010079150
3.086810112,0.013185700,-0.172347810,9.251089100,0.014857950,0.025291750,-0.032199920
3.089999914,-0.439123540,0.073734840,10.754985810,0.010298190,-0.002165140,-0.047779080
3.091880083,-0.285465000,0.688585880,9.524044990,-0.023196640,0.042919810,-0.040233140
3.096159935,-0.237362970,1.053442960,9.940769200,-0.040721900,-0.082026420,-0.038218490
3.096869946,-0.432046560,1.068936820,10.088044170,-0.024487080,0.016693770,-0.019489230
3.099800110,0.345415440,1.237368820,8.641285900,-0.016731030,0.002843140,0.016184150
3.101809978,0.194978280,0.757757780,10.511567120,-0.045055150,0.073809930,0.045099850
3.104759932,0.560141980,0.125124620,9.809376720,-0.028061870,0.152157250,0.081098090
3.107270002,0.459112470,-0.203935090,10.539790150,0.025628510,-0.066992650,0.056844950
3.109920025,-0.051685550,-0.604128000,10.268688200,-0.000831480,-0.007894640,0.033144650
3.111809969,0.247288470,-0.521286010,8.160819050,-0.038704270,-0.040484960,-0.011642280
3.114850044,-0.445487440,-0.308283180,10.134385110,-0.034670530,0.036636000,-0.080132480
3.116760015,-0.329597030,0.200290810,9.285603520,-0.024421520,0.168909150,-0.099366930
3.119800091,-0.364206140,0.837073210,10.216907500,-0.009529290,-0.060817600,-0.069101140
3.121860027,-0.635518310,0.934293690,10.745660780,-0.017945470,0.046233830,-0.009973350
3.125220060,0.009801680,0.927456260,8.753342630,-0.003130730,-0.016650560,0.041948270
3.126919985,-0.535688940,0.601060870,10.663436890,0.011509660,-0.039292870,0.065809490
3.129879951,0.041119010,0.217756000,9.221437450,-0.014302140,0.133904810,0.071495780
3.131829977,0.405379000,-0.157720010,9.705821990,0.017495450,0.002968310,0.054393710
3.134880066,0.031581100,-0.293405470,11.060376170,0.014887750,0.094977030,0.024092190
3.136749983,0.711215850,-0.108416770,8.901090620,-0.027203560,0.015138090,0.005881490
3.140409946,0.122338970,-0.111229430,10.272182460,-0.013080240,-0.082631420,-0.022687010
3.142129898,0.068785740,0.198158920,9.159888270,-0.010199850,0.124871750,-0.059121850
3.144910097,0.074328740,0.682634830,9.154229160,0.003701450,-0.004372000,-0.061100730
3.146810055,-0.713696780,0.804669800,10.970265390,-0.003889200,0.044071670,-0.019772350
3.149780035,-0.259224500,0.869566740,9.122623440,-0.027607380,0.034412740,-0.002697110
3.151779890,-0.755279660,0.577530860,10.457819940,-0.005228820,-0.078289210,0.011143090
3.154809952,-0.774205860,0.351230650,9.812481880,-0.008301440,0.052161530,0.030490760
3.157079935,-0.154997780,0.044945610,9.054263110,-0.000308450,-0.019869210,0.012190640
3.159960032,-0.239242330,-0.199170230,10.638946530,0.012873120,0.049509120,0.003370640
3.163019896,0.613900130,0.023260150,9.275829320,-0.028367340,0.100982170,0.024150310
3.164849997,0.755160450,-0.078208740,10.236179350,-0.035855170,-0.011819600,0.026240940
3.166810036,0.708117130,-0.027888860,10.176628110,-0.000330810,0.103656950,0.018692020
3.169780016,0.598735990,0.246297330,9.421506880,0.042717160,-0.015811620,-0.012078880
3.172820091,-0.268604610,0.316423510,10.157793050,0.038342180,-0.061102200,-0.020387770
3.175260067,-0.398877920,0.535674750,8.896171570,-0.002695620,0.027441970,-0.027649110
3.176840067,-0.933594230,0.588357330,9.792898180,-0.014251470,-0.008441510,-0.059959300
3.179860115,-1.118894460,0.756648240,10.122016910,-0.039663910,0.055293730,-0.036475070
3.181829929,-0.770911990,0.807199420,9.685449600,-0.052548940,-0.009533760,-0.024506450
3.184829950,-0.588467420,0.426654790,10.370093350,-0.035490090,0.001467760,-0.011539460
3.186860085,0.078645780,0.317152200,9.603825570,0.010889770,0.028462710,0.016732520
3.189749956,0.438052150,0.007857190,9.911237720,-0.001461800,-0.006224220,0.025610630
3.191869974,0.965064290,-0.426349220,9.609368320,-0.014153120,0.086307530,0.062884400
3.195849895,0.996463840,-0.515657840,9.981527330,0.020109120,0.067046290,0.043544170
3.196759939,0.459639370,-0.471154840,10.560001370,0.032672290,0.014652310,0.007149580
3.199830055,0.250054210,-0.008484580,9.362194060,0.021170080,-0.062657890,-0.022883720
3.201869965,-0.505418060,0.448687520,9.626152040,-0.012554230,-0.060662630,-0.084958960
3.204790115,-0.725185160,0.921489600,9.059065820,-0.049489740,0.072531390,-0.104190390
3.207159996,-0.943135740,1.395895000,9.570590020,-0.027951590,0.025218730,-0.074605640
3.209880114,-1.047553540,1.176737670,10.435445790,-0.024223330,0.054071840,-0.027687850
3.212179899,-0.398516480,0.803379540,9.742467880,0.016374890,-0.002269450,0.040821730
3.214839935,-0.484101410,0.255621370,10.459915160,0.033777950,-0.069847690,0.063723330
3.216779947,0.240518610,-0.429988000,9.316420560,-0.019997360,0.034910440,0.068008910
3.220220089,0.697729110,-0.742106380,9.626233100,-0.008675460,0.036130850,0.046969950
3.221790075,0.531664370,-0.881145120,10.679999350,0.015164910,0.088976330,0.002567470
3.224879980,1.024418830,-0.476048890,9.481979370,0.038179760,0.017373260,-0.010250510
3.227580070,0.379659180,0.007194570,10.124936100,0.040771070,-0.047643490,-0.030854350
3.229749918,0.201560070,0.543479080,9.153328900,-0.015851860,0.037159030,-0.053402790
3.231830120,-0.150850770,1.117583510,9.221936230,0.002998110,-0.009590390,-0.050464270
3.234869957,-0.950272560,1.282754060,10.122775080,-0.002655390,0.049136580,-0.038416680
3.237060070,-0.726658400,1.231149910,9.548276900,0.003063680,0.011318920,-0.005269050
3.240070105,-1.208886740,0.778494120,10.588495250,0.036644940,-0.023123620,0.011622910
3.242840052,-0.976753060,0.360186490,9.735218050,-0.006502870,-0.008691850,0.016650560
3.245340109,-0.437421830,-0.089295730,9.564367290,-0.024211400,-0.067296620,0.031487640
3.246789932,-0.114759920,-0.523743030,9.811501500,-0.016783180,0.053927310,0.011812150
3.249799967,0.908270120,-0.422180830,9.424007420,-0.008161370,0.048439200,-0.010694560
3.251859903,1.019028780,-0.245915280,10.554173470,0.015370550,0.053514540,0.004157420
3.254830122,1.330568430,-0.114950950,9.726013180,-0.001770260,0.066830220,0.000622870
3.257050037,1.061786530,0.244809240,10.012567520,0.028245150,-0.029444690,0.005485120
3.259860039,0.068838690,0.505880180,9.841576580,0.047075760,0.019556290,-0.009712580
3.261790037,-0.313802630,0.737687350,8.864336970,0.000151990,-0.068968530,-0.031562150
3.264810085,-1.281082270,0.846663650,9.891417500,0.004354120,-0.024160740,-0.034345690
3.266870022,-1.326517820,0.820173320,9.034559250,-0.025582320,0.072397290,-0.068008900
3.270030022,-1.358106490,0.824839170,10.410735130,-0.036008660,-0.017599760,-0.055705010
3.271919966,-1.200650930,0.568711460,10.604577060,-0.016126040,0.041560830,-0.016520920
3.274859905,-0.073494050,0.170399610,9.352896690,-0.006580350,-0.071749090,0.003936890
3.277650118,0.222589820,0.032900130,10.316807750,0.010868910,0.003987550,0.046105680
3.279779911,1.196380380,-0.250889720,8.963058470,-0.032493470,0.116314020,0.079949200
3.281879902,1.556918380,-0.624339700,10.075130460,-0.011897090,0.014433260,0.066663330
3.284810066,1.057897090,-0.450043380,10.602408410,0.066536670,0.104962300,0.023947660
3.286849976,0.991898600,-0.146054490,9.220658300,0.047823790,-0.060887640,-0.024458770
3.289870024,-0.275249510,0.271092000,10.258186340,0.017417970,-0.094342240,-0.062622130
3.291850090,-0.633610310,0.937648120,8.510392190,-0.047799950,0.059118880,-0.109651700
3.294840097,-1.050244090,1.351492170,9.370075230,-0.076931720,0.009046500,-0.104261950
3.296790123,-1.662066340,1.522016760,10.600784300,-0.048661240,0.109691920,-0.048170980
3.300110102,-0.906566320,1.241966130,9.399743080,-0.014397500,-0.020426510,0.005501510
3.301959991,-1.037591700,0.423142880,10.779516220,0.028830770,-0.091893970,0.064875190
3.305119991,-0.260588260,-0.207167120,9.148834230,0.017659370,0.043725960,0.076609840
3.306950092,0.582836630,-0.875155090,9.475607870,-0.014528630,-0.030732160,0.069183120
3.310750008,0.727465990,-1.270534040,10.569295880,0.020582980,0.126808880,0.047473610
3.311830044,1.600620510,-0.808746100,9.331007000,0.025422870,0.072467330,-0.009517370
3.315030098,0.989408970,-0.258018110,10.859720230,0.008557740,-0.039076810,-0.021141770
3.318730116,0.665327190,0.468215530,9.240509030,-0.012917820,0.009299810,-0.048713390
3.319740057,0.161170960,1.164832950,8.890108110,-0.007346270,-0.085136320,-0.088931640
3.322079897,-1.023496390,1.536050320,9.900609020,-0.013327600,0.058121990,-0.068007410
3.324840069,-0.965571580,1.652892710,8.939258580,-0.017718970,0.050482160,-0.022692980
3.327620029,-1.575118300,1.094332340,11.001202580,-0.007899100,-0.013314190,-0.003141170
3.329799891,-1.481607790,0.632223840,10.046394350,-0.012134020,0.014488400,0.039725010
3.332139969,-0.839697120,0.047384750,9.424183850,-0.046604870,-0.127588180,0.042684380
3.334889889,-0.502264320,-0.759560590,9.999334340,-0.063084070,0.037960710,0.030677020
3.336820126,0.722071170,-0.847486620,8.919924740,0.006657840,0.078329440,0.018343330
3.343339920,1.078298930,-0.820409890,10.740654950,0.041061640,0.016883010,-0.004632770
3.344019890,1.548667550,-0.555889670,9.834170340,0.017385180,0.095194580,0.013101100
3.344810009,1.582619190,-0.000343310,9.719530110,0.015303490,-0.052113830,0.004498660
3.346930027,0.413538250,0.329989490,10.531739230,0.006194410,0.019483270,-0.027041140
3.349800110,-0.039210880,1.067730070,8.698086740,0.018002090,-0.050428510,-0.018915540
3.351830006,-1.200065020,1.273814200,10.070964810,0.018189850,-0.091868640,-0.042252250
3.355279922,-1.494185210,1.366258140,9.101026540,-0.020812450,0.084748870,-0.043876470
3.356830120,-1.448681950,1.485228540,9.458649640,-0.059914590,-0.037591160,-0.020252170
3.360330105,-1.569634320,0.850949050,10.876326560,-0.087642650,0.041641300,0.011192260
3.361829996,-0.372464810,0.189309310,9.143458370,-0.043492020,-0.001667440,0.042393810
3.364830017,-0.064863500,-0.397968890,10.561011310,0.031140450,-0.092674800,0.034716730
3.366849899,0.836953220,-0.863996330,9.370075230,0.004138050,0.086055700,0.053410230
3.369800091,1.532005310,-1.115038280,9.331606860,-0.002336500,-0.006346410,0.047032540
3.372309923,1.110249760,-1.035767080,11.084623340,0.026196240,0.082877290,-0.000751020
3.374789953,1.285910250,-0.212410540,9.245912550,0.026981530,0.015302000,-0.014445190
3.377180099,0.289748700,0.548240010,10.163109780,0.006374720,-0.144265560,-0.026942790
3.380389929,-0.352697160,1.277186390,9.196786880,-0.053970520,0.048723820,-0.057508060
3.381799936,-0.738693300,1.914294000,8.700713160,-0.061148410,-0.026778880,-0.063362730
3.384809971,-1.567988160,1.902600770,10.498422620,-0.046117600,0.024092200,-0.029680130
3.386899948,-0.991960410,1.510116460,9.156652450,-0.040018560,0.071953240,0.022083520
3.389919996,-1.052000400,0.596099440,10.562334060,0.001440940,-0.065508480,0.073593860
3.391880035,-0.644392490,-0.244066090,10.191200260,-0.022202730,0.022253390,0.097753100
3.394829988,0.351145510,-0.980264960,8.920873640,-0.056098410,-0.038658090,0.083257280
3.397109985,0.606714010,-1.564012530,10.218606950,-0.021250550,0.033922500,0.037957730
3.399879932,1.457636360,-1.209707140,9.313787460,0.013287370,0.146530580,-0.016188620
3.402719975,1.321554420,-0.617116150,10.290985110,0.034900010,-0.002117460,-0.045910480
3.404829979,0.904853640,0.156107250,10.250180240,0.009831790,0.014726820,-0.037352750
3.411070108,0.607863610,1.047455430,8.952164650,-0.013220310,-0.034797190,-0.041122730
3.412750006,-0.558958410,1.619027140,9.779055600,-0.035612280,-0.017391140,-0.030888610
3.415189981,-0.979209300,2.082093480,9.209985730,-0.059142720,0.067293650,0.006723400
