timestamp,accel_x,accel_y,accel_z,gyro_x,gyro_y,gyro_z
1640792817440929792,-0.429232780,0.070585800,10.426478390,0.052265820,-0.000926850,-0.012418630
1640792817442929920,-0.326930910,0.287250490,10.529843330,0.062048440,0.029107930,-0.002942980
1640792817446029824,0.262462410,0.465977370,9.182201390,0.001749400,-0.017821790,0.006337460
1640792817448069888,0.149672140,0.143185440,10.277888300,-0.019142030,-0.012031200,-0.000806150
1640792817448819968,0.173926590,0.322203190,9.586601260,-0.030188260,0.036001200,-0.001512470
1640792817453199872,0.238848110,0.245048780,9.625127790,0.027322770,-0.066918140,-0.010637940
1640792817453949952,-0.120554030,0.168654870,10.220478060,0.052146610,0.012896960,-0.018815700
1640792817458220032,-0.055564670,0.670265850,9.209190370,-0.020888450,0.009036060,-0.015299020
1640792817459450112,-0.304915490,0.490279760,10.255695340,-0.064787280,-0.037306550,0.015525520
1640792817463419904,-0.285534980,0.185256360,9.674517630,-0.040908160,0.062762210,0.023904440
1640792817464630016,-0.185678080,0.293479110,9.735766410,0.056298080,-0.018912550,0.009402630
1640792817468369920,-0.407223730,0.142147780,10.474014280,0.055629030,-0.019153950,0.017863510
1640792817469959936,0.128739090,-0.069666710,9.101722720,-0.022813680,0.025707490,0.000780820
1640792817472999936,0.077100460,-0.138950360,10.082133290,-0.010585780,0.026026370,-0.023528930
1640792817474639872,0.069027500,-0.083852480,9.764377590,-0.009542700,0.069411110,-0.033141670
1640792817478899968,0.291087150,0.076035770,9.401297570,0.025728350,-0.035224850,-0.018319490
1640792817483959808,-0.168938120,0.133839010,10.009993550,0.062100590,0.004740060,-0.003796820
1640792817485070080,-0.163333490,0.301006260,9.293617250,0.001280010,-0.022101400,-0.007654730
1640792817485649920,-0.472390290,0.393827530,10.201679230,0.001856690,-0.040492420,0.016935170
1640792817490109952,-0.477412340,0.314224780,9.882015230,0.015044220,0.055181980,-0.005966430
1640792817490799872,-0.204650030,0.548104110,10.078248980,0.018027420,0.002598760,-0.006924570
1640792817493389824,-0.327985730,0.706243990,10.593795780,0.023499130,0.029617540,0.019350650
1640792817496229888,0.208338960,0.318182110,9.320049290,-0.002039970,-0.005523860,-0.000868740
1640792817498040064,0.175233770,0.472477170,9.963532450,0.013364850,-0.025708970,0.004594030
1640792817500559872,0.141485900,0.364017750,9.539419170,-0.015658140,0.060299040,-0.028437380
1640792817502929920,0.277207290,-0.073711030,9.684049610,-0.011721250,-0.023671980,-0.016798080
1640792817503840000,-0.228547480,0.274756370,10.350937840,0.030429660,-0.007155540,-0.017121440
1640792817507949824,-0.005016770,0.174815240,9.051352500,-0.028137870,0.004224480,-0.022287670
1640792817509479936,-0.262759180,0.092334920,10.033992770,-0.035397700,-0.010500850,0.029036400
1640792817516239872,-0.566856270,0.143112450,9.983722690,0.024102630,0.083531450,0.001503530
1640792817516950016,-0.381054790,-0.038180280,9.841658590,0.040009610,-0.066508350,-0.004637240
1640792817521609984,-0.497485970,0.239833770,10.290616040,0.032591820,-0.048503280,0.003625450
1640792817522289920,0.074305160,0.184275360,8.954839710,-0.004529950,0.077876450,-0.040937960
1640792817522850048,0.224088590,0.299616370,10.025621410,-0.028845670,0.036795440,-0.027397280
1640792817523909888,0.145499200,0.523061930,10.153479580,-0.001582500,0.097879770,-0.015714760
1640792817528549888,0.453017500,0.091277100,9.549900050,0.050932170,-0.050848720,-0.025011600
1640792817533730048,-0.186400860,0.371517390,10.260402680,0.061690810,-0.093770030,-0.002680720
1640792817534809856,-0.277759080,0.438492090,8.869118690,-0.019180770,0.001959500,-0.016060470
1640792817535269888,-0.439035890,-0.017248020,9.915843960,-0.057101250,-0.010567900,-0.006799400
1640792817537910016,-0.853464370,0.381800380,10.800029750,0.005149840,0.064428160,-0.010772050
1640792817540160000,-0.308555930,0.440210520,9.830129620,0.030106310,-0.026880210,-0.015857820
1640792817543139840,-0.249850470,0.478049370,10.269362450,-0.002808870,-0.052990020,0.013983250
1640792817545270016,-0.015399520,0.699760500,9.460151670,-0.028638540,0.070551050,-0.005701180
1640792817547979776,0.258507100,0.351812420,9.801101680,-0.047396120,-0.018790370,-0.019964570
1640792817552899840,0.021118500,0.267790700,10.206253050,-0.011743600,-0.022041800,-0.011216100
1640792817553299968,0.353185830,0.119558360,9.144573210,0.039428470,-0.001533330,-0.042767820
1640792817553849856,0.159693020,0.213489220,9.709055900,-0.022004540,-0.012260670,-0.032202900
1640792817561349888,-0.105639050,0.315474300,9.739751820,-0.084041070,0.047408040,0.002855060
1640792817563859968,-0.135230560,-0.244050930,9.792612080,-0.032137350,-0.001256170,0.000813600
1640792817566799872,-0.635432360,-0.111022550,10.424098010,0.050808490,-0.070950390,0.001363460
1640792817567339776,-0.549348240,0.149079730,9.365914340,0.048932440,-0.054904830,-0.016450890
1640792817567879936,-0.364500020,0.104983690,9.494699480,-0.036060800,0.001703200,-0.026515120
1640792817569179904,-0.334567640,0.424169690,10.237428670,-0.051207840,0.076320770,-0.030416250
1640792817573189888,0.033741370,0.544523360,10.176302910,-0.026132170,0.023154920,-0.027595460
1640792817574089984,0.166546810,0.487121670,10.144893650,0.024197990,-0.062124430,-0.006982680
1640792817580000000,0.172186240,0.614319560,9.611070630,0.050511950,-0.040176510,-0.015157460
1640792817582659840,0.118400670,0.589267670,9.319828990,-0.037918980,-0.011248890,-0.018753110
1640792817586109952,-0.104363100,0.333801390,9.925289150,-0.082500290,-0.016261640,0.000570710
1640792817586819840,-0.201930060,0.098727400,10.018399240,-0.027489660,0.032332540,-0.009216370
1640792817587960064,-0.236157790,0.243141790,9.932486530,-0.003080070,-0.024026630,-0.017648940
1640792817588899840,-0.336832170,0.215712770,10.114166260,-0.013294820,-0.058294840,0.007036330
1640792817593070080,-0.225494430,0.082665150,9.364377980,-0.035507980,0.025162100,0.003980100
1640792817596189952,-0.204686700,0.090523230,9.894286160,-0.036752230,-0.027182700,-0.013981760
1640792817598259968,-0.144914080,0.151306300,10.223333360,-0.019828980,0.007359680,0.000210110
1640792817602350080,0.254195000,0.086465700,9.349905010,-0.003448130,0.024509430,-0.028660890
1640792817605159936,0.163760200,0.175133300,10.146827700,0.023229420,-0.016027690,-0.038322800
1640792817606599680,0.091413840,0.495390920,9.527474400,-0.041605540,0.035168240,-0.027728080
1640792817608870144,0.133304120,0.215634090,9.275454520,-0.056938830,-0.058659920,-0.016435980
1640792817609629952,-0.352980880,0.086349620,10.228198050,0.018081070,-0.024008750,-0.010162590
1640792817614629888,-0.326765920,0.341310290,9.320883750,0.011096890,0.012297930,-0.021997090
1640792817615589888,-0.410270960,0.137389210,10.365268710,-0.005872550,-0.058752300,-0.008021300
1640792817618670080,-0.522676590,0.168815120,10.346230510,-0.025382640,0.060710320,-0.001713630
1640792817620359936,-0.126702380,0.339051750,9.635275840,-0.034780810,-0.018687550,-0.018657750
1640792817623299840,-0.269883450,0.220816910,10.610389710,0.005321200,-0.056146100,0.002230700
1640792817624059904,0.192665850,0.434140920,8.871397020,0.008310380,0.024431950,-0.022658710
1640792817628160000,0.316366700,0.580172720,9.454272270,-0.017836690,-0.034020830,-0.034421680
1640792817630050048,-0.083687100,0.611162840,10.310922620,-0.071562830,0.049793720,-0.011779370
1640792817634249984,0.228789080,0.436707680,9.260373120,-0.055114930,-0.012391810,-0.025616590
1640792817635180032,-0.295209620,0.268779370,10.737565040,0.014968220,-0.099383300,-0.013764200
1640792817638289920,-0.275584970,0.400992300,9.219079970,-0.036984690,0.011378530,0.003057720
1640792817640640000,-0.047079370,-0.030112860,9.175061230,-0.052225590,-0.029966240,-0.005988780
1640792817646519808,-0.494674500,-0.152789130,10.615767480,-0.020924210,0.059971220,-0.022169940
1640792817648849920,-0.041560460,0.122347560,9.309352870,-0.029225650,0.011675060,-0.021408500
1640792817652580096,-0.089988320,-0.067195670,10.395458220,-0.005039570,-0.097709920,-0.015419720
1640792817653629952,-0.080003020,-0.013281540,9.551797870,-0.010819730,0.035302340,-0.027725100
1640792817654680064,0.165164710,0.208625970,9.156748770,-0.010663270,-0.022473930,-0.037360180
1640792817655259904,-0.325418440,0.186574890,10.537968640,-0.003072620,0.004482270,-0.017188490
1640792817659619840,-0.010021870,0.458058540,9.119129180,-0.020493570,-0.002127890,-0.033967200
1640792817663349760,-0.203595060,0.769922550,10.141742710,-0.028383730,-0.093033900,-0.019600990
1640792817666869760,-0.270572390,0.694587050,9.787529950,-0.076399750,0.038130580,0.000041720
1640792817668279808,-0.035149460,0.488425790,9.682745930,-0.030958650,0.007350740,-0.001209970
1640792817668800000,-0.478208070,0.545557200,11.008216860,0.015752020,-0.023894010,0.002907220
1640792817669549824,-0.084527570,0.438374550,9.417848590,-0.056773430,-0.036713470,0.008711220
1640792817673359872,0.108767650,0.188643740,9.520943640,-0.078047820,-0.045050680,0.003542010
1640792817673989888,-0.000163400,0.063764500,9.615837100,-0.061018760,0.073081250,-0.024589890
1640792817679399936,0.263897270,0.002164670,9.388664250,-0.042241800,0.004406270,-0.031752880
1640792817680800000,-0.133075570,-0.007695430,10.267469410,0.001575050,-0.028462710,-0.015388430
1640792817682989824,-0.144697380,-0.072093040,9.483543400,-0.030615920,-0.042888520,-0.006951390
1640792817693270016,-0.290357260,0.165328400,9.727537160,-0.062616160,-0.068630270,0.016166270
1640792817693899776,-0.435133190,0.166906210,9.744789120,-0.067929920,0.030776860,-0.006242100
1640792817694569728,-0.078528190,0.118669200,9.595385550,-0.024886430,0.024884940,-0.013872980
1640792817695059968,-0.251852630,0.554927470,10.443846700,0.029310590,0.013197960,-0.000192220
1640792817695479808,0.037405730,0.353080300,9.638821600,-0.020293890,-0.008289520,-0.005884470
1640792817698779904,0.111456380,0.319432880,9.731884000,-0.040073690,-0.047777600,0.031726060
1640792817700729856,-0.128106910,0.384901460,9.696771620,-0.035823890,0.010114910,0.008434060
1640792817703009792,0.015339710,0.072248910,9.529334070,-0.043210390,-0.034497680,-0.010088090
1640792817703960064,-0.273467510,0.300003710,10.176868440,-0.007699430,-0.020548700,-0.007522110
1640792817708000000,-0.153715010,0.406627270,9.563048360,-0.028949980,-0.003387030,-0.033305590
1640792817709229824,-0.025799870,0.522165660,9.864174840,-0.089500840,-0.018931930,0.014451150
1640792817714870016,-0.194549650,0.432750250,10.020735740,-0.076864660,0.054815420,0.018523630
1640792817715659776,-0.080852720,0.039691050,9.931273460,-0.007410350,-0.031737980,-0.002351400
1640792817718639872,-0.226079490,0.233295530,10.090046880,0.009162720,-0.072160370,0.018078090
1640792817722129920,0.011061350,0.096474270,9.084531780,-0.036318600,0.009050970,-0.017875430
1640792817722899968,0.131789620,-0.104209280,9.624575610,-0.085133330,0.028574470,-0.022639340
1640792817723779840,-0.069785000,0.225206000,9.920623780,-0.064183760,0.056213140,-0.021913640
1640792817728160000,0.163127290,-0.056853440,9.599486350,-0.011107330,-0.017489490,-0.033605090
1640792817730739712,-0.164939660,0.104721320,10.083820340,0.027671450,-0.051906700,0.004135070
1640792817733029888,-0.393387200,0.363908710,9.582032200,-0.001311300,-0.029993060,0.000162420
1640792817736460032,-0.272376890,0.082000070,9.696513180,-0.074513260,-0.047609210,0.003266330
1640792817738739968,-0.397901710,0.265173020,10.041975980,-0.033600630,0.053088370,0.007039310
1640792817739960064,-0.079857170,0.326343300,9.819106100,0.019252300,0.051432850,-0.029164550
1640792817743289856,-0.042678850,0.541921440,10.342582700,-0.009575490,-0.016003850,-0.007687510
1640792817746119936,0.008485920,0.671268880,9.586859700,-0.021831690,-0.025448210,-0.005772710
1640792817748239872,0.164960000,0.495125770,9.327731130,-0.061804060,-0.046800070,-0.030793250
1640792817751960064,-0.085448800,0.604821620,9.633143420,-0.081659840,0.012163820,0.004789230
1640792817754560000,-0.072163250,0.237108350,9.768626210,-0.016781690,0.041680040,-0.002121930
1640792817755169792,-0.218293990,0.062509750,10.443711280,0.005142390,-0.002598760,-0.001420080
1640792817759500032,-0.256458610,0.261275410,9.929858210,-0.030113760,-0.041577220,0.029340390
1640792817760329984,-0.036429100,-0.188428660,9.387929920,-0.061525420,-0.002318620,0.011667610
1640792817763229952,-0.082490610,-0.104722300,9.720275880,-0.046892470,0.039494040,-0.008921330
1640792817767340032,-0.009813890,0.182608440,9.726385120,0.004078450,0.018636880,-0.006096070
1640792817768349952,0.098801820,0.048344610,9.841308590,-0.009144840,0.009326640,-0.015124680
1640792817769430016,-0.030288240,0.258906280,9.811748500,-0.000149010,-0.017134850,-0.009572510
1640792817773039872,-0.212415470,0.413435340,9.801790240,-0.032100080,-0.010135770,-0.023451450
1640792817774589952,-0.340529710,0.336419910,9.736565590,-0.062254070,-0.027042630,-0.020089750
1640792817779059968,-0.440761800,0.489423660,9.925670620,-0.006179510,-0.027225920,-0.014151630
1640792817782240000,-0.271389450,0.599713920,9.675632480,-0.013796990,0.015769900,-0.006331500
1640792817785859840,-0.079113370,0.484418780,9.865617750,-0.044430800,0.001710650,0.024858120
1640792817786599936,-0.053713910,0.289698630,10.248448370,-0.026409330,0.042699270,0.039812920
1640792817788209920,0.126221060,0.104594280,10.012891770,-0.022366640,0.008453430,0.019973510
1640792817789850112,-0.008874300,0.044669400,10.202960010,-0.008358060,-0.082701440,0.011985000
1640792817793689856,0.105588910,0.066028280,9.270935060,-0.027877100,-0.000661610,-0.025029480
1640792817796099840,0.228528800,0.182191790,9.019764900,-0.055854030,0.023268170,-0.041815640
1640792817798189824,-0.148446370,0.284796890,10.140053750,-0.041858860,0.052025920,-0.015851860
1640792817802350080,-0.115875530,0.223371310,9.714384080,-0.017124420,0.029023000,-0.015270710
1640792817803319808,-0.469766200,0.187070060,10.401959420,0.023543830,-0.117799630,0.017359850
1640792817804080128,-0.603433130,0.275042530,9.748618130,-0.010815260,-0.041741130,0.026445090
1640792817808039936,-0.225620480,-0.024820710,9.150683400,-0.037674610,0.006693600,0.014528630
1640792817808969984,-0.274334370,-0.013487780,10.414422990,0.006006660,0.058074300,-0.000979010
1640792817821250048,0.108860720,0.231285720,9.661904340,0.004576150,0.088243190,-0.016462800
1640792817822139904,0.257035110,0.043904930,10.097265240,0.015527010,-0.072343650,-0.002472100
1640792817822609920,0.045850430,0.255858990,9.867204670,0.019337240,-0.035843260,0.000783800
1640792817823439872,0.174666540,0.444539160,8.764113430,-0.025239590,-0.033715370,-0.014743210
1640792817823819776,-0.263555910,0.326588600,10.266187670,-0.025543570,-0.035262110,0.013275450
1640792817824239872,-0.277879770,0.513324680,9.735371590,-0.005088750,0.092619660,0.003248450
1640792817828719872,-0.195484470,0.513019980,10.114399910,0.014559930,-0.035433470,0.008496640
1640792817831759872,-0.508303400,0.493697670,10.577280040,-0.000716750,-0.027973950,0.027701260
1640792817833499904,0.020172280,0.389300350,8.706008910,-0.024710600,-0.008827450,0.000689920
1640792817834249984,-0.042186090,0.151798310,9.904948230,-0.014357270,-0.034356120,0.009717050
1640792817840119808,-0.043284260,0.144617560,9.656699180,-0.016640130,0.100134320,0.011220570
1640792817840960000,0.337555410,-0.219127210,9.478397370,0.023412710,-0.006236140,-0.017489490
1640792817843109888,-0.071541180,-0.227691370,10.640353200,0.043483080,-0.028079750,-0.011138620
1640792817850779904,0.035303070,0.089051910,9.004931450,-0.016616280,0.019235910,-0.012689830
1640792817853730048,-0.188113560,-0.107517610,9.952243800,-0.018343330,-0.066904730,-0.011262300
1640792817854939904,-0.443361430,0.246997880,9.862206460,0.009037560,0.038956110,-0.005482140
1640792817855579904,-0.001360940,0.571770850,9.212824820,0.031633680,0.008305910,0.003199280
1640792817855980032,-0.427563580,0.366307740,10.791280750,0.044469540,0.020723040,0.016504530
1640792817857949952,-0.231256100,0.689337130,9.679913520,0.009052460,0.025074180,0.008542840
1640792817859739904,-0.201411170,0.565676690,9.948658940,-0.014707450,-0.087362540,0.013794010
1640792817864999936,-0.339361880,0.421779690,9.841392520,-0.018464030,-0.009845200,-0.006301700
1640792817868599808,0.181597710,0.692919250,8.802461620,-0.015228990,0.007411840,-0.036461650
1640792817869060096,0.000705600,0.569687130,10.168151860,-0.023530430,0.032103060,-0.011320410
1640792817869560064,0.190366090,0.348813000,9.727478980,-0.040355320,0.063802310,0.003013020
1640792817872890112,0.235806360,0.097325530,10.193729400,0.004130600,-0.028033550,0.021727380
1640792817874060032,-0.214382960,-0.155815880,10.422189710,0.017811360,-0.034274160,0.050748880
1640792817878209792,0.083118530,-0.123677030,8.988784790,-0.016666950,-0.039270520,0.020894410
1640792817880610048,-0.125297250,-0.135570390,9.594837190,-0.021122400,0.042320800,0.001293420
1640792817883319808,-0.078596490,0.005473480,9.529524800,-0.029011080,0.115649400,-0.023026770
1640792817885399808,-0.103233400,0.172500540,10.168819430,0.017997620,0.019474330,-0.022578240
1640792817887899904,-0.515129450,0.344071920,10.247729300,0.044912100,-0.065727520,-0.020106130
1640792817889750016,-0.289431870,0.542109430,8.951787950,-0.007340310,-0.099961460,-0.012895460
1640792817893299712,-0.408241810,0.498720170,9.455569270,-0.041188300,0.026088950,0.004111230
1640792817895010048,-0.256004960,0.244700300,9.808418270,-0.019872190,0.098016860,-0.022019450
1640792817897959936,0.056692940,0.323334600,10.485149380,0.047415490,0.024190550,-0.000876190
1640792817898840064,0.067772660,0.332200680,10.235507970,0.043420500,0.008967520,0.013394660
1640792817903259904,0.289361120,0.082989370,9.584012030,-0.025068230,-0.054350500,0.007632380
1640792817904249856,-0.003641710,0.162072420,9.715157510,-0.027680400,-0.017087160,0.020472710
1640792817908869888,-0.138779850,-0.006363600,9.287055020,-0.012533370,0.013716520,-0.013993680
1640792817912099840,-0.118318360,0.186839390,9.834218030,0.020690260,-0.010882320,-0.018058720
1640792817915160064,-0.269534950,0.783627750,9.953694340,-0.011207160,0.051681690,-0.020374350
1640792817915899904,-0.120478350,0.708533940,9.993381500,-0.088031580,0.001551210,-0.014835600
1640792817918370048,-0.319052760,0.770174320,10.539653780,-0.065419080,0.005297360,0.022394960
1640792817922339840,-0.293511990,0.579280910,9.769098280,0.005824860,-0.033971670,0.010970240
1640792817923069952,-0.119913800,0.311422770,9.644926070,0.017027560,-0.061982870,0.023452940
1640792817926949888,0.016213660,0.422590910,9.215171810,-0.037741660,0.076311830,0.017778580
1640792817927919872,0.325529460,-0.078807150,9.424453740,-0.089904670,0.066067290,0.001911820
1640792817929240064,0.238419980,-0.257464230,10.401901250,-0.058692700,0.046165290,0.012575090
1640792817932899840,0.111202990,-0.308249950,9.711968420,0.027942660,0.007221100,-0.009110570
1640792817933840128,-0.072006540,-0.368413060,9.863180160,0.051240620,-0.099623220,-0.014051800
1640792817937979904,-0.457569780,0.183582840,9.531591420,-0.029371680,-0.007835030,0.002674760
1640792817939079936,-0.303701730,0.103637250,9.144374850,-0.074632470,0.028914210,-0.018146630
1640792817946709760,-0.396028340,0.144223780,10.443269730,-0.020068880,0.056314480,-0.014232100
1640792817949039872,-0.264902350,0.587701200,9.978139880,0.062856080,0.058883430,-0.019517540
1640792817949699840,-0.005534770,0.362064750,9.976497650,0.056967150,-0.049920390,0.003497300
1640792817950670080,-0.164135050,0.431477280,9.896481510,0.005902350,-0.002677740,0.019867720
1640792817952950016,-0.049011280,0.273830680,9.148051260,-0.035926690,-0.008907920,0.000801680
1640792817955629824,-0.125513730,-0.103952700,9.989629750,-0.004433100,-0.019918380,0.003889200
1640792817959049984,-0.102877940,0.255241630,9.658615110,0.048670180,0.048932430,-0.017073750
1640792817960049920,0.049132470,0.418924630,9.919275280,0.019580130,-0.016252700,-0.020264090
1640792817963219968,-0.150285200,0.514323170,10.441996570,-0.056730220,0.014293200,0.008921330
1640792817964779776,-0.000159320,0.433354350,9.703366280,-0.037641830,-0.002920630,-0.003388520
1640792817968430080,-0.163339320,0.282562230,10.268400190,0.025242570,-0.039313730,-0.009378790
1640792817969289984,-0.159944560,0.667143580,9.641901020,0.012224920,0.013825300,-0.004774330
1640792817973369856,0.085742130,0.576790870,9.342229840,-0.033178920,-0.001339610,-0.012834370
1640792817976369920,0.077762580,0.437321420,9.771430970,-0.087828930,0.055596230,-0.009502470
1640792817981949952,0.142294080,0.321498720,9.632752420,-0.045876210,0.058232260,0.001896920
1640792817983039744,-0.072211430,-0.111727270,10.227866170,0.031434000,-0.024615230,0.014096500
1640792817983609856,-0.205429730,-0.020409000,9.753108980,0.018621980,-0.033414360,0.008814040
1640792817986599936,-0.200093580,-0.053919890,9.439199450,-0.038181250,-0.019982460,0.010769070
1640792817987879936,-0.191934060,-0.230553400,9.844450950,-0.076827410,0.073055930,-0.015157460
1640792817991099904,0.005826680,0.002656760,9.958709720,0.000150500,0.080537780,-0.035275510
1640792817993249792,0.009513620,0.375000360,10.171708110,0.041846930,0.028467180,-0.021828710
1640792817995079936,0.072038770,0.481646980,9.685063360,-0.001524390,-0.007390980,-0.004571680
1640792817998249984,-0.036779750,0.394414130,9.568123820,-0.013585390,-0.024160740,0.014634430
1640792817998929920,-0.226567360,0.387602570,9.478199010,-0.010208780,0.030075010,0.005351010
1640792818002980096,-0.277152480,0.302278730,9.877017970,0.001488630,0.018621980,-0.010406970
1640792818004459776,-0.375061330,0.479502230,10.332576750,0.001896920,0.024268030,-0.013333560
1640792818008169984,-0.122441950,0.547413050,9.872944830,-0.049263240,0.019413230,-0.025932490
1640792818011559936,-0.108218420,0.275366840,10.202625270,-0.051766640,0.010536610,0.009103120
1640792818015339776,-0.076243740,0.250691530,9.768678670,-0.006924570,0.044178960,0.013642010
1640792818016209920,0.004468250,0.158536690,9.726255420,0.016435980,-0.024111570,0.004281100
1640792818017900032,-0.126447410,0.188774120,9.876110080,-0.019599500,0.003910060,0.023208560
1640792818019739904,0.068527070,0.110038590,9.198714260,-0.056758520,0.048579280,-0.013732910
1640792818025250048,0.085806680,0.060830550,10.032464980,-0.027903920,0.016219910,-0.030225510
1640792818025879808,-0.100868710,0.407960330,9.847333910,-0.014482440,0.070372220,-0.019305950
1640792818027920128,-0.035577900,0.300977350,9.701725960,-0.009872020,-0.014440720,-0.013794010
1640792818028889856,-0.505713160,0.240580810,10.342240330,-0.004026290,-0.035592910,0.019931790
1640792818033469952,-0.405575570,0.256974850,9.159205440,-0.026442110,-0.016711650,0.004704300
1640792818038899968,-0.238919540,-0.173128100,9.698410030,0.000749530,-0.002670290,-0.001244250
1640792818040609792,-0.243482600,0.039404500,9.966773990,0.008347630,0.113734610,-0.009046490
1640792818041230080,0.224865390,0.133673710,9.645821570,-0.008879600,0.049749020,-0.028048460
1640792818050959872,0.079820830,-0.102270420,10.598236080,0.006757680,-0.009207430,0.005030630
1640792818051839744,0.116368010,0.113845360,9.336576460,0.029619040,0.001174210,-0.001905860
1640792818052419840,-0.027352430,0.183102190,9.577252390,0.032751250,-0.071385500,-0.009538230
1640792818053639936,-0.479389910,0.332595530,9.904438020,-0.006456670,0.019527970,0.020354990
1640792818054210048,-0.137519420,0.502256510,9.274561880,-0.013051930,0.042368480,-0.010029970
1640792818054669824,-0.357908280,0.506861690,10.812326430,0.014418370,0.023885070,0.005978350
1640792818058009856,-0.175659110,0.733617720,9.960121150,0.003187360,0.028778620,0.017942490
1640792818060099840,0.133554430,0.509561480,9.683489800,0.023646660,-0.036297740,-0.003331900
1640792818063209984,-0.129543830,0.419513790,9.999494550,0.004071000,0.008039180,-0.006423890
1640792818063819776,0.187904250,0.420977180,9.003882410,-0.032691650,0.025835640,0.003786390
1640792818068419840,0.030725510,-0.159125330,10.037640570,0.006215270,0.009801980,-0.002285840
1640792818069720064,-0.073034610,-0.067480740,9.745458600,0.020553170,0.030225520,-0.013205410
1640792818072919808,0.073414470,0.125702020,9.508323670,-0.008711220,-0.018800800,-0.001415610
1640792818074099968,-0.248750270,-0.185704370,10.239520070,-0.018359720,0.039757790,0.007984040
1640792818078039808,-0.093864430,0.140377750,9.573191640,-0.000266730,0.026190280,-0.011461970
1640792818079350016,-0.243718760,0.245189010,10.311864850,0.035873060,-0.015269220,0.007206200
1640792818086710016,-0.173186090,0.168080780,9.646103860,0.024688240,0.033412870,0.005370380
1640792818088189952,0.005934310,0.419597690,9.540101050,0.026434660,0.028163190,-0.009639560
1640792818088879872,-0.303598730,0.488729770,10.201200490,0.002959370,0.055335460,-0.003170970
1640792818089319936,-0.128813430,0.405582460,9.565735820,-0.025221710,-0.015664100,-0.006794930
1640792818096160000,-0.136176210,0.556318520,9.903680800,0.031729050,-0.043733420,-0.018191340
1640792818096619776,-0.048525560,0.654190600,9.329014780,-0.010970230,0.050809970,-0.005190070
1640792818098039808,0.072457230,0.607289610,9.880715370,-0.045359130,0.050139440,0.023907420
1640792818102249984,-0.211769100,0.417896780,10.680378910,-0.021974740,0.063331410,0.021319090
1640792818103739904,-0.049337640,0.174805790,9.910612110,-0.011247400,-0.051113960,0.014252960
1640792818104319744,-0.144793330,0.174146760,9.855225560,0.008580090,-0.052957240,0.024771690
1640792818108870144,-0.106883880,0.049835570,9.016525270,-0.027975440,0.056211660,-0.026525560
1640792818109929984,0.077381100,0.163237120,9.405229570,-0.063352290,0.040161610,-0.017103550
1640792818113019904,-0.107509490,0.247401400,10.156503680,-0.046361980,0.095090280,-0.009813900
1640792818114539776,-0.011873650,-0.134454530,9.784069060,0.006178020,-0.010979180,-0.015521050
1640792818119699968,-0.269870340,0.195261180,10.223993300,0.049449500,-0.082390020,0.011791290
1640792818121609984,-0.392775600,0.360813680,9.233357430,-0.017054380,0.002165140,-0.002799930
1640792818125139968,-0.175987880,0.111949320,9.420065880,-0.080351530,-0.013880430,0.006105010
1640792818126119936,-0.213620110,0.465177480,10.142207150,-0.032001740,0.092253080,-0.000341240
1640792818127899904,0.209958060,0.341874090,9.617185590,0.013212860,0.066642470,-0.007420780
1640792818129289984,0.165699350,0.345542220,10.548930170,0.031785670,-0.024199490,0.018417840
1640792818133149952,-0.031353690,0.562758270,9.713618280,-0.008073450,0.017493960,0.004224480
1640792818134660096,-0.029350760,0.143283530,9.397246360,-0.071075570,-0.076401240,0.010353330
1640792818137939968,-0.422412480,0.189409480,9.988919260,-0.044308600,0.000496210,0.012825430
1640792818138919936,-0.165963740,0.207414240,9.052090640,0.001674890,0.058616700,-0.029222660
1640792818143280128,-0.207276730,0.255695730,10.286643980,-0.006994610,0.004179780,-0.002217290
1640792818145079808,-0.217584970,0.573008950,10.072833060,-0.042194130,0.068622830,0.013408070
1640792818148679936,0.068240460,0.070940030,9.749465940,-0.033695990,-0.039219850,0.015716250
1640792818151459840,-0.195640460,0.160065920,10.337939260,-0.001849230,-0.040321050,0.031892960
1640792818153070080,0.068646280,0.115472650,8.978366850,0.009155270,0.049577660,0.013124940
1640792818154379776,0.249810110,-0.389217730,9.624687190,0.015610460,0.000207130,0.018244980
1640792818157929984,0.222202230,-0.278964490,9.743691440,0.033189360,0.131763530,0.001358990
1640792818158850048,0.478154510,-0.760432180,9.341130260,0.075648730,0.061871110,-0.001335140
1640792818163319808,0.131346000,-1.055022840,10.478339200,0.142332930,-0.022657220,0.018881260
1640792818170179840,0.023454640,-0.796526370,9.305267330,0.160129370,0.040924540,-0.005249680
1640792818170719744,-0.023232550,-0.804359440,9.485292430,0.133639590,-0.001502040,0.019969050
1640792818171340032,-0.421496810,-0.438124780,10.358075140,0.141954420,0.115783520,0.034794220
1640792818172889856,-0.170172570,0.216272340,9.449582100,0.170685370,0.106772780,-0.000357630
1640792818174710016,-0.323601280,0.711084010,10.588101390,0.177946690,0.002454220,0.035683810
1640792818177929984,-0.221613230,1.126275300,9.512125020,0.167410050,0.066781040,0.029483430
1640792818179069952,0.190665980,1.208704830,8.938941000,0.148920730,0.025309620,0.016470250
1640792818183049984,-0.079256550,1.120138410,10.161437990,0.129863620,0.109399880,0.047382710
1640792818184579840,0.229746820,0.542596940,9.376316070,0.147515550,0.129252690,0.046040120
1640792818188339968,0.168775890,0.108240870,10.293008800,0.185373430,0.011417270,0.049252810
1640792818189920000,-0.072507100,-0.104167730,9.863890650,0.150012980,0.077064340,0.063917040
1640792818193080064,0.223778350,-0.541536750,8.918776510,0.113491710,0.060980030,0.035600360
1640792818194469888,-0.270650150,-0.502513350,10.231794360,0.132985430,0.085651870,0.004675980
1640792818198350080,-0.118213420,-0.077396270,9.355137830,0.153534110,0.110141940,-0.007754570
1640792818200259840,-0.169591750,0.175807880,9.846905710,0.152276470,0.043225290,-0.003482400
1640792818202939904,-0.413966660,0.577766600,9.954949380,0.146840510,0.080502040,0.000190730
1640792818203869696,-0.195249180,0.782772060,9.221064570,0.123590230,0.065915270,0.029163060
1640792818208009984,-0.374588640,0.767017070,9.962256430,0.132334230,0.064411770,0.039255610
1640792818208839936,-0.150485920,0.712448950,9.570714950,0.152824830,0.076936190,0.041925910
1640792818213329920,0.098750800,0.692818110,9.644976620,0.133225320,0.082483900,0.056298080
1640792818217789952,0.073781690,0.397969600,10.160317420,0.101043280,0.107648970,0.043675310
1640792818218220032,0.152325180,0.013488080,10.006952290,0.112444180,0.088447350,0.031508510
1640792818218889984,-0.042472480,0.133377190,9.967617990,0.138893740,0.022163990,0.017426910
1640792818222999808,-0.209294260,0.124083680,9.623811720,0.107291350,0.007328390,-0.003406410
1640792818223990016,-0.300076310,0.324864030,9.231432910,0.063315040,0.071607540,-0.016053020
1640792818228039936,-0.397020760,0.623768690,9.599428180,0.058497490,0.065408650,-0.033156580
1640792818229250048,-0.372315760,0.655719760,9.941079140,0.073704130,0.068011880,0.001338120
1640792818233600000,-0.222032680,0.758014560,9.652044300,0.087477260,0.095421060,0.039024650
1640792818234479872,-0.214413580,0.541828040,10.294386860,0.099326670,0.021007660,0.053291030
1640792818238009856,-0.028022500,0.347850740,9.733849530,0.071677570,0.044424840,0.089174510
1640792818239159808,0.385401550,0.072859050,9.103898050,0.059244040,0.064146530,0.052487850
1640792818242899968,0.376776460,-0.321968440,9.992610930,0.085285300,0.129595400,0.023886560
1640792818243849984,0.386164430,-0.119671760,9.581751820,0.090765970,0.144723060,0.014540560
1640792818249260032,0.076515940,-0.327642890,10.084439280,0.108976670,0.003497300,-0.022014980
1640792818250550016,-0.364914720,-0.125974550,9.680958750,0.096696620,0.005444880,-0.010837620
1640792818253049856,-0.534075740,0.407653300,8.704060550,0.062094630,0.010719900,-0.017006700
1640792818253870080,-0.881642100,0.329263330,9.984088900,0.064466900,0.059545040,-0.004738570
1640792818257910016,-0.763364910,0.769670670,9.813184740,0.077535220,0.133523370,0.003707410
1640792818258819840,-0.464040220,0.941181060,10.437336920,0.106857720,0.021380190,0.026743110
1640792818262929920,-0.252943430,0.652623950,10.527719500,0.080616760,0.054292380,0.058093660
1640792818264839936,0.245395960,0.637738700,9.252457620,0.056511170,0.047691170,0.043734910
1640792818268019968,0.265466330,0.215955260,10.140937810,0.064094360,0.024794040,0.047889350
1640792818269469952,0.438967350,-0.001282460,9.273627280,0.055038930,0.090871760,0.039236250
1640792818273030144,0.672966960,-0.016136890,9.191749570,0.076185170,0.039380790,0.007209180
1640792818273969920,0.254980500,-0.114638900,10.059206010,0.051747260,0.115111470,0.014393030
1640792818277949696,0.006793120,0.085246560,9.462459560,0.024957960,0.079345710,0.017054380
1640792818279049984,-0.609956980,-0.065938770,10.495233540,0.078868860,-0.042127070,0.008310380
1640792818282959872,-0.966475130,0.101610580,9.685392380,0.095452380,0.006698070,0.013972820
1640792818284469760,-0.811789570,0.474136800,9.097249980,0.081206860,0.005106630,0.009086730
1640792818287879936,-0.871527550,0.419199200,10.116720200,0.045239930,0.111721470,0.005489590
1640792818288839936,-0.185267050,0.609970330,9.372631070,0.025455660,0.113166870,0.012606380
1640792818293380096,0.096739230,0.510854070,10.385063170,0.088722990,0.036303700,0.034055110
1640792818294179840,0.320928310,0.271682140,9.900980950,0.101794300,0.035250180,0.037245450
1640792818297949952,0.648911120,0.342108910,9.249949460,0.066511330,-0.049516570,0.035656990
1640792818298869760,0.328401480,0.160065900,9.888136860,0.020520390,0.075721740,0.039856140
1640792818302870016,0.282699760,-0.010927040,9.571291920,0.007018450,0.102816530,0.020393730
1640792818303859968,-0.165458400,0.199786480,10.616805080,0.081737350,0.014883280,0.023567680
1640792818307930112,-0.560964940,0.302965580,9.967413900,0.072161860,0.010073180,0.006395580
1640792818308999936,-0.538061680,0.428798380,9.178374290,0.034910440,-0.048886250,0.000169870
1640792818313059840,-0.853804890,0.722298200,9.710380550,0.012631710,0.055298210,-0.008168810
1640792818313989888,-0.563944880,0.552245260,9.242889400,-0.015968080,0.086043780,-0.011506680
1640792818317959936,-0.448442160,0.511603180,10.398487090,0.048136710,0.005836790,0.020278990
1640792818318899968,-0.324848890,0.343077750,9.967958450,0.076246270,0.023375450,0.000846390
1640792818322949888,0.150936660,0.111239550,9.307135580,0.022712350,-0.058576470,0.028002270
1640792818323889920,0.069292720,0.100769140,9.813680650,0.001268090,0.047859550,0.032867480
1640792818328140032,0.381835700,-0.246964530,9.391696930,-0.001905860,0.052495300,0.007876750
1640792818329079808,0.369355440,-0.096644360,10.267930980,0.052380570,-0.007624920,0.031116600
1640792818332899840,0.183617160,0.014831050,9.939922330,0.077269980,0.074151160,-0.001181660
1640792818334419968,0.101981440,0.147331190,9.791371350,0.033232570,-0.033968690,-0.013907250
1640792818337949952,-0.586830260,0.785042520,10.240941050,-0.014865400,-0.015451010,0.008635220
1640792818339099904,-0.604295550,0.650642100,9.063503270,-0.033837570,-0.017155710,-0.022636350
1640792818342969856,-0.706638690,0.885642290,9.662961960,-0.001379850,-0.062249610,-0.004285570
1640792818343889920,-0.713904380,1.258560660,9.541164400,0.011990960,0.076915320,0.004801150
1640792818347909888,-0.250093910,0.677402970,9.823610310,-0.036767130,0.031432510,0.027161840
1640792818348859904,-0.331589340,0.499279890,10.982407570,-0.026276710,-0.004997850,0.059719380
1640792818353869824,0.191469620,-0.022751240,9.578540800,-0.001749400,-0.031518940,0.037381050
1640792818354679808,0.593921010,-0.462634770,9.484995840,-0.001549720,-0.062094630,0.044457610
1640792818358070016,0.647031900,-0.222584650,9.173175810,-0.018031900,0.119550530,0.011539460
1640792818359079936,0.812587680,-0.444153700,9.329457280,-0.041544430,0.084544730,-0.029124320
1640792818364039936,0.197320100,-0.134890080,10.495856290,-0.015151500,0.003959240,0.013265010
1640792818364620032,-0.243348670,0.124603290,9.527746200,0.030757490,-0.048884750,-0.009290870
1640792818368079872,-0.718397500,0.259854410,9.535737040,0.011506670,-0.120462480,0.001038610
1640792818368839936,-1.254641770,0.832922400,9.539487840,-0.038070980,0.014728310,0.019954140
1640792818373499904,-0.892639700,0.585978030,9.442347530,-0.034256280,0.052124270,-0.006757680
1640792818374549760,-0.688892250,0.684730590,10.639831540,-0.000953670,0.040979690,0.024169680
1640792818377910016,-0.070735350,0.714944060,9.909399990,0.037109850,0.051549080,0.016124550
1640792818378880000,0.390164430,0.118714240,9.891921040,0.013773150,-0.038506090,0.019562250
1640792818383299840,0.316176000,0.197547840,9.694417950,-0.025860960,-0.028808410,0.028803940
1640792818387759872,0.503937240,-0.216833670,9.023056030,-0.034444040,-0.025267900,0.010871890
1640792818388949760,0.282155990,-0.376132880,9.777991290,-0.014849010,-0.017040970,0.006139280
1640792818390369792,0.063874660,0.164528410,9.712087630,0.014284260,0.038138040,-0.003671650
1640792818392859904,-0.092500930,0.231824250,10.014150620,-0.031547250,0.010116400,0.004218520
1640792818393859840,-0.507167700,0.484263630,10.375019070,-0.042138990,-0.003983080,0.029730800
1640792818398419968,-0.589451550,0.596120770,9.914035800,0.003981590,-0.041481850,0.019823020
1640792818399919872,-0.594050350,0.545388400,9.694956780,0.005871060,-0.052905090,0.016491120
1640792818403529984,-0.355210300,0.714760300,9.231429100,-0.008769330,0.012163820,0.012330710
1640792818404209920,0.020441550,0.448077080,9.337931630,-0.038601460,0.083126130,-0.004807120
1640792818408069888,0.148378790,0.243777410,9.861220360,-0.057949130,0.053332750,0.004084410
1640792818409799936,0.201446800,-0.072553140,10.056707380,0.005580480,-0.020033120,0.011090930
1640792818413009920,0.158934530,-0.345582280,9.714445110,0.030283630,-0.062297300,0.007179380
1640792818413869824,-0.027161540,-0.238488660,9.612296100,0.000262260,-0.066384670,0.015924870
1640792818418010112,-0.185680270,-0.225428830,9.638065340,-0.031314790,0.037869810,-0.001153350
1640792818420110080,-0.150004430,-0.059637470,9.777852060,-0.045409800,0.041712830,-0.020340090
1640792818422950144,-0.288197990,0.366857890,10.450448040,0.014440720,0.011841950,0.001992290
1640792818423839744,-0.347083810,0.605930030,9.790295600,0.028693680,-0.015187260,0.002487000
1640792818427929856,-0.324951590,0.781261270,9.665280340,-0.002014640,-0.111611190,-0.006976720
1640792818428859904,-0.514490250,1.035562400,9.645862580,-0.037743150,-0.012460350,0.005650520
1640792818433009920,-0.165062500,0.890245500,9.123851780,-0.089201330,0.017251080,0.011032820
1640792818433899776,-0.139830930,0.630611000,10.506428720,-0.037853420,-0.003008540,0.030238930
1640792818437999872,0.073841390,0.598480760,9.856937410,-0.021533670,0.042335690,0.018143650
1640792818438860032,0.328112720,0.141823010,9.770915990,-0.047564500,-0.072810040,0.030006470
1640792818442880000,0.084104370,-0.058494890,10.118605610,-0.054393710,-0.012260680,0.027407710
1640792818443849984,0.237354220,-0.202014740,8.880533220,-0.079844900,-0.009025630,-0.009617210
1640792818448449792,-0.098088130,-0.385624230,10.175599100,-0.043304260,-0.052440170,-0.004534420
1640792818449619968,-0.283525680,-0.147790280,9.617781640,-0.016988820,0.042413180,-0.038447980
1640792818454399744,-0.186341970,0.157303120,9.248694420,-0.039121510,-0.061485180,-0.052997480
1640792818455520000,-0.655653540,0.379923160,10.417220120,-0.057016310,-0.026997920,-0.008550290
1640792818457919744,-0.317711950,0.451808040,9.144069670,-0.067614020,0.004462900,-0.021602220
1640792818462939904,-0.237039060,0.588756920,10.216665270,-0.024195020,-0.092685230,-0.002977250
1640792818465199872,-0.184945540,0.691397190,9.979573250,-0.022141640,0.063188370,0.037142630
1640792818465769984,0.363683100,0.364983080,9.341909410,-0.037844480,0.003783400,0.017809870
1640792818467949824,-0.065708000,0.302277980,10.874753000,-0.037911540,-0.036962330,0.027044120
1640792818468889856,0.052993820,0.205853950,9.120949750,-0.068540880,-0.024569030,0.010338430
1640792818472930048,0.005227940,-0.045221720,9.462122920,-0.045855350,-0.131180880,-0.025840110
1640792818473819904,-0.383634660,0.381987930,9.682498930,-0.068300960,0.014415390,-0.035329170
1640792818477910016,-0.083161980,0.416201290,8.957571980,-0.111442810,0.006563960,-0.037708870
1640792818479009792,-0.502402660,0.239187730,11.029800420,-0.069719550,-0.025492910,-0.020949540
1640792818482949888,-0.443418320,0.519651350,10.079179760,-0.040493910,-0.010095540,-0.004237890
1640792818487719936,-0.103483410,0.386304290,9.617255210,-0.050494070,-0.147867200,0.017882890
1640792818488219904,-0.199602130,0.329575030,9.702519420,-0.082130750,-0.002560020,0.020882490
1640792818488829952,0.387242700,0.341167360,8.577552800,-0.107085720,0.055806350,0.002217290
1640792818492889856,0.240964520,0.026201070,10.266028400,-0.065802030,-0.000938770,0.008444490
1640792818493860096,0.086197010,-0.045160110,9.842495920,-0.031958520,0.009134410,-0.008913870
1640792818497979904,0.056022990,-0.013945240,9.562398910,-0.038880110,-0.140626740,-0.013864040
1640792818500109824,-0.530786750,0.018938210,9.998670580,-0.090283140,-0.071740160,-0.013777610
1640792818503010048,-0.343719510,0.106104180,8.946551320,-0.114090740,-0.013902780,-0.038506080
1640792818503949824,-0.423726800,0.225221460,10.138228420,-0.055727370,-0.006514790,-0.034540900
1640792818507959808,-0.395885850,0.433625640,10.183306690,-0.023780770,0.029738250,-0.030788780
1640792818508849920,-0.093813460,0.538456980,9.839357380,-0.036534680,-0.077414530,-0.003400450
1640792818512989952,-0.242281200,0.480615350,10.075516700,-0.066648410,-0.074520700,0.005148350
1640792818514649856,-0.069394830,0.360490890,9.209784510,-0.097282230,-0.060021880,0.004124640
1640792818519160064,-0.009331270,0.326218220,9.683600430,-0.074766580,-0.044611100,0.002042950
1640792818520549888,0.042247510,0.351070700,9.778264050,-0.051552060,0.000090900,-0.018109380
1640792818522889728,0.229056180,0.414597720,9.712174420,-0.083886080,-0.033545490,0.003436210
1640792818523830016,0.083822380,0.414864780,9.966596600,-0.110429530,-0.014130770,0.017154220
1640792818528309760,-0.052817610,0.052142340,9.996745110,-0.090931380,-0.063052770,0.013400620
1640792818529779968,-0.207348500,0.131265880,9.778688430,-0.050961980,-0.094249850,0.020392240
1640792818534779904,-0.310072960,0.023548170,9.389669420,-0.043536730,-0.051152710,-0.006224220
1640792818535259904,-0.210991370,-0.061032970,9.433643340,-0.073198980,-0.006054340,-0.022625920
1640792818537849856,-0.226658170,0.310467510,9.592379570,-0.099173200,0.036425890,-0.033527620
1640792818538830080,-0.171308190,0.059475710,9.881501200,-0.086763490,-0.036667280,-0.028203430
1640792818542879744,-0.255952720,0.130765890,9.896035190,-0.030456490,-0.088810920,-0.006595250
1640792818543849984,-0.214275300,0.348638740,9.381860730,-0.013704600,-0.100256510,-0.013233720
1640792818548049920,-0.086131220,0.140881550,9.574583050,-0.067116330,-0.042010840,0.014668700
1640792818550050048,0.056977030,0.292880860,9.741809840,-0.081068280,0.057613850,0.020854180
1640792818553239808,0.196264680,0.082737150,10.287284850,-0.037035350,0.007957220,0.002542140
1640792818554070016,0.082422320,0.210154680,10.244884490,-0.014844540,-0.055696070,0.032228240
1640792818557979904,0.021862940,0.375344990,9.327949520,-0.018791850,-0.095398730,0.004775820
1640792818558949888,-0.222620740,0.241275850,9.408097270,-0.068388890,-0.093092020,-0.018794830
1640792818563040000,-0.433660150,0.642822560,9.221881870,-0.107538700,-0.005520880,-0.012801590
1640792818563899904,-0.389804780,0.408153710,9.930809020,-0.071017440,-0.006069240,-0.038877130
1640792818568300032,-0.451414290,0.507287140,10.582658770,-0.037515160,-0.023777780,-0.020179150
1640792818569059840,-0.136550610,0.914499700,9.702588080,-0.062142320,-0.073337560,0.008232890
1640792818573019904,0.082131730,0.248218660,9.762496950,-0.106042630,-0.054356460,0.017635520
1640792818573839872,0.274282100,0.171877370,9.369620320,-0.096215310,0.024713580,0.014251470
1640792818577889792,0.357040940,0.010628400,9.663031580,-0.030787290,-0.009244680,0.013832750
1640792818579069952,0.261353310,-0.385145370,9.927261350,-0.030303010,-0.027631230,-0.004674500
1640792818583099904,0.251070500,0.007810400,9.154419900,-0.058573490,-0.051745770,-0.012089310
1640792818584579840,-0.069212090,-0.149488720,9.664297100,-0.090436640,-0.026680530,-0.015844400
1640792818587909888,-0.363817810,-0.115897460,9.700481410,-0.083023320,0.002366300,-0.023394820
1640792818588860160,-0.466307520,0.323413310,9.865364070,0.002063810,-0.065484650,-0.039768220
1640792818592839936,-0.540879490,0.372248440,9.942479130,-0.015120210,-0.025717910,-0.017701090
1640792818598850048,-0.283674210,0.554626520,9.575190540,-0.054477150,0.002744790,-0.011190770
1640792818599389952,-0.305165590,0.446253000,10.252725600,-0.037269290,0.016270580,-0.007055700
1640792818599959808,-0.019767630,0.376414240,9.682374000,-0.048077110,-0.027644640,0.008058550
1640792818603260160,0.104352320,0.422720850,9.570407870,-0.015343730,-0.061006850,0.014220180
1640792818604879872,0.151959390,0.306071010,9.436003680,-0.038807090,-0.005592410,-0.012275580
1640792818607950080,0.270689550,0.417331340,9.325719830,-0.094409280,-0.021345910,-0.007550420
1640792818609139968,0.003321100,0.343789430,10.164731980,-0.082492840,0.008529420,0.003813210
1640792818613609984,0.004779900,0.029329070,9.894638060,-0.051908200,-0.004602970,-0.013357400
1640792818616979712,-0.209965150,0.227328350,10.271271710,-0.005321200,-0.088509910,0.014539060
1640792818619010048,-0.354128930,0.119820480,9.616037370,-0.031603880,-0.005622210,0.006771090
1640792818620399872,-0.101437830,0.027247260,9.094558720,-0.082290170,-0.019338730,-0.018036370
1640792818622929920,-0.229860140,0.403222920,9.863222120,-0.061173740,0.024116040,-0.013960900
1640792818623839744,0.038428800,0.201825260,9.132154460,-0.062309200,0.053530920,-0.019755960
1640792818627939840,-0.077784030,0.189976160,10.131142620,-0.007237490,-0.064317870,-0.016328690
1640792818630839808,-0.301575720,0.453504740,9.745105740,-0.008703770,-0.029830630,-0.015453990
1640792818633280000,0.002806270,0.141944270,9.006623270,-0.076955560,-0.074473020,-0.008654600
1640792818634080000,-0.225512360,0.160555910,10.247419360,-0.067049260,0.009468200,-0.000037250
1640792818637889792,0.108857800,0.208713780,9.415006640,-0.039947030,0.098907940,-0.024056430
1640792818638959872,0.132131580,0.086083970,10.425635340,0.002467630,-0.047750780,0.005380810
1640792818642999808,-0.072087120,0.219911580,10.146525380,0.000511110,0.014995040,-0.004306440
1640792818643950080,0.113435980,0.093750300,8.922332760,-0.045064080,-0.058656930,-0.028163200
1640792818648019968,-0.440109130,0.274505650,10.264038090,-0.053079430,-0.068435080,-0.005866590
1640792818648900096,-0.374386280,0.426205010,9.021492000,-0.053404280,0.046606350,-0.029271840
1640792818653250048,-0.123504860,0.515728770,9.658124920,-0.038780280,-0.059337920,-0.018700960
1640792818654589952,-0.319213510,0.767005380,10.327636720,-0.042116650,0.071325910,0.011877720
1640792818658020096,0.285597950,0.510472890,9.116733550,-0.060701380,0.032737860,-0.002032520
1640792818658889984,-0.008109720,0.268247540,10.804692270,-0.019118190,-0.059826680,0.029224160
1640792818664669952,0.059781940,0.266541240,9.303791050,-0.030358140,0.026582190,0.013175610
1640792818665370112,0.356202300,-0.183390480,9.014004710,-0.037667160,-0.067721310,0.002737340
1640792818668349952,-0.112469870,-0.237865780,9.997559550,-0.028540200,0.064754490,-0.012268130
1640792818669769984,0.150440450,-0.151892570,8.730467800,-0.031054020,0.085656340,-0.037364660
1640792818672930048,-0.356227820,-0.284871100,10.656745910,0.013454260,-0.065022710,-0.010538100
1640792818673869824,-0.610016350,0.132005630,9.824943540,0.012563170,-0.018568340,-0.023044650
1640792818679259904,-0.219044630,0.323805510,9.002484320,-0.029729300,-0.091142940,-0.012837350
1640792818680460032,-0.633775350,0.365346040,10.578777310,-0.025749210,0.036114450,0.015595560
1640792818682960128,-0.119968880,0.503894450,9.349790570,0.001814960,0.100879380,-0.013375280
1640792818683859712,-0.040525750,0.585167110,10.518408780,0.031434000,-0.048707430,0.004167860
1640792818688099840,-0.084706490,0.711457730,9.934608460,-0.006894770,0.008849800,0.015029310
1640792818688999936,0.473227830,0.619075240,8.582132340,-0.054569540,-0.057145950,-0.020182130
1640792818693069824,0.013063590,0.568432210,10.016126630,-0.063297150,-0.014647840,-0.003476440
1640792818694959872,0.175373900,0.312573020,9.157058720,-0.049987430,0.093230590,-0.000548360
1640792818697880064,0.048581350,0.006110270,10.330918310,0.011579690,-0.029215220,0.002087650
1640792818699520000,-0.395306860,0.100769120,10.591009140,0.005722050,-0.017172100,0.029146670
1640792818705779968,-0.005741620,-0.057249200,8.893100740,-0.055994090,-0.033260890,0.014643370
1640792818706390016,-0.350606560,-0.194597940,9.958208080,-0.056076050,-0.004185740,-0.006107990
1640792818709319936,-0.146047850,0.033206220,9.114276890,-0.017206370,0.086192790,-0.018812720
1640792818711360000,-0.037379780,0.039775160,9.666117670,0.029195850,0.007170440,-0.012983380
1640792818715499776,-0.356591700,0.263150100,10.204994200,0.028933590,-0.000469390,-0.010608140
1640792818716320000,-0.032533400,0.434645000,9.095463750,-0.032411520,-0.047221780,-0.001895430
1640792818717900032,-0.207181890,0.357721840,9.878347400,-0.048369170,-0.027355550,0.002014640
1640792818720539904,-0.031113940,0.349174440,9.474522590,-0.006586310,0.067974630,-0.006332990
1640792818722999808,0.192711260,0.443819910,9.798810010,0.030829010,0.040046870,0.000950690
1640792818725839872,-0.075055370,0.331350360,10.428556440,0.024932620,0.035569070,0.009945040
1640792818729199872,0.102279450,0.134255100,9.501255990,-0.011439620,-0.035245720,0.003348290
1640792818730010112,-0.247779030,0.130032550,9.728620530,-0.015877190,-0.047114500,0.006029010
1640792818732960000,-0.423498810,-0.049728210,9.346675870,-0.004418190,-0.011320410,-0.015130640
1640792818733919744,-0.342959820,0.169285270,9.476672170,0.013242660,-0.004532930,-0.015854840
1640792818737919744,-0.328157750,0.547638180,9.742657660,-0.004033740,0.030085450,-0.007826090
1640792818738909952,0.052026420,0.430544530,9.830061910,-0.054205970,0.045721230,0.006049870
1640792818742929920,0.117211350,0.577480020,10.272288320,-0.016611810,0.041048230,0.027470290
1640792818743849984,0.075265680,0.420051540,10.138109210,0.019060080,-0.039273500,0.002761190
1640792818747939840,0.148463650,0.358862580,9.503096580,0.005683300,-0.067839030,0.024369360
1640792818748859904,0.075304020,0.304063140,8.941226960,-0.025886300,0.023856760,0.018702450
1640792818752919808,0.144616930,-0.110288110,9.217293740,-0.036552550,0.065724550,-0.017012660
1640792818754240000,-0.028916800,0.015976470,9.820813180,-0.016438960,0.084605810,0.010326510
1640792818758210048,-0.204120710,-0.228514240,10.013301850,0.033970170,0.010451670,-0.011691450
1640792818759040000,-0.342613790,-0.250751170,10.177018170,0.033843520,-0.074693570,-0.010576850
1640792818762959872,-0.438033970,0.203615770,9.378144260,0.005884470,-0.027763850,0.010387600
1640792818763900160,-0.256127720,-0.148018180,9.379172330,0.000685450,0.029155610,-0.009556110
1640792818767959808,-0.154136360,0.240388470,9.860987660,0.016400220,0.094115730,-0.005216900
1640792818769600000,0.007086450,0.520691390,9.763500210,0.057992350,0.049597030,-0.009101630
1640792818772960000,0.067863610,0.301869270,10.034589770,0.050497060,-0.034549840,0.009590390
1640792818774269696,0.007506980,0.820727470,9.348804470,0.014097990,-0.046545270,0.020191070
1640792818777929984,0.053947390,0.578341190,9.223814010,-0.027468800,-0.027868150,0.008463860
1640792818778909952,-0.020148770,0.360065400,9.818984990,-0.033323470,0.085721920,0.024026630
1640792818782939904,-0.131788330,0.489551420,10.200485230,0.041714310,0.073108080,0.011572240
1640792818785430016,-0.150091470,0.148459390,10.499472620,0.038111210,-0.024825340,0.008162860
1640792818787840000,-0.113745550,0.241335240,9.460616110,-0.016754870,-0.026947260,0.017122930
1640792818788930048,-0.106842380,0.040123690,9.119717600,-0.017738340,-0.009416040,-0.011388960
1640792818792909824,-0.279291390,-0.057262060,9.587327000,-0.019100310,0.060123210,-0.018592180
1640792818793849856,-0.183902810,0.191463430,9.437030790,0.029909610,0.033240030,-0.014990570
1640792818797839872,-0.202743710,0.095354510,10.019797330,0.040574380,-0.006671250,-0.019814080
1640792818798879744,-0.096694460,0.428720740,9.521057130,-0.033059720,0.015908480,0.010502340
1640792818802899712,-0.078887990,0.373222500,9.700716970,-0.030335790,0.012993810,0.023357570
1640792818803910144,-0.151095080,0.119809820,10.069844250,0.007694960,0.016987330,0.003984570
1640792818808079872,-0.019016620,0.353448900,9.531635280,0.040972230,-0.013776120,0.009898840
1640792818808889856,0.007536530,0.074169020,9.695318220,0.046609340,0.016467280,0.012452900
1640792818812919808,-0.002464930,0.021038830,9.612923620,0.001423060,0.056165460,-0.010307130
1640792818814759936,-0.177107930,0.230221500,9.923850060,0.002773110,-0.013919170,0.002896790
1640792818819139840,-0.320967020,0.070265010,9.794287680,0.000946220,-0.027309360,-0.017614670
1640792818819719936,-0.218017440,0.350508900,9.298176770,0.018908080,-0.053262710,-0.033873320
1640792818822889984,-0.288311960,0.644502760,9.638164520,0.017166140,0.022205710,-0.014631450
1640792818823869952,-0.156590300,0.525105540,9.680532460,-0.027088830,0.078991060,0.001068410
1640792818827829760,-0.274405150,0.550134420,10.509501460,0.005441910,-0.016999240,0.028276450
1640792818828849920,-0.240118460,0.475149840,10.051712040,0.009053950,-0.041136150,0.037041300
1640792818832899840,0.054680200,0.198430230,9.091626170,-0.001627210,-0.063231590,0.032368300
1640792818835109888,0.009964080,0.132429380,9.445848460,0.012126560,0.024566050,0.018438690
1640792818838070016,0.236215110,0.067954950,9.089152340,-0.019101800,0.091592970,-0.017777090
1640792818839059712,0.162281380,-0.135362190,10.090175630,-0.002738830,-0.005114080,0.006157160
1640792818843020032,-0.086521440,-0.161310450,10.060441970,0.034113230,0.006052850,-0.009618700
1640792818843879936,-0.083924730,-0.122016010,9.416230200,0.025038430,-0.086252410,-0.021806360
1640792818847999744,-0.533331930,0.075891520,9.913748740,0.024680800,-0.057147440,0.003840030
1640792818849669888,-0.360391230,0.236518500,9.009700780,-0.010073180,0.052531060,-0.031259660
1640792818854140160,-0.207200560,0.313803970,9.904668810,0.012940170,0.007030370,-0.002148750
1640792818855399936,-0.255282940,0.573452770,10.191455840,0.039610270,0.075820090,0.019682950
1640792818857979904,0.149273620,0.422867950,9.426565170,0.030609970,-0.020581490,0.008927290
1640792818858889728,-0.149064870,0.484614130,10.306609150,0.019018350,-0.093941390,0.024443860
1640792818863149824,-0.031852390,0.508293030,8.949221610,-0.020690260,0.014188890,0.006166100
1640792818864019968,0.102383580,0.095125820,9.491397860,-0.011187790,-0.030675530,-0.000098350
1640792818870919936,-0.236770880,0.299206140,10.274309160,0.021718450,0.053463890,-0.001329180
1640792818871759872,0.262134250,0.309479390,9.205472950,-0.004912910,0.031338630,-0.009040530
1640792818873440000,-0.047460070,0.055516910,10.560171130,-0.003844500,-0.031894450,0.010859970
1640792818874240000,-0.120365620,0.225232710,9.588891030,0.005023180,0.030134620,-0.008462370
1640792818877859840,0.013245580,0.146522460,9.212985990,0.005275010,-0.054690250,-0.001534820
1640792818878860032,-0.482419310,0.066591790,10.040392880,0.013665850,-0.003995000,0.023217500
1640792818883020032,-0.011582190,0.269713130,8.542627330,0.005708630,0.063842540,-0.021387630
1640792818884519936,-0.209103480,0.226568610,10.092722890,-0.010834630,-0.009804960,-0.002613660
1640792818887859712,-0.327474770,0.278774500,9.920398710,-0.008089840,0.066901740,0.001950560
1640792818888999936,0.044537370,0.217527690,9.589596750,0.027966500,-0.062188510,-0.032947960
1640792818893080064,-0.338291440,0.261139010,10.457360270,0.021494930,-0.050136450,0.011059640
1640792818894019840,0.056987150,0.147925820,8.880896570,0.000238420,0.051619110,0.002166630
1640792818897989888,0.042978200,-0.028097600,10.060277940,0.022479890,0.018379090,-0.008229910
1640792818899579904,-0.218934700,0.232118200,10.166677470,0.018140680,0.052015480,0.006717440
1640792818903099904,0.153585060,0.220732270,9.234923360,0.006751720,-0.053735080,-0.009082260
1640792818905679872,-0.255497040,0.368367940,9.972004890,0.004471840,-0.060567270,-0.016942620
1640792818907990016,-0.126468900,0.764972090,8.911310200,-0.035861140,0.031085310,-0.017984210
1640792818908949760,-0.210915790,0.574840720,9.969597820,-0.034484260,0.015144050,-0.006079670
1640792818912940032,-0.468453680,0.501020910,10.568698880,0.002594290,0.025805830,0.004346670
1640792818913830144,-0.050413930,0.521667900,9.514124870,0.018338860,-0.053696340,0.007641320
1640792818917959936,-0.112426800,0.309062270,9.847124100,-0.020271540,-0.031909350,0.016328690
1640792818919350016,0.150709480,0.174669410,9.063306810,-0.056926910,0.052630900,-0.001028180
1640792818923040000,0.324650440,0.048203970,9.589367870,-0.034137070,0.017307700,-0.004297490
1640792818923859712,0.126201450,-0.249331700,9.866857530,0.012178720,0.033167010,-0.012913350
1640792818928079872,0.093039060,-0.260926490,9.581061360,0.035282970,-0.037702920,-0.026014450
1640792818929219840,-0.382697250,0.020444610,9.883668900,0.002531710,-0.046856710,-0.021515790
1640792818932940032,-0.536822800,0.092772920,9.336399080,-0.059549510,-0.042426590,-0.027039650
1640792818937809920,-0.464980780,0.316574360,9.703536990,-0.045657160,-0.006912650,-0.029794870
1640792818940669952,-0.484773040,0.539235950,9.934284210,0.009815390,0.046999760,-0.020271540
1640792818941229824,-0.153752000,0.522151710,10.037501340,0.039929150,-0.000073020,0.006338950
1640792818942870016,-0.058035780,0.735561730,10.154899600,0.017932060,0.004665550,0.016474720
1640792818943919872,0.033241680,0.533538940,9.590561870,-0.053882600,-0.055581330,0.019855800
1640792818947879936,0.115428390,0.260497360,9.567137720,-0.060765450,-0.048466030,0.019963090
1640792818949039872,0.069386930,0.207859200,9.187806130,-0.008966030,0.011983510,-0.018621980
1640792818953209856,0.168746170,-0.003661220,9.430864330,0.005114080,-0.020192570,-0.021503870
1640792818953909760,0.058751090,0.179959010,9.825115200,-0.018166010,0.055155160,0.001160800
1640792818957919744,-0.116447150,-0.083052320,10.042631150,-0.041919960,-0.007170440,-0.005987290
1640792818958979840,-0.298301940,-0.177333090,10.395998000,-0.020459290,-0.083071000,0.013192000
1640792818962899968,-0.380060430,0.038443630,9.381623270,0.013831260,-0.046633180,-0.004093350
1640792818963959808,-0.168702500,-0.197407480,9.109541890,0.027807060,-0.030204650,-0.024245680
1640792818967879936,-0.163368540,0.262265500,9.633784290,0.004692380,0.083622350,-0.016328690
1640792818969139712,0.038004520,0.403594970,9.467426300,-0.014385580,0.060585140,-0.007800760
1640792818972940032,-0.001634300,0.069039380,10.345243450,0.005501510,-0.066001720,0.014589730
1640792818973909760,-0.067980960,0.448547300,9.653440480,0.042657560,-0.049768400,0.000944730
1640792818977949952,-0.036176340,0.253848080,9.340384480,0.025926530,-0.082232070,0.004331770
1640792818979339776,-0.149498550,0.156218630,9.919337270,-0.009620190,0.032667820,0.018557910
1640792818983069952,-0.045367330,0.322835890,9.662771220,0.003056230,0.079372530,-0.027246770
1640792818985149952,-0.036730380,0.174869490,10.520007130,0.014564390,-0.028061870,-0.002121930
1640792818988000000,-0.116881130,0.344664750,9.847219470,0.018371640,-0.020521880,-0.014974180
1640792818988950016,-0.067109800,0.380761120,9.128906250,0.006653370,-0.080563120,-0.047768660
1640792818992819968,-0.375477790,0.428145560,9.710491180,-0.041000550,-0.017321120,-0.007042290
1640792818993880064,-0.289095580,0.517960850,9.317066190,-0.035378340,0.045238450,-0.011046230
1640792818997920000,-0.217835740,0.216964450,10.212669370,-0.004704300,-0.034196670,-0.002816320
1640792818998949888,-0.116431090,0.446642760,9.975806240,0.001344080,0.023426110,0.032706550
1640792819002840064,0.208485530,0.231166880,9.460669520,-0.009636580,-0.000132620,0.015904010
1640792819003939840,0.131217660,-0.075559090,10.250839230,-0.025083130,-0.013063850,0.015769900
1640792819007849984,0.207236920,0.038512270,9.380635260,-0.009979310,0.026814640,0.005160270
1640792819009149952,0.188644380,-0.265402080,9.587635040,0.025127830,-0.032089650,-0.011053680
1640792819013129984,-0.030074190,-0.035636300,9.566855430,0.014595690,0.012716650,-0.027631230
1640792819016429824,-0.113486870,0.280036180,9.148322110,-0.021214780,0.014249980,-0.027705730
1640792819017910016,-0.475133120,0.161731050,10.081079480,-0.035944580,-0.015431640,-0.005260110
1640792819019009792,-0.572908040,0.416824820,9.879985810,0.002382700,-0.028981260,-0.017771120
1640792819023900160,-0.470273290,0.632988210,9.747674940,0.023552780,-0.054277480,-0.002516810
1640792819024339968,-0.408939540,0.547359880,9.988444330,-0.018763540,0.025580830,0.019589070
1640792819028280064,-0.168266860,0.533368530,10.006950380,-0.026628380,0.044833130,0.016444920
1640792819029090048,-0.013795280,0.328155790,10.223298070,-0.012542310,-0.023362040,0.031661990
1640792819032869888,0.245250340,0.232735020,9.535810470,-0.007377570,-0.040315090,0.019857290
1640792819037289984,0.376608910,0.291798380,9.131010060,-0.011698900,-0.032800430,-0.009176140
1640792819037819904,0.257336910,0.313840870,9.294780730,-0.072452430,0.035537780,-0.011253360
1640792819039039744,0.069868320,0.092998490,9.902930260,-0.064477330,0.017946960,-0.012587010
1640792819043149824,-0.296412910,0.047368400,10.312927250,0.003097950,-0.024591390,-0.010459120
1640792819044790016,-0.396709140,0.177134630,9.806082730,0.003205240,-0.083179780,-0.011533500
1640792819048709888,-0.510967970,0.252979490,9.600364690,-0.037245450,-0.041809670,0.013472140
1640792819049549824,-0.459408820,0.312178850,9.312986370,-0.073252600,0.045917920,-0.004936760
1640792819052819968,-0.229680540,0.205250160,9.837516780,-0.042210510,0.014148650,0.004421170
1640792819053989888,-0.134026960,0.148721810,9.977807040,0.025431820,0.021515790,0.016859170
1640792819058060032,0.135161160,0.029653570,9.570556640,0.035209950,-0.045447060,-0.012464820
1640792819058939904,0.047296180,0.149707500,9.950594900,-0.011280180,-0.052575770,0.008781260
1640792819066720000,0.049704160,0.314360710,9.298409460,-0.082841520,0.010161100,-0.003002580
1640792819068179968,0.123767680,0.193432820,9.862555500,-0.068467860,-0.025174020,-0.016759340
1640792819068739840,-0.095121760,0.500025390,10.239455220,-0.014951830,0.016872590,-0.011062620
1640792819069190144,0.089971140,0.607793030,9.499873160,-0.008136030,0.007072090,-0.004580620
1640792819072960000,-0.207249150,0.436934830,10.531246190,-0.026676060,-0.033408410,0.015223030
1640792819073880064,-0.410191800,0.573349540,9.680371280,-0.069120550,-0.011923910,0.015883150
1640792819080199936,-0.305053920,0.253710930,9.419645310,-0.082542010,-0.081755220,0.013548140
1640792819081479936,-0.423705940,0.108894170,9.856187820,-0.043030090,-0.005047020,0.001671910
1640792819084780032,0.023843700,0.266229000,8.785137180,-0.034853820,0.054007770,-0.024023650
1640792819085459968,0.142316310,0.089046130,10.134119990,-0.046631700,0.009290870,0.005482140
1640792819088280064,0.045204840,0.062330510,10.191642760,-0.064420710,0.060892110,0.015403330
1640792819089769728,0.302354840,-0.018775950,9.744039540,-0.045786790,-0.087773780,-0.000371040
1640792819095019776,-0.039811250,-0.135120450,10.245814320,-0.014348330,-0.066430870,0.012348590
1640792819095719936,0.168378700,0.002249210,8.686189650,-0.023737550,0.038628280,-0.011804700
1640792819097889792,0.084586570,0.014557700,9.735293390,-0.014069680,0.034919380,-0.023211540
1640792819098929920,-0.274166490,0.243038390,10.189245220,-0.036175560,0.095726560,0.005905330
1640792819102929920,-0.104795400,0.315531940,9.484488490,-0.031557680,-0.043791540,0.000326340
1640792819103919872,-0.641853630,0.201347590,10.451553340,0.003139680,-0.108189900,0.006534160
1640792819108059904,-0.581744020,0.409602850,8.988807680,-0.020189580,-0.013475120,0.004395840
1640792819110460160,-0.428445640,0.340030430,9.714605330,-0.019502640,-0.008510050,0.000596050
1640792819113730048,-0.445789280,0.353540870,10.580727580,-0.040668250,0.088661910,0.009645520
1640792819114699776,0.247285430,0.411337970,9.712082860,-0.039730960,0.022062660,0.020188090
1640792819117879808,0.211490740,0.191886840,10.590160370,0.008857250,-0.047340990,0.012159350
1640792819119350016,0.271683990,0.318634660,9.311415670,-0.013534730,-0.022590160,-0.016586480
1640792819123409920,0.337746050,0.450412840,9.011729240,-0.051738330,-0.059823700,-0.009140370
1640792819123999744,-0.076827680,0.141571160,9.932955740,-0.063931950,0.037837030,0.001540780
1640792819127919872,0.064454870,0.171970900,9.289547920,-0.041620430,0.021304200,-0.003583730
1640792819130109952,-0.248119100,0.327760640,10.420903210,-0.012257700,-0.007691980,0.006589290
1640792819132819968,-0.420393230,0.183963630,9.998609540,-0.050975390,0.026138130,0.004270670
1640792819133879808,-0.312213840,0.158688870,9.742918970,-0.041723260,-0.066603730,0.000552830
1640792819138229760,-0.533677820,0.129116830,10.060310360,-0.016163290,-0.013595820,0.006315110
1640792819139899904,-0.099555010,-0.103829520,9.010492320,-0.018148130,0.011293590,-0.002829730
1640792819145159936,0.006851640,0.098664250,9.868327140,0.010171530,0.018674140,-0.004643200
1640792819146050048,0.064270410,0.142182630,9.834766390,-0.034156440,0.070986150,-0.006642940
1640792819147919872,0.222757430,0.044999510,9.875659940,-0.030265750,-0.050286950,0.010402500
1640792819148969984,-0.127222550,0.313542840,10.312996860,0.015507640,-0.070364780,-0.005869570
1640792819152829952,0.006602450,0.455478970,9.086975100,-0.028949970,-0.048305100,-0.012554230
1640792819154170112,-0.140913250,0.576445280,9.997246740,-0.052607070,0.014944370,0.017942490
1640792819157939968,-0.377649550,0.528920590,10.384311680,-0.039181120,0.097669660,-0.007580220
1640792819159020032,-0.228934620,0.436313630,10.280293460,-0.018741190,-0.067016490,0.000964110
1640792819162880000,-0.414469660,0.602560520,10.029150010,-0.009544190,-0.078120830,0.011560320
1640792819163990016,-0.134697200,0.342497170,8.784614560,-0.069156290,-0.029556460,-0.030154000
1640792819167949824,-0.058488180,0.313746450,9.489936830,-0.100050870,0.000132620,0.006353860
1640792819168969984,-0.093929690,0.114713730,9.895277020,-0.051935020,0.090397900,0.008228420
1640792819173039872,0.154860030,-0.333717640,10.149605750,0.000007450,-0.026839970,-0.006756190
1640792819174089984,-0.085711550,0.084857930,10.501842500,-0.004789230,-0.073581940,0.024548170
1640792819178639872,0.087001000,-0.024905760,9.199626920,-0.066520270,-0.026510660,-0.004997850
1640792819179389952,0.115661260,-0.122969530,9.511632920,-0.090555850,-0.024391710,-0.008381900
1640792819182899968,-0.121126200,0.294745180,9.674159050,-0.028419490,0.080589960,-0.012910370
1640792819183980032,0.025068840,0.021819430,9.591907500,0.022259350,0.015914440,-0.013297800
1640792819188179968,-0.288604650,0.272863810,10.264741900,0.023706260,-0.054444380,0.015553830
1640792819188939776,-0.361296120,0.460288110,9.366031650,-0.038370490,-0.025907160,-0.011405350
1640792819193539840,-0.400397870,0.080445320,9.751445770,-0.084353990,-0.066083670,0.002945960
1640792819194559744,-0.536738040,0.300128160,10.115189550,-0.027661030,0.005388260,-0.006669760
1640792819197890048,-0.082546370,0.245953840,9.597150800,0.016961990,0.018081070,-0.031042100
1640792819198909952,0.070096900,0.266684770,10.271594050,-0.002838670,0.006632510,0.016833850
1640792819202819840,0.120167970,0.308016000,10.053963660,-0.023405250,0.042255230,0.015681980
1640792819205410048,0.169237610,-0.023015680,9.918906210,-0.032402580,-0.076061490,0.008308890
1640792819208079872,-0.110970320,0.165155020,9.701664920,-0.023123620,-0.084792060,0.032187990
1640792819209400064,-0.044790380,0.192528310,8.974864010,-0.000232460,-0.010208790,-0.012485680
1640792819213719808,-0.103434800,0.331131880,9.633763310,-0.041176370,0.013309720,0.002166630
1640792819215389952,-0.259979070,0.574958620,10.086967470,-0.063444680,0.064231460,0.022791330
1640792819217939968,-0.184341100,0.192357230,10.372824670,-0.026488310,-0.012238320,0.005558130
1640792819218929920,-0.407274070,0.235922500,10.461793900,0.001814960,-0.104343890,0.019051130
1640792819223049984,-0.302039560,0.176802020,9.353822710,0.013142830,-0.062973800,0.014922020
1640792819223899904,-0.126661230,-0.263976720,9.269548420,-0.012283030,0.010962780,-0.003553930
1640792819227889920,-0.143070440,-0.094178470,9.659186360,-0.019630790,0.045228010,0.000093880
1640792819229299968,0.031621700,-0.123336370,9.751846310,-0.001093750,0.019803650,-0.004680460
1640792819232899840,-0.018984230,-0.154295550,10.060178760,0.008170310,-0.061422590,0.003094970
1640792819234169856,-0.200010660,0.153404910,9.927919390,0.034783780,-0.093561410,0.002764170
1640792819238419968,-0.158463460,0.276000110,9.579426770,-0.001166760,-0.059372190,-0.002658370
1640792819240550144,-0.278888310,0.420386910,9.970834730,-0.024868550,-0.008715690,0.010475520
1640792819242949888,-0.182180390,0.510312500,10.154752730,0.001418590,0.037127730,0.015613430
1640792819244489984,-0.029007390,0.535028820,10.088653560,0.004434590,-0.014913080,0.014546510
1640792819247849984,0.024926310,0.586153330,9.833377840,0.017562510,-0.080347080,0.022605070
1640792819248920064,0.106440880,0.448013370,9.290150640,-0.011122230,-0.031048070,-0.011514130
1640792819253120000,0.048326110,0.322756470,9.284483910,-0.052545960,-0.012828410,-0.008696320
1640792819253989888,-0.201099500,0.026887410,10.163246150,-0.009068850,-0.020179150,0.007300080
1640792819259970048,-0.156423850,-0.138582690,9.816713330,0.023141500,-0.011876220,-0.009186560
1640792819260509952,-0.195027160,0.007393290,9.885649680,0.003428760,-0.081002710,0.002092120
1640792819262889984,-0.283574070,0.057539430,9.909846310,-0.031891470,-0.003738700,0.025816260
1640792819263959808,-0.025990370,-0.002026980,9.412134170,-0.046354530,-0.001655520,-0.006943940
1640792819267879936,-0.136203240,0.066771480,10.299772260,0.030703850,-0.049656640,0.013156240
1640792819269159936,-0.004821270,0.140839960,9.563058850,0.069302330,0.025781990,0.026191770
1640792819273459968,0.088148380,0.200567960,9.518247600,0.035485630,-0.056853900,-0.001551210
1640792819274639872,-0.206682040,0.482608650,10.159018520,-0.023961070,-0.031197070,0.027531390
1640792819279490048,0.015709350,0.391518890,9.231819150,-0.056563320,0.002571940,0.003349780
1640792819280150016,-0.137410970,0.332401510,10.290776250,0.015580660,-0.066480040,-0.026395920
1640792819282919936,-0.261999190,0.673709810,10.013261800,0.042310360,0.013032560,-0.008626280
1640792819283929856,-0.002201540,0.526066600,9.416346550,-0.007514660,-0.032326580,-0.000143050
1640792819288219904,-0.419453680,0.327527370,10.796803470,-0.026343770,-0.035506490,0.018557910
1640792819289389824,-0.165643720,0.308241370,9.437316890,-0.049647700,0.007288160,0.026573240
1640792819293059840,-0.002146540,-0.065562810,9.703363420,0.000579660,-0.095435980,0.019736590
1640792819293920000,-0.113099770,0.006972550,10.005229950,0.021006170,0.020962960,-0.007446110
1640792819297910016,0.377267330,0.222355750,8.808712960,-0.028811400,0.038470320,-0.009790060
1640792819298889984,0.096263040,-0.077247450,10.617773060,-0.038269170,-0.023508070,0.013485550
1640792819303049984,-0.086404030,0.012500300,9.947961810,-0.017008190,0.029291210,0.004668530
1640792819305149952,-0.000692980,0.028146580,9.585080150,0.025922060,-0.124304010,0.000062580
1640792819307879936,-0.485465850,-0.004319340,10.326131820,0.027269120,-0.040951370,0.006034970
1640792819309979904,-0.127918440,0.262180150,8.789913180,-0.014625490,0.052356720,-0.010214750
1640792819314919936,-0.155336770,0.229346010,10.223608020,-0.013937060,-0.006732350,0.009833270
1640792819316720128,-0.186354500,0.233731960,10.181892400,0.001524390,0.075839480,0.028373300
1640792819319249920,0.162684500,0.235419480,9.476190570,0.044718390,-0.051482030,0.013278430
1640792819320089856,-0.308368440,0.229131610,10.521318440,0.042755910,-0.088085260,0.017149750
1640792819324209920,-0.158100610,0.339391920,9.041293140,-0.017207860,-0.013041490,0.011684000
1640792819325049856,-0.115655820,0.182460490,9.797957420,-0.010867410,-0.036613640,0.009247660
1640792819327879936,-0.305583660,0.297732380,10.490769390,0.001674890,0.045055150,0.006569920
1640792819329860096,0.308540310,0.476467970,9.484671590,0.001515450,0.016477700,0.015158950
1640792819333079808,0.084531150,0.287785500,10.621634480,0.020200010,-0.031860170,0.016881530
1640792819334640128,0.120971980,0.339268950,9.641223910,-0.005149840,0.005954500,0.005672870
1640792819338249984,0.117390300,0.278851630,9.454196930,-0.008633730,-0.063776960,0.025007120
1640792819340399872,-0.298208000,-0.019963130,9.828801160,0.011816620,-0.009252130,0.016213950
1640792819342819840,0.002119060,0.098538120,8.911646840,-0.006166100,0.004936760,-0.000664590
1640792819343899904,-0.193666530,0.097472700,10.046239850,-0.001405180,0.032970310,0.026236480
1640792819347879936,-0.279371920,-0.134471940,10.266291620,0.006134810,0.046533360,0.007998950
1640792819353159936,-0.129006670,0.110266360,10.178537370,0.033438210,-0.066144770,-0.002376740
1640792819354660096,-0.348323290,0.209870650,10.019351960,0.032159690,-0.055699050,0.022555890
1640792819355959808,0.022573150,0.010896170,9.038221360,0.005847220,0.010260940,0.009778140
1640792819357869824,-0.026223090,0.318640830,9.831404690,0.024247170,0.068484250,0.006717440
1640792819358949888,-0.105550300,0.413249250,10.024460790,0.023238370,0.055286300,0.000326340
1640792819363399936,0.064400250,0.421377930,10.029389380,0.014615060,-0.078116360,-0.000223520
1640792819363999744,-0.156701180,0.806789100,9.857076640,-0.001019240,-0.055885320,-0.000429150
1640792819367859968,-0.028465370,0.616225540,9.309341430,-0.051091620,-0.003482400,-0.001135470
1640792819368969984,-0.221485820,0.528035520,10.277712820,-0.029869380,0.048014530,0.026266270
1640792819374629888,-0.344334600,0.391098680,10.346123700,0.023996830,0.037853420,0.009207430
1640792819375480064,-0.022338160,0.154654070,10.023421290,0.008657570,-0.057230890,0.025817750
1640792819377920000,-0.104365940,0.225734960,9.715756420,-0.026528540,0.001765790,0.026322910
1640792819386779904,0.106375440,0.025436110,9.160647390,-0.059716410,0.020024180,-0.020508470
1640792819388710144,0.066512550,0.009620070,9.853903770,-0.053972010,0.016219910,-0.001685320
1640792819389109760,-0.116949950,0.072317060,9.766951560,0.010067220,0.045321880,-0.009255110
1640792819389489920,-0.104676120,-0.080599320,10.038422580,0.033406910,-0.059735780,-0.022087990
1640792819389979904,-0.362329390,0.385600840,10.035255430,-0.018791860,-0.043214860,0.014317040
1640792819392799744,-0.257980140,0.322104390,9.373559000,-0.060787800,0.008854270,-0.007914010
1640792819393959936,-0.111360760,0.268852770,10.130098340,-0.058291860,0.023408240,-0.006869440
1640792819398020096,-0.032452110,0.570540370,9.939546590,0.007812680,0.074712930,0.016354030
1640792819399340032,0.163336810,0.212565680,9.948886870,0.041271750,-0.000853840,0.009065870
1640792819402860032,-0.047100840,0.233386860,10.188306810,0.002430380,-0.020277500,0.021854040
1640792819403960064,-0.120418170,0.316712770,9.391138080,-0.046902890,-0.026480860,0.006602710
1640792819407929856,-0.154550150,-0.031531860,9.776578900,-0.064045190,-0.039720540,0.007012490
1640792819410220032,-0.255930930,0.171688910,9.783126830,-0.021745260,0.040695070,-0.001411140
1640792819416989952,-0.025817270,0.272962600,9.811769490,0.026151540,0.034834440,-0.009296840
1640792819417819904,-0.009057960,0.270907610,10.412773130,-0.005333130,0.042353570,0.011466440
1640792819418220032,0.029785590,0.435500980,9.950100900,-0.031600900,0.009711090,0.014889240
1640792819418939904,0.006353530,0.230372560,9.907763480,-0.041118270,-0.044751170,0.010091070
1640792819422889984,-0.039997380,0.068286210,9.463995930,-0.010260940,0.011307000,0.015202170
1640792819424019712,-0.040263050,0.016557730,9.349491120,0.045926870,0.028292830,-0.010472540
1640792819427970048,-0.127285000,0.018040130,9.803085330,0.009498000,0.058083240,-0.007927420
1640792819429659904,-0.150932910,0.002028210,9.941212650,-0.024102630,0.037017460,0.012311340
1640792819432839936,-0.204709170,0.011622700,10.301272390,-0.008939210,-0.007990000,-0.004787740
1640792819434799872,-0.228184920,0.168939100,10.020097730,0.004220010,-0.019334260,-0.004780290
1640792819438030080,-0.249837500,0.187157020,9.831955910,0.044363740,-0.008882580,0.007541480
1640792819439739904,-0.273087530,0.251807090,9.819660190,0.041745610,0.052157040,-0.006277860
1640792819442889984,-0.240913540,0.372770910,9.856168750,-0.000183280,0.013330580,0.003357230
1640792819444369920,-0.333297730,0.487399850,10.068871500,-0.000470880,-0.022456050,0.015102330
1640792819448489984,-0.159690930,0.637433110,9.544216160,-0.027969480,-0.032050910,-0.007461010
1640792819450080000,-0.063471000,0.679464760,9.721090320,-0.032538180,-0.038033720,-0.002598760
1640792819452899840,-0.066657940,0.603471400,10.009526250,-0.019712750,0.078031420,0.016801060
1640792819453949952,0.052819450,0.284040330,10.302387240,-0.006267430,0.043644000,-0.006507340
1640792819457799936,-0.145358790,0.287428980,10.817842480,0.009854140,-0.049616390,0.014248490
1640792819458929920,0.017604430,0.187429260,9.363693240,-0.042659050,-0.034885110,0.006653370
1640792819462839808,0.120643990,-0.132371380,9.155946730,-0.058898340,-0.017097590,-0.018915530
1640792819463889920,-0.128228470,0.074570250,9.707027440,-0.035192080,0.074821720,-0.016999240
1640792819467809792,0.114607020,-0.035282400,9.449150090,-0.002771620,0.067447130,-0.011959670
1640792819468999936,-0.233989910,-0.097276610,10.702747340,0.038701300,-0.034525990,-0.000382960
1640792819472940032,-0.340885670,0.313685750,9.875953670,-0.007399920,-0.020645560,0.002755220
1640792819473909760,-0.149203550,0.101566790,9.481285100,-0.051496920,-0.056801730,-0.002078710
1640792819478119936,-0.334136990,0.141664830,10.176643370,-0.012618300,0.037051730,-0.012335180
1640792819479499776,0.009050680,0.442002560,9.311451910,0.020901860,0.103563090,-0.027419630
1640792819483000064,0.061291610,0.257466640,10.377579690,0.044505290,-0.007833540,-0.000663100
1640792819484269824,-0.095999020,0.336193560,10.011675830,0.010095540,0.025917600,0.013276940
1640792819488270080,0.098758850,0.251959830,9.306367870,-0.022599100,-0.049218540,-0.001265110
1640792819490309888,-0.358735500,0.055551030,10.380163190,-0.025893750,-0.038495650,0.024232270
1640792819493270016,-0.190954630,0.121423620,9.330871580,0.010125340,0.062802430,-0.001592930
1640792819495020032,-0.145222080,0.134377090,10.223278050,0.041629370,0.005017220,-0.012630220
1640792819497829888,-0.348620590,0.428794830,10.634963040,-0.008928780,0.053603950,0.018234550
1640792819498939904,0.118349690,0.450175520,9.366841320,-0.042817000,0.003483890,-0.002799930
1640792819502899968,-0.143668190,0.264469330,10.333843230,-0.008718670,-0.035440930,-0.010247530
1640792819504299776,-0.107623330,0.487618240,9.406884190,0.004243850,0.043149300,0.000220540
1640792819507920128,0.047813570,0.247245420,9.582686420,0.025832650,-0.011485820,-0.003653760
1640792819508969984,-0.226425750,0.191132890,10.187509540,-0.005598370,0.021655860,0.007365650
1640792819512919808,0.138145090,0.287275310,9.235215190,-0.054971870,0.040459630,0.021713970
1640792819515749888,-0.042586380,-0.205705180,10.386454580,-0.020623210,0.021265450,0.013557080
1640792819517880064,-0.165722700,-0.134164560,10.217022900,0.038369010,0.017282370,-0.007210670
1640792819519059968,-0.011767620,0.145370590,9.674687390,0.049562760,-0.047679240,0.004018840
1640792819523219712,-0.269195590,-0.053984750,9.931763650,0.000813600,0.022187830,0.004196170
1640792819524039936,-0.087797480,0.138985780,9.482522960,-0.024557120,0.058171160,-0.010478500
1640792819528029952,-0.282569410,0.290197190,10.387435910,0.014887750,0.023506580,-0.007158520
1640792819529159936,-0.379055470,0.380815710,10.045020100,0.022715330,-0.026698410,-0.021535160
1640792819532860160,-0.088281540,0.772096810,9.478777890,0.008308890,-0.070345410,-0.018087030
1640792819533979904,-0.162089110,0.903617980,9.794628140,-0.042985380,0.050380830,0.007732210
1640792819540259840,0.021365270,0.593324120,9.855786320,-0.070998080,0.074233100,0.025525690
1640792819540920064,0.003667810,0.416293080,10.708777430,0.013458730,0.025601690,0.036373740
1640792819542870016,-0.064685800,0.173286010,10.149140360,0.039669880,-0.033751130,0.025515260
1640792819543959808,0.166725490,-0.040305890,9.388925550,-0.005218390,-0.067368140,0.023795660
1640792819547819776,-0.084478180,-0.030009400,9.484805110,-0.054886950,0.057619820,-0.011067100
1640792819548950016,-0.008703240,-0.201461000,9.319443700,-0.065605350,0.055958330,-0.030556320
1640792819552979968,-0.130074230,-0.104777310,10.257391930,0.003951790,0.024269520,-0.013151770
1640792819553949952,-0.312485640,0.072792020,10.015981670,0.043775140,0.021564960,-0.026173890
1640792819558339840,-0.344562890,0.243245560,9.939943310,0.000160930,-0.094631320,-0.005780160
1640792819559619840,-0.491326480,0.490940840,9.935690880,-0.049351160,-0.015415250,0.013858080
1640792819563010048,-0.192645480,0.250653560,9.264282230,-0.038650630,0.042740990,-0.013956430
1640792819564879872,0.020716330,0.266710520,10.296869280,0.029590730,0.037482380,0.022403900
1640792819567869952,0.025790050,0.413337410,10.107595440,0.061982880,0.096239170,0.022269790
1640792819568979968,0.220890460,0.087377320,9.884156230,0.018629440,-0.055135800,0.018958750
1640792819573279744,-0.085065160,0.139663320,10.193790440,-0.017327070,-0.060178350,0.019420680
1640792819574789888,-0.119708170,-0.018870210,8.966181760,-0.022451580,0.000736120,-0.009205940
1640792819577819904,-0.274433280,-0.129322260,9.959496500,0.027261670,-0.033274300,-0.013478100
1640792819579000064,-0.438068240,0.514776110,10.161360740,0.032430900,0.062601280,-0.022475430
1640792819582840064,-0.079394440,0.528300170,9.701159480,-0.030115240,0.006257000,-0.012256200
1640792819583940096,-0.255091880,0.414124700,10.822850230,-0.030988450,-0.004845860,0.021168590
1640792819588249856,-0.241222280,0.489566000,9.747703550,0.018440190,0.009955470,0.001563130
1640792819589390080,-0.087893140,0.207956090,9.740745540,0.043006250,-0.108113880,0.014597180
1640792819592919808,-0.085469950,0.291741760,9.510842320,0.008076430,0.017209350,0.025925040
1640792819593989888,0.371789600,0.146960060,8.742989540,-0.034001470,0.077681250,-0.003130730
1640792819597820160,0.226052240,-0.115776080,10.455351830,-0.035884980,0.059494390,0.017179550
1640792819598909952,0.009528870,-0.126082540,10.330700870,0.034351650,0.049263250,-0.002580880
1640792819602850048,-0.048824600,-0.258813350,9.995892520,0.080811960,-0.141698140,-0.023029740
1640792819604179968,-0.427533510,-0.010478390,9.781983380,0.025880340,-0.080378360,-0.000920890
1640792819607950080,-0.187844770,0.128480750,8.618208890,-0.018019970,0.068934270,-0.017468630
1640792819609009920,-0.242006450,0.135957320,10.148328780,-0.003115830,0.080920760,-0.008778270
1640792819612910080,-0.299659790,0.481984200,10.467499730,0.050781670,0.077414520,-0.003409390
1640792819614099968,-0.013898580,0.477504910,9.816447260,0.085511800,-0.088328120,-0.007362660
1640792819618010112,-0.219323250,0.605164290,9.930684090,0.025217240,-0.094476340,-0.003363190
1640792819618969856,-0.053243910,0.723396780,9.001552580,-0.048282750,0.035977360,0.006540120
1640792819623100160,-0.057636850,0.375451060,9.954442020,-0.034704810,0.049994890,0.005577510
1640792819624419840,-0.102224600,0.380613740,10.575227740,0.015580660,0.039112570,0.006553530
1640792819627889920,0.184310510,0.293850090,9.896038060,0.048120320,-0.016091770,0.011202690
1640792819628979968,0.053020540,0.098831770,9.993654250,0.013709070,-0.024312740,0.011122230
1640792819632949760,-0.017834830,0.075874080,9.536458970,-0.041829050,0.005155800,-0.017647440
1640792819633980160,-0.104770230,0.017259490,9.511531830,-0.037376580,-0.002133850,-0.005184120
1640792819638690048,-0.231698020,-0.062351650,9.754483220,0.010392070,0.026848910,-0.014317040
1640792819639940096,-0.175636250,0.115124580,9.777067180,0.040638440,0.003072620,-0.026470420
1640792819643269888,-0.274504070,0.444136470,9.813279150,-0.000286100,0.009715560,-0.000803170
1640792819643990016,-0.226257740,0.330424580,9.952227590,-0.036197900,0.002866980,0.001569090
1640792819647859712,-0.175806720,0.309266660,10.119305610,-0.014047330,0.001218920,0.013083220
1640792819649009920,-0.006173030,0.359864210,9.710119250,0.028766690,0.001737480,0.016003850
1640792819652809984,0.057345890,-0.048545860,9.849575040,0.056274240,0.010856990,0.005137920
1640792819654249984,-0.046461580,0.132601310,9.733351710,0.032542650,0.043067340,-0.002500410
1640792819657949952,-0.091798430,0.072160770,9.727795600,-0.015680490,-0.019885600,-0.011776390
1640792819658989824,-0.244690150,-0.074339680,9.988810540,-0.016169250,-0.027540330,-0.013500450
1640792819662929920,-0.225117360,0.393090670,9.440568920,-0.005643070,-0.007268790,-0.031571090
1640792819664140032,-0.196775290,0.426854940,10.045806880,0.010365250,0.005361440,-0.015747550
1640792819667909888,-0.340879650,0.595652940,10.388532640,-0.005400180,0.067935880,0.003582240
1640792819669400064,-0.187546550,0.666567500,10.144080160,-0.012612340,-0.009739400,0.001685320
1640792819673009920,-0.265958490,0.427499890,10.418500900,-0.014881790,-0.077666340,0.023289030
1640792819674129920,-0.072360840,0.514315430,9.002410890,-0.030370060,-0.016009800,0.015819070
1640792819677959936,0.205293430,0.284424900,9.170759200,-0.029763580,0.005719070,-0.012350080
1640792819679719936,0.047336660,0.176299960,10.087352750,-0.042907890,0.095741460,0.011476880
1640792819682899968,0.242474470,0.099586700,9.787901880,-0.023286050,0.033411380,0.014998020
1640792819683919872,-0.099101330,-0.317985180,10.894039150,0.018124280,-0.072868180,0.002998110
1640792819688230144,-0.214871670,-0.058338090,9.684705730,-0.008666520,-0.046947600,0.007693470
1640792819689280000,-0.079202210,-0.088211860,9.190368650,-0.026410820,-0.027839840,-0.020624690
1640792819692829952,-0.288213280,-0.073600580,10.044735910,-0.025843090,0.084970890,-0.026963650
1640792819693929984,-0.001062610,0.319691180,9.478503230,0.000825520,0.088603820,-0.007650260
1640792819697809920,-0.178287520,0.160294610,10.612594600,0.055623070,-0.022012000,0.005066400
1640792819698989824,-0.332304890,0.345085410,9.952693940,0.031073390,-0.047288840,0.014412400
1640792819702899968,-0.209019570,0.579498110,9.293258670,-0.020347540,-0.080029670,0.022172930
1640792819704130048,-0.415190640,0.252814230,10.076877590,-0.039024650,0.032730400,0.017993150
1640792819708580096,-0.087581020,0.319581420,9.669904710,-0.009889900,0.071147080,-0.000704820
1640792819709250048,0.076965600,0.376153410,10.532641410,0.055085120,0.019621850,0.008681420
1640792819713420032,0.084319300,0.175733150,10.267080310,0.036567450,0.026072560,0.009638070
1640792819714089984,0.168397230,0.297670010,9.587928770,-0.013357400,-0.060966610,-0.006482010
1640792819718329856,-0.204049010,0.086664430,9.934709550,-0.028097630,-0.033183400,-0.000482800
1640792819719319808,-0.151006880,-0.204290210,9.144306180,-0.004062060,-0.005057450,-0.009953970
1640792819722990080,-0.166333760,0.000980340,9.722323420,0.067834560,-0.004862250,-0.016391280
1640792819724069888,-0.198060570,0.118691850,9.898476600,0.039726500,0.087097290,-0.009010730
1640792819727789824,-0.030956360,0.109507350,10.019135480,-0.023292010,0.003378090,0.012622770
1640792819728989952,-0.284792570,0.208314300,10.706617360,0.010684130,-0.026442110,0.011393430
1640792819733219840,-0.100831990,0.062857930,9.499081610,0.036852060,-0.059787930,-0.000345710
1640792819734339840,-0.010101990,0.112380380,9.632735250,0.093868380,-0.047203900,0.009670850
1640792819738200064,-0.018098810,0.225882110,9.483867650,0.073876980,0.120091450,-0.018781430
1640792819742390016,0.170589070,0.179897170,9.821875570,-0.000761450,0.043945010,0.001735990
1640792819743350016,-0.076107900,0.277765270,10.774272920,0.026063620,-0.002518300,0.015744570
1640792819743959808,-0.043513990,0.237450000,9.563488010,0.049375010,-0.047001250,-0.029869380
1640792819747830016,-0.174535990,0.532124820,9.739216800,0.044298180,-0.098016870,-0.003007050
1640792819749120000,-0.476981880,0.667936150,9.796555520,0.028605760,0.068637740,0.002698600
1640792819752829952,-0.221998710,0.423221230,9.754404070,-0.006285310,0.027418140,-0.005804000
1640792819753969920,-0.381601870,0.601643200,11.038655280,0.010570880,-0.004512070,0.031486160
1640792819757969920,-0.069152320,0.443059680,9.674358370,0.027535860,0.032538180,0.011828540
1640792819760239872,0.194031220,0.259093670,9.697881700,0.023573640,-0.074684620,0.002302230
1640792819762859776,-0.014809780,0.611043870,9.850372310,-0.009654460,0.054070360,0.006729370
1640792819764480000,0.323277440,0.062295550,8.949336050,-0.035166740,0.047245620,0.011333820
1640792819767899904,0.019102490,-0.147188430,10.573262210,0.019410250,-0.035275520,0.025421380
1640792819768979968,-0.005690240,0.226609860,9.619114880,0.045062600,0.050689290,0.008913880
1640792819773039872,0.159808380,-0.012616140,9.584294320,-0.009687250,-0.032700600,0.010384620
1640792819774119936,-0.331020770,0.187371510,10.592384340,-0.025235120,0.041088460,0.006029010
1640792819777949696,-0.090802070,0.188586000,9.290210720,0.002616640,0.056347250,-0.018917020
1640792819780400128,-0.320939990,-0.060087290,10.300183300,0.064118210,-0.054256620,0.007577240
1640792819782929920,-0.559033510,0.287079450,9.780488970,0.072649130,0.044779480,-0.004632770
1640792819783939840,-0.255223750,0.221178030,9.065051080,0.006607180,-0.035828360,0.003620980
1640792819787840000,-0.526227410,0.130737010,10.425689700,-0.017330050,-0.016117100,0.021792950
1640792819789819904,-0.065161900,0.276494470,9.392157550,0.021639470,0.070984670,-0.006197390
1640792819793629952,0.209912050,0.260647450,10.350477220,0.057128070,-0.007745620,0.007085500
1640792819794210048,0.032047430,0.441019650,10.761721610,0.051197420,0.058725480,0.020264090
1640792819798319872,0.324735310,0.334685470,9.680828090,0.021447240,-0.002805890,-0.006040930
1640792819799199744,-0.067677180,0.265120150,10.380952840,0.001206990,-0.071804230,0.018084050
1640792819802909952,-0.257105710,0.416223880,9.365444180,0.019517540,0.006963310,0.001004340
1640792819804029952,-0.095820200,0.418672470,9.045439720,0.017963350,-0.028868030,-0.014153120
1640792819807849984,-0.347493650,0.554684940,10.003556250,-0.013600290,0.055092580,0.018900630
1640792819808960000,-0.122277640,0.417338640,9.804208760,-0.013199450,0.095957530,0.021736330
1640792819815130112,-0.242581890,0.162518470,10.901557920,0.029222670,-0.038464370,0.024092200
1640792819816039936,-0.303763330,0.178289150,10.387228970,0.043772160,-0.055697560,0.017625100
1640792819817890048,0.042115580,-0.051100090,9.152321820,0.027035180,-0.043962900,-0.002710520
1640792819818990080,0.053326320,-0.157367720,9.467153550,0.009016690,0.053925820,-0.012120610
1640792819822949888,0.086856990,-0.107060500,9.538305280,0.025224690,0.113779330,-0.008398290
1640792819824019968,0.052148680,-0.080262740,10.085187910,0.051356840,0.000888110,0.004316870
1640792819827839744,-0.181143850,0.045176360,10.248294830,0.062718990,-0.074428320,0.009711090
1640792819829120000,-0.179333360,0.160284210,9.562444690,0.045155000,-0.053292520,0.001612310
1640792819832819968,-0.293706270,0.293067040,9.877046590,0.029790400,0.030370050,0.000660120
1640792819833959936,-0.303109710,0.332332670,10.342985150,0.043928620,0.070266430,-0.011092420
1640792819838199808,-0.133600460,0.487004580,10.254865650,0.059933970,0.033129750,0.000299510
1640792819839609856,-0.137435870,0.571259380,9.998531340,0.064790250,-0.047051900,-0.005154310
1640792819843319808,-0.189664390,0.557811680,9.602663990,0.021311640,-0.047458710,-0.019463900
1640792819844849920,-0.167734070,0.676233110,9.155276300,-0.028435890,-0.006441770,0.004075470
1640792819848069888,-0.226665900,0.256823360,9.988262180,0.011225050,0.004327300,0.008331240
1640792819849649920,-0.078657830,0.143527900,10.193724630,0.053484740,0.048451130,0.009396670
1640792819852800000,0.205581560,0.299449410,9.890396120,0.050914280,0.017102060,0.022405380
1640792819853989888,0.149349570,-0.016207900,10.476857190,0.018061700,-0.002247100,0.025597220
1640792819857879808,0.170092310,0.133523490,9.519112590,-0.011505180,0.019703800,0.007508690
1640792819859259904,0.072575840,0.016686320,9.600069050,0.019003450,-0.050216910,0.000627340
1640792819862850048,-0.292524840,-0.185227480,9.853410720,0.073580440,0.022162500,-0.000877680
1640792819863999744,-0.202916650,0.264300260,9.016126630,0.065045070,0.010100010,-0.032314660
1640792819867780096,-0.430932370,0.265106080,10.141139980,0.020897390,-0.001661480,-0.013646480
1640792819869009920,-0.413173350,0.338583500,9.897205350,-0.019370020,0.065620250,-0.004088880
1640792819872999936,-0.191366110,0.454432190,9.976132390,0.033062700,-0.042651590,-0.028216840
1640792819874019840,-0.220806720,0.348088000,10.447300910,0.067369640,-0.011950730,0.002826750
1640792819878269952,0.139541890,0.354952220,9.140522960,0.052626430,0.051231690,0.011171400
1640792819879279872,0.010672300,0.161719500,10.205982210,0.048826650,0.006818770,-0.004389880
1640792819882860032,-0.126245690,0.223856240,10.040760040,0.007350740,0.025430320,0.016881530
1640792819883929856,0.051758140,0.316762890,9.269089700,0.009760260,-0.070190430,-0.002321600
1640792819887899904,-0.159774260,0.362615880,10.051061630,0.017730890,-0.028851630,-0.028283890
1640792819888979968,0.035989230,0.714742000,9.178268430,-0.019316380,0.085106490,-0.011271240
1640792819895139840,-0.048433690,0.622980480,10.366519930,0.006668270,0.037951770,-0.010754170
1640792819896100096,-0.344334360,0.545848130,10.868169780,-0.000001490,0.032317640,-0.006094570
1640792819898099968,-0.098621240,0.643946350,9.364091870,-0.013022130,-0.081327570,0.009925660
1640792819899079936,-0.292255580,0.208107050,9.705327030,-0.007358190,-0.048638880,-0.003902610
1640792819902870016,-0.156751560,0.124214390,8.791026120,-0.030460950,0.079184780,-0.030095880
1640792819905809920,-0.071857500,0.048378700,9.678829190,-0.002072750,0.032933060,0.000415740
1640792819907830016,-0.250243540,-0.331547770,10.495734210,0.025229160,0.053676960,0.004319850
1640792819912529920,0.036934570,-0.236342980,9.658061980,0.018051270,-0.048366190,-0.006727880
1640792819913070080,-0.233777240,-0.038114890,10.214817050,0.021526220,-0.068320330,0.001585480
1640792819914039808,-0.159906070,-0.109083270,9.272911070,-0.013910230,0.028070810,-0.030377510
1640792819917840128,-0.029475110,0.247445750,9.683418270,0.021168590,-0.013495980,-0.037786370
1640792819919360000,-0.229782820,0.409616770,10.086293220,0.054530790,0.078919540,-0.025023520
1640792819922950144,0.009254970,0.295424280,9.661052700,0.042179230,-0.004298990,-0.013691190
1640792819924219904,-0.317113610,0.612665120,10.402471540,0.053924320,-0.059457120,-0.001002850
1640792819927919872,-0.349703610,0.521698470,9.341029170,-0.008514520,-0.039613250,-0.007922950
1640792819928979968,-0.198262560,0.310544040,9.579709050,-0.008848310,-0.062763690,0.014388560
1640792819932819968,-0.308562220,0.346633110,10.050171850,0.043988240,0.075460990,-0.000354650
1640792819933959936,0.133340150,0.177588810,9.745313640,0.031903390,0.030133130,-0.000880660
1640792819937909760,0.035509080,0.305867910,10.658149720,0.014433270,-0.033983590,0.027419630
1640792819938999808,0.093301010,0.216268240,9.604734420,-0.010566410,-0.000533460,-0.009205940
1640792819942979840,0.195006100,0.018053970,9.384793280,-0.017967820,-0.088296850,0.003935400
1640792819944300032,-0.277645140,0.124870570,9.847247120,0.044721370,0.015777350,0.000801680
1640792819947939840,-0.063355660,-0.033705690,9.000800130,0.061939660,0.005748870,-0.026816130
1640792819949080064,-0.171006560,0.244909120,9.995003700,0.013472140,-0.038453940,0.006359820
1640792819952849920,-0.213104160,0.322242320,9.685759540,-0.014568870,0.080411140,0.005359950
1640792819954259968,0.037661150,-0.064351450,9.931895260,0.002016130,-0.036515290,-0.014063710
1640792819957870080,-0.378520640,0.305277940,10.682165150,0.068095330,-0.041678550,0.000281630
1640792819959970048,-0.042912040,0.121881130,8.978828430,0.075580180,-0.011846420,-0.020852690
1640792819962779904,-0.032183390,-0.036914460,9.611493110,0.038158890,-0.033850970,-0.003719330
1640792819963949824,-0.261907520,0.281562630,9.692811970,0.016628210,0.101003050,0.007060170
1640792819967820032,0.034808040,-0.099506670,9.572003360,0.022803240,-0.024613740,-0.000014900
1640792819969260032,-0.350671110,0.258517830,10.580144880,0.065551700,-0.086757550,0.001353030
1640792819972909824,-0.077138380,0.618617120,9.126791000,0.045311450,-0.009696190,-0.022329390
1640792819974249728,-0.006103470,0.404983280,9.814858440,-0.000020860,-0.008460880,0.001044570
1640792819977849856,-0.303014930,0.652120230,10.640982630,0.006258490,0.068287550,-0.002510850
1640792819979019776,0.078135670,0.580628690,9.746651650,0.031009320,-0.022794310,-0.017231710
1640792819982829824,-0.056076420,0.447442650,10.016019820,0.031733510,-0.088104610,0.004301970
1640792819984249856,-0.019873290,0.582587000,9.035844800,0.010059770,0.027982890,-0.029194360
1640792819988250112,0.088625180,0.211627450,9.257489200,-0.027450920,0.016558170,-0.021024050
1640792819990850048,-0.286514130,-0.004059590,10.314115520,-0.004106760,0.011573730,0.013983250
1640792819994479872,-0.062047320,-0.083035910,9.656117440,0.036831200,-0.013533230,-0.010775030
1640792819995319808,-0.114285390,-0.140115350,9.947652820,0.015184280,-0.048971180,0.003921990
1640792819997929728,-0.181508530,0.121206210,9.753401760,-0.010329490,0.030702360,-0.009413060
1640792819999310080,0.081145120,0.112429010,9.499894140,-0.021757190,0.023971500,-0.033670670
1640792820002939904,-0.033508660,0.219508020,9.976216320,0.004899500,0.011405350,-0.011917950
1640792820004829952,-0.062633100,0.229016290,9.641637800,0.063815710,0.022308530,-0.019586090
1640792820008149760,-0.223261820,0.274101290,9.755409240,0.050807010,-0.041426730,-0.014138220
1640792820009239808,-0.488306940,0.427164320,9.766738890,-0.002028050,-0.061102210,0.007781390
1640792820014809856,-0.359881670,0.308025030,9.403215410,-0.026737160,-0.002110000,-0.003458560
1640792820016169984,-0.231075420,0.327078850,9.871315960,-0.003343820,0.024735930,-0.004461410
1640792820017829888,-0.104832510,0.419099960,10.392649650,0.041693450,0.034238390,0.012928250
1640792820019019776,0.087418940,0.332683980,10.112702370,0.035153330,0.023464860,-0.000062580
1640792820023079936,0.011151740,0.302889470,10.145033840,0.004562740,-0.066988170,-0.000724200
1640792820025709824,-0.101234560,0.234199080,9.692046170,-0.018297140,-0.041224060,0.010944900
1640792820027859968,-0.124338250,0.134712110,9.044760700,-0.018380580,-0.036603220,-0.006285310
1640792820031759872,-0.207759770,0.170318290,9.626767160,0.023065510,-0.035929680,-0.005333130
1640792820032929792,-0.054712160,0.393300440,9.490074160,-0.005310770,0.073418010,0.000344220
1640792820034159872,0.076684420,0.280460000,10.073587420,-0.032024090,0.019323820,0.009821360
1640792820038109952,-0.193272580,0.174743100,10.916735650,0.003336370,-0.018708410,0.021557510
1640792820039219968,-0.086567960,0.202805500,9.553822520,0.013785060,-0.072519490,-0.003430250
1640792820043209984,-0.102293410,-0.046370990,9.385859490,0.039064890,-0.094689430,-0.012639170
1640792820044780032,-0.198189140,-0.060030860,9.098879810,0.027206540,0.072145470,-0.028239190
1640792820048209920,-0.012151460,0.072204750,9.162649150,0.004966560,0.055632000,-0.029005120
1640792820049569792,-0.268966700,-0.107479110,10.776792530,0.017268960,-0.026160480,0.008310380
1640792820052879872,-0.106853460,0.074172140,9.690207480,0.026977060,-0.039955980,-0.013861060
1640792820054119936,-0.081867020,0.188844350,9.831315990,0.045670560,-0.110368420,-0.014165040
1640792820058049792,-0.333088160,0.169431540,10.111166950,0.044655800,0.018669670,0.003670160
1640792820058990080,0.063079760,0.379399420,9.189717290,0.024890900,0.028191500,-0.027108190
1640792820062889728,-0.051290040,0.437809880,10.591925620,0.033846490,-0.017414990,-0.002226230
1640792820064009984,0.032036490,0.540524900,9.785799030,0.003427270,0.027672950,0.001831350
1640792820069280000,0.150818690,0.616717460,9.431312560,0.001278520,-0.079679490,-0.030997400
1640792820071360000,-0.361578910,0.479734870,10.343720440,0.002396110,-0.037285690,-0.008153920
1640792820072890112,-0.127539040,0.325609590,8.918379780,0.009696190,0.015874210,-0.000895560
1640792820073999872,-0.235102090,0.153995620,10.110785480,0.035707660,-0.056494780,-0.002539160
1640792820078699776,-0.182950420,0.192458090,9.919571880,-0.004284080,0.056488820,0.025273860
1640792820081949952,0.333992960,0.128844800,9.263251300,-0.028572980,0.021991140,0.002962350
1640792820082939904,-0.084681320,-0.032067280,10.914297100,-0.003620980,-0.006482010,-0.011833010
1640792820083989760,0.045014560,0.119692010,9.342464450,0.012700260,0.011286140,-0.011667610
1640792820087849728,-0.040996300,-0.100892600,9.456595420,0.066159670,-0.110183670,-0.021830200
1640792820088979968,-0.435716090,-0.051476440,9.611707690,0.047998130,0.005361440,-0.026354200
1640792820092829952,-0.112897760,0.228834900,8.671216960,-0.013495980,0.029554960,-0.016738470
1640792820094009856,-0.429874180,0.156748250,10.681950570,-0.007312000,0.003451110,-0.006902220
1640792820097859840,-0.238294530,0.381800800,10.133704190,0.010354820,0.018781420,-0.014731290
1640792820099139840,0.073704960,0.617959680,9.858358380,0.040708490,-0.083068030,-0.003241000
1640792820103040000,-0.244835350,0.311653520,10.281342510,0.050158800,0.015406310,0.014440720
1640792820104059904,-0.023581850,0.328571110,9.164825440,0.017990170,0.004778800,-0.007323920
1640792820108059904,-0.329027920,0.294569760,10.108780860,0.021640960,-0.077743830,0.013345480
1640792820109159936,-0.250367670,0.171935680,9.329872130,-0.004592540,-0.033897160,-0.019086900
1640792820115749888,0.071562250,0.459743020,9.189951900,-0.023044650,-0.045405330,-0.030390920
1640792820116600064,-0.155444200,0.479085830,10.227087020,-0.023633240,0.034287580,-0.005635620
1640792820118109952,0.094828460,0.193789470,9.943553920,-0.008346140,0.017945470,-0.007131700
1640792820119529984,-0.082327490,0.306900560,10.554037090,0.046083330,-0.074182450,0.010567900
1640792820123119872,-0.168398470,0.189081240,9.826072690,0.019870700,-0.071257360,0.009489060
1640792820124709888,0.135198830,0.013119280,8.945731160,-0.025370720,-0.062504420,0.013396150
1640792820128219904,-0.081637250,0.117563950,9.524261470,-0.014275320,0.055430830,-0.000490250
1640792820130159872,0.041257480,-0.144125070,9.552330970,0.004425650,0.053779780,-0.005416570
1640792820133070080,-0.147814530,-0.092461720,10.388621330,0.066059830,-0.048711900,0.010539590
1640792820135709952,-0.374974670,0.112889190,9.909007070,0.050637130,-0.081211330,-0.017684700
1640792820137809920,-0.147285980,0.183170270,9.349031450,-0.028502940,-0.096133350,-0.005812940
1640792820138969856,-0.380918920,0.431730420,9.884802820,-0.038003930,0.032645460,-0.006870930
1640792820142809856,-0.092974410,0.260219540,9.792476650,0.012151900,0.045722730,-0.034122170
1640792820144049920,0.068516640,0.403572980,10.440685270,0.074270370,-0.011326370,-0.002455710
1640792820147960064,-0.052894580,0.597584370,10.056825640,0.067587200,-0.015810130,-0.003704430
1640792820149119744,0.132465990,0.334127010,9.483575820,-0.013504920,-0.107830770,0.001342590
1640792820153319936,-0.205187130,0.509313880,9.686333660,-0.054287910,-0.040417910,0.014530120
1640792820155389952,-0.074427030,0.230476440,9.249821660,-0.021995610,0.018911070,-0.004278120
1640792820157840128,0.011298460,0.072654930,10.151327130,0.029937920,0.000327830,-0.001227860
1640792820159040000,-0.043091120,0.406859990,10.159464840,0.046189130,0.042967500,-0.002333520
1640792820163369984,0.168479530,0.144236980,9.952871320,-0.018602610,-0.035141410,-0.008632240
1640792820164599808,-0.073145200,0.266082940,10.167628290,-0.065827370,-0.049979980,0.001128020
1640792820167980032,-0.051780840,0.192887800,9.255206110,-0.022017960,-0.004333260,-0.014889240
1640792820169560064,-0.125062330,-0.188674140,9.621219640,0.043450300,-0.026789310,-0.011557340
1640792820173029888,-0.353156150,0.259864420,9.549476620,0.061395760,0.013825300,-0.012813510
1640792820174459904,-0.091514120,0.200533120,9.270729060,-0.002564490,-0.002267960,-0.004044180
1640792820181069824,-0.155003990,0.078856760,10.272000310,-0.062167650,0.006446240,0.012472270
1640792820183419904,-0.045442440,0.327007890,10.044910430,-0.012303890,0.018869340,-0.018051270
1640792820184269824,0.179866660,0.060006720,10.129684450,0.051912670,-0.037167970,-0.011885170
1640792820184689920,0.018731090,0.203100130,10.006616590,0.076115120,0.017753240,-0.011004510
1640792820187929856,0.076215800,0.444841950,9.406024930,0.017307700,0.010991100,-0.025455650
1640792820189039872,-0.185199560,0.287208910,10.002183910,-0.062829260,-0.032357880,0.015921890
1640792820192829952,-0.344023050,0.373787340,9.580484390,-0.023140010,-0.040188440,-0.006262960
1640792820194209792,-0.192288490,0.475894720,9.531309130,0.021176040,-0.044456130,-0.021946430
1640792820197829888,-0.291208570,0.555297140,10.113466260,0.013393160,0.056274240,0.012989340
1640792820198969856,-0.254386750,0.572223420,10.406254770,0.006783010,0.050917280,0.005120040
1640792820202769920,-0.190745260,0.481119600,10.654045100,-0.046433510,-0.046055020,0.012144450
1640792820203990016,-0.033615810,0.443515030,9.667304040,-0.056457520,-0.067858410,0.027132030
1640792820207869952,0.161924720,0.276172160,9.170894620,-0.021052360,-0.010171530,-0.014352800
1640792820208989952,0.120756490,0.316794010,9.394330980,-0.023508070,0.059190390,-0.016498570
1640792820215350016,-0.020721840,0.274557800,9.933106420,-0.025418400,0.027439000,0.006669760
1640792820216019968,-0.086898140,-0.052037790,10.170907020,-0.044937440,-0.024387250,0.005730990
1640792820217779968,-0.165940480,-0.017279870,9.967738150,-0.042195620,-0.060261790,0.019007920
1640792820218939904,-0.280450520,-0.024154330,9.827316280,-0.005845730,-0.017067800,0.014193360
1640792820222929920,-0.165083500,0.024582180,9.624746320,-0.021156670,0.040428340,-0.020097200
1640792820224249856,-0.097813980,0.338493530,9.967067720,-0.022429230,0.017680230,-0.010922550
1640792820227869952,-0.061077890,0.317547230,9.906885150,-0.034073000,0.039477660,0.006525220
1640792820237069824,-0.075118350,0.212636990,9.749049190,-0.020849710,-0.038084390,-0.005555150
1640792820239419904,-0.373904260,0.328123180,9.980745320,0.009492040,-0.072702770,0.013971330
1640792820239909888,-0.283704880,0.215906740,9.371973990,-0.012938680,-0.026513640,0.000005960
1640792820240320000,-0.182942880,0.193618570,9.862403870,-0.018055740,-0.003823640,-0.006613140
1640792820240759808,-0.125379730,0.473594610,10.309240340,-0.032576920,0.075964640,0.016322730
1640792820242899968,0.255593750,0.410315480,10.031412120,-0.056566300,0.027538840,0.013820830
1640792820244060160,0.030400150,0.389104660,10.634719850,-0.027798120,-0.040417910,0.006204840
1640792820247959808,-0.080750900,0.549303290,9.531085010,-0.023484230,-0.036893780,-0.009715560
1640792820248979712,-0.205533880,0.238257080,9.286671640,-0.020860140,-0.092156240,0.001810490
1640792820252800000,-0.510453220,0.103337380,9.678021430,-0.019013880,-0.017762180,0.001497570
1640792820253959936,-0.047839170,0.117676990,8.973266600,-0.051301720,0.059540580,0.000201170
1640792820257849856,-0.110283310,-0.153650730,10.672770500,-0.039289880,0.038932270,0.034037230
1640792820258980096,-0.118040230,-0.045189160,10.670326230,-0.010813770,0.041675560,0.018548970
1640792820263180032,0.189758390,-0.017084400,9.895143510,0.002101060,-0.106298940,0.000090900
1640792820264199936,-0.191535500,-0.081916750,10.068090440,0.004456940,-0.074465580,0.022666160
1640792820267789824,0.031888190,0.028724240,8.488777160,-0.000305470,0.040404500,-0.015901030
1640792820268979968,-0.098742250,0.036285090,9.670549390,0.016494100,-0.003179910,-0.006605690
1640792820272909824,-0.400328900,0.248931600,10.280420300,0.012944640,0.049605970,0.017729400
1640792820274439936,-0.064077330,0.325148250,9.728413580,0.011254850,-0.053940720,-0.003613530
1640792820278009856,-0.416947420,0.417106180,10.785919190,0.007121260,-0.098422180,0.014735760
1640792820279249920,-0.159246650,0.545109690,9.331956860,-0.016216930,0.033979110,0.025542080
1640792820283000064,-0.023228640,0.265625920,9.958185200,0.015963610,-0.007039310,-0.004668530
1640792820284289792,-0.305583980,0.406904160,10.617974280,0.028741360,0.027409200,0.009301310
1640792820287840000,0.232766610,0.495938390,9.013649940,-0.003091990,-0.022843480,0.006735330
1640792820289959936,-0.035335970,0.223898770,10.191043850,-0.014005600,-0.076633700,-0.010189410
1640792820293309952,0.007669710,0.562562410,9.331377030,-0.051540140,0.028707090,-0.007961690
1640792820294029824,0.119815600,0.291779990,9.597875600,-0.030787290,-0.008818510,0.009968880
1640792820297829888,-0.385738020,0.027767570,10.780419350,0.015757980,0.003409390,0.027036670
1640792820299069952,-0.016459150,0.324992660,9.461842540,0.009471180,-0.014622510,0.018945340
1640792820302799872,-0.096778610,0.111490820,10.093343730,-0.019159910,-0.053125630,0.028586390
1640792820304000000,-0.036572430,0.120288300,9.518539430,-0.055119400,0.054633620,0.005558130
1640792820307829760,0.251249160,0.256015360,9.333660130,-0.036974240,0.029973680,-0.018952780
1640792820309169920,-0.168115720,-0.059346460,10.430614470,0.024993720,0.026777390,-0.000415740
1640792820315079936,-0.086110160,-0.003400270,9.571356770,0.049325830,-0.034397840,-0.013479590
1640792820315859968,-0.278301950,0.124274460,9.850077630,0.018483400,-0.074049830,-0.004845860
1640792820317779968,-0.446944860,0.056568580,9.606459620,-0.050929190,0.014896690,0.004482270
1640792820319099904,-0.123493910,0.190415500,9.767309190,-0.034405290,0.026573240,-0.012221930
1640792820322929920,-0.189663500,0.355568110,10.613144870,0.031630700,0.052015480,-0.004740060
1640792820327280128,0.099589780,0.437019500,10.001373290,0.041009480,0.014792380,0.007885690
1640792820328150016,0.084974950,0.537346360,10.123061180,0.018422310,-0.026026370,0.012986360
1640792820329019904,-0.250369340,0.400933530,9.828404430,-0.027541820,-0.027744470,0.009630620
1640792820332859904,-0.197789850,0.220290780,9.459516530,-0.025761130,-0.072437530,0.010469550
1640792820334679808,-0.375609190,0.269797350,9.705805780,0.020380320,-0.008073450,0.003278260
1640792820337889792,-0.100129670,0.152880130,9.470045090,0.011475390,0.028732420,-0.013205410
1640792820339079936,0.071991410,0.269247710,10.242307660,-0.017796460,0.065381830,0.009119510
1640792820343099904,0.013464690,0.192855060,10.404090880,-0.017732380,0.034780800,-0.015112760
1640792820344019968,0.162551180,0.067175810,10.071207050,-0.006905200,-0.090368080,-0.005887450
1640792820348189952,-0.002134090,0.205249760,9.496299740,0.026409330,-0.041013960,0.006976720
1640792820349089792,-0.032746110,-0.130680110,8.909748080,0.029918550,0.009110570,-0.021117930
1640792820352829952,-0.237796780,-0.054846090,9.868886950,0.010766090,0.026749070,-0.002118950
1640792820354129920,-0.379584670,0.143603350,9.913238530,0.019115210,0.046129530,0.001026690
1640792820358379776,-0.287628200,-0.015609200,10.194179530,0.016967950,-0.077629090,-0.011062620
1640792820359840000,-0.305763450,0.523918930,10.123266220,0.002390150,-0.045444080,0.006625060
1640792820363079936,-0.042090090,0.435770210,9.356255530,0.000774860,0.029350820,0.003480910
1640792820364359936,0.006354790,0.258002220,10.414055820,0.022114820,0.032050910,0.001429020
1640792820367800064,-0.054246260,0.704829450,10.157567020,0.033341340,0.050753360,-0.012801590
1640792820369040128,0.000503420,0.383857730,9.743642810,0.013124940,-0.098818550,-0.002421440
1640792820372910080,-0.142331540,0.529203000,9.599672320,-0.036545100,-0.075484820,-0.005395710
1640792820374240000,-0.059026640,0.641779300,8.757279400,-0.052835050,0.020526350,-0.009772180
1640792820377879808,-0.117186020,0.004878130,10.122373580,-0.022505220,0.032408540,0.019671020
1640792820379139840,-0.321781900,0.123861120,10.518204690,0.044997040,0.065913800,0.014376640
1640792820386579968,-0.064237010,0.020854590,10.091554640,0.043559070,-0.093008570,0.016312300
1640792820387099904,-0.042962000,-0.098488520,10.008838650,-0.035040080,-0.052934890,0.025504830
1640792820387859712,0.125716850,0.096759520,8.852572440,-0.056146090,0.055862960,-0.019356610
1640792820389109760,0.081938940,-0.107873520,9.730765340,-0.003862380,0.019527970,-0.017163160
1640792820393240064,-0.133280340,0.057323260,9.971970560,0.062657880,0.046336650,0.003167990
1640792820394009856,-0.149019460,0.181112470,9.630723000,0.086580220,-0.060406330,-0.017556550
1640792820397979904,-0.335641800,0.233674930,10.047275540,0.005936620,-0.082218660,0.022175910
1640792820398999808,-0.338807340,0.441733930,9.296135900,-0.052721800,0.021886830,0.015637280
1640792820402789888,-0.198311870,0.269092200,10.004915240,-0.005632640,0.018101930,-0.002218780
1640792820404039936,-0.167950790,0.412008760,10.367760660,0.049288580,0.055453190,0.003911560
1640792820409590016,0.094444800,0.471646730,9.820179940,0.077457730,-0.000458960,-0.003454090
1640792820410349824,-0.098158260,0.330379340,10.170661930,0.020688770,-0.065432490,0.004690890
1640792820412819968,-0.178241390,0.380857740,9.394361500,-0.051184010,-0.041601070,0.013376770
1640792820414929920,-0.217890870,0.123154780,9.443958280,-0.024992230,-0.043787060,0.010263920
1640792820417860096,-0.260785250,0.042607160,9.863664630,0.029851500,0.019973520,0.007285180
1640792820419040000,0.036156320,0.314554930,9.707019810,0.058873000,0.039583450,0.008995830
1640792820422969856,0.130634350,0.308012750,10.218467710,0.001463290,0.028762220,0.023859740
1640792820424109824,0.179253310,0.325776100,10.095612530,-0.048194830,0.016453860,0.010129810
1640792820427800064,0.051235770,0.291761280,9.935638430,-0.013515350,-0.058174140,0.012297930
1640792820429060096,-0.119963800,0.157435310,9.383683200,0.035353010,-0.039447840,0.002402070
1640792820432899840,-0.128882290,0.150222900,9.015518190,0.055567920,-0.010098520,-0.016705690
1640792820434029824,-0.323046240,0.293621870,9.479702000,0.009390710,0.064732130,0.001758340
1640792820437899776,-0.298311020,0.117817230,9.963062290,-0.041326880,0.036312640,0.009194020
1640792820439089920,-0.324852850,-0.007352620,10.471876140,0.009123980,-0.045704840,0.002637510
1640792820442829824,-0.157541650,0.221026730,9.676879880,0.044558940,-0.045555830,-0.010851030
1640792820444009984,0.043067440,0.162383270,9.550386430,0.040511790,-0.012719630,-0.006397070
1640792820448039936,-0.095621560,0.288016200,9.869269370,0.010932980,0.079518540,-0.003902610
1640792820449049856,0.055715240,0.330033570,9.766981120,-0.014115870,0.021460650,-0.011695920
1640792820452819712,-0.155827210,0.276915070,10.280927660,0.016009810,-0.065274540,0.009138880
1640792820454329856,-0.171574950,0.630471410,9.258329390,0.012801590,-0.059174000,-0.016212470
1640792820458779904,-0.090615010,0.711395620,9.283384320,-0.040665270,-0.035312770,-0.007280710
1640792820459239936,-0.373381080,0.612930540,10.201879500,-0.051130360,0.076104700,0.022149090
1640792820462819840,-0.161770670,0.435167280,10.017791750,-0.018201770,0.026917460,-0.008288030
1640792820464320000,-0.200816110,0.311825900,10.653589250,0.019051130,-0.073674320,0.018677120
1640792820467789824,-0.065722480,0.377603590,9.236274720,-0.009003280,-0.012697280,0.008888540
1640792820469070080,0.208738650,0.148188010,8.984867100,-0.067380070,-0.020639600,-0.019963090
1640792820472950016,-0.207488980,-0.020454250,9.997177120,-0.059449680,0.039999190,0.018735230
1640792820475539968,-0.064191770,-0.310444410,9.358428000,0.013555590,0.005166230,-0.005270540
1640792820477900032,-0.273316950,-0.371509430,10.313105580,0.063058730,-0.105433170,-0.006154180
1640792820479040000,-0.434953720,0.148843200,9.596936230,-0.007525090,-0.022982060,0.005677340
1640792820483189760,-0.023213680,0.173520830,9.189498900,-0.079612440,-0.016017260,-0.018380580
1640792820484589824,-0.291485010,0.302550760,10.520030980,-0.048394500,0.024740400,-0.007119770
1640792820487919872,0.095237430,0.576268320,9.417449950,0.025780500,0.031423570,0.001290440
1640792820489139968,0.031923970,0.301428470,10.181173320,0.076897440,-0.061889000,0.005303320
1640792820493039872,-0.411023260,0.425134030,9.968588830,0.032407040,-0.031445920,0.018300120
1640792820493999872,-0.162232980,0.314626250,9.045449260,-0.043554610,-0.103409600,0.011280180
1640792820497829888,-0.470663340,-0.011993700,9.967638970,-0.039754810,-0.058327620,0.010092560
1640792820499069952,-0.152066980,0.158594150,9.203905110,0.006268920,0.040686130,-0.008121130
1640792820502899968,0.017559650,0.141590040,10.189159390,0.045795740,0.001114610,-0.020553170
1640792820504000000,-0.126484860,0.220040650,10.502364160,0.028461220,0.001917780,-0.012877580
1640792820508019968,0.256187200,0.358447580,9.438498500,-0.011125210,-0.088837770,-0.023996830
1640792820509039872,-0.105393690,0.307308290,10.011652950,-0.031946600,-0.075039290,-0.001779200
1640792820513349888,-0.057398470,0.191221570,8.912145610,-0.008146460,-0.015455490,0.004504620
1640792820515159808,0.057772110,0.165847690,9.420633320,0.049676010,-0.019115210,-0.014100970
1640792820517849856,-0.131955250,0.115378860,9.905179020,0.048086050,0.062565510,0.010597710
1640792820519150080,0.006338110,0.001785130,9.802502630,0.015939770,-0.017839670,0.016030670
1640792820522850048,-0.233382970,0.018091850,10.382336620,0.015796720,-0.074143700,-0.004890560
1640792820525289984,-0.156422530,0.014081710,9.214673040,0.006397070,-0.055308640,-0.018289690
1640792820527879936,-0.072250690,0.037628410,9.444509510,0.050959000,-0.013831260,-0.028467180
1640792820529090048,-0.248924510,0.210829940,9.696718220,0.063420830,0.077919670,-0.053295500
1640792820532879872,-0.104204750,0.318662580,9.644851680,0.046111650,-0.019744040,-0.018933420
1640792820534349824,-0.353197930,0.409099550,10.201224330,0.047877440,-0.052028910,-0.002308190
1640792820537929984,-0.265220280,0.455333440,9.336315160,0.016589460,-0.080266600,-0.015184280
1640792820539109888,-0.140964210,0.512066190,9.679060940,0.009533760,-0.051097560,0.012522930
1640792820542799872,-0.098165940,0.457453880,9.766539570,0.038534400,0.092428930,-0.020274520
1640792820544019968,0.210876760,0.429589960,10.108293530,0.030082460,0.018946830,-0.019027290
1640792820548199936,0.102396520,0.714677270,10.441459660,0.013038520,0.006349390,0.003646310
1640792820549079808,0.123140890,0.476051810,9.389175420,-0.027266150,-0.064216550,-0.031417610
1640792820552800000,-0.070106320,0.464479030,9.402518270,-0.035995250,-0.098295510,-0.013014680
1640792820554060032,-0.377587230,0.428805020,9.165149690,-0.013984740,0.041058660,-0.004364550
1640792820558159872,-0.360291120,-0.048776810,9.759226800,0.014993550,-0.001206990,-0.011666120
1640792820559000064,-0.419817390,0.323348970,10.517833710,0.010769070,-0.007304550,0.008216500
1640792820562819840,-0.082060730,0.206126360,9.567763330,-0.036449730,-0.001658500,-0.013417010
1640792820564280064,0.052015470,0.064399670,9.933618550,-0.060461460,-0.050218410,-0.017745790
1640792820567799808,0.098809020,0.497416910,9.410276410,-0.024688250,0.052909550,-0.027619300
