# timestamp,accel_x,accel_y,accel_z,gyro_x,gyro_y,gyro_z
1640788202.124400,-0.636588510,0.024558790,10.999068260,-0.045834490,-0.066827240,-0.012227900
1640788202.126920,-0.025686760,0.283173050,8.967346190,-0.092875950,0.009880960,-0.011400880
1640788202.129210,-0.148468300,0.349130270,10.028350830,-0.074440240,-0.079117720,-0.024719540
1640788202.132030,-0.464389150,0.338667040,10.496927260,-0.027556720,0.034934290,-0.019390880
1640788202.134440,0.128730570,0.547317390,9.012076380,-0.006085640,-0.074164590,-0.030204660
1640788202.137200,-0.200097190,0.482419790,10.531195640,-0.040549040,-0.088906290,-0.026902560
1640788202.139670,0.126805840,0.442888680,9.288137440,-0.100544100,0.081935510,-0.001664460
1640788202.141970,0.142840220,0.355266840,10.144347190,-0.106281040,-0.045917930,-0.018432740
1640788202.144580,-0.339647320,0.161533850,10.848909380,-0.068379930,-0.023095310,-0.006769600
1640788202.147040,0.270565090,0.218893620,8.592027660,-0.040216740,-0.059677670,-0.019289560
1640788202.149370,-0.084431490,0.099951190,10.078948020,-0.063960250,-0.032038990,-0.016456840
1640788202.152000,-0.035388380,0.013191850,9.396289830,-0.099629170,0.106602910,-0.008863210
1640788202.154320,0.197209510,0.160188570,9.692922590,-0.099213440,-0.039483610,-0.018583240
1640788202.158520,-0.270139870,0.087979190,10.788393020,-0.078260900,0.016754870,-0.003643330
1640788202.159370,-0.090862480,0.115827930,9.267051700,-0.076788670,-0.013087690,-0.021755700
1640788202.161970,-0.367952410,0.023953310,10.244579320,-0.054331130,-0.095902380,-0.024840240
1640788202.164450,-0.477782730,-0.181764190,9.320763590,-0.032819800,0.049374990,-0.018289680
1640788202.167000,-0.197172370,-0.184291260,9.263818740,-0.016643110,-0.013858080,-0.027489660
1640788202.169440,-0.382002030,-0.061872890,10.586114880,-0.030156970,0.036613640,-0.010289250
1640788202.172050,0.069772650,0.053906490,9.303885460,-0.071764000,0.009237230,-0.001896920
1640788202.174650,0.097917800,0.179588050,10.266772270,-0.056029860,-0.064362590,-0.003661220
1640788202.186140,-0.050021870,0.303769260,9.964978220,-0.038620830,0.052365670,-0.026719280
1640788202.187950,0.036991030,0.294686470,9.667430880,-0.018814210,-0.041158500,-0.030927360
1640788202.188400,-0.352849660,0.317476660,10.443390850,0.025656820,-0.031486150,-0.024554130
1640788202.189360,-0.318064300,0.281448750,9.274008750,-0.027421120,-0.010125340,-0.023008880
1640788202.190980,-0.241237060,0.290634570,9.788590430,-0.075291090,-0.036713480,-0.004875660
1640788202.191630,-0.470787050,0.363202960,10.209599490,-0.075885660,0.065720080,-0.003521150
1640788202.192040,-0.203811560,0.376145360,9.858412740,-0.075194220,-0.025539100,-0.015856320
1640788202.194270,-0.139191730,0.532480780,10.286927220,-0.029672680,-0.073581940,-0.008849800
1640788202.197180,0.062394310,0.481407520,9.492102620,-0.059464580,0.018307570,-0.020205970
1640788202.199350,0.301592740,0.327070390,9.716733930,-0.096106540,0.026024880,-0.007787350
1640788202.202260,-0.092270110,0.224180680,10.555063250,-0.069423030,0.022459030,-0.009830300
1640788202.204360,0.059830620,-0.011012270,9.783654210,-0.077214840,-0.040175020,-0.012207030
1640788202.207030,0.062145910,-0.011818010,9.627397540,-0.040739780,-0.057303920,0.008709730
1640788202.209200,-0.237155990,0.048471200,9.701317790,-0.072607380,0.025282800,-0.014510750
1640788202.211880,0.189797430,0.107434930,9.159892080,-0.126871480,0.066961350,-0.000287590
1640788202.214420,0.007701740,0.246300150,10.212906840,-0.070656840,0.059673190,0.007265810
1640788202.216990,-0.077301090,0.245080230,10.400212290,-0.074251000,0.048482420,-0.014367700
1640788202.219370,0.089611200,0.252734390,9.678280830,-0.055071710,-0.045388940,-0.009268520
1640788202.222220,-0.428585350,-0.017328920,9.989352230,-0.033649810,-0.035586950,-0.029580300
1640788202.224260,-0.199100910,-0.167967590,9.086686130,-0.064031770,0.077489000,-0.039032110
1640788202.227400,-0.346359280,-0.291739460,9.935155870,-0.022567800,0.025336440,-0.025646390
1640788202.229240,-0.454525080,-0.301974000,10.442020420,-0.017453730,0.044576820,-0.012515490
1640788202.231930,0.134845530,-0.034260040,9.268485070,-0.040045390,0.005048510,0.003620980
1640788202.234660,-0.174621820,0.012170340,10.341337200,-0.048992040,0.010998550,0.004729630
1640788202.237340,0.014485610,0.153477860,9.823409080,-0.058196490,0.097277780,-0.014086070
1640788202.239300,0.039085120,0.261766700,10.004958150,0.018244980,-0.038234890,-0.036947430
1640788202.242450,-0.318953310,0.406064270,10.345825200,0.040553510,-0.010941920,-0.035080310
1640788202.244240,0.115778010,0.697876930,8.920555110,-0.062786030,0.049251320,-0.045727190
1640788202.246990,-0.326302590,0.611257200,10.505573270,-0.108195840,0.022701920,-0.009551650
1640788202.251010,-0.382573720,0.478551480,10.294701580,-0.088784110,0.060312450,-0.018861890
1640788202.251890,-0.065927300,0.461080760,9.609752660,-0.027394300,-0.059935450,-0.037939850
1640788202.254550,-0.292516350,0.276460410,10.270013810,0.005598370,0.016094750,0.001955030
1640788202.256920,0.132478330,0.223321880,9.280442240,-0.069086260,0.117823490,-0.002092120
1640788202.259290,0.043949310,0.037540550,10.386557580,-0.108043860,0.024694200,0.002984700
1640788202.261990,-0.054168810,0.028192280,10.190226550,-0.102260730,0.043515870,-0.002194940
1640788202.264300,0.195740000,0.093931040,9.357897760,-0.090175870,-0.011381510,-0.023791190
1640788202.266960,-0.340236540,-0.075935740,10.417098050,-0.042955590,0.018472970,-0.015576190
1640788202.269650,-0.228446750,-0.044521370,9.417808530,-0.021843610,0.037419810,-0.043505440
1640788202.271970,-0.143662070,0.071949130,9.832155230,-0.044548520,0.006879870,-0.036960840
1640788202.275340,-0.169662360,0.122407820,9.948187830,-0.077171620,0.138545020,0.008980930
1640788202.277040,0.054116550,0.158565950,9.750684740,-0.110584490,0.048930950,-0.009477140
1640788202.279350,-0.149378430,0.220978420,10.531586650,-0.063820190,-0.000125170,-0.001031160
1640788202.282450,-0.046906460,0.122935880,9.098066330,-0.014297660,0.024636090,-0.011372570
1640788202.284270,-0.224330900,-0.117630220,9.944948200,-0.011612470,-0.011529030,-0.049257270
1640788202.287300,-0.372864660,-0.159714510,9.999798770,-0.012226400,0.116634380,-0.028035040
1640788202.289290,-0.191576960,-0.151931240,9.697769170,-0.035673380,0.000405310,-0.021530690
1640788202.291950,-0.263083990,-0.019492130,10.637367250,-0.062868010,0.022687020,-0.006726390
1640788202.294250,0.056548990,0.164990380,9.240100860,-0.048835580,0.087080880,-0.002388660
1640788202.297420,-0.190655980,0.191745160,10.431208610,-0.019483270,-0.022514160,-0.028193000
1640788202.299180,-0.307933570,0.344357790,10.116808890,0.014936930,0.053849820,-0.028949980
1640788202.301970,-0.034500300,0.401279390,9.016509060,-0.009770690,-0.038628280,-0.037267800
1640788202.304360,-0.275195990,0.476090040,10.585843090,-0.043548640,0.034408280,-0.017251070
1640788202.308300,-0.047672070,0.548902090,9.469054220,-0.079129640,0.126467650,-0.012004380
1640788202.309200,-0.089969660,0.483327210,10.342402460,-0.101752590,-0.042337180,-0.019967560
1640788202.312100,-0.182442340,0.296530070,10.513793950,-0.052514670,0.060740120,0.000861290
1640788202.315610,0.128997980,-0.026155750,9.043937680,-0.001443920,0.035795570,-0.004988910
1640788202.316940,-0.256687640,-0.208707230,10.569866180,0.005294380,-0.026065110,-0.016035140
1640788202.319760,0.021765120,-0.095439380,9.070677760,-0.041589140,0.088070330,-0.016239290
1640788202.322020,0.262700110,-0.047120010,9.189812660,-0.118294370,0.037746130,-0.013934080
1640788202.324700,-0.199474770,-0.029697230,11.030497550,-0.095084310,0.137117520,-0.005537270
1640788202.326860,-0.071683210,0.060025470,9.808108330,-0.016386810,0.030048190,-0.032942000
1640788202.329550,-0.236770600,0.030733510,10.195226670,0.043785570,-0.119261450,-0.040091570
1640788202.331970,-0.344096000,-0.026064070,9.347167970,0.039201980,0.088511410,-0.024448340
1640788202.334250,-0.105652600,-0.132918090,9.065466880,-0.025872890,0.096143790,-0.035998230
1640788202.337200,-0.380228550,-0.036821510,10.791242600,-0.029006600,0.059187420,-0.008390840
1640788202.339250,0.047106100,0.057779630,9.525823590,-0.022600590,0.070023540,-0.005546210
1640788202.342070,0.255583080,0.212686600,9.798856740,-0.021961330,-0.005722050,-0.020021200
1640788202.350170,-0.208890970,0.154166460,10.470214840,0.014695520,0.075334320,-0.019434090
1640788202.350760,-0.032890520,-0.018986420,9.456157680,0.044950840,0.032404060,-0.049671530
1640788202.351180,-0.256120770,0.053559130,10.217629430,0.060847410,-0.018644330,-0.037521130
1640788202.351920,-0.440218570,0.045296680,9.951848980,0.019994380,0.067321960,-0.021359330
1640788202.354460,-0.082661700,0.248077050,9.352482800,-0.052136190,0.034955140,-0.030796240
1640788202.357070,-0.518461110,0.321267720,10.596148490,-0.044390560,0.019949680,-0.027282540
1640788202.359200,-0.144914700,0.382256570,9.754896160,0.004750490,0.054067370,-0.040134790
1640788202.362440,0.177750170,0.549169720,9.714984890,0.049689420,0.006741290,-0.039131940
1640788202.364280,-0.187762920,0.454945180,10.588162420,0.027006870,0.049766900,-0.022941830
1640788202.366970,0.260021920,0.453955770,9.353138920,-0.050923240,0.051042440,-0.017468630
1640788202.369600,0.021060810,0.292596040,10.086057660,-0.071531540,-0.009328130,-0.008477270
1640788202.372030,-0.319419620,-0.037543060,10.392016410,-0.032956900,0.063742700,-0.007705390
1640788202.374260,-0.011091480,-0.052355380,9.298321720,0.022913510,-0.003206730,-0.029520690
1640788202.377190,-0.470641340,-0.267550290,10.325077060,0.042639680,-0.049151480,-0.041200220
1640788202.379250,-0.042415190,-0.130811940,9.114090920,-0.001062450,0.119239110,-0.031538310
1640788202.381970,0.106262950,0.105566800,9.786574360,-0.052203240,0.081999600,-0.032316150
1640788202.384270,-0.311912720,0.124630820,11.088615420,-0.061684850,0.062622140,-0.019380450
1640788202.387030,0.264929890,0.320473190,9.087605480,-0.009964410,-0.026777390,-0.031235820
1640788202.389270,-0.130481540,0.097696650,9.893580440,0.053580110,-0.047408060,-0.046610840
1640788202.392020,-0.292337630,-0.058438850,9.611951830,0.057604910,0.126269430,-0.038133550
1640788202.394650,-0.110261740,-0.156308560,9.567687990,0.057956580,0.022034350,-0.039063400
1640788202.396920,-0.509624480,-0.343416900,10.723983760,0.034390400,0.014263390,-0.016285480
1640788202.399270,0.078162650,-0.029528210,8.992509840,-0.007338820,0.057628750,0.010049340
1640788202.402140,-0.086286730,0.054117170,10.310402870,-0.020527840,0.001378360,-0.024144350
1640788202.404300,-0.164003600,0.138205860,10.171437260,0.033999980,0.099559130,-0.043261050
1640788202.407920,0.123007800,0.401846830,9.361804960,0.099891420,-0.018496810,-0.067514170
1640788202.409220,-0.365967360,0.378053490,10.707274440,0.080163780,-0.013880430,-0.066190970
1640788202.412260,-0.080966440,0.501800180,9.155087470,0.018538540,0.066702070,-0.032249090
1640788202.414780,-0.345542340,0.450981170,10.276361470,-0.023020800,-0.048752120,-0.018577280
1640788202.416950,-0.557693000,0.266555220,10.382676120,-0.029534100,0.065563620,-0.016434490
1640788202.419480,0.019385180,0.344067250,9.083080290,0.026951730,-0.011903050,-0.028115510
1640788202.422010,-0.301558850,0.229157090,11.021895410,0.059171030,0.000835960,-0.034546860
1640788202.424320,0.181631610,0.386669700,9.238858220,0.009891390,0.101128220,-0.027117140
1640788202.427350,0.284909640,0.531998870,9.841539380,-0.064371530,-0.059627000,-0.027865170
1640788202.429240,0.008721230,0.471903200,10.547040940,-0.099644090,0.082868350,-0.006215280
1640788202.433550,0.298616980,0.395927670,9.058451650,-0.054277480,0.032614170,-0.014850500
1640788202.434280,-0.444630030,0.252511020,11.184473040,0.028325620,-0.087521990,-0.029668220
1640788202.437160,-0.352262440,0.147778960,9.364445690,0.020399690,0.044707960,-0.019851330
1640788202.440090,-0.046042400,0.105860730,9.145478250,-0.045149020,-0.031837820,-0.017021590
1640788202.442060,-0.458571400,0.095138730,10.808681490,-0.098571200,0.119425380,-0.002576410
1640788202.444300,0.165542390,0.246920940,9.065546040,-0.109073530,0.100937490,-0.017225740
1640788202.446970,0.062023940,0.410648940,10.567574500,-0.047358860,-0.087195620,-0.015009940
1640788202.449290,0.003242670,0.380388710,9.782238010,-0.032266980,0.060611960,-0.014288720
1640788202.452420,0.307690440,0.114347260,8.887378690,-0.052094470,0.017555060,-0.034651160
1640788202.454290,-0.468340690,-0.224069420,10.994803430,-0.003217160,0.014497340,-0.014138220
1640788202.457320,-0.308752570,-0.360996190,9.453516010,0.005804000,0.055629020,-0.016434490
1640788202.459290,-0.179013980,-0.331745240,9.762796400,-0.035710640,-0.059521200,-0.005112590
1640788202.462000,-0.579610530,-0.314245580,10.342018130,-0.051257010,0.080025200,0.002814830
1640788202.464360,0.008328900,-0.158486230,8.978466990,-0.037626920,0.046665970,-0.031587480
1640788202.466990,-0.195198920,0.109923300,10.436580660,0.031161310,-0.013105570,-0.028547640
1640788202.469550,-0.091826000,0.361318620,9.719755170,0.020740930,0.084751860,-0.035223380
1640788202.471930,0.227691610,0.547146980,9.783194540,-0.017961860,-0.016300380,-0.028602780
1640788202.474280,-0.383435250,0.503163700,10.776112560,-0.027462840,-0.012226400,-0.000081960
1640788202.477220,-0.166917520,0.259595220,9.391936300,-0.046665970,-0.004048650,-0.018893180
1640788202.479280,-0.304854720,0.124403250,10.138526920,0.019589070,-0.035895410,-0.014820700
1640788202.481920,-0.607004110,0.004714440,10.071006770,0.052329900,0.025422870,-0.004301960
1640788202.484320,0.025669000,0.081238110,9.202298160,-0.013360380,-0.009775160,-0.005455320
1640788202.487140,0.037337380,0.260412960,10.045421600,-0.068570670,0.024236730,0.002647940
1640788202.490660,0.236325550,0.363625230,10.014293670,-0.105570250,0.087788700,0.003850460
1640788202.492300,0.359543650,0.602013890,10.269713400,-0.058063880,-0.004695360,-0.015084450
1640788202.494270,-0.249483020,0.479904230,10.556460380,-0.005757810,-0.085006650,-0.018328430
1640788202.496940,-0.022325740,0.377986430,9.158688550,-0.009708110,-0.042980910,-0.011006000
1640788202.499240,-0.298475330,0.170845150,9.740981100,-0.031110650,0.021912160,0.009354950
1640788202.502270,-0.568348050,-0.184083100,10.113546370,-0.063198810,0.053437050,0.017078220
1640788202.504320,0.026187090,0.000202130,9.489454270,-0.069308290,0.015965100,0.020816920
1640788202.506970,-0.134387280,0.039717560,10.240792270,-0.065748400,0.004591050,0.016149880
1640788202.509470,0.175856020,0.153370860,9.669295310,-0.101244460,0.040754680,0.000476840
1640788202.511910,0.307059470,0.253529760,9.731803890,-0.056923940,-0.010289250,-0.027869650
1640788202.514390,-0.076397430,0.072499160,10.137410160,-0.015684960,0.008805100,-0.030206150
1640788202.516940,0.118717900,0.039617130,9.478036880,-0.007225570,0.013662880,-0.007554890
1640788202.519590,-0.393008050,-0.089694430,10.449373250,-0.015348200,-0.020858650,0.006304680
1640788202.522010,-0.551774380,-0.206520160,9.983694080,-0.062964860,-0.001430510,0.027360020
1640788202.525220,-0.265523670,-0.097834860,9.356449130,-0.043076280,-0.050109620,0.027628240
1640788202.526910,-0.499105190,-0.077787290,10.188910480,-0.031743950,0.050294410,0.000570710
1640788202.529260,0.071205500,0.210510970,9.484302520,-0.018937880,0.075936300,-0.007055700
1640788202.531880,-0.071719890,0.468090530,10.598927500,0.012864180,-0.051611670,-0.020591920
1640788202.534310,-0.056696500,0.594170690,10.136075020,-0.067588690,-0.007687510,-0.015126170
1640788202.537070,0.297110970,0.711688760,9.212867740,-0.108680130,-0.028838220,0.011773410
1640788202.539380,-0.477667810,0.350031410,11.055088040,-0.064341720,-0.007446110,0.014306600
1640788202.542140,-0.267216710,0.185214950,9.680907250,-0.015281140,-0.004215540,0.017473100
1640788202.544450,-0.188300680,0.094393190,9.649717330,0.017365810,-0.125330700,0.028440360
1640788202.547830,-0.304890630,-0.001959960,10.083722110,-0.065821410,0.071437660,0.035762790
1640788202.550860,0.259649750,0.194042300,9.182226180,-0.149883340,0.087994340,0.035311290
1640788202.551950,-0.222657410,0.244158330,11.274227140,-0.125531850,-0.082589690,0.016847260
1640788202.554350,0.131544710,0.403017550,9.663215640,-0.093613570,-0.007930400,0.008261200
1640788202.559790,0.427262570,0.550682660,9.104391100,-0.051270430,-0.069673360,-0.005579000
1640788202.560490,-0.345800970,0.323211850,10.930296900,-0.063131760,0.048220160,0.009509920
1640788202.561910,0.079233360,0.210790570,9.111818310,-0.103530290,0.045597550,0.015921890
1640788202.564340,-0.265074430,-0.031407270,10.437934880,-0.081962350,-0.117039680,0.040802360
1640788202.566950,-0.400821690,-0.169876020,9.893901820,-0.095032140,0.036139790,0.052997470
1640788202.569500,0.202892800,-0.147182780,8.647049900,-0.105643270,-0.022946300,0.023810570
1640788202.572350,-0.309899180,-0.208982080,10.706779480,-0.066125400,0.013075770,0.019834940
1640788202.574330,0.161568020,-0.012720400,9.378710750,-0.064228480,0.103299330,0.006937980
1640788202.577010,0.193364400,0.046625680,10.302273750,-0.060433150,-0.056251890,0.004592540
1640788202.579250,-0.346856800,0.080887620,10.716160770,-0.068213050,0.004994870,0.015713270
1640788202.581940,-0.085749280,0.060075880,8.950168610,-0.072743000,-0.061951580,0.003691020
1640788202.584410,-0.570665000,0.002281960,10.163061140,-0.032438340,-0.091788190,0.008852780
1640788202.587000,-0.450517330,-0.080107610,9.302793500,-0.027145450,0.076256700,0.021697580
1640788202.589560,-0.105810120,-0.028334580,9.820551870,-0.006395580,-0.005623700,0.013294820
1640788202.591960,-0.372823090,0.160102380,10.883894920,-0.027206550,0.001069900,0.037880250
1640788202.594290,0.231662680,0.323560540,9.327747340,-0.102897010,-0.018239020,0.030748550
1640788202.596900,0.124783130,0.393635930,10.374729160,-0.096337500,-0.044371190,0.012411180
1640788202.599250,-0.161212100,0.398262860,10.010342600,-0.051410500,0.026817630,0.004145500
1640788202.601990,-0.012385410,0.356683700,9.568759920,-0.005565580,-0.105136640,-0.012601910
1640788202.604350,-0.344416140,0.310980500,10.199214940,-0.012721120,-0.045210130,0.008936230
1640788202.607030,-0.243389930,0.096025190,9.471286770,-0.085119910,0.031228360,0.024494530
1640788202.609260,-0.340633570,0.137125850,10.615869520,-0.102981930,-0.044551480,0.031009320
1640788202.611910,-0.396619740,0.170820190,10.203215600,-0.083740060,-0.039282440,0.043477130
1640788202.614380,0.138286840,0.267832730,9.263773920,-0.076365480,-0.075131650,0.024461750
1640788202.617060,0.130096440,0.453079340,10.083278660,-0.060807180,0.035576520,0.031633680
1640788202.619230,0.151843550,0.381293570,9.693758960,-0.100454700,0.027102230,0.001934170
1640788202.622410,0.271755700,0.514487150,10.068948750,-0.108741240,-0.088788590,0.018833580
1640788202.624350,0.030070990,0.306286480,9.998173710,-0.102105740,0.000904500,0.037737190
1640788202.627030,-0.140663940,-0.051425510,9.813656810,-0.113950680,-0.050520900,0.021398070
1640788202.629250,-0.381080480,-0.193334450,10.269095420,-0.042738020,-0.072389840,0.030843920
1640788202.631930,-0.356235500,-0.439524650,9.251165390,-0.033926960,-0.007693470,0.017677240
1640788202.634360,-0.136243050,-0.334185600,9.685844420,-0.069044520,0.004236400,0.025597210
1640788202.636920,-0.199977680,-0.107228070,10.325722690,-0.087434050,0.052692000,0.033354760
1640788202.639680,0.060234850,-0.022410430,9.825459480,-0.113607950,-0.049735610,0.026279690
1640788202.642040,0.111740420,0.216898810,10.038025860,-0.049428630,-0.087732070,0.028067830
1640788202.644250,-0.031968370,0.176706090,9.703644750,-0.023505090,0.012668970,0.002157690
1640788202.646950,-0.089544340,-0.001748180,10.073076250,0.001768770,-0.021055340,0.006125870
1640788202.649760,-0.430643560,0.078989570,10.539318080,0.034779310,-0.046147410,0.030454990
1640788202.651940,-0.304187420,0.076532540,9.576141360,-0.055679680,-0.071990480,0.020857150
1640788202.654270,-0.044226840,0.390151080,9.467223170,-0.123000170,-0.028204920,0.048519670
1640788202.657040,-0.262947620,0.506811800,10.158971790,-0.106106710,0.043675310,0.036630030
1640788202.659400,0.042734530,0.471058580,10.112982750,-0.077393660,-0.012344120,0.011642280
1640788202.661960,0.145252960,0.607565460,10.175712590,0.003264840,-0.081217290,0.022633370
1640788202.664490,0.036905560,0.372926980,10.086197850,-0.041587650,-0.021673740,0.019387900
1640788202.666930,0.114555680,0.184675280,9.696144100,-0.112837560,-0.009451810,0.036135320
1640788202.669220,-0.364868070,-0.021261220,10.325317380,-0.098541390,-0.070565940,0.037251420
1640788202.672270,-0.279596390,-0.139878900,9.728862760,-0.098119680,-0.042347610,0.022147600
1640788202.675260,-0.064653640,-0.059791590,9.445015910,-0.050823390,-0.035290420,0.035661460
1640788202.677020,-0.351222930,-0.020771940,10.466137890,-0.045053660,-0.005191560,0.025954850
1640788202.679280,0.228526200,0.226212260,9.402832030,-0.098584590,0.032387680,0.021673740
1640788202.682380,0.236203570,0.285155830,10.055865290,-0.079390410,-0.042106210,0.039914240
1640788202.684260,0.023788600,0.305130420,10.406975750,-0.097653280,0.028966370,0.035037100
1640788202.686920,0.262488480,0.311808170,9.341530800,-0.089393560,-0.055295240,0.027459860
1640788202.689580,-0.397851820,-0.092127770,10.322494510,-0.026862330,-0.097049770,0.016881530
1640788202.691990,-0.257057130,-0.168169130,9.132973670,-0.024546680,0.023512540,-0.000602010
1640788202.694290,-0.277477090,-0.218096000,9.820710180,-0.033333900,-0.024215880,0.007459520
1640788202.697040,-0.562705810,-0.212975250,10.805465700,-0.060409310,0.023068490,0.031647090
1640788202.699290,0.089337700,0.092854390,9.368091580,-0.081095110,-0.031647090,0.026136640
1640788202.701910,-0.037512440,0.211628570,10.355329510,-0.067012010,-0.060102340,0.027064980
1640788202.704290,0.043092920,0.387072890,9.865810390,-0.057910380,0.050987310,0.017079710
1640788202.707010,0.147829370,0.301914300,9.886031150,-0.014311080,-0.064869230,-0.002594290
1640788202.709280,-0.289081310,0.296136710,10.514244080,0.010564920,-0.054933140,0.015649200
1640788202.711920,0.018109760,0.387318070,9.108357430,-0.067475450,-0.030502680,0.004820530
1640788202.716920,-0.164041000,0.331233770,10.319928170,-0.113402310,-0.012728570,0.024303790
1640788202.717420,-0.295804890,0.408755420,10.270447730,-0.116890690,0.053909430,0.042998790
1640788202.719230,-0.002301230,0.314325270,9.949490550,-0.085307660,-0.077913710,0.020982320
1640788202.722420,-0.058779720,0.332308260,10.244129180,-0.036694110,-0.022168460,0.029724840
1640788202.724310,0.223864450,0.297235580,9.218896870,-0.074754660,0.042127080,0.032882390
1640788202.727440,0.035951640,0.083373470,10.382543560,-0.110679870,-0.010803340,0.017954410
1640788202.729400,-0.008542580,0.095597790,9.851227760,-0.116284200,0.022904570,0.035208470
1640788202.731900,0.021688460,-0.126517330,9.800215720,-0.096549110,-0.071775940,0.025050350
1640788202.734310,-0.241262810,-0.123705400,10.402607920,-0.055786970,0.011599060,0.030528010
1640788202.736920,-0.111488240,-0.162262290,9.322121620,-0.055497880,0.016960500,0.019289560
1640788202.739680,-0.145604370,-0.152149110,10.237508770,-0.060969590,-0.030060110,0.006799400
1640788202.743130,0.075168110,0.126033310,9.594278340,-0.067570810,0.108316550,0.037541990
1640788202.744280,0.136316330,0.109231350,9.822770120,-0.104792430,-0.010448700,0.022387500
1640788202.747080,-0.140310910,0.196476190,10.627753260,-0.062792000,0.001539290,0.019295520
1640788202.749300,0.032524410,0.130517570,9.057312970,-0.022806230,-0.020822880,0.010693070
1640788202.751930,-0.284069330,0.003505940,10.220399860,-0.032770630,-0.036646420,-0.011080500
1640788202.754350,-0.379062620,0.021749560,10.187308310,-0.029672690,0.103051980,0.017414990
1640788202.757050,-0.239746900,-0.159559550,9.852810860,-0.038887560,-0.028516350,0.010490420
1640788202.759310,-0.455329810,0.054109470,10.751424790,-0.039309270,-0.030560800,0.022633380
1640788202.762130,-0.074826740,0.297404650,9.105686190,-0.071029370,0.043940550,0.015771390
1640788202.764390,-0.038798630,0.268926860,10.044384960,-0.093428800,-0.031174720,0.002950430
1640788202.766940,-0.137508590,0.410738860,10.442775730,-0.033377110,0.066053870,0.012789670
1640788202.769330,0.255477520,0.336822930,9.468564030,-0.007292630,-0.022572280,-0.004397330
1640788202.772640,0.076502980,0.475722820,10.518836020,-0.037083030,-0.019021330,0.010761620
1640788202.774320,-0.012813180,0.472105710,9.885857580,-0.097428260,0.085133320,0.036783520
1640788202.777170,-0.125559450,0.198635340,10.047342300,-0.144678340,-0.046446920,0.022378560
1640788202.779360,-0.350580450,0.036193590,10.319842340,-0.059433290,-0.042945150,0.030758980
1640788202.782030,0.004075940,-0.112159530,8.995363240,0.009216370,0.033310060,0.010506810
1640788202.784330,0.027863930,-0.050356540,9.808783530,-0.031423570,0.050546230,0.012229380
1640788202.786930,-0.126716420,0.002003150,10.493171690,-0.101342810,0.080323220,0.020860140
1640788202.789440,0.169986500,0.004126830,9.813943860,-0.133427990,0.007541480,0.019730630
1640788202.791950,-0.072891730,-0.008425550,10.248801230,-0.075578680,-0.057652590,0.010176000
1640788202.794350,-0.299999270,-0.078228370,9.724942210,-0.000764430,0.020077830,-0.011333820
1640788202.797220,-0.093792900,-0.074663630,9.152100560,0.003726780,0.012104210,-0.019985440
1640788202.799230,-0.432633790,-0.088276420,10.332307820,0.002700090,0.046728560,0.010892750
1640788202.801870,-0.124386530,-0.031695590,9.823419570,-0.054831810,0.079673530,0.024789570
1640788202.804290,0.012493940,0.056319180,10.033784870,-0.078913560,-0.039596850,0.020517410
1640788202.806960,-0.178607580,0.030047610,10.366523740,-0.031180680,0.006785990,0.009697680
1640788202.811900,0.266602070,0.188437740,9.063527110,0.005444880,0.052861870,-0.008100270
1640788202.812510,-0.119507360,0.148477480,10.391716960,0.028137860,-0.008843840,-0.024996700
1640788202.814390,-0.255762040,0.114935030,10.279170040,0.009104610,0.055699050,-0.012674930
1640788202.817030,-0.064889070,0.245505620,9.445900920,-0.029245020,-0.043639540,-0.004598500
1640788202.819300,-0.708285270,0.170488390,10.701208110,-0.051307670,-0.050817430,0.005030630
1640788202.822240,-0.214800070,0.340804370,9.167742730,-0.045129660,0.082984590,0.011323390
1640788202.824320,-0.229571010,0.359787640,10.133279800,-0.000651180,-0.022295120,-0.009171660
1640788202.827480,-0.325337530,0.442486080,10.618017200,0.002637510,0.041471430,0.000637770
1640788202.829270,0.534488560,0.668674170,8.825318340,-0.053659080,0.021153690,0.002089140
1640788202.832090,0.009183460,0.484360190,10.798191070,-0.097325440,0.001902880,0.011523070
1640788202.834410,-0.008715900,0.423435870,10.007090570,-0.092759710,0.075758990,0.026357170
1640788202.836970,0.056982960,0.145025600,9.590218540,-0.046709180,-0.121700780,-0.006167590
1640788202.839860,-0.411316010,-0.126832310,10.234504700,-0.000910460,-0.011561810,-0.000117720
1640788202.842080,0.035636240,-0.081870130,8.693984030,-0.025850530,0.109595070,0.017219780
1640788202.845890,-0.266034600,-0.230817630,10.777656560,-0.082787880,0.021190940,0.004182760
1640788202.846930,-0.291674260,-0.078678550,10.394570350,-0.098177780,0.059413910,0.024312730
1640788202.849310,0.159797440,0.117219150,9.214413640,-0.064837930,-0.061668450,0.004565710
1640788202.851920,-0.299962670,0.079569420,10.487143520,-0.038990370,-0.003896650,-0.015589590
1640788202.854310,-0.022466290,0.162623030,8.985097890,-0.014637410,0.082936900,-0.024314230
1640788202.857160,-0.184646700,0.060393700,10.256428720,0.010126830,-0.033272800,-0.028111040
1640788202.859390,-0.385654030,-0.000275990,10.358887670,-0.012528900,0.068588550,0.000818070
1640788202.862750,0.024365970,0.044444140,9.182672500,-0.052818670,-0.020714100,0.007976590
1640788202.864350,-0.372167110,-0.061020450,10.757712360,-0.046537820,-0.024367870,0.009293860
1640788202.866990,-0.059419280,-0.037785640,9.099066730,-0.012189150,0.067290670,0.005690750
1640788202.869230,0.020740490,0.114817440,9.873479840,0.015915930,-0.033357740,-0.030477350
1640788202.872760,-0.197774630,0.200805720,10.597258570,-0.006400050,0.079888090,-0.023597480
1640788202.874540,0.042464070,0.300295410,9.543277740,-0.033536560,-0.000612440,-0.025068230
1640788202.879080,-0.450362440,0.388501520,10.877978320,-0.043064350,-0.090199690,-0.035731490
1640788202.881960,-0.396261600,0.334214540,9.407016750,-0.047656890,0.025866930,-0.018502770
1640788202.882400,-0.295111660,0.271255550,9.674302100,-0.010494890,-0.042037670,-0.018420820
1640788202.884320,-0.535276060,0.250251110,10.665748600,0.022117790,0.044719880,-0.003437700
1640788202.886900,0.082476600,0.308825880,9.066001890,-0.033822660,0.008879600,0.000326340
1640788202.889630,0.269039180,0.463268100,10.131587980,-0.083582090,-0.025585300,0.002865490
1640788202.894280,0.322538760,0.457630130,9.977952000,-0.116463030,0.120799240,-0.007401410
1640788202.895670,0.360787930,0.349963580,9.995553970,-0.095848740,-0.028404600,-0.019755960
1640788202.896910,-0.108132050,0.212548090,10.619287490,-0.000920890,-0.081022090,-0.027163330
1640788202.899240,-0.102135610,-0.143014030,8.978957180,0.000455980,0.002549590,-0.034850840
1640788202.901940,-0.293296750,-0.326000810,9.771615980,-0.023268160,0.013370810,-0.020268560
1640788202.905510,-0.623250540,-0.357928100,10.335060120,-0.056672100,0.084841260,-0.018025930
1640788202.907890,-0.173530040,-0.278371900,9.464327810,-0.074458120,-0.005471710,-0.006620590
1640788202.909310,-0.107202120,0.083625030,10.196172710,-0.031465290,-0.021710990,-0.010710950
1640788202.912010,-0.017482610,0.268518180,9.621549610,-0.049769880,0.076481710,-0.039403140
1640788202.914390,0.332005830,0.282501310,9.653658870,-0.036695600,0.007206200,-0.046186150
1640788202.917080,-0.051972770,0.251783250,10.518671990,0.036521250,0.042873610,-0.042045110
1640788202.919320,0.092395890,0.045837550,9.698589320,0.010283290,0.010775030,-0.036945940
1640788202.921930,-0.091829700,-0.014062920,10.022854800,-0.000713770,-0.052446130,-0.009424990
1640788202.924530,-0.454909180,-0.133159760,9.870486260,-0.033910580,0.033162530,-0.021554530
1640788202.926920,-0.230197890,-0.111308020,9.469236370,-0.047339500,0.027176740,-0.024542210
1640788202.929290,-0.437841240,0.190050650,10.310815810,0.014819210,0.010278820,-0.026598570
1640788202.931890,-0.166901800,0.329917970,9.941797260,-0.014461580,0.061208020,-0.052319470
1640788202.934270,0.091643390,0.638354660,9.895629880,-0.028790530,0.011658670,-0.042565170
1640788202.937390,-0.291919380,0.641060410,10.485942840,-0.048173960,-0.017941000,-0.032879410
1640788202.939280,0.039582760,0.463293310,9.531227110,-0.073470180,0.014060740,-0.025197860
1640788202.942020,-0.113992460,0.210227490,10.009607320,0.008003410,-0.003275270,-0.005812940
1640788202.944820,-0.400452580,-0.127682390,10.300014500,0.032019620,0.012204050,-0.017149750
1640788202.949140,0.260074500,-0.090007380,8.984618190,-0.014442210,-0.006547570,-0.015509130
1640788202.949760,0.052984510,-0.126653520,10.070732120,-0.055834640,0.063319510,0.004079940
1640788202.951920,0.155885130,-0.021115070,10.211592670,-0.111342970,0.136581080,-0.020655990
1640788202.954450,0.211820510,0.189324540,10.186803820,-0.040119890,-0.046364970,-0.031638150
1640788202.957760,-0.212259710,0.102608980,10.177126880,0.026239450,-0.063413390,-0.045613940
1640788202.959340,0.022163890,0.266552030,8.720130920,0.010786950,0.047303740,-0.058202450
1640788202.961900,-0.487373500,0.040096760,10.081757550,0.004014370,0.052514680,-0.038486720
1640788202.964310,-0.590336440,-0.040061390,10.377732280,-0.022563340,0.061208010,-0.024157760
1640788202.966900,-0.055451240,0.126769050,9.501312260,-0.023016330,-0.018250940,0.001756850
1640788202.969380,-0.293840830,-0.012609140,10.302673340,-0.010091070,0.025989120,0.001168250
1640788202.971920,0.091720310,0.159009980,9.655683520,-0.024341040,0.082008540,-0.026364620
1640788202.974420,0.074211630,0.165940850,10.086841580,0.011809170,-0.000125170,-0.041495270
1640788202.977210,0.005834150,0.146694230,10.074506760,0.020381810,0.027269120,-0.031983860
1640788202.979310,0.236058740,0.298754720,9.422506330,-0.009502470,0.030745570,-0.043146320
1640788202.982260,-0.299304780,0.224249110,10.461035730,-0.019679960,0.010901690,-0.023035710
1640788202.984390,-0.411010590,0.339041050,9.991661070,-0.044670690,0.016072390,-0.012449920
1640788202.986980,-0.398516830,0.334141880,9.891171460,-0.027522450,-0.044491890,-0.018616020
1640788202.989310,-0.449658100,0.237849150,10.061253550,0.004020330,0.049127650,-0.007978080
1640788202.992030,-0.101577210,0.342264180,9.630446430,-0.000928340,0.058165190,-0.020089750
1640788202.994580,-0.103120650,0.247790630,10.377988820,-0.027437510,0.026851890,-0.027774280
1640788202.996900,0.143430640,0.400392440,9.674310680,-0.074292720,0.026397410,-0.019122660
1640788202.999280,0.190935250,0.281631320,9.816065790,-0.073285410,-0.015550850,-0.020280480
1640788203.002490,-0.079728630,-0.031784340,10.153878210,-0.029289720,0.043100120,-0.023689870
1640788203.004310,0.059500370,-0.142709450,9.518205640,0.022663170,-0.019651650,-0.034242870
1640788203.007220,-0.151948380,-0.289686170,10.154838560,0.036938490,0.002506380,-0.040817260
1640788203.011200,0.022505810,-0.186824930,9.458255770,-0.024999680,0.120067610,-0.014908610
1640788203.012060,-0.140415180,-0.138866770,10.318425180,-0.066392140,-0.004300480,-0.010873380
1640788203.014370,-0.314958660,-0.172242280,10.339996340,-0.027079890,0.019586090,-0.022862850
1640788203.017110,0.012467450,0.127578560,8.827190400,0.039948530,-0.033503770,-0.044113400
1640788203.019470,-0.443778840,0.149663790,10.393041610,0.053323810,0.019736590,-0.059303650
1640788203.021910,-0.191147700,0.237487230,9.680734630,0.018537050,0.115720940,-0.044119360
1640788203.026910,-0.214362380,0.227138070,10.336567880,0.009067360,-0.068731610,-0.031761830
1640788203.028540,-0.361778110,0.129242630,10.589383130,0.010563430,0.018914040,-0.023756920
1640788203.029290,0.227837260,0.366862770,8.765648840,-0.002582370,0.025261940,-0.008928780
1640788203.031890,-0.320324720,0.136920060,10.868279460,0.012825430,-0.018496810,-0.015543400
1640788203.034600,-0.070198640,0.234828380,9.680262570,0.027248270,0.086723270,-0.033196810
1640788203.036930,0.125266540,0.362447980,9.565454480,0.023570650,-0.086584670,-0.040450690
1640788203.039670,-0.320981800,0.234163220,10.766702650,-0.002329050,0.032238670,-0.032833220
1640788203.044280,0.227120760,0.445774760,8.911007880,-0.035144390,0.090609500,-0.030972070
1640788203.045200,-0.359474900,0.195025850,11.015124320,-0.017978250,-0.057542330,-0.033301120
1640788203.046980,-0.335045580,0.174296410,10.087149620,0.011900070,0.045292080,-0.023250280
1640788203.049750,0.110312800,0.089227940,8.854602810,0.036843120,-0.060942780,-0.024603310
1640788203.051920,-0.486404030,-0.192133260,10.738265990,0.033260880,0.028020150,-0.026582190
1640788203.054340,0.152774600,0.036674860,8.799906730,-0.009392200,0.113594520,-0.026138120
1640788203.057230,0.138258110,0.046965040,10.214612960,-0.019505620,-0.049763920,-0.017239150
1640788203.059360,-0.080998140,0.116940530,10.558913230,-0.019438560,0.098770840,-0.016336140
1640788203.061960,0.330656290,0.216759030,9.264235500,0.000508130,-0.008657580,-0.029945380
1640788203.064360,-0.405324160,-0.123794150,10.965612410,0.070349880,-0.076203030,-0.045616920
1640788203.066970,-0.140557600,-0.058777140,8.934720990,0.083728140,0.065885490,-0.050127510
1640788203.069310,-0.172605950,-0.127523320,9.639188770,0.061035170,-0.016219910,-0.036212810
1640788203.071920,-0.555128570,-0.225352940,10.771896360,0.021447240,0.084093210,-0.029496850
1640788203.074570,0.068447620,0.136059370,9.224603650,0.011368100,0.012001400,-0.034394860
1640788203.077550,-0.260304600,0.115597720,10.731254580,0.052264330,-0.056548420,-0.028879940
1640788203.079320,-0.189292000,0.278382720,9.740824700,0.059334940,0.074332950,-0.044941910
1640788203.082040,-0.001594590,0.358872770,9.748661040,0.087285040,-0.037617990,-0.042268640
1640788203.084320,-0.414956630,0.102217640,10.797387120,0.092956430,0.000227990,-0.027014320
1640788203.086960,0.135504890,0.267453730,8.945669170,0.054238740,0.022268300,-0.031280520
1640788203.089680,-0.094298630,0.259309590,10.419837950,0.025379650,-0.014881790,-0.025080140
1640788203.091980,-0.234263520,0.217901870,10.209609990,-0.001896920,0.081737330,-0.020560620
1640788203.094340,0.077570160,0.337842730,9.612963680,0.038048620,-0.058619670,-0.037021930
1640788203.097130,-0.208014760,0.190146570,10.459156990,0.082887720,-0.021639470,-0.038027760
1640788203.099280,0.153323870,0.331090960,8.916499140,0.045524550,0.074857480,-0.040107970
1640788203.101870,-0.078169260,0.204239340,10.335898400,0.016979870,0.017802420,-0.028613220
1640788203.104300,-0.240686950,-0.041393530,10.277262690,0.002071260,0.064961630,-0.025954850
1640788203.107300,-0.038023870,-0.071628030,9.450452800,0.053548820,-0.074630980,-0.027392800
1640788203.109340,-0.370652170,-0.304801790,10.323163990,0.106997790,-0.016970930,-0.042018290
1640788203.111930,-0.040022860,-0.193988080,8.872549060,0.075824560,0.077013680,-0.059680640
1640788203.114520,-0.130532030,-0.050672770,10.280995370,0.062419480,0.008970500,-0.048297640
1640788203.116980,-0.106002440,0.111813550,10.196227070,0.045947730,0.086957220,-0.029487910
1640788203.119270,0.205602540,0.279862020,9.479760170,0.026997920,-0.033469500,-0.031507010
1640788203.122000,-0.276226580,0.276569750,10.675912860,0.077931590,-0.008958580,-0.028078260
1640788203.124750,-0.184135000,0.222335710,9.236983300,0.094296050,0.034177300,-0.046485670
1640788203.127390,-0.368587400,0.096739230,10.098242760,0.122855590,-0.071337820,-0.046485660
1640788203.129420,-0.464643720,0.123802530,10.129336360,0.094605990,0.069925190,-0.042791670
1640788203.131940,-0.026273550,0.268110630,9.416484830,0.017468630,0.006064770,-0.044651330
1640788203.134320,-0.264423790,0.373878030,10.786392210,0.015755000,-0.007122760,-0.026650730
1640788203.136890,0.036848140,0.557566110,9.541203500,0.015558300,0.054723030,-0.050957500
1640788203.139780,0.063056240,0.518762710,10.073905940,0.057938700,-0.053340200,-0.042799120
1640788203.143590,-0.242274550,0.407370450,10.443119050,0.099715590,0.023509560,-0.023175780
1640788203.145000,0.074330580,0.282248200,9.211031910,0.045503680,-0.029939410,-0.051343440
1640788203.147080,-0.094389380,0.149099040,10.168407440,0.016175210,-0.017254050,-0.007987020
1640788203.149350,-0.073819480,0.027974340,9.738276480,0.001119080,0.111091150,-0.008401280
1640788203.151880,-0.064363490,-0.112442760,10.241474150,0.016981360,-0.018242000,-0.026218590
1640788203.154360,-0.280092210,-0.024911280,10.333301540,0.078390550,-0.046658520,-0.009937590
1640788203.157110,0.168370130,-0.052804290,8.792574880,0.057190660,-0.000777840,-0.042466820
1640788203.159380,-0.005244000,-0.027463660,10.074040410,0.047905750,0.061570120,-0.030528010
1640788203.162040,-0.192353700,0.105528650,10.202126500,0.042183690,0.089655820,-0.021633500
1640788203.164340,-0.051572710,0.101898040,10.027194020,0.040739770,-0.080808990,-0.031128520
1640788203.166880,-0.269522990,0.186632750,9.930640220,0.064510100,-0.026932360,-0.008110700
1640788203.169290,-0.222840120,0.100287340,9.161479950,0.060206660,0.022915010,-0.031358010
1640788203.171880,-0.433617230,-0.048076780,10.372929570,0.088122490,0.006143750,-0.040374700
1640788203.174750,-0.300909580,0.105038720,9.722620960,0.101733220,0.040821730,-0.018179420
1640788203.176880,-0.104598080,0.097738470,9.919958110,0.057455900,-0.046750900,-0.028653450
1640788203.179370,-0.069692860,0.234423710,10.217360500,0.021475550,0.045186280,-0.008939210
1640788203.182100,0.139201890,0.304990830,9.481482510,0.023312870,0.010824200,-0.021509830
1640788203.184340,-0.256456290,0.179336760,10.769060130,0.080315770,-0.052598120,-0.037643310
1640788203.186860,-0.084869240,0.258032260,9.391535760,0.115701560,0.009712580,-0.031907860
1640788203.189640,-0.174474420,0.199027450,9.768477440,0.082997990,-0.072538850,-0.038006910
1640788203.191970,-0.462966230,0.194730730,10.518811230,0.035664440,0.048641860,-0.015226010
1640788203.196960,-0.049026730,0.361828860,9.108527180,-0.000752510,-0.012291970,-0.015036760
1640788203.197440,-0.347233470,0.348989400,10.722528460,0.010594730,-0.063778460,-0.020149350
1640788203.199340,0.002668460,0.438538280,9.631680490,0.054831810,0.091026720,-0.008565190
1640788203.201900,0.141353030,0.299575420,9.680952070,0.074450670,-0.072030730,-0.018943850
1640788203.204380,-0.162629010,0.133132370,10.633211140,0.073142360,-0.011084970,-0.019060070
1640788203.207050,0.508504270,0.177688320,8.455699920,0.015242400,0.047400600,-0.000433620
1640788203.209330,-0.080169510,-0.150864530,10.746482850,-0.005519390,-0.027024750,0.000345710
1640788203.211930,-0.203416170,-0.210594420,10.241792680,0.033739200,0.062718990,-0.009600820
1640788203.214470,0.131416140,-0.248859150,8.969399450,0.097943860,-0.121301430,-0.034652650
1640788203.216980,-0.472550360,-0.325085760,10.453276630,0.117418180,0.005260110,-0.031067440
1640788203.219300,0.031217980,0.066063990,8.673521040,0.049594050,0.131373110,-0.020512940
1640788203.221900,-0.226178680,0.037382040,10.603943820,0.018602610,-0.051192940,-0.011265280
1640788203.224700,-0.405761420,0.193260130,10.448811530,0.052262850,0.046843290,-0.002217290
1640788203.226930,0.140404420,0.329138040,8.790949820,0.079023840,-0.056928400,-0.014154620
1640788203.229480,-0.601312280,0.100274720,10.907004360,0.109331320,-0.030054160,-0.023184720
1640788203.231910,-0.223922010,0.182835430,9.210531230,0.105352710,0.086459520,-0.024598840
1640788203.234310,-0.164689840,0.050145230,10.021957400,0.094771390,-0.083035240,-0.020091240
1640788203.236860,-0.343036680,0.092485390,10.498492240,0.065661970,0.046908860,-0.011578200
1640788203.239780,0.353859840,0.412560730,8.903381350,0.025437770,0.033591690,-0.021550060
1640788203.242000,-0.220357810,0.304193020,10.926925660,0.040026010,-0.031046570,-0.025087590
1640788203.244480,-0.056193400,0.509465040,9.618154530,0.054730480,0.031951070,-0.031827400
1640788203.247740,0.130098820,0.497465820,9.401128770,0.086832050,-0.091519960,-0.028392680
1640788203.249680,-0.404376800,0.230970890,10.535390850,0.074565410,0.038348140,-0.017765160
1640788203.251930,-0.030902020,0.324132230,9.236685750,0.033949330,0.054667900,-0.012567640
1640788203.254310,-0.389650790,0.101617460,10.787573810,0.026714800,-0.065650050,-0.014007090
1640788203.257080,-0.268832830,0.050550940,9.704244610,0.024195020,0.039206450,-0.003919010
1640788203.259460,0.113480820,0.213862120,9.205098150,0.045247370,-0.037220120,-0.008720160
1640788203.262310,-0.165296600,0.043151170,10.344170570,0.035083300,0.037568810,-0.009392200
1640788203.264340,0.405965000,0.208175850,8.811931610,0.026063620,0.058700160,-0.016345080
1640788203.266930,0.143692360,0.130909520,10.477084160,0.041097400,0.002749260,-0.006206330
1640788203.269300,-0.051213070,-0.025648760,10.202614780,0.021955370,0.071315450,-0.004822020
1640788203.271990,-0.057141560,-0.069694680,9.666793820,0.058534750,-0.097924490,-0.006608660
1640788203.274750,-0.544767200,-0.303495110,10.196942330,0.098676980,-0.037267810,-0.022144620
1640788203.277000,-0.125023600,-0.143703800,8.365186690,0.061517970,0.078676650,-0.025801360
1640788203.280370,-0.398368450,-0.050837070,10.379728320,0.059293220,0.034150480,-0.025057800
1640788203.282710,-0.312450380,0.093598130,10.183061600,0.037577750,0.084775690,-0.010225180
1640788203.284340,0.076330330,0.278995420,9.455163960,0.060091920,-0.086843970,-0.011149050
1640788203.286930,-0.309627560,0.212033970,10.458242420,0.076581530,-0.006119910,-0.019492210
1640788203.289490,0.068336510,0.185645580,9.132662770,0.071145600,0.068485740,-0.021949410
1640788203.292220,-0.317329790,-0.009131360,10.591624260,0.130055840,-0.054885450,-0.013150280
1640788203.294470,-0.357080100,-0.055494500,10.071237560,0.120922920,0.009778140,-0.008249280
1640788203.296920,0.093872930,0.115803440,8.932864190,0.053158400,-0.040778520,-0.010800360
1640788203.299340,-0.378753720,0.199434070,10.653800960,0.041992960,0.026802720,0.005266070
1640788203.301900,-0.090457930,0.453535620,9.573509220,0.014068190,0.051333020,-0.022076070
1640788203.304380,-0.077868090,0.607855020,10.077564240,0.064866250,-0.106173750,-0.030951210
1640788203.307010,-0.155334060,0.683010820,10.065443990,0.078220670,0.022068620,-0.015945730
1640788203.309420,0.132494450,0.633273900,9.344313620,0.042887040,0.017882880,-0.011417270
1640788203.312000,-0.374743820,0.345902060,10.779801370,0.023993850,-0.032351910,0.007928910
1640788203.314980,-0.220357490,0.163053390,9.682048800,0.007779900,-0.007447600,0.013270980
1640788203.316960,-0.106560000,-0.122905240,9.580355640,0.037665660,-0.068649630,0.012657050
1640788203.319370,-0.252956300,-0.141345860,9.993828770,0.059224670,0.031621760,0.007981060
1640788203.322460,0.187531780,0.008838150,9.248866080,0.007857380,0.027409200,-0.016687810
1640788203.324730,0.221246240,0.086292830,10.074847220,-0.001953540,0.019578640,-0.008493660
1640788203.326920,0.310900570,0.256601810,9.889449120,-0.002524260,0.069057950,-0.000856820
1640788203.329360,0.086206760,0.186050470,10.250070570,0.019873680,-0.028027600,-0.017985700
1640788203.331900,-0.261938390,0.077081200,10.080986980,0.062805420,-0.053794680,-0.013421480
1640788203.334390,-0.267819580,-0.011838240,9.074869160,0.076097250,-0.043940550,-0.015765430
1640788203.337060,-0.483144820,-0.265843630,9.736299510,0.059765580,0.053145000,-0.015923380
1640788203.339330,-0.282712430,-0.127799650,9.772124290,0.039362900,0.099560600,0.003708900
1640788203.342000,-0.262450810,-0.009343340,10.418372150,0.036710500,-0.031603880,0.009354950
1640788203.344390,0.016148620,0.050598900,9.747740750,0.030852850,0.018559400,0.008016820
1640788203.347030,0.156627680,0.221753330,9.422583580,0.039923190,-0.016330180,-0.019107760
1640788203.349380,-0.178742450,0.095869240,10.492259980,0.081364810,0.021922590,-0.038477780
1640788203.351900,0.135558780,0.192767620,9.355605130,0.104272350,0.024560100,-0.032804900
1640788203.354600,-0.226848860,0.233465640,10.289175990,0.084806990,-0.057947640,-0.020511450
1640788203.356880,-0.236027120,0.297000080,9.950353620,0.018827620,0.064809630,-0.002382700
1640788203.359830,-0.079011730,0.406356250,9.453367230,-0.006265940,-0.024826830,0.003474950
1640788203.362380,-0.596945520,0.268523750,10.790261270,0.039777170,-0.015719230,-0.008824470
1640788203.364370,0.048981390,0.426151780,8.958998680,0.070017580,0.053150960,-0.014352800
1640788203.366920,-0.112792800,0.425312160,10.054845810,0.062894810,-0.030390920,-0.014939900
1640788203.369540,-0.155679480,0.347905990,10.285027500,0.004309420,0.095091780,-0.010055300
1640788203.371910,0.402951420,0.426512390,9.090180400,-0.045542420,0.000579660,-0.021030010
1640788203.374840,-0.241370630,0.032492790,10.820219990,-0.004424150,-0.036533170,-0.005297360
1640788203.376990,0.030125780,-0.124445790,9.295199390,0.054256620,0.068603460,0.005143880
1640788203.379330,-0.128701490,-0.274191590,9.790715220,0.086607060,-0.065156830,-0.025177010
1640788203.382970,-0.428882180,-0.359771460,10.207410810,0.063736740,0.040587780,-0.008417670
1640788203.384320,0.258697570,-0.055124570,8.672235490,-0.007005040,0.064544380,-0.001044570
1640788203.386950,-0.240616170,-0.110321430,10.641196250,-0.014555460,0.036768620,-0.008937720
1640788203.389310,-0.037059000,0.190105160,9.897629740,0.026835500,0.075925890,-0.003422800
1640788203.392150,-0.012333850,0.244441260,9.677246090,0.095488140,-0.088994200,-0.024488570
1640788203.395160,-0.517639460,0.020828520,10.118143080,0.107561070,0.006641450,-0.036980220
1640788203.396950,-0.176702470,0.208706040,9.102988240,0.064980990,0.058759750,-0.027593970
1640788203.399360,-0.567932310,-0.041175500,10.623227120,0.040897730,0.000110270,-0.013984740
1640788203.401990,-0.271048460,0.066325510,9.873095510,0.037328890,0.047422940,-0.000064080
1640788203.404400,0.012721340,0.350900500,9.575601580,0.050617760,-0.029727820,-0.007556380
1640788203.407330,-0.230539340,0.189773320,10.279267310,0.029340380,0.050657990,-0.008507070
1640788203.409380,0.113162170,0.354535460,9.580773350,0.050942600,0.032618640,-0.009839240
1640788203.412440,-0.266109500,0.168155090,10.488661770,0.094290090,-0.062401600,-0.018458070
1640788203.414400,-0.052871960,0.118363780,9.488706590,0.060683480,0.010710950,-0.016482170
1640788203.417040,0.021142970,0.406058400,9.547816280,0.036759680,0.007013980,-0.010049340
1640788203.419350,-0.376165750,0.207365300,10.493367200,-0.021830200,0.064130120,0.001281500
1640788203.421930,0.069462710,0.242857170,9.598785400,0.003144150,0.009946530,-0.000463430
1640788203.424790,-0.227948610,0.210971850,10.272377970,0.091110180,-0.062640010,-0.003676120
1640788203.426890,-0.015571750,0.118019620,9.347648620,0.073051460,0.051380700,-0.001205500
1640788203.429360,0.181966390,0.188266350,9.294031140,0.034169850,0.020384790,0.004556770
1640788203.431920,-0.252866330,0.034923480,10.426805500,-0.006389620,0.060780350,-0.008207560
1640788203.434530,0.157206910,0.131989570,9.454429630,-0.002965330,0.026759510,0.001001360
1640788203.436960,-0.340882300,0.029666200,10.311417580,0.057381400,-0.066943470,-0.007021430
1640788203.439340,-0.379137930,-0.107960300,9.705647470,0.055140250,0.018912550,-0.026440620
1640788203.442120,-0.124864350,-0.075534430,9.184325220,0.088766220,-0.005012750,-0.028945510
1640788203.444480,-0.430219770,-0.117903370,10.216435430,0.071012970,0.049890580,-0.017765160
1640788203.447150,0.222876580,0.056044160,9.434443470,0.021965810,0.092323140,-0.007779900
1640788203.450930,0.005440900,0.198697210,10.341122630,0.041693450,-0.000549850,-0.006659330
1640788203.451880,-0.127687620,0.312806100,10.124334340,0.032407050,-0.015707320,-0.008609890
1640788203.454350,0.087381280,0.343193620,9.173468590,0.046102710,-0.023096800,-0.025898220
1640788203.457380,-0.450931220,0.139112290,10.073521610,0.094105330,0.010351840,-0.034047660
1640788203.459360,-0.323532040,0.157980010,9.950284000,0.090071580,0.045308480,-0.024065380
1640788203.461930,-0.320811090,0.233213780,9.958891870,0.071500240,-0.020875040,-0.013998150
1640788203.464600,-0.262566000,0.286688180,9.993687630,-0.022643800,0.001288950,-0.007137660
1640788203.466910,0.065530170,0.390342740,9.734572410,-0.039832290,0.062018630,-0.010016560
1640788203.469390,-0.181042130,0.296085720,10.202612880,0.041370090,0.006785990,-0.014442200
1640788203.471910,-0.079287600,0.239978150,10.023465160,0.091227870,-0.041244920,-0.026470420
1640788203.474720,0.083114490,0.235421870,9.238743780,0.091248760,0.000491740,-0.018288200
1640788203.479390,0.017806080,0.157241240,9.594561580,0.001165270,0.050321230,-0.001965460
1640788203.480140,0.017897440,0.079056230,10.297495840,-0.041329870,0.085793460,0.007234510
1640788203.482170,-0.049178670,-0.015333410,9.972424510,0.022162500,0.005948540,-0.010634960
1640788203.484800,-0.095424150,-0.075838450,9.951528550,0.086486340,-0.070682180,-0.014193360
1640788203.486910,-0.169793340,0.000267470,9.433041570,0.095584970,0.047163660,-0.018444660
1640788203.489370,-0.188248560,-0.048721020,9.301818850,0.025437780,0.054712600,-0.028917200
1640788203.491960,-0.365957380,-0.067523400,10.496742250,0.022584200,0.029672690,-0.006377700
1640788203.495190,-0.129747470,0.100303460,9.473616600,0.061172250,0.043301280,0.001077350
1640788203.496940,-0.055635670,0.108990090,9.891891480,0.043584410,-0.041338810,-0.013846160
1640788203.499580,-0.281034890,0.166794420,10.231963160,0.068907450,0.057478250,-0.002236660
1640788203.501900,0.006270250,0.089033600,9.276312830,0.081548090,0.015942750,-0.026987490
1640788203.504360,-0.190877680,0.092885180,10.475551610,0.082463030,-0.002479550,-0.022199750
1640788203.507140,-0.055568910,0.351808880,9.539587970,0.068172820,0.072644660,-0.001697240
1640788203.509390,0.155236350,0.372993890,9.715996740,0.008243320,-0.016118590,-0.021417440
1640788203.511900,-0.222739710,0.583096620,10.390578270,0.001880530,0.051023070,-0.008821490
1640788203.515730,0.000422790,0.657780110,9.244482040,0.008302930,0.026573240,-0.014615060
1640788203.516390,-0.285286460,0.308565800,10.593750000,0.042444460,-0.023600460,-0.015400350
1640788203.519380,-0.339093660,0.289001140,9.878145220,0.090517130,0.065621730,-0.004845860
1640788203.521880,-0.111496300,0.032395140,9.537555690,0.037418310,-0.038301950,-0.014565880
1640788203.524530,-0.346124740,-0.026670670,10.252624510,-0.011444090,0.060471890,0.004264710
1640788203.525180,-0.013277420,0.037650900,9.212090490,-0.034493200,0.070585300,0.009302790
1640788203.529410,-0.056842350,-0.142767890,10.495281220,0.006546080,-0.024920700,-0.012241300
1640788203.532000,-0.034145500,-0.050310180,9.686267850,0.083072480,0.054369860,-0.010497870
1640788203.534410,0.272227970,0.002982860,9.125742910,0.093139710,-0.020456320,-0.025750700
1640788203.534820,-0.192352250,0.055503030,10.552181240,0.033029920,0.083819040,-0.016476210
1640788203.539930,0.046684060,0.173471700,9.175976750,-0.014595690,0.074073660,0.005103650
1640788203.541940,-0.216333150,0.013789770,10.527102470,0.026236480,-0.065755850,-0.003342330
1640788203.544580,-0.307423140,-0.001350300,9.641457560,0.102624320,0.091511010,-0.012049080
1640788203.545020,-0.166068090,0.078399610,9.154220580,0.111241640,-0.026892130,-0.026482350
1640788203.549450,-0.600892600,0.004539560,10.673713680,0.078153620,0.039312240,-0.032852590
1640788203.551870,-0.034611950,0.115107710,8.683652880,0.025281310,0.091212980,-0.014685090
1640788203.554400,-0.187896500,0.155566190,10.573415760,0.033511220,-0.037200750,-0.011956690
1640788203.554710,-0.171257930,0.176010220,10.230173110,0.056062640,0.133386250,-0.013227760
1640788203.559430,0.111232410,0.271806870,9.452185630,0.091029700,-0.044772030,-0.015817580
1640788203.561930,-0.531080540,0.138420910,11.024014470,0.108757620,-0.036853550,-0.016574560
1640788203.564680,-0.053552400,0.227666110,8.590560910,0.071160500,0.060509160,-0.016574560
1640788203.565180,-0.163129480,0.269657400,10.001636510,0.055848050,-0.049313900,-0.004044170
1640788203.569360,-0.316042810,0.332145390,10.249324800,0.036513810,0.131432710,0.005969410
1640788203.571930,0.367915300,0.560707150,8.963737490,0.005778670,0.012244290,-0.008612870
1640788203.577380,-0.205736740,0.477607460,11.207752230,0.034333780,-0.007760530,-0.001902880
1640788203.578790,-0.037479370,0.289894580,9.529601100,0.048837070,0.087638210,0.002442300
1640788203.579480,-0.134435300,0.002325840,9.893356320,0.099952520,-0.105914480,-0.009639560
1640788203.581930,-0.538847680,-0.200638180,10.063221930,0.097566830,0.025531650,-0.001384320
1640788203.584390,0.215001230,-0.051089860,8.171610830,0.026537480,0.081668800,-0.006477540
1640788203.584920,-0.221716050,-0.057829940,10.772392270,-0.005300340,0.068743530,0.007525090
1640788203.589890,-0.115930640,0.095187050,10.159978870,0.003016000,0.110019760,-0.002387170
1640788203.591920,0.256520570,0.168733910,9.661977770,0.086930390,-0.100851040,-0.023952120
1640788203.594490,-0.253001540,0.128793670,10.191279410,0.121837850,0.020402670,-0.026464460
1640788203.594870,0.125132550,0.176434470,8.727836610,0.076635180,0.090552870,-0.023759900
1640788203.599410,-0.276748780,0.047231450,10.509261130,0.061915820,0.019609930,-0.015491250
1640788203.601850,-0.333715380,0.053591710,9.897033690,0.040440260,0.059866920,0.016640130
1640788203.604410,-0.005229580,0.104545950,9.329435350,0.057981910,-0.036634510,0.006178020
1640788203.604920,-0.453160520,-0.033540250,10.430217740,0.075820090,0.053000450,-0.009560590
1640788203.609680,-0.167909670,0.112821620,9.320324900,0.101384520,0.062474620,-0.028620660
1640788203.612880,-0.321306910,0.110048720,10.368737220,0.116586710,-0.027126080,-0.029058760
1640788203.615510,-0.125035600,0.266885700,9.694485660,0.058054930,0.070631530,-0.020554670
1640788203.616100,0.126702460,0.524350700,9.586794850,0.026121740,0.016938150,-0.007943810
1640788203.619390,-0.271544370,0.497434290,10.584439280,0.013485550,0.052060190,-0.002253060
1640788203.622140,-0.087041200,0.538994370,9.494197850,0.036825240,-0.008869170,-0.010664760
1640788203.624400,-0.326157150,0.289970520,10.233907700,0.116127730,-0.058318680,-0.003503260
1640788203.624940,-0.332771480,0.084754410,9.659920690,0.108382110,0.073519360,0.002180040
1640788203.629860,-0.135236840,0.168417410,9.553352360,0.055240100,0.010351840,0.007171930
1640788203.631940,-0.186806340,0.213839410,10.280563350,-0.017511840,0.054262580,0.023160870
1640788203.634410,0.358980750,0.405332090,9.200559620,-0.064797680,0.092245630,0.023192160
1640788203.634780,-0.045369170,0.210889190,10.563187600,0.015135110,-0.000682470,0.014638900
1640788203.639510,-0.216087700,-0.040586900,10.104182240,0.106477740,0.001798570,-0.006680190
1640788203.645550,-0.087406800,-0.173658360,8.952328680,0.151412220,-0.069892410,-0.015428670
1640788203.646130,-0.583766220,-0.317029800,9.994682310,0.102104230,0.046163790,0.008970500
1640788203.646490,-0.259153370,-0.205616280,9.431393620,-0.016453860,0.122052450,0.022117800
1640788203.649390,-0.260537590,-0.073962760,10.187985420,-0.002859530,-0.013336540,0.030420720
1640788203.651850,-0.120444760,0.167776470,10.009495740,0.053867700,0.028049950,0.021159650
1640788203.654720,0.267141010,0.392703800,9.237053870,0.097247970,0.021605190,-0.008970500
1640788203.655630,-0.150441010,0.323863480,10.333691600,0.124764440,0.018636880,-0.007680060
1640788203.659410,-0.031327620,0.261464570,9.709423070,0.090716780,0.023137030,0.002942980
1640788203.659880,-0.103352800,0.098436530,9.714857100,0.071617960,-0.012087820,0.025045880
1640788203.664450,-0.347766850,0.093163390,10.141357420,0.032435360,0.036910180,0.036090620
1640788203.664850,-0.287978890,0.140453710,9.867795940,0.035670400,0.020436940,0.029711430
1640788203.669430,-0.374468650,0.084934100,9.895905490,0.088511390,-0.009232760,0.007630880
1640788203.672350,-0.305469810,0.277454260,9.819403650,0.097094460,-0.006185470,0.001665950
1640788203.675970,-0.085087910,0.463573550,9.534433360,0.073397170,0.038149960,0.006088610
1640788203.677800,-0.023112130,0.506749390,9.984957700,0.008402770,0.037759550,0.026187300
1640788203.679780,-0.072882790,0.627918840,10.281292920,-0.015257300,0.009997190,0.035710630
1640788203.680410,-0.023298190,0.424297150,9.684758190,0.024342540,-0.005023180,0.038275120
1640788203.684520,-0.093566580,0.203384010,9.896480560,0.060626870,-0.026947260,0.038559740
1640788203.684950,-0.309858140,-0.076583160,9.957968710,0.102265190,0.025734310,0.033482910
1640788203.689420,-0.059743630,-0.272166310,9.221178050,0.067816660,-0.009627640,0.031040610
1640788203.691920,-0.061155490,-0.126223980,9.803348540,0.011464950,0.020949540,0.038638710
1640788203.694480,0.055553160,0.046615780,9.641557690,-0.020240250,0.113703330,0.055255000
1640788203.695500,0.091531860,0.130623820,10.163399700,-0.017330050,-0.014765560,0.028309230
1640788203.699400,-0.275578500,0.110026090,10.415975570,0.083814570,-0.047783550,0.018520660
1640788203.699780,-0.049083910,0.019860340,8.901060100,0.135509680,-0.017958880,0.005054470
1640788203.704520,-0.408799770,-0.070570500,9.862125400,0.109261270,0.013580920,0.001616780
1640788203.705260,-0.514168680,0.016753920,9.883698460,0.048863880,0.075353670,0.029146670
1640788203.710140,-0.025635250,0.192040060,9.526490210,-0.007647270,-0.029583270,0.048552450
1640788203.710650,-0.258796600,0.232249010,10.360424040,0.018051260,0.014881790,0.059682130
1640788203.714440,0.128557470,0.383627680,9.487320900,0.061415140,0.057446970,0.043343020
1640788203.714860,-0.005267290,0.329200480,10.282909390,0.101469460,-0.028301780,0.016212460
1640788203.719450,-0.233047690,0.341093480,9.978324890,0.101162500,0.013077260,0.026732690
1640788203.721110,0.140285280,0.381305750,9.167793270,0.026522580,-0.021815300,0.025516750
1640788203.724520,-0.382704940,0.302075980,10.323483470,-0.016883020,0.012752410,0.031401210
1640788203.727110,-0.195726870,0.409084050,9.478961940,-0.025334950,0.042288000,0.044327970
1640788203.729400,-0.247860370,0.379826490,10.236666680,0.012852250,-0.045575200,0.020428000
1640788203.729740,-0.429796840,0.227773320,10.108571050,0.062824790,0.018492340,0.025846070
1640788203.734420,0.052827350,0.285897670,9.275295260,0.043079250,-0.022347270,0.041930370
1640788203.734870,-0.127016340,0.185126480,10.100266460,-0.015805660,0.033229590,0.038184230
1640788203.739510,0.237707970,0.263967160,9.164337160,-0.054930150,0.055214770,0.045214600
1640788203.740230,0.311619100,0.323300390,9.951000210,-0.043937560,-0.001658500,0.052149600
1640788203.744430,-0.077616280,0.021269770,10.183305740,0.007072090,0.055769090,0.039349500
1640788203.744880,-0.029806160,-0.124557520,9.626055720,0.063487880,-0.066116440,0.030180810
1640788203.749460,-0.571969330,-0.273283030,10.279446600,0.082962210,-0.051936510,0.012606380
1640788203.749860,-0.401952920,-0.223845910,8.851544380,0.019574170,0.048105420,0.030975050
1640788203.754980,-0.378255700,0.050666960,9.912562370,-0.035354500,0.010739270,0.040960310
1640788203.756420,-0.422628070,0.299450010,10.143642430,-0.044757130,0.079222040,0.038433080
1640788203.759430,0.178971070,0.594011490,9.388684270,-0.006644430,-0.037311020,0.029841070
1640788203.759930,-0.171031770,0.644525410,10.576068880,0.042383370,-0.005258620,0.019624830
1640788203.764400,-0.054232820,0.514831660,9.516334530,0.028783090,0.029772520,0.023534900
1640788203.764870,-0.161321710,0.320243920,10.079899790,0.019381940,-0.090274210,0.045043230
1640788203.769790,-0.501217960,0.005197720,10.056657790,0.001835820,-0.001536310,0.044180460
1640788203.771070,0.120661900,0.034758920,8.734418870,-0.035527350,-0.004653630,0.044830150
1640788203.774450,-0.301722710,0.108974040,10.580687520,-0.035245720,0.030486290,0.057153410
1640788203.775950,-0.132928040,0.193717110,9.886881830,-0.047987700,0.061507520,0.042173270
1640788203.779450,0.148638370,0.307209850,9.933492660,-0.009050960,-0.105403370,0.032800430
1640788203.779910,-0.245526760,0.345118700,10.104010580,0.012879080,-0.024119020,0.036191940
1640788203.784500,0.259145680,0.389593420,8.762828830,-0.044153630,0.041973590,0.034815070
1640788203.785460,-0.270491000,0.268549050,10.516866680,-0.043976300,0.003823640,0.053229920
1640788203.789450,-0.441075380,0.106667770,10.006473540,-0.049030780,-0.002200900,0.057640680
1640788203.790010,-0.018375590,-0.041933440,9.253762250,-0.003017490,-0.096887360,0.054787110
1640788203.794400,-0.507625400,-0.214565870,10.030939100,0.022532050,0.008219480,0.042393810
1640788203.794750,-0.037216280,-0.140587760,9.182389260,-0.016900900,0.047363340,0.024496020
1640788203.799460,0.003023810,-0.061896410,10.092070580,-0.015699870,-0.013966860,0.031299890
1640788203.800060,-0.008192820,0.036015540,9.830107690,-0.028550630,0.036403540,0.037114320
1640788203.804710,0.380212220,0.272453960,9.593428610,-0.026260320,-0.024008750,0.038574630
1640788203.805560,-0.283681120,0.198065580,10.405100820,0.000953670,-0.028161700,0.039678810
1640788203.809450,-0.260306780,0.135101480,9.440772060,0.026299060,-0.065195550,0.028595330
1640788203.809920,-0.436228780,0.109555300,9.777673720,0.044167040,-0.046795610,0.022920970
1640788203.814470,-0.602337180,0.069854650,9.821416850,0.019316380,0.032395130,0.036017600
1640788203.815100,-0.155296270,0.331160600,9.878988270,-0.018709890,-0.009676810,0.046852230
1640788203.820090,-0.188256520,0.470276650,10.141817090,-0.047686700,0.000621380,0.052858890
1640788203.821270,0.146375430,0.667748810,9.581616400,-0.085785990,-0.024849180,0.042271610
1640788203.825040,0.164928960,0.590198520,10.101638790,-0.030034780,-0.010189410,0.041645760
1640788203.825520,-0.134234130,0.343897550,10.010046960,0.013564530,-0.022502250,0.026187310
1640788203.829450,-0.049686250,0.202201720,9.702396390,0.014540550,-0.103318700,0.030429660
1640788203.829970,-0.147381080,0.005811200,9.476226810,-0.025807320,0.001898410,0.040952860
1640788203.834440,-0.201528280,-0.184916170,9.607013700,-0.101673590,0.033342830,0.058186050
1640788203.834830,-0.223678720,-0.209783230,10.398100850,-0.050361460,-0.014309590,0.062343490
1640788203.839500,-0.167543950,-0.204580110,9.620812420,0.012902920,-0.034086410,0.043758740
1640788203.840220,0.119973560,0.026414090,9.455657010,0.016903880,-0.074355290,0.029876820
1640788203.844350,0.000899010,0.264614730,9.681443210,-0.014525650,0.075264280,0.040097530
1640788203.844710,0.044946380,0.217504050,9.573717120,-0.074864920,0.010085110,0.013628600
1640788203.850070,-0.063943970,0.429222910,10.344884870,-0.028207900,-0.065009300,0.038354100
1640788203.851480,-0.131810740,0.333310930,9.412908550,-0.003619490,-0.008179250,0.046734510
1640788203.854660,-0.253489700,-0.028611240,9.941159250,0.007729230,-0.062598300,0.043156740
1640788203.855240,-0.613049860,-0.075640280,10.259172440,0.042398270,0.006929040,0.059229150
1640788203.859410,-0.348967580,-0.275824760,9.293489460,0.011344250,-0.051553550,0.034563240
1640788203.859820,-0.259977640,-0.150709150,10.032921790,-0.007258360,-0.040471560,0.052548950
1640788203.864560,0.015637690,0.257529800,9.360493660,-0.033973160,0.067748150,0.042085360
1640788203.865790,0.096575660,0.313754530,10.078818320,-0.060288610,-0.046336650,0.021409990
1640788203.869800,-0.120778790,0.619179610,10.373552320,-0.011378530,-0.042642660,0.031349070
1640788203.871040,0.010085020,0.434932260,9.393066410,0.019945210,-0.082777430,0.015710290
1640788203.875650,-0.388233300,0.167664380,10.377554890,0.045900050,-0.072824950,0.046741970
1640788203.876120,-0.512349550,0.227755760,9.658310890,0.025928030,-0.015085940,0.051367290
1640788203.879420,-0.167961580,0.092924490,9.405437470,-0.069727010,-0.096930560,0.059369210
1640788203.880010,-0.107550600,0.239526530,9.740443230,-0.089120870,0.037677590,0.088538230
1640788203.884510,0.118779110,0.233124380,9.651590350,-0.066885350,0.031369930,0.049105290
1640788203.884930,-0.046321200,0.010514220,10.755167960,0.013360380,-0.102733080,0.036230690
1640788203.889420,0.047936990,0.076823140,9.357020380,0.078542520,-0.091662990,0.023582580
1640788203.890020,0.000594390,-0.037719530,9.270411490,0.005583470,-0.079733140,0.019152460
1640788203.894400,-0.371799560,-0.193329470,10.195046420,-0.058677790,0.033831600,0.048863890
1640788203.894770,-0.260748570,-0.112766030,9.523773190,-0.038224460,-0.034463410,0.042845310
1640788203.899420,-0.420243950,-0.102600780,10.376992230,0.023849310,-0.127485410,0.048831110
1640788203.899860,-0.277986140,0.119532870,9.241290090,0.056120750,-0.025852030,0.049336260
1640788203.904490,-0.174696590,0.263665020,9.545454030,0.014193360,-0.082434720,0.024770200
1640788203.905050,-0.273720980,0.286849680,10.415080070,-0.008618830,0.003661220,0.035165250
1640788203.909420,0.153328240,0.472666170,9.261484150,-0.005520880,-0.027297440,0.036157660
1640788203.909850,-0.065903100,0.572880090,10.639700890,-0.023004410,-0.117827950,0.035245720
1640788203.914480,-0.038371590,0.548984290,9.641978260,-0.032265490,0.001378360,0.047259040
1640788203.915080,-0.138085010,0.388993110,9.595905300,-0.023543830,-0.139053180,0.033770500
1640788203.920250,-0.615801570,0.102636780,10.580672260,0.018611550,-0.089676690,0.038650630
1640788203.921190,-0.086754690,0.056957090,8.533019070,0.021544100,-0.042432550,0.046689810
1640788203.924970,-0.267004190,0.115188280,10.403445240,-0.026457020,-0.081597280,0.042983890
1640788203.925320,-0.045760240,0.315849420,9.715312000,-0.092345480,0.061012810,0.055100020
1640788203.929860,0.444438700,0.492946480,9.317614560,-0.108781460,-0.102694340,0.043931600
1640788203.930840,-0.010427890,0.397080600,10.895648000,-0.048828130,-0.034928320,0.047171120
1640788203.934480,0.134422260,0.151824160,9.158782010,0.009748340,-0.049595530,0.028194490
1640788203.934950,-0.290488300,-0.062909160,10.207807540,0.048936910,-0.209648920,0.016857680
1640788203.939470,-0.434073720,-0.243218150,9.305094720,-0.001065430,-0.005222860,0.038000940
1640788203.940050,-0.045862300,-0.241590920,8.795658110,-0.078654290,-0.022904580,0.048692530
1640788203.944390,-0.526100160,-0.182921950,11.189090730,-0.072553750,-0.010791420,0.060214100
1640788203.945340,0.046856990,0.049090120,9.264892580,-0.026579200,-0.024831300,0.038808590
1640788203.949520,0.227241670,0.241438220,9.768362050,0.027354060,-0.157736260,0.015418230
1640788203.950810,-0.139964240,0.358639510,10.032458310,0.024667380,0.036950410,0.015851860
1640788203.954570,0.120432980,0.346761910,9.178954120,-0.021426380,-0.059695540,0.010149180
1640788203.955210,-0.497656970,0.205360560,10.814881320,-0.001093750,-0.120016950,0.041790310
1640788203.959450,-0.347862210,0.115650980,9.202509880,-0.012598930,-0.037358700,0.045481320
1640788203.959930,-0.322183730,0.015427090,9.836981770,-0.001937150,-0.115670280,0.045895580
1640788203.964450,-0.778938710,0.018777670,10.586613660,0.020593400,-0.015853350,0.048741700
1640788203.965050,-0.104306640,0.142360400,9.162536620,-0.007559360,-0.089427840,0.026343770
1640788203.970750,-0.052389730,0.323379190,10.170170780,-0.008636710,-0.111405570,0.038616360
1640788203.971390,0.175680640,0.514915290,9.476396560,-0.059919060,0.020037590,0.046069920
1640788203.974650,0.468024130,0.550172510,9.826864240,-0.064642740,-0.064751530,0.045572230
1640788203.975840,-0.167032200,0.546195390,10.706978800,-0.023220480,-0.084100660,0.052203240
1640788203.979610,-0.038598020,0.305649130,9.370584490,-0.023253270,-0.138968270,0.047837210
1640788203.980270,-0.314341070,-0.057143690,9.815822600,0.010512770,-0.133603830,0.072418160
1640788203.984380,-0.574281100,-0.326145680,9.580269810,-0.001637640,-0.019505620,0.063979620
1640788203.984840,-0.095453820,-0.333866630,9.484817500,-0.023089350,-0.058969860,0.057810550
1640788203.989950,-0.181365880,-0.070799400,10.141616820,-0.036184490,-0.013655430,0.075531010
1640788203.990810,0.071881090,0.141623560,9.684988980,-0.090327860,-0.066088150,0.053176290
1640788203.994480,0.193871960,0.196659730,9.931571960,-0.042535360,-0.111022580,0.034402310
1640788203.994990,0.025800530,0.240823300,9.395249370,0.028841200,-0.077296800,0.019933280
1640788203.999400,0.068855350,0.147455660,9.608270650,0.046592950,-0.067308550,0.028544660
1640788203.999850,-0.218272120,0.045716680,10.105829240,0.027124590,-0.013391670,0.065641090
1640788204.004490,-0.291100290,-0.054980560,9.918927190,-0.035637610,-0.112575290,0.081941470
1640788204.005140,-0.235662370,-0.216441900,9.961487770,-0.022706390,-0.106182700,0.079843400
1640788204.009580,-0.206100030,-0.159168590,9.156507490,0.011138620,-0.026595590,0.059650840
1640788204.010990,-0.236300510,-0.133515660,10.081712720,0.045421720,-0.071999440,0.037406390
1640788204.014450,-0.098227300,0.092676990,9.829237940,0.061787660,-0.019977990,0.021509830
1640788204.015120,0.032476170,0.274916350,9.611593250,0.013084710,-0.119750210,0.033296640
1640788204.022870,-0.113876070,0.380007210,10.386794090,-0.022484360,-0.068682430,0.053602460
1640788204.023560,-0.162879450,0.479859290,9.442763330,-0.012972950,-0.045789780,0.049704320
1640788204.024380,-0.426314090,0.429041530,10.409223560,0.024816400,-0.169830020,0.060577690
1640788204.024930,-0.283983290,0.320770320,9.707855220,0.066062800,-0.047431890,0.069867060
1640788204.029360,0.109303970,0.287057820,9.010015490,0.030903520,-0.069762770,0.054262580
1640788204.029760,-0.027523700,0.328654530,10.694624900,-0.021551550,-0.016129020,0.064802170
1640788204.034440,0.405037970,0.362089130,9.377386090,-0.064669550,0.014778970,0.053988390
1640788204.034960,0.344399720,0.341630820,10.137866970,-0.065633660,-0.156608240,0.040160120
1640788204.040500,0.069216910,0.180981920,10.040860180,0.003390010,-0.030533970,0.053744020
1640788204.041080,0.192498830,-0.048710580,8.832923890,0.050659490,-0.074620540,0.024457280
1640788204.044540,-0.433391000,-0.206077050,10.627870560,0.041687490,-0.089725860,0.033865870
1640788204.044980,-0.268675540,-0.182048900,9.261327740,-0.003941360,0.025181470,0.058360400
1640788204.049480,-0.123111440,-0.139579100,9.738024710,-0.054211930,-0.096122920,0.056283190
1640788204.049930,-0.433786720,-0.045770420,10.541764260,-0.024575000,-0.005604330,0.058563060
1640788204.054530,0.189627840,0.106038440,8.898946760,0.021114950,-0.045242910,0.031678380
1640788204.055320,0.042928610,0.210398880,10.233587270,0.065779690,-0.071495780,0.015316910
1640788204.059480,0.057689480,0.330713060,9.629778860,0.030173360,0.044994050,0.017473100
1640788204.059960,0.309861120,0.269039300,9.635545730,-0.012747940,-0.078329450,0.039911270
1640788204.064380,-0.299888490,0.108000950,10.668626790,0.003649290,-0.068265200,0.057247280
1640788204.064820,-0.040225060,0.049120850,9.046207430,0.005406140,-0.042863190,0.035081800
1640788204.069720,-0.283672270,-0.038157180,10.087774280,0.051780060,-0.082311030,0.035172700
1640788204.070480,-0.554799500,-0.141579170,10.064828870,0.073121480,0.010316070,0.022679560
1640788204.074440,-0.058170810,0.034524250,9.431304930,0.041694940,-0.077709560,0.010989610
1640788204.075000,-0.181090770,0.368305740,10.138710980,0.008311870,-0.049322850,0.027610370
1640788204.079450,0.138238520,0.568217580,9.524152760,-0.075511640,0.030192730,0.021710990
1640788204.079940,0.215109600,0.726283430,10.239967350,-0.047440830,-0.044995550,0.023463370
1640788204.084490,-0.217970880,0.575506450,10.492375370,0.032004710,-0.078850990,0.022998450
1640788204.085000,0.224777890,0.366191270,9.193862920,0.053934750,-0.087846820,0.024269520
1640788204.092660,-0.036099270,0.093530870,9.697844510,0.051668290,-0.018617510,0.046706200
1640788204.093540,-0.142682690,-0.216265230,9.793661120,-0.022959710,0.038732590,0.033977630
1640788204.094340,0.224438560,-0.019844870,9.598801610,-0.064134600,-0.018830600,0.034120680
1640788204.094670,-0.027149670,0.032416170,9.982240680,-0.049670040,-0.027574600,0.042642650
1640788204.099410,0.198848100,0.072297700,9.639628410,-0.032906230,0.003704430,0.004974010
1640788204.099800,0.031594740,0.134143770,9.925085070,0.048637390,-0.017587840,-0.008885560
1640788204.104470,-0.360109840,0.011486590,10.021221160,0.060756520,-0.054641080,-0.014811760
1640788204.105060,-0.100262070,0.015295920,9.283541680,0.021030010,-0.024338070,0.008128580
1640788204.109500,-0.401614040,-0.140596600,9.845139500,-0.012758380,0.018097460,0.032603740
1640788204.110420,-0.364104990,-0.159845170,10.100266460,-0.022627420,-0.006392600,0.041173400
1640788204.114520,-0.024091180,-0.075925260,9.556424140,0.050069400,-0.028362870,0.016026200
1640788204.115130,-0.022211680,0.015806380,9.640364650,0.056095430,-0.000114740,0.005468730
1640788204.120010,0.226246890,0.214572490,9.748745920,0.037705900,0.047911710,0.009350480
1640788204.120860,0.099706200,0.199138460,10.040781970,0.038392850,-0.000314410,-0.004810090
1640788204.124600,-0.029173240,0.323084470,10.054227830,0.016961990,-0.063326950,0.003613530
1640788204.125440,-0.026214730,0.379955800,9.521434780,0.021271410,-0.017544630,0.005219880
1640788204.129400,-0.366622360,0.225931360,9.897645950,0.027403240,0.013194980,0.008040670
1640788204.129820,-0.469511600,0.234695480,10.270624160,0.038462870,-0.022791320,0.008514520
1640788204.134470,-0.318094310,0.132705790,9.713062290,0.057244300,-0.034159430,0.008426610
1640788204.135130,0.009375550,0.175341400,9.459320070,0.020281970,0.006599720,0.015534460
1640788204.139480,0.098673500,0.337417480,10.018877030,-0.015418230,0.080089290,0.022724270
1640788204.140060,0.127126370,0.365441770,10.196030620,-0.033476950,0.035370890,0.016500060
1640788204.144740,0.199675440,0.446597070,10.024331090,-0.009852650,-0.093880300,0.012111660
1640788204.145430,0.124600030,0.202308970,9.492410660,0.033237040,-0.017225740,0.009857120
1640788204.149470,0.197796700,0.014783470,9.218160630,0.034829970,0.071190290,0.004933770
1640788204.149840,-0.137278480,-0.051211150,10.343785290,0.031633670,0.025706000,-0.000828500
1640788204.154590,-0.070894820,-0.102289080,9.888568880,-0.006663800,0.044997030,0.012759860
1640788204.155350,0.106789030,0.015024850,9.475213050,-0.025571890,-0.003808740,0.013884900
1640788204.159440,-0.317899470,-0.066498950,10.249629970,-0.008291010,0.025281310,-0.000219050
1640788204.159910,0.048239760,-0.010425110,9.016395570,0.026866790,0.052036350,-0.017218290
1640788204.164380,-0.079362390,0.044936050,9.760662080,0.086115310,0.002565980,-0.015957660
1640788204.164720,-0.184269550,-0.058859690,10.150045390,0.055859990,0.120635340,-0.010807810
1640788204.170010,0.092086820,0.042004810,9.655332570,0.030693410,0.013192000,0.001636150
1640788204.171810,-0.508416890,-0.120356240,10.678617480,0.037221610,-0.055480010,0.013415520
1640788204.174500,-0.039443150,-0.103737620,8.805827140,0.036984690,0.056357680,0.007061660
1640788204.175220,-0.108206730,-0.041145800,9.611261370,0.097638360,0.015221540,-0.015975530
1640788204.179370,-0.253126950,-0.023049320,10.381996150,0.103910270,0.120750080,-0.014366210
1640788204.179760,0.331685220,0.332136180,9.240826610,0.074082620,0.041380520,-0.007714330
1640788204.185080,-0.295752760,0.288547340,10.904869080,0.037777440,-0.023499130,-0.004673010
1640788204.187040,-0.126841550,0.372120560,9.541368480,0.002822280,0.068463390,0.003245470
1640788204.189470,-0.227073010,0.355197100,9.716115950,0.071616480,-0.055581340,-0.006987160
1640788204.190220,-0.633946720,0.239357860,10.310335160,0.104151670,0.035735960,-0.010617080
1640788204.194400,0.105845500,0.367687490,8.802378650,0.080589950,0.075685970,-0.004154440
1640788204.194910,-0.274909620,0.274063110,10.812640190,0.035732980,0.025199360,0.009602310
1640788204.199510,0.021091600,0.359950300,9.875597950,-0.037713350,0.097940860,0.014993550
1640788204.200010,0.387154520,0.409850480,9.338490490,-0.010398030,-0.037257370,0.004763900
1640788204.204530,-0.124268620,0.233756450,10.482646940,0.044883790,0.041329870,0.009238720
1640788204.205020,0.341791840,0.204963360,8.881929400,0.053212050,0.090007470,-0.006325540
1640788204.209370,-0.057112090,-0.117137680,10.263771060,0.073373330,-0.015458470,-0.012835860
1640788204.209790,-0.155017990,-0.146969110,9.766021730,0.021900230,0.105643280,-0.000496210
1640788204.214430,0.092911310,-0.107202850,9.303326610,-0.003571810,0.036747760,-0.007209180
1640788204.214950,-0.524189770,-0.172289970,10.706355090,0.010250510,0.051870940,-0.006781520
1640788204.219960,-0.182544560,0.007390820,9.128978730,0.036963820,0.044877830,-0.020426510
1640788204.220960,-0.248105820,0.001338910,9.780776980,0.091190620,-0.020414590,-0.033257910
1640788204.224500,-0.341465860,0.132429730,9.780052190,0.066335500,0.136826950,-0.021673740
1640788204.224830,-0.023295060,0.193470520,9.653424260,0.032857060,0.046600410,-0.007157030
1640788204.229370,-0.312298510,0.101796640,10.636507990,0.050839790,0.029943880,0.013999640
1640788204.229730,0.017093770,0.220950990,9.222248080,0.040707000,0.022903080,0.004871190
1640788204.234510,-0.059537720,0.036284790,9.874952320,0.057414170,0.003775950,-0.008945170
1640788204.235030,-0.187339750,-0.017336390,9.931111340,0.082904100,0.121353570,-0.011490290
1640788204.239460,-0.143106820,0.038674170,9.876693730,0.097608570,0.002133850,-0.031717130
1640788204.240090,-0.266290160,0.243823930,10.191679000,0.067329410,0.001239780,-0.017437340
1640788204.244400,0.040103770,0.627458750,8.949886320,-0.018382070,0.051172080,-0.006119910
1640788204.244780,-0.166100980,0.558165190,10.186615940,-0.041435660,0.046063960,-0.005577510
1640788204.249640,-0.176218330,0.535530980,9.917263980,0.021974740,0.099256630,-0.002938510
1640788204.251210,-0.176177900,0.327204940,9.969695090,0.105321420,-0.061279540,-0.007252400
1640788204.254700,-0.331351310,0.003577180,10.163362500,0.110098720,0.026395920,-0.001305340
1640788204.255530,0.029938080,0.019428600,8.748696330,0.006207820,0.055144730,0.015704330
1640788204.259380,-0.241161510,-0.198807120,10.271239280,-0.045961150,0.022000070,0.016897920
1640788204.259880,0.199383290,-0.053197930,9.229163170,-0.021351880,0.134566430,0.005710120
1640788204.264510,0.188700170,0.112880350,9.875565530,0.039045520,-0.014461580,-0.005695220
1640788204.265870,-0.189394180,-0.022134900,10.593814850,0.074088570,0.045274200,-0.010401010
1640788204.269380,0.203930590,0.070017220,8.499802590,0.080324710,-0.005538760,-0.030137600
1640788204.271220,-0.414297910,-0.060335590,10.326780320,0.054971880,-0.004373490,-0.015743080
1640788204.275020,-0.223271340,-0.045083530,9.302007680,0.023724140,0.165979560,0.007285180
1640788204.275490,-0.221861390,0.139889300,9.810367580,0.032040480,-0.048126280,-0.003340840
1640788204.279370,-0.533360360,0.170141060,10.520436290,0.052569820,0.026886170,0.008793180
1640788204.279800,0.140453380,0.275795280,8.376489640,0.038425630,0.054173170,-0.013032560
1640788204.284410,-0.408225980,0.136938570,10.833747860,0.065799060,-0.006429850,-0.020506980
1640788204.284830,-0.243788120,0.077195410,9.694451330,0.084877020,0.109170380,0.001168250
1640788204.289460,0.101183330,0.142396570,9.238457680,0.076456350,-0.082744650,0.001959500
1640788204.290070,-0.357091250,0.161960420,10.515498160,0.023743510,0.044155120,0.011552870
1640788204.294410,0.260715990,0.357941960,8.623240470,-0.024391710,0.111411510,0.018931930
1640788204.294830,-0.287561210,0.184617340,10.914319990,0.021187960,-0.038920340,0.013719500
1640788204.299510,-0.351948800,0.191543460,9.968653680,0.086544460,0.030268730,-0.008109210
1640788204.299980,0.275180010,0.325469080,8.631367680,0.088253600,-0.057701760,-0.009937580
1640788204.304530,-0.363097310,0.260734950,10.440425870,0.036086140,0.079555820,0.006911160
1640788204.305270,0.056713870,0.424750420,8.986976620,-0.054010760,0.124081990,0.004065040
1640788204.309420,-0.004974700,0.349029330,10.255147930,-0.034326320,-0.068141520,0.022417310
1640788204.309840,-0.250116320,0.114935110,10.021039010,0.032430880,0.058339540,0.034415730
1640788204.314530,0.112885240,-0.049612980,8.946267130,0.071492800,0.001606350,-0.001211460
1640788204.315030,-0.510822530,-0.262463150,10.548474310,0.098206110,-0.015252830,0.011645260
1640788204.319900,-0.155698150,-0.350977360,8.917199130,0.031323730,0.074441740,0.009444360
1640788204.320680,0.110934700,-0.310535250,9.697500230,0.004452470,0.022239980,0.006017090
1640788204.324390,-0.283666880,-0.189052510,10.448619840,0.029100480,0.090417270,0.014525650
1640788204.324820,0.187610370,0.042060320,9.179188730,0.055554510,-0.036609180,-0.008451940
1640788204.329680,-0.076948560,0.187747200,9.858705520,0.094781810,-0.024086230,-0.005412100
1640788204.330730,-0.143374950,0.231688840,9.284300800,0.066705040,0.086538490,-0.013743340
1640788204.334410,-0.191250890,0.181679590,10.071208950,0.072032210,0.000260770,-0.006243590
1640788204.334810,-0.563251500,0.133484240,10.213516240,0.092414020,-0.011412800,0.021363800
1640788204.339460,-0.243844970,0.088843470,9.195030210,0.044693060,-0.026147070,0.020448870
1640788204.340000,-0.418425110,0.150849850,10.039957050,0.045208640,0.027824940,0.017264490
1640788204.344430,-0.434558090,0.113936450,9.811098100,0.055517260,0.034324830,0.010471050
1640788204.345250,-0.101183590,0.144215700,9.833580020,0.081296270,-0.041729220,0.001651050
1640788204.349450,0.018944280,0.352810470,9.542061810,0.086908060,0.017650430,0.006532670
1640788204.349840,0.255537690,0.474211480,9.565212250,0.005401670,0.039692220,0.001780690
1640788204.354490,0.124730910,0.515184100,10.252264020,-0.015558300,0.041368610,0.010484460
1640788204.355120,-0.115545260,0.359357860,9.887248040,0.015915930,-0.048699980,0.005055960
1640788204.359360,-0.155083430,0.221808390,9.785185810,0.056102880,-0.074386600,0.000208620
1640788204.359770,-0.250241430,0.149758090,9.235657690,0.074373190,0.030672550,0.020377340
1640788204.364400,-0.384675380,-0.119409940,9.665165900,0.014740230,0.005429980,0.016005340
1640788204.364760,-0.228109340,0.057989940,9.875702860,-0.007085500,0.033742190,0.015138090
1640788204.369600,-0.006480650,0.079248700,9.428419110,-0.010962790,0.010941920,0.029976670
1640788204.370270,0.004475960,-0.006681070,10.241490360,0.001195070,0.001399220,0.016874080
1640788204.374390,0.055906150,0.091113730,9.560734750,0.062942500,0.016108160,0.002415480
1640788204.374710,-0.002873150,-0.134449270,9.461303710,0.073122980,-0.079175830,-0.013525780
1640788204.379430,-0.106585700,-0.143245740,9.715602870,0.070777540,0.036859520,-0.001472230
1640788204.379850,-0.060940760,-0.159515570,9.358212470,0.039076810,0.048723830,0.013668840
1640788204.384410,-0.331345050,-0.172270120,10.482395170,0.031083830,-0.040410470,0.015857820
1640788204.384840,-0.240590770,0.077324600,9.538191800,0.062628090,-0.008781250,0.013507900
1640788204.389480,-0.079733280,0.214886170,9.145898820,0.041981050,-0.032402580,-0.003597140
1640788204.390110,-0.347510870,0.265956250,10.243675230,0.066834700,0.048133740,-0.007559360
1640788204.394770,-0.149063100,0.291881680,9.530014040,0.082696990,0.032225260,-0.014963750
1640788204.395480,-0.158307840,0.310008170,10.114722250,0.069440910,-0.086525090,0.002105530
1640788204.399410,-0.207475990,0.297854780,9.803740500,0.033435230,0.012035670,0.014428790
1640788204.399820,-0.020279880,0.204913600,9.343730930,0.000678000,0.001482670,0.016424060
1640788204.404480,-0.372708740,0.097550120,10.431701660,0.038646160,-0.029841070,0.007049740
1640788204.404980,-0.129959690,0.105740220,9.539196970,0.078506750,-0.020559130,0.002880390
1640788204.409500,0.224407900,0.221713920,9.249310490,0.065834830,-0.032846630,0.010469560
1640788204.410780,-0.075769310,0.336576940,10.311150550,0.016887490,0.049455470,0.006414950
1640788204.414460,0.203333120,0.465215470,9.487317090,-0.051887330,0.040560950,0.015541910
1640788204.415330,0.052340660,0.361568180,9.975899700,-0.012810530,-0.082455570,0.015124680
1640788204.419840,-0.295988950,0.150981280,10.071563720,0.056220590,-0.004926320,0.007732210
1640788204.420530,0.032561800,0.154945880,8.848090170,0.073465700,-0.000479820,0.002840160
1640788204.425000,-0.477053050,-0.093079270,10.198637960,0.049720720,-0.047461690,0.006014110
1640788204.425500,-0.074506530,-0.092599150,9.256633760,-0.018960240,0.091125070,0.034205620
1640788204.429390,0.185683340,-0.035740490,9.601718900,-0.021471090,0.005254150,0.022986530
1640788204.429770,-0.324655000,-0.119355460,10.912204740,0.021848080,0.014236570,0.018225610
1640788204.434380,0.384874370,0.119831230,8.584300040,0.052559390,-0.030894580,-0.000634790
1640788204.434840,-0.090849340,-0.068841490,9.796699520,0.072962050,-0.056372580,-0.012733050
1640788204.440510,-0.191739500,-0.119510780,9.590485570,0.049161920,0.122161210,-0.016821920
1640788204.440960,0.004008800,0.070623530,9.442330360,0.064298510,-0.046668950,-0.008986890
1640788204.444390,-0.604913950,-0.053598070,10.652709010,0.055579840,-0.046500560,0.021272900
1640788204.444790,0.106395450,0.226140320,8.502043720,0.013692680,0.033777960,0.017388160
1640788204.449380,-0.298332930,0.125321490,10.396589280,0.028696660,-0.013373790,-0.005424020
1640788204.449780,-0.367417840,0.104380790,10.091240880,0.064484780,0.071010000,0.001652540
1640788204.454500,0.192755910,0.326522350,9.022315980,0.106784710,-0.083298980,-0.015756490
1640788204.455210,-0.274430250,0.325637550,10.320311550,0.051437320,-0.008115170,-0.006459650
1640788204.459410,0.176866380,0.576122460,8.868343350,-0.039774180,0.072361530,0.009976330
1640788204.459870,-0.162078780,0.401018890,10.442875860,-0.031091280,-0.053025790,0.014483930
1640788204.464440,-0.301998700,0.359534410,10.147501950,0.020703670,0.005139410,0.005941090
1640788204.464820,0.146679710,0.370077700,9.015646930,0.059479480,-0.051912670,0.003032390
1640788204.469480,-0.332672000,0.107491370,10.385484700,0.043080750,0.026525560,0.010032950
1640788204.470280,-0.006602210,0.179653480,9.081348420,-0.034178800,0.049836930,0.015382470
1640788204.474920,0.063946220,0.188772750,9.774475100,-0.057530410,-0.065226880,0.012408200
1640788204.475920,-0.008951020,0.158932070,9.714677810,-0.054903330,0.076189640,0.025583800
1640788204.479380,0.154215070,0.192604710,9.471346860,-0.011330840,0.004872680,0.004349650
1640788204.479750,-0.262651680,0.097004490,10.519137380,0.033429270,-0.033694510,-0.007614490
1640788204.484410,-0.046574290,0.037158760,8.931803700,0.006772580,-0.001938640,-0.008517500
1640788204.485280,-0.124691020,-0.029997920,9.801096920,-0.017017120,-0.007383520,0.002665820
1640788204.490490,-0.251241920,-0.087771270,9.797234540,-0.029622020,0.100177530,0.020478670
1640788204.491010,-0.012398590,-0.013182640,9.510499950,-0.026248400,-0.050109640,0.004662570
1640788204.494400,-0.117277610,0.145481970,9.957812310,0.003984570,0.000514090,0.003767010
1640788204.494840,0.066390990,0.213187590,9.019742970,-0.026513640,0.046959520,-0.008776780
1640788204.499440,-0.224972610,0.107651720,10.489708900,-0.003996490,-0.009444360,-0.015421210
1640788204.499910,-0.218652010,0.113358280,9.704200740,0.033670660,0.018396980,0.003446640
1640788204.504470,-0.128434940,0.010261550,9.575228690,0.019423670,-0.072762370,-0.007483360
1640788204.505150,-0.376185270,0.200331630,10.112491610,-0.004482270,0.049273670,0.006836650
1640788204.509520,-0.208682890,0.250141470,9.256729130,-0.038029260,0.007131700,0.004820530
1640788204.510000,-0.366467600,0.328831970,10.377967830,-0.034831460,-0.065822910,0.003054740
1640788204.514430,0.017913030,0.637755750,9.111831670,-0.016811490,0.037968160,0.012755390
1640788204.515060,0.202662910,0.548347530,9.680061340,-0.042341650,-0.024174160,-0.004144010
1640788204.519780,-0.064212020,0.679362770,10.584184650,-0.040374700,0.073476140,0.014710430
1640788204.520670,0.131943030,0.545432330,9.451551440,-0.073182580,-0.045946240,0.009718540
1640788204.524440,-0.213570390,0.255610760,10.340875630,-0.075949740,-0.111334030,0.008773800
1640788204.524920,-0.150469870,0.185369090,8.996833800,-0.043053930,0.032645470,0.019636750
1640788204.529480,-0.125386910,-0.212333260,9.296927450,-0.051347920,-0.022292140,-0.007218120
1640788204.529990,-0.276386890,-0.041000550,10.165802000,-0.046393280,0.049959120,0.000549850
1640788204.534430,0.215096280,0.094608390,9.229485510,-0.085073690,0.035721060,0.011239940
1640788204.534890,0.078705740,-0.048796590,10.501954080,-0.108125810,-0.013142830,0.013108550
1640788204.539580,-0.073233470,0.180479480,9.869862560,-0.070965300,0.009194010,0.006872420
1640788204.540400,0.149405910,0.008763470,9.013242720,-0.038892030,-0.081253060,-0.004735590
1640788204.544410,-0.132936240,-0.015927040,9.651883130,-0.003956260,0.048665700,-0.001774730
1640788204.544880,-0.077163990,0.050113760,9.351899150,-0.030992930,0.103287400,0.008204580
1640788204.549500,-0.161726850,-0.129670720,10.333901410,-0.066567950,-0.037108350,0.020422040
1640788204.550020,-0.357830520,-0.154272570,9.931456570,-0.043341520,-0.024200980,0.012651090
1640788204.554560,-0.018503330,-0.030255490,8.886854170,-0.031116600,-0.022692980,-0.005650520
1640788204.555730,-0.325650480,0.024300930,10.014102940,-0.007312000,0.031168760,-0.016626720
1640788204.559530,-0.192936140,0.195545870,9.609476090,-0.013306740,0.054851180,-0.015033780
1640788204.560040,0.159335260,0.353814070,9.608518600,-0.035247210,-0.032120950,-0.002886360
1640788204.564400,-0.148285550,0.231271100,10.332081790,-0.043003260,0.023196640,0.003436210
1640788204.564750,0.021546670,0.260715600,9.666013720,-0.034305450,0.031399720,0.011247390
1640788204.570050,-0.322199290,0.185909050,10.208555220,0.000914930,-0.083634260,0.010658800
1640788204.571300,-0.306379470,0.102825030,9.556674960,-0.009402630,-0.004597010,0.014513730
1640788204.574490,0.210980040,0.301341030,8.785055160,-0.041937830,0.037619480,0.009453300
1640788204.575040,-0.144241350,0.353546710,10.358936310,-0.076907870,0.055187940,0.007377570
1640788204.579440,0.184081020,0.578223940,9.748679160,-0.118407610,0.070765610,0.012438000
1640788204.579910,0.234731900,0.595084730,9.784736630,-0.089134280,-0.060097880,-0.004667040
1640788204.584390,-0.230397360,0.309927230,10.373131750,-0.058977300,-0.011198220,0.007820130
1640788204.585210,0.033497950,0.119785090,9.002876280,-0.017000740,0.016602870,0.014236570
1640788204.589480,-0.417187240,-0.277917680,10.091810230,-0.019615890,-0.040805340,0.001034140
1640788204.590060,-0.213193680,-0.285084400,9.323581700,-0.073798010,0.095586480,0.026576220
1640788204.594420,0.104947100,-0.177103580,9.315614700,-0.102742020,0.014100970,0.036549570
1640788204.594990,-0.244356110,-0.270592540,10.635154720,-0.105355680,0.039631130,0.029937920
1640788204.599390,0.376832900,0.094796230,8.942831040,-0.040695070,0.015456970,0.001192090
1640788204.599770,0.068899300,0.128613250,9.887266160,-0.004552300,-0.041118260,-0.020980830
1640788204.604810,0.047548520,0.128953730,9.533031460,-0.039094690,0.112104420,-0.008058550
1640788204.605510,0.025112410,0.221405880,9.677036290,-0.035297870,-0.004731120,-0.000427660
1640788204.609380,-0.558657110,-0.091972930,10.604942320,-0.044263900,-0.028423970,0.014452640
1640788204.609760,-0.114280430,-0.005253690,8.731058120,-0.031024220,0.009018180,0.024856620
1640788204.614470,-0.404280510,-0.063986590,9.947219850,-0.015668570,0.011424720,0.012995300
1640788204.617110,-0.440937100,-0.075152140,9.934754370,-0.025741760,0.109149520,0.004494190
1640788204.619470,-0.048654150,0.248216090,9.625804900,0.000675020,-0.050544740,0.001165270
1640788204.620240,-0.148427830,0.323762920,10.106351850,-0.040599700,-0.000666080,0.008216500
1640788204.625070,0.304319110,0.548465070,8.901264190,-0.085444760,0.075851380,0.006355350
1640788204.625680,-0.114438640,0.497448710,10.742904660,-0.056380030,0.010219220,0.002051890
1640788204.629390,-0.284089210,0.364339830,10.176767350,-0.032554570,-0.002972780,0.000344220
1640788204.629870,0.012909450,0.212254050,9.181807520,-0.003024940,-0.103938600,0.006344910
1640788204.634450,-0.250480470,-0.031535370,9.960635190,-0.018402930,0.071899600,0.020320710
1640788204.635000,0.050197950,0.011135960,9.042963030,-0.080539280,0.098402810,0.010158120
1640788204.639450,-0.006206870,0.092578370,10.399489400,-0.094217070,-0.025023520,0.012987850
1640788204.641160,0.188697840,0.251415010,9.502130510,-0.099959970,0.082626950,0.014677640
1640788204.644400,0.305291440,0.314476310,9.508776660,-0.086009490,-0.019513070,-0.003120300
1640788204.644820,-0.180663630,0.243096050,10.392250060,-0.037100910,0.032487510,-0.007060170
1640788204.649680,-0.019777610,0.057282750,8.901065830,-0.043499470,0.009828810,-0.018078090
1640788204.651160,-0.348304540,-0.164453430,10.204831120,-0.026643270,-0.009302790,0.009110570
1640788204.654850,-0.418285100,-0.283572080,9.684331890,-0.043784080,0.110867630,0.019116700
1640788204.655570,-0.272375400,-0.342008530,9.682209970,-0.060459980,-0.051471600,0.000232460
1640788204.659380,-0.338846590,-0.120608800,10.030516620,-0.037610530,0.019054110,0.017112500
1640788204.659850,0.160028590,0.013430620,8.796989440,-0.051976740,0.072786220,-0.015781820
1640788204.664580,0.039449810,0.259715380,10.451375960,-0.032497950,0.032474100,-0.028094650
1640788204.665970,0.141401250,0.605863690,9.815810200,-0.019553300,0.094346700,-0.009362400
1640788204.669740,0.122794820,0.508744060,9.892351150,-0.066244610,-0.080141410,-0.018559400
1640788204.671000,-0.281821430,0.582221330,10.220685960,-0.062674280,0.006614630,0.018687550
1640788204.674970,-0.192707960,0.287147070,9.043320660,-0.067295140,0.034755470,0.006622080
1640788204.675370,-0.672958910,0.067529010,10.557021140,-0.030030320,-0.012217460,0.005172190
1640788204.679400,-0.490559070,0.264301120,9.525770190,-0.018529600,0.029782950,0.016550720
1640788204.679900,0.010075180,0.171350900,9.296103480,-0.115697090,-0.013248620,-0.004442040
1640788204.684440,-0.048796730,0.421253680,10.279277800,-0.147154940,0.114251670,0.004805620
1640788204.685060,0.186674360,0.472789350,9.797146800,-0.140331700,0.047042970,-0.019745530
1640788204.689490,0.092516090,0.300123960,10.482009890,-0.080801530,-0.075490770,-0.017966330
1640788204.690100,0.021310580,0.337021050,9.402553560,-0.032791500,0.003945830,-0.007891650
1640788204.694340,0.025678350,-0.026404350,9.306615830,-0.086350740,0.002571940,-0.014239550
1640788204.694690,-0.308963420,-0.118736490,10.081995010,-0.103659940,0.045214590,0.005185600
1640788204.699480,-0.069403130,-0.038249190,9.259521480,-0.120638320,0.047302240,0.013101100
1640788204.699990,-0.100987530,-0.117055270,10.104853630,-0.132355090,0.031971940,0.008082390
1640788204.704470,-0.261027780,0.141272660,10.060247420,-0.094199190,0.029683110,0.000916420
1640788204.705200,-0.008739020,0.061229210,9.332126620,-0.069069860,-0.037415330,-0.023630260
1640788204.709700,-0.195944060,0.068729390,9.790493970,-0.059826660,0.030618900,-0.042031700
1640788204.710210,-0.305424480,0.108364430,9.714314460,-0.074787440,0.070199380,-0.037162010
1640788204.714460,-0.162016790,-0.008803660,10.024531360,-0.085727870,-0.022123760,-0.022904570
1640788204.714880,-0.471594130,-0.041684180,10.163830760,-0.065231330,-0.009503960,-0.006891790
1640788204.719990,-0.166718890,0.043556820,9.264358520,-0.075374550,-0.001049040,0.007258360
1640788204.720910,-0.316620020,-0.020832920,10.013964650,-0.063650320,-0.008061530,-0.013874470
1640788204.724830,-0.198400650,0.131266520,9.723727230,-0.052070620,0.037743150,-0.021272900
1640788204.725300,0.210541000,0.435266730,9.488593100,-0.069771690,0.022690000,-0.026117270
1640788204.729470,-0.007915300,0.579758700,10.377214430,-0.109715740,0.024223330,-0.030913950
1640788204.730680,0.144349920,0.775641500,9.798283580,-0.154340280,0.032086670,-0.022181870
1640788204.734460,-0.094788890,0.690456630,10.016597750,-0.131957250,-0.051857530,-0.030322370
1640788204.734930,-0.634983540,0.262924940,10.260286330,-0.070442270,-0.043569510,-0.027655070
1640788204.739460,-0.236212510,0.145405230,8.935678480,-0.038127600,-0.017665330,-0.001522900
1640788204.740330,-0.420760630,-0.086871890,9.958354000,-0.086297100,0.030875210,-0.001335140
1640788204.744500,-0.190233160,-0.033772570,9.805541040,-0.175498430,0.108860440,0.008641180
1640788204.745820,0.278916950,0.258674140,9.581295010,-0.195312510,-0.022557380,-0.010447200
1640788204.749430,0.045313630,0.222211450,10.362001420,-0.165338810,-0.003628430,-0.025539100
1640788204.749980,0.432903560,0.415585190,9.076131820,-0.099878030,0.037641830,-0.043135890
1640788204.755800,-0.092640030,0.159245160,10.150316240,-0.058820850,-0.061813000,-0.068184730
1640788204.756340,-0.234557600,0.021296490,9.648235320,-0.087288030,0.036291780,-0.038778780
1640788204.759380,-0.140291910,-0.002910770,9.303173070,-0.120453560,0.007197260,-0.005649030
1640788204.760340,-0.766432340,-0.360598270,10.754219060,-0.160141290,0.009758770,-0.000034270
1640788204.764370,-0.326484350,-0.183448140,9.123425480,-0.117258730,-0.006309150,0.001600380
1640788204.764890,-0.356638460,-0.182290430,9.766770360,-0.057259200,-0.062517820,-0.038018830
1640788204.769880,-0.225006860,-0.020401320,9.705254550,-0.073625150,0.103996710,-0.054006290
1640788204.771120,0.135418440,0.352961180,9.637930870,-0.077947960,0.018139180,-0.055445730
1640788204.774540,-0.247521700,0.290012840,10.899135590,-0.099436950,-0.041094420,-0.041832030
1640788204.775180,0.098984630,0.526372250,9.133598330,-0.125980390,-0.029358270,-0.029812750
1640788204.779460,-0.268507360,0.417937930,9.976038930,-0.104706010,-0.065448880,-0.022284690
1640788204.780030,-0.599710110,0.113665970,10.122943880,-0.092636050,0.037302080,-0.026638800
1640788204.784430,-0.303857360,0.106866290,9.456251140,-0.025029480,-0.066760180,-0.035509470
1640788204.785090,-0.495378170,0.031865250,10.356704710,-0.051070750,-0.043216350,-0.029094520
1640788204.789440,0.171651870,0.273741100,8.882863040,-0.157827150,0.070789460,-0.016008320
1640788204.790470,0.010449550,0.410246160,10.337610240,-0.186859090,-0.011762980,-0.022292140
1640788204.794430,-0.109288100,0.477476150,10.303424840,-0.172716350,-0.007769470,-0.030201670
1640788204.794970,0.201458600,0.363366810,9.117312430,-0.078451620,-0.125561650,-0.045885150
1640788204.799350,-0.276363160,-0.094276310,10.199159620,-0.006240610,-0.018426780,-0.053827470
1640788204.799720,-0.202508550,-0.229392360,9.334848400,-0.045080490,0.046481190,-0.048910080
1640788204.804470,-0.376641420,-0.272073600,10.123758320,-0.088521820,-0.100922590,-0.022062660
1640788204.805780,-0.259726970,-0.318299500,9.643120770,-0.156469670,0.024695700,0.000603500
1640788204.809500,0.181792870,-0.040921170,9.052027700,-0.140193100,-0.003319980,-0.010979170
1640788204.810360,-0.167974620,0.115517960,10.652732850,-0.047093630,-0.009965900,-0.040920080
1640788204.814480,0.199918110,0.413620470,9.195577620,-0.037853420,0.006195900,-0.071479390
1640788204.814950,0.004817270,0.493563210,10.035107610,-0.063185400,-0.086253890,-0.081212820
1640788204.819830,-0.308057790,0.407583590,10.224477770,-0.103798520,0.046548250,-0.051878400
1640788204.821090,-0.248613120,0.205004630,9.454934120,-0.106960540,-0.082556900,-0.054977830
1640788204.824460,-0.717849140,0.052696230,10.357734680,-0.048103930,-0.085116930,-0.039993230
1640788204.824820,-0.332378180,0.104073040,8.860603330,-0.061905390,0.023522970,-0.031407180
1640788204.829430,-0.394267980,-0.093895730,10.125712390,-0.081890840,-0.047224760,-0.031980880
1640788204.829900,-0.285089250,0.047793000,10.227492330,-0.070309640,0.033183400,-0.033965710
1640788204.834360,0.315512660,0.179064770,9.243261340,-0.086350740,-0.077573960,-0.059545040
1640788204.834750,0.121493030,0.403525080,10.263147350,-0.083771360,-0.036884850,-0.056751070
1640788204.840810,0.354532090,0.624734280,9.187310220,-0.134623040,0.057978920,-0.045542420
1640788204.841290,-0.095649020,0.221341390,10.396077160,-0.101074600,-0.101627420,-0.057630250
1640788204.844500,-0.429295270,0.001826080,10.043828960,-0.008115170,-0.071269270,-0.041279200
1640788204.844960,-0.158118140,-0.170026110,8.722417830,-0.005500020,-0.094415250,-0.052838040
1640788204.849460,-0.652852830,-0.367691840,10.202679630,-0.056402400,0.009629130,-0.036852070
1640788204.850080,-0.274255190,-0.079463070,9.260214810,-0.121212030,0.064827500,-0.042729090
1640788204.854480,-0.170815960,-0.046125040,10.158431050,-0.111687180,-0.098784280,-0.050249700
1640788204.855150,-0.099101210,0.164396840,9.836433410,-0.053043670,0.001740460,-0.046849250
1640788204.859480,0.219672750,0.269834790,9.172741890,-0.010918080,-0.059923540,-0.084584960
1640788204.860050,-0.381118540,0.022181120,10.642217640,0.015513600,-0.069150340,-0.080333660
1640788204.864430,-0.042115320,0.185392480,8.974063870,-0.006693600,-0.026319920,-0.062297280
1640788204.864900,-0.207996930,0.047631820,10.029112820,-0.059568880,-0.101055200,-0.058439390
1640788204.869730,-0.325764390,0.153156090,9.990800860,-0.078602140,0.042641160,-0.038808590
1640788204.870420,0.058973540,0.380617470,9.240703580,-0.067017970,-0.071145600,-0.072699790
1640788204.874460,-0.395374000,0.326513110,10.608278270,-0.043272980,-0.060795260,-0.082120310
1640788204.875040,0.031090560,0.512606860,8.985871320,-0.018529600,-0.006018580,-0.076960030
1640788204.879430,-0.150784510,0.420827660,10.138775830,-0.029498340,-0.112044820,-0.084418060
1640788204.879800,-0.304530470,0.249349530,9.946365360,-0.073699660,0.004903970,-0.059743230
1640788204.884430,0.086657360,0.223616540,8.979261400,-0.077717010,-0.081726920,-0.064815580
1640788204.884970,-0.457281350,-0.105328050,10.826319690,-0.052234540,-0.043427940,-0.062084210
1640788204.889560,-0.171703500,-0.160905910,9.223329540,-0.021383160,-0.006298720,-0.052905080
1640788204.892620,-0.339313330,-0.225379660,10.048513410,0.011757020,-0.188015400,-0.076691810
1640788204.894340,-0.174826350,-0.150614410,9.348937990,-0.026565790,-0.003044310,-0.064504150
1640788204.894720,0.411194740,0.175338250,8.596966740,-0.065113610,0.005380810,-0.061835350
1640788204.899420,-0.039025290,0.227439110,11.016643520,-0.066208840,0.021153690,-0.069032610
1640788204.899970,0.370585530,0.456410380,9.451702120,-0.041398410,-0.015667080,-0.058336570
1640788204.904500,-0.024797420,0.244869200,10.134961130,0.036224720,-0.193452850,-0.065045060
1640788204.905110,-0.471484240,-0.110551420,9.690694810,0.030824540,-0.026227530,-0.074483460
1640788204.909500,-0.333709180,-0.255180930,8.775918010,0.039623680,-0.076176230,-0.079196690
1640788204.910830,-0.898794170,-0.497832660,10.610872270,0.050002350,-0.054194040,-0.058285890
1640788204.914440,-0.177908940,-0.287971050,8.868628500,0.002023580,0.017772620,-0.040905180
1640788204.914920,-0.123875800,-0.111698630,10.162239070,0.007249420,-0.086002050,-0.053776810
1640788204.919750,-0.129306410,0.121616760,10.316345210,0.003544990,0.024446850,-0.063461070
1640788204.920380,0.242976380,0.383766030,9.271993640,0.052848460,-0.117795180,-0.095999250
1640788204.925900,-0.301203190,0.379705100,10.503354070,0.105135130,-0.128191720,-0.096154210
1640788204.926310,0.026176490,0.444816410,8.904731750,0.063428280,-0.027358530,-0.083193170
1640788204.929390,-0.274848880,0.426285620,9.963510510,0.043356420,-0.117318320,-0.063124300
1640788204.929790,-0.500991110,0.397276460,10.254504200,-0.004997850,-0.030325350,-0.040751690
1640788204.934720,0.039839270,0.327533510,9.110861780,-0.005176660,-0.088346000,-0.048631420
1640788204.936180,-0.348132970,0.119412380,10.610260010,0.071324410,-0.074706970,-0.050087280
1640788204.939810,-0.035892280,0.236310230,9.442922590,0.070267910,-0.032055370,-0.067690010
1640788204.940290,0.154052150,0.261763220,9.457612040,0.033241510,-0.143884120,-0.073876980
1640788204.944410,0.011870070,0.293978040,9.826582910,-0.025215740,-0.005559620,-0.052234540
1640788204.944800,0.198689450,0.265824110,9.433717730,-0.033319000,-0.018674140,-0.056707860
1640788204.949420,-0.308032300,0.026271990,10.650311470,0.051611670,-0.126776110,-0.052669650
1640788204.950030,-0.225339220,0.002600660,9.462585450,0.094707300,-0.121539820,-0.047981730
1640788204.954460,-0.119991620,-0.067240350,9.114601140,0.085645920,-0.097398460,-0.048802800
1640788204.955080,-0.177396980,-0.065948340,9.668663020,0.029797850,0.030441580,-0.042217970
1640788204.959380,0.124148350,0.187630650,9.682120320,-0.008864700,-0.007997450,-0.061488150
1640788204.960140,0.176476900,0.356532370,9.902789120,0.011014940,-0.067640860,-0.060474880
1640788204.964390,0.258057740,0.570703980,9.437074660,0.019389390,-0.074155630,-0.069451340
1640788204.964750,-0.010722210,0.382691320,9.729221340,0.048598660,-0.070188960,-0.076816990
1640788204.970230,-0.136239660,0.073453580,9.523778920,0.093659770,-0.052630900,-0.081209850
1640788204.972160,-0.327603310,-0.041257170,9.815878870,0.103864070,-0.075584660,-0.061099230
1640788204.974410,-0.379026830,-0.189453770,9.765418050,0.052578750,-0.012971460,-0.034104280
1640788204.974890,-0.149403100,-0.034320030,9.439865110,0.000306960,-0.053499640,-0.034338240
1640788204.979400,-0.452138220,0.064616230,10.229677200,0.013756750,-0.069779150,-0.059054780
1640788204.979880,0.091483250,0.384310010,8.974060060,0.032524760,-0.030922890,-0.081054870
1640788204.984620,-0.005645880,0.556315840,10.029644970,0.076681390,-0.067394980,-0.093312580
1640788204.985840,-0.090541710,0.579087910,10.235120770,0.074082610,0.020228330,-0.084696720
1640788204.989520,0.232552250,0.781064150,9.376412390,0.025004150,-0.097823150,-0.066933020
1640788204.990200,-0.273329620,0.581368680,10.270874020,-0.016005340,-0.104123350,-0.039584930
1640788204.994390,0.140774590,0.406076010,8.859590530,-0.029568370,0.027100740,-0.018984080
1640788204.994830,-0.181571950,0.092542830,10.012382510,0.036850570,-0.071822090,-0.034536430
1640788204.999470,-0.384224890,-0.087685070,10.178703310,0.071840000,-0.038640200,-0.048440700
1640788205.000010,0.389331820,0.084672440,8.526992800,0.034981970,-0.060424210,-0.058671830
1640788205.004500,-0.147087410,-0.027674450,10.290879250,-0.026273730,0.012473760,-0.058366360
1640788205.005160,0.102183240,0.138268980,9.704436300,-0.060638800,0.060711810,-0.058008730
1640788205.009380,-0.077755750,0.163737210,9.956368450,0.014124810,-0.138114380,-0.073122960
1640788205.009900,-0.414574090,0.048282510,9.791360860,0.084684790,-0.078718370,-0.064946720
1640788205.014400,0.033765570,0.138572690,8.472750660,0.089736280,-0.003361700,-0.052386520
1640788205.014880,-0.481284590,-0.084776630,10.092590330,0.045345730,0.009991230,-0.060018900
1640788205.019980,-0.061699770,0.026629930,9.741014480,0.012643640,0.031602380,-0.034904480
1640788205.021170,0.105682880,0.171735000,9.665413860,0.026337800,-0.061722100,-0.035820900
1640788205.024490,-0.020882400,0.153643610,9.854195590,0.006668270,-0.013001270,-0.050012770
1640788205.025050,0.161421300,0.265449910,9.318033220,0.058172650,-0.016069410,-0.070296230
1640788205.029370,-0.281641540,0.101175380,9.757469180,0.093826640,-0.050282480,-0.080907330
1640788205.029770,-0.232747450,0.023375910,9.589619640,0.083230440,-0.031854220,-0.070981670
1640788205.034410,-0.313367250,0.105703680,9.768774990,0.069396200,-0.034926840,-0.054755810
1640788205.035020,-0.478470740,0.017811630,9.993806840,0.016428530,-0.022970140,-0.047646470
1640788205.039480,-0.238899140,0.351322380,9.783117290,0.020147860,-0.047665830,-0.035388770
1640788205.040370,-0.278619590,0.451340200,9.752854350,0.026541950,-0.030927370,-0.053526470
1640788205.044390,0.065114440,0.453843030,9.582635880,0.040629510,-0.025090580,-0.070762640
1640788205.044810,0.025620350,0.608332510,9.895708080,0.088544190,-0.021967290,-0.069873040
1640788205.049690,0.122691460,0.583747740,9.573009490,0.015194720,-0.034220520,-0.070242590
1640788205.051010,0.215715410,0.544152260,9.748359680,-0.034250330,-0.037601590,-0.029350820
1640788205.054720,-0.219580400,0.246939720,10.000376700,-0.019052620,-0.007227060,-0.026895110
1640788205.055910,-0.195478980,-0.098802030,9.830506320,0.029458110,-0.085179520,-0.044786930
1640788205.059410,-0.248224080,-0.090655730,9.421994210,0.105702880,-0.080049050,-0.040486450
1640788205.059870,-0.045598220,-0.171938450,9.052583690,0.044624510,0.037036840,-0.048574810
1640788205.064460,0.052709670,-0.120672980,10.005187030,-0.014168020,0.070962320,-0.039669870
1640788205.065360,-0.073217590,0.175201150,10.097230910,-0.010360780,-0.017733870,-0.040474530
1640788205.069360,0.099900610,0.194285040,9.754750250,0.009344520,-0.115911660,-0.057774790
1640788205.069830,0.025693640,0.348182320,9.169544220,0.060263290,-0.008010870,-0.048935420
1640788205.074430,-0.170785460,0.287567230,9.467327120,0.059668730,-0.001670420,-0.072099270
1640788205.075430,-0.264791640,0.068577810,10.163270000,0.069729980,0.011771920,-0.052224100
1640788205.079400,-0.105373230,0.092843320,9.333993910,0.069220370,0.000615420,-0.033271320
1640788205.079770,-0.199432300,0.058986030,10.176971440,0.008976460,-0.066868970,-0.025023530
1640788205.084480,-0.096454760,0.041948490,9.410555840,-0.003920500,0.045375530,-0.018313530
1640788205.084960,-0.068939890,0.090041700,9.374317170,0.027740010,-0.052098940,-0.054170200
1640788205.089490,-0.370628150,0.076309710,10.558572770,0.091522940,0.004544850,-0.062239170
1640788205.090240,0.014474510,0.234145750,9.013009070,0.091722620,0.011728700,-0.063835070
1640788205.094390,-0.369553330,0.338741540,10.537059780,0.043343010,-0.100122400,-0.065259640
1640788205.094860,-0.243907420,0.401441340,9.620064740,-0.013498960,0.052583220,-0.027924780
1640788205.099370,0.058199100,0.453657180,8.991172790,-0.005787610,-0.064198670,-0.036332010
1640788205.100000,-0.432423830,0.306355770,10.930580140,0.053393840,0.000870230,-0.021074710
1640788205.104690,0.232862820,0.380166230,8.686107640,0.073422490,0.038570170,-0.028762230
1640788205.105590,-0.004303110,0.227165150,10.243659020,0.046806040,-0.126190480,-0.043354930
1640788205.109400,0.102791250,0.282163110,9.570907590,-0.014230610,0.094373530,-0.005429980
1640788205.109760,0.501398030,0.194528270,8.939848900,-0.040046880,0.011564790,-0.012299420
1640788205.114480,-0.356683820,-0.095039880,11.254240990,0.023552780,-0.021719930,-0.021529200
1640788205.115130,0.120678240,0.041668470,8.714898110,0.080184630,-0.008215010,-0.033834580
1640788205.119360,-0.232882230,-0.220965730,9.671351430,0.088013720,-0.116878760,-0.039982800
1640788205.119840,-0.539190890,-0.270651220,9.764424320,0.050824880,0.097228590,-0.026144090
1640788205.124760,-0.027198330,0.001086650,8.934426310,0.024773180,0.002430380,-0.046011810
1640788205.126360,-0.464022990,0.099701830,10.741821290,0.031256680,-0.024430460,-0.028924640
1640788205.129610,0.223065120,0.511116500,8.932079320,0.030867760,0.062330070,-0.015720720
1640788205.130570,0.088961860,0.547094940,10.108788490,0.036281350,-0.040429830,-0.039672850
1640788205.134350,-0.153453390,0.388152600,10.121859550,0.041867790,0.032100090,-0.024177140
1640788205.134750,0.213981660,0.293009100,8.956559180,0.086498260,-0.035142900,-0.031499570
1640788205.139450,-0.364809870,-0.007165380,10.434165950,0.074644390,-0.021462140,-0.038045650
1640788205.140170,-0.026709170,0.132875550,9.081277850,0.033046310,0.050087280,-0.004926320
1640788205.144410,-0.215987820,0.067552570,9.955245020,0.002935530,-0.054875020,-0.031006340
1640788205.145020,-0.227970450,0.171294390,9.909508710,-0.023530420,0.051967800,-0.029061740
1640788205.149450,0.064154980,0.380283420,9.341085430,0.037054720,-0.001811980,-0.029377640
1640788205.150000,-0.432204840,0.266980740,10.658410070,0.071153050,-0.013302270,-0.039434430
1640788205.154870,0.009917480,0.501855190,9.093310360,0.050668430,0.001607840,-0.018982590
1640788205.155800,-0.164105910,0.445831090,9.559885030,0.011114780,-0.066336980,-0.007462500
1640788205.159350,-0.108681160,0.261912880,9.669353490,-0.057059530,0.089238570,0.002217290
1640788205.159820,0.068816390,0.165993600,9.616700170,0.012908870,0.017215310,-0.001250210
1640788205.164420,-0.354211150,-0.093718060,10.644563670,0.082384060,-0.063087050,-0.014089050
1640788205.164840,0.259698750,0.023350480,8.855197910,0.066255030,0.003382560,-0.022767480
1640788205.169390,0.022827220,0.029710190,9.394686700,0.014834110,0.012463330,-0.009417530
1640788205.169820,-0.058019660,-0.017932020,9.950149540,-0.065238770,0.091569130,-0.009484590
1640788205.176040,0.214759830,0.050273410,9.532077790,0.010363760,0.006204840,-0.022676580
1640788205.176540,-0.336662290,0.020752810,10.294623370,0.081825260,-0.070324530,-0.025188920
1640788205.179410,-0.185425180,0.071534100,9.378896710,0.066362330,0.003448130,-0.020916760
1640788205.179860,-0.434124320,-0.048811380,9.509320260,0.053580110,0.004145500,-0.026881690
1640788205.184330,-0.541236700,-0.092009240,10.103971480,0.043268500,0.002585350,-0.013022120
1640788205.184740,-0.159503460,0.071806920,9.431812290,0.075458000,0.033140190,-0.004641710
1640788205.189480,-0.091511900,0.352594410,9.557886120,0.049398840,-0.014168020,-0.013190510
1640788205.190110,0.016832260,0.615793410,10.141375540,-0.004963580,0.022426250,-0.014026460
1640788205.194540,0.150323940,0.661408250,9.407122610,0.006537140,0.032190980,-0.017344950
1640788205.195910,-0.112447120,0.593167660,10.278555870,0.029759110,-0.081916150,-0.026746090
1640788205.199350,-0.049824130,0.529503290,9.760468480,0.076183680,0.015203660,0.000633300
1640788205.199780,0.005337210,0.387179760,9.055350300,0.032381710,-0.015810130,0.002385680
1640788205.204680,-0.411790130,0.199847670,10.479601860,-0.027842820,-0.012283030,0.013053420
1640788205.205670,-0.128808710,0.240508090,9.140593530,-0.040815760,0.056466450,0.019493700
1640788205.209670,-0.182708770,0.017898120,9.946584700,-0.011171400,-0.064842410,0.005351010
1640788205.211200,-0.283903390,0.147962350,10.082665440,0.040887300,0.034199660,0.008866190
1640788205.214580,0.250362130,0.298882660,8.641171460,0.017595290,-0.007635350,-0.022988020
1640788205.215080,-0.034647580,0.245929750,10.287035940,-0.032173100,0.004813070,-0.001278520
1640788205.219400,0.109277320,0.348394100,9.494350430,-0.044210260,0.115713480,0.023841860
1640788205.219970,0.030907170,-0.005039430,10.224665640,-0.011785330,-0.062108040,-0.005261600
1640788205.224440,-0.345425490,-0.014444460,10.134106640,0.064761940,-0.038413700,0.009287890
1640788205.226310,0.040726790,0.106811220,8.143398280,0.046204030,-0.023181740,-0.008030240
1640788205.229750,-0.371307940,-0.033280470,10.086677550,-0.018249450,0.052040820,-0.002112980
1640788205.230330,-0.146123530,0.279746090,9.468641280,-0.046679380,0.129775720,0.016452370
1640788205.234410,-0.028431530,0.190261510,10.200358390,-0.001950560,-0.071859370,-0.005738440
1640788205.234840,-0.244715810,0.298860190,10.276857380,0.026598580,0.021626060,-0.002242620
1640788205.239490,0.052265610,0.482782900,8.775017740,0.023742020,-0.017678740,-0.006686150
1640788205.240190,-0.515703980,0.145103510,10.629157070,0.005786120,-0.022637850,-0.011394920
1640788205.244900,-0.262586090,0.187238480,9.085169790,0.019456450,0.063985590,0.002402070
1640788205.245340,-0.109600320,0.278918180,9.641536710,0.021439790,-0.108093020,-0.000047680
1640788205.249470,-0.178339990,0.302110580,10.052001950,-0.031778220,0.106436030,0.009921200
1640788205.249880,0.314766440,0.665938680,9.001975060,-0.059890760,0.045551360,0.014421340
1640788205.254710,-0.222528520,0.581640300,11.194254880,-0.047603250,-0.052140650,0.016754870
1640788205.255450,0.343071190,0.542941690,8.871747970,-0.031031670,0.049828000,0.014071170
1640788205.259390,0.226332160,0.444628540,9.464810370,0.013053420,-0.051194440,0.016097730
1640788205.259810,-0.244378430,0.198277910,10.314259530,-0.021560490,0.117281090,0.017622120
1640788205.264370,0.175941230,0.225253480,8.751515390,-0.061728070,0.024990740,0.029210750
1640788205.264750,-0.483118680,-0.098791200,10.797185900,-0.052484880,-0.065670910,0.030909480
1640788205.269380,-0.050588350,-0.052485280,8.920439720,-0.054268540,0.094299030,0.022928420
1640788205.269820,0.070258080,0.027736480,9.245220180,-0.011810660,-0.024352970,-0.007095930
1640788205.274440,-0.219576760,0.128662880,10.223260880,-0.018976630,0.113230950,-0.006289780
1640788205.275640,0.444002720,0.488259700,8.843316080,-0.050321220,0.095677380,0.010584290
1640788205.279400,-0.148008530,0.308066400,10.696458820,-0.071141120,-0.011350220,0.018259880
1640788205.279860,-0.017442030,0.274086390,9.515565870,-0.054642560,0.046800080,0.021672250
1640788205.284400,-0.025572780,0.077735030,9.056012150,0.018115340,-0.022827090,-0.003273790
1640788205.284910,-0.511383470,-0.154010770,10.070159910,0.023235380,0.069884960,-0.004026290
1640788205.289470,-0.080822760,-0.085440170,9.172938350,0.007072090,0.104349850,0.009264050
1640788205.290100,-0.294951950,-0.132291260,10.101434710,-0.022777910,0.018741190,0.005821880
1640788205.294590,-0.126239400,0.193688910,9.761297230,-0.062522300,0.041854370,0.011071560
1640788205.295050,0.034315120,0.443958880,9.303751950,-0.043337060,0.035940120,-0.003381070
1640788205.299360,-0.164988230,0.364530240,10.077212330,-0.027024750,0.051705550,-0.025419900
1640788205.299800,-0.187670840,0.547293540,9.975952150,0.035715110,0.047232210,-0.023157890
1640788205.304760,-0.206347880,0.547912360,9.674703600,0.024001300,-0.017032030,-0.011080500
1640788205.305850,-0.155342820,0.493061300,9.717646600,-0.056734670,0.020813940,0.003071130
1640788205.311390,-0.209742280,0.591245000,9.580035210,-0.095558170,0.094281140,0.027832390
1640788205.312010,-0.173615170,0.454595330,9.838989260,-0.103372340,0.027759370,0.014427310
