# timestamp,accel_x,accel_y,accel_z,gyro_x,gyro_y,gyro_z
1640786241.126269,0.048023030,0.065518600,9.326388360,-0.096918650,0.032213320,0.033533570
1640786241.129459,0.429658230,0.096413390,9.262127880,-0.089266900,-0.053325300,0.037406380
1640786241.131000,-0.222116680,0.050286360,10.976476670,-0.061322750,0.022953750,0.031964480
1640786241.134189,0.101883250,0.185255140,9.291612630,-0.063657760,-0.047691170,0.029662260
1640786241.135800,-0.123079820,-0.056783290,10.190378190,-0.030982500,-0.164939460,0.014607610
1640786241.138949,-0.273691390,-0.128762800,9.495922090,-0.009240210,0.062347950,0.008647140
1640786241.140679,0.047630120,0.114842620,9.344634060,-0.012893970,-0.002509360,0.003577770
1640786241.143760,-0.482721030,0.241843160,11.033974650,-0.056548420,-0.048987570,0.030843920
1640786241.145700,0.068002130,0.367268980,9.168125150,-0.084809940,-0.036777550,0.048182900
1640786241.148870,0.076127980,0.396461930,9.881088260,-0.065614280,-0.079859800,0.025111440
1640786241.150679,-0.366372110,0.395551920,10.265128140,-0.034761430,0.033132730,0.027814510
1640786241.153890,0.041258510,0.395195280,9.557504650,0.003983080,-0.068362060,0.011979040
1640786241.155779,-0.296238010,0.233659220,10.546232220,-0.004982950,-0.077155230,0.012433530
1640786241.162279,-0.007660020,0.278704050,9.249085430,-0.059370700,-0.006251040,0.030818580
1640786241.162900,0.178994670,0.309433340,9.867852210,-0.087405740,-0.034841910,0.039273510
1640786241.165390,-0.125006880,0.316241590,10.262548450,-0.090309980,0.039596860,0.043332580
1640786241.166780,0.149583580,0.494814750,9.698290820,-0.068937250,-0.097794830,0.039222840
1640786241.172789,0.001244130,0.355011110,10.080766680,-0.042572620,-0.081978740,0.040969250
1640786241.173509,0.088660620,0.131739510,9.147819520,-0.047479570,0.020746890,0.043024130
1640786241.174219,0.010612380,-0.042197250,10.287448880,-0.024415550,-0.014406440,0.039817390
1640786241.175740,-0.138103890,-0.088984080,10.078646660,-0.037893660,0.020962950,0.036945940
1640786241.178939,0.103922630,-0.002869830,9.444506650,-0.052297120,-0.105363140,0.053687400
1640786241.180740,-0.132560250,-0.028514850,10.052302360,-0.067077580,-0.021266940,0.050565600
1640786241.183990,-0.021699430,0.095392160,9.169080730,-0.067117810,0.026202210,0.029964750
1640786241.185779,-0.114724160,0.121582220,10.270314220,-0.003859400,-0.073288380,0.015202170
1640786241.189390,-0.102828640,0.220604380,9.839409830,0.026834010,0.035601850,0.012373930
1640786241.193689,0.063102890,0.381416950,9.575542450,-0.017064810,-0.049538920,0.012168290
1640786241.197049,-0.259541030,0.394889030,10.637240410,-0.063940890,-0.029395520,0.042717150
1640786241.197700,-0.033898620,0.379170720,9.393186570,-0.089427830,-0.007084010,0.042925780
1640786241.198900,-0.126827550,0.234093680,10.000027660,-0.018353760,-0.084039580,0.044541060
1640786241.201079,-0.257921340,0.360310080,9.957629200,0.014524160,0.024919210,0.040119890
1640786241.204000,0.025777880,0.377064440,9.501735690,-0.033292180,-0.042854250,0.038045640
1640786241.205720,-0.153773980,0.250654460,10.456408500,-0.066088130,-0.035344060,0.056888160
1640786241.208870,0.150011240,0.329532300,9.453686710,-0.084492560,0.013640530,0.041793300
1640786241.211380,0.185811820,0.347466950,9.919550900,-0.063765050,-0.049149990,0.031183660
1640786241.215799,0.000897390,0.365885140,10.040333750,-0.041943790,0.019218030,0.055235620
1640786241.216529,0.022918610,0.181708020,9.841597560,-0.047738850,-0.058592860,0.042398290
1640786241.220749,-0.167002250,-0.082281140,10.055089950,-0.018070640,-0.084649010,0.038653610
1640786241.221410,0.041741380,-0.098710430,9.053866390,-0.000874700,-0.013516840,0.031107670
1640786241.223940,-0.012960540,-0.106342590,9.942748070,-0.032472610,0.031800570,0.018009540
1640786241.226729,-0.010231980,0.076498960,10.067437170,-0.061038140,0.043980780,0.033076110
1640786241.228860,0.101063470,0.296589970,10.014602660,-0.056873260,-0.086650260,0.037442150
1640786241.230700,-0.019370730,0.214954700,9.922781940,-0.036738820,-0.034761430,0.038270660
1640786241.234370,0.078837920,0.227802200,9.241591450,0.003002580,0.003461540,0.023302440
1640786241.235890,-0.335507510,0.113950980,10.495812420,0.032332540,-0.039908290,0.010412930
1640786241.239770,-0.200434330,0.033866620,9.586766240,0.022533530,0.001661480,0.026988980
1640786241.241439,-0.024101290,0.122957240,9.590512280,-0.004847350,-0.073084250,0.028887400
1640786241.243790,-0.228926660,0.236951770,10.325506210,-0.065408650,0.031133000,0.033195320
1640786241.245700,0.192016970,0.487878350,9.438631060,-0.072884560,0.007751580,0.037990510
1640786241.249150,-0.076011520,0.451283100,10.706381800,-0.022293620,-0.078032900,0.026248390
1640786241.251269,0.048397270,0.481559600,9.641427990,0.010091070,0.016917290,0.025391580
1640786241.253840,0.217350940,0.494710530,9.378517150,0.019632280,-0.075642770,0.028377770
1640786241.255740,-0.219907270,0.261163380,10.453903200,-0.044620040,0.011125210,0.049789250
1640786241.260120,0.313537090,0.250149010,8.939420700,-0.086644290,0.027973960,0.053897510
1640786241.260939,0.053160240,0.060403340,10.386631970,-0.042487680,-0.062608720,0.041241950
1640786241.263860,-0.124684600,0.034283220,10.080348010,-0.014030940,0.066742320,0.040306160
1640786241.266049,0.118856900,0.091140870,9.425202370,-0.002482530,-0.071811680,0.025981670
1640786241.268800,-0.414880840,-0.214282350,10.587310790,-0.008772310,-0.056466460,0.013434890
1640786241.270660,-0.011248020,-0.045762510,8.765451430,0.000354650,0.032371290,0.004787740
1640786241.273919,-0.138888300,0.072892580,9.847530360,0.021061300,-0.035645070,0.006064770
1640786241.275869,-0.386573970,0.255984960,10.340152740,-0.033855440,0.049188740,0.018386540
1640786241.278869,0.102555420,0.503494200,9.430651660,-0.046814970,-0.075441590,0.035634630
1640786241.281280,-0.237633380,0.202151050,10.488697050,-0.013218820,-0.063145160,0.034695870
1640786241.284200,-0.076250670,0.234135270,9.489153860,0.040449200,0.036413970,0.012132530
1640786241.285810,-0.120689000,0.233559400,10.147866250,0.074429810,-0.073726480,-0.000596050
1640786241.288940,-0.226529180,0.210201710,10.089633940,0.011421740,-0.027924780,0.017455220
1640786241.293800,0.301510630,0.352486280,9.052717210,-0.055368260,-0.034055110,0.018821660
1640786241.294250,0.188301270,0.395573850,10.106622700,-0.073783110,0.022010510,0.012080370
1640786241.295709,0.147339030,0.517551060,9.918799400,-0.044281780,0.042435530,0.018084050
1640786241.298800,-0.025561820,0.493475050,10.453726770,0.022403890,-0.099796060,0.013871490
1640786241.301020,-0.239176680,0.210742030,9.927855490,0.017254050,-0.071111330,0.007943810
1640786241.303870,-0.061346260,-0.041418040,8.969348910,0.012466310,-0.064861770,0.011819600
1640786241.305719,-0.233721600,-0.226389080,9.874945640,0.013855100,0.054854170,0.018726290
1640786241.309000,-0.010939230,-0.113325420,9.613474850,-0.024293370,0.057567670,0.024779150
1640786241.310710,0.113343950,0.060917110,10.354289050,-0.036500400,-0.075353680,0.027331710
1640786241.314119,0.196580770,0.146113200,9.811478610,-0.027665500,-0.008679930,0.017265970
1640786241.315719,0.263528880,0.215191070,9.122212410,0.010205810,-0.043554600,-0.009267030
1640786241.318780,-0.210099530,0.091528970,10.397547720,0.066936020,-0.005495550,-0.021539630
1640786241.320680,-0.113077630,0.097943880,9.435903550,0.072164840,0.001257660,-0.007392470
1640786241.323959,-0.242314530,0.021895630,9.980386730,0.057037170,-0.092044470,0.007016960
1640786241.327260,-0.232454850,0.164963810,9.788163190,-0.003445150,0.040487950,0.025480990
1640786241.328869,-0.001531100,0.317407130,9.518417360,-0.042065980,0.006972250,0.029699500
1640786241.330890,-0.312339480,0.261628840,10.754233360,0.011488800,-0.040632480,0.016857680
1640786241.334270,0.041198340,0.469051210,9.490709300,0.060215580,-0.021447240,-0.002245600
1640786241.335729,0.046429910,0.439953210,9.765471460,0.069707620,-0.089727340,-0.021027030
1640786241.338980,-0.020591190,0.378896620,9.906487460,0.024843210,0.041656190,0.009170170
1640786241.340750,0.225936340,0.347940560,9.611050610,-0.022290650,-0.004023310,0.004187230
1640786241.343900,-0.053554180,0.188999490,10.429284100,-0.021781030,-0.030094390,0.005739930
1640786241.346050,0.146208330,0.333342080,9.409011840,0.008913880,-0.024551160,0.027160350
1640786241.348800,0.077967110,0.147932320,9.855217930,0.020131470,-0.045520060,0.008906420
1640786241.350720,-0.014772420,-0.001379570,9.789596560,0.014980140,0.039550660,0.006330010
1640786241.353780,0.192065050,0.019242410,9.537685390,0.031954050,-0.010803340,-0.006355350
1640786241.355739,-0.053880260,-0.106381020,10.148014070,0.034160920,0.007742640,-0.007770960
1640786241.359640,0.119422930,0.193989530,9.372477530,0.012250250,0.016112630,0.002238150
1640786241.360760,-0.125861270,0.223915410,10.246918680,-0.024470690,-0.045156490,-0.001007320
1640786241.363900,-0.183605490,0.061714560,9.740236280,-0.012198090,0.010238590,-0.002352890
1640786241.365739,-0.048412480,0.100194640,9.427286150,0.087082390,-0.034059580,-0.022599100
1640786241.368780,-0.333703160,0.024798050,10.339244840,0.101004560,0.046527390,-0.032880900
1640786241.370859,0.010155790,0.207899840,9.492923740,0.056451560,0.034494700,-0.009164220
1640786241.374050,-0.083959580,0.265990440,10.418484690,0.008396800,-0.073602790,0.002592800
1640786241.375749,0.091491360,0.327852190,9.539008140,-0.038082900,0.045710800,0.004285570
1640786241.379269,0.323265140,0.503686790,9.419970510,0.006444750,-0.006644430,-0.015908480
1640786241.380720,-0.155039400,0.423839780,10.945121770,0.049494210,0.023444000,-0.026310980
1640786241.383819,0.137790380,0.418741640,9.399513240,0.051862000,0.011260810,-0.029739740
1640786241.385720,-0.083782840,0.171452850,10.182443620,0.057986390,-0.109541430,-0.017611680
1640786241.388850,-0.133534270,0.006067040,9.633856770,0.012223420,0.073577470,-0.009201470
1640786241.390970,0.212587650,0.122653530,9.070561410,-0.010499360,0.035177170,0.002314150
1640786241.394209,-0.266872670,0.012891480,10.959811210,-0.005817410,0.007154050,0.014066700
1640786241.396520,0.213627520,0.175010650,9.328802110,0.007449090,0.030572710,-0.008542830
1640786241.398909,0.273973910,0.197851940,9.723417280,0.051178040,-0.061938170,-0.029043860
1640786241.400740,-0.121966420,0.191304730,10.137968060,0.037755070,0.085958850,-0.038191680
1640786241.403880,0.214686960,0.252445010,9.175546650,0.024402150,0.030036280,-0.036953390
1640786241.407300,-0.185892790,0.134215530,10.588733670,0.049635780,-0.044731810,-0.023178760
1640786241.408929,-0.012790930,0.220313880,9.292154310,0.031174720,0.049409270,0.006584820
1640786241.411800,0.114674370,0.216349540,9.539972310,0.005283950,0.006070730,-0.005948540
1640786241.414049,-0.211794630,0.200976060,10.512248990,-0.008895990,0.067289170,-0.006610160
1640786241.415720,0.121492380,0.219400730,9.619462010,0.028127430,0.027617810,-0.016647580
1640786241.418800,-0.009554780,0.209990260,10.268698690,0.072136520,-0.023370990,-0.042027240
1640786241.420730,-0.014956390,0.405762580,9.532650950,0.030486290,0.056976080,-0.037987530
1640786241.423849,0.092540990,0.470396610,9.702629090,-0.025022030,0.003123280,-0.032852590
1640786241.427580,-0.102718760,0.336361440,10.184341430,-0.027875600,0.068721180,-0.019799170
1640786241.428920,-0.026385600,0.381724030,9.832584380,0.006785990,-0.002148750,-0.028924650
1640786241.430699,-0.045465620,0.348423000,10.228769300,0.045007470,-0.010089580,-0.021609660
1640786241.434110,0.198480900,0.366696660,9.234534260,0.013613700,0.069975850,-0.009088220
1640786241.435740,0.195139290,0.307079080,9.972413060,-0.043033070,0.032274430,-0.015994910
1640786241.438880,0.306482400,0.260098340,9.868619920,-0.049242380,0.111135840,-0.016149870
1640786241.441419,0.360160230,0.299522340,9.615944860,-0.015152990,0.019618870,-0.024007260
1640786241.443840,-0.085850070,0.152325870,10.533939360,0.014522670,0.008659060,-0.031253700
1640786241.445730,0.001634590,0.112090610,9.244368550,-0.014790890,0.040987140,-0.039048490
1640786241.448789,-0.268751380,-0.182624730,9.967311860,0.005441900,-0.018309060,-0.045143070
1640786241.450919,-0.308728130,-0.232008340,9.831984520,0.049689410,0.135399420,-0.034619870
1640786241.453800,0.045074740,0.110497000,9.584589000,0.020803510,0.073644530,-0.035841760
1640786241.455839,-0.257218360,0.180181680,10.843091010,-0.026309490,0.030510120,-0.017441810
1640786241.459890,0.223206590,0.428368420,9.315586090,-0.034840400,0.051020090,-0.004468860
1640786241.461200,0.080350950,0.429588080,9.953697200,0.000219050,0.008153920,-0.029447670
1640786241.463770,-0.221664370,0.474786850,10.243823050,0.035870080,0.100882370,-0.033496320
1640786241.465750,-0.016314810,0.505587340,9.666879650,0.050731010,0.008544330,-0.030814120
1640786241.468809,-0.385897870,0.173789410,10.454360960,0.011868770,-0.015708810,-0.024807460
1640786241.470710,-0.067045950,0.247415970,9.250648500,-0.034558780,0.081168120,-0.014539060
1640786241.473980,-0.102340790,0.239430030,10.044578550,-0.035764280,0.044490400,-0.014898180
1640786241.476960,-0.207537650,0.217434930,10.350492480,-0.018787380,0.084324190,-0.010517240
1640786241.478799,0.204406720,0.447931980,9.589129450,-0.002543630,-0.005622210,-0.020481640
1640786241.480720,0.063527080,0.273800050,10.052384380,-0.008665030,0.013647980,-0.020717090
1640786241.483870,0.282767560,0.240474640,9.204608920,-0.009256600,0.101588670,-0.022538010
1640786241.485770,0.026093760,0.111118100,10.269701000,0.011685490,0.037008520,-0.016811490
1640786241.489310,-0.176964730,-0.127265020,10.257307050,-0.003376600,0.056128200,-0.013515350
1640786241.492010,-0.006186260,-0.156653290,9.450146680,0.036573410,-0.032673780,-0.009250640
1640786241.494429,-0.398018870,-0.317552480,10.165604590,0.039091710,0.027862190,-0.024825330
1640786241.495740,-0.127387120,-0.091172360,9.175966260,0.018440190,0.107459730,-0.040732320
1640786241.498780,-0.224066990,0.150569840,10.288980480,0.031195580,0.006346410,-0.044678150
1640786241.501030,-0.165248960,0.393253390,10.085719110,0.013428930,0.071237990,-0.041367110
1640786241.503830,0.225600630,0.674287680,9.402729990,0.025171040,0.002595780,-0.036293270
1640786241.505869,-0.233363970,0.664551910,10.789932250,0.012612340,0.013279910,-0.028254090
1640786241.509050,0.000773210,0.602814790,9.535984990,0.004884600,0.059552490,-0.020116570
1640786241.510740,-0.192759960,0.276241930,10.072982790,0.072178250,-0.065566600,-0.015310940
1640786241.513860,-0.354202840,0.169282750,10.053772930,0.060409310,0.044004610,-0.025658310
1640786241.515740,0.212526190,0.326918600,8.898183820,-0.004276630,0.033025440,-0.020168720
1640786241.518880,-0.114536100,0.263006270,10.573475840,-0.059476490,0.034143030,-0.023069980
1640786241.520860,0.163310800,0.457015400,9.788905140,-0.077782570,0.088140380,-0.026594100
1640786241.528159,0.196863670,0.469743190,9.951946260,-0.005765260,-0.045172870,-0.047254560
1640786241.528770,-0.269725320,0.325191170,10.517061230,0.039069350,0.015008450,-0.038157400
1640786241.529060,-0.031847150,0.198645760,9.205702780,0.028391180,0.003001090,-0.029774010
1640786241.530710,-0.278936420,-0.236491990,9.972826000,0.027260190,-0.015230480,-0.015354160
1640786241.533800,-0.136528210,-0.312234040,9.560433390,0.017149750,0.085662290,0.001001360
1640786241.536120,0.120611850,-0.194216610,9.749481200,0.025133790,0.048865390,-0.001603370
1640786241.539330,-0.052185470,0.004036830,10.488763810,-0.010783970,0.027787690,-0.013355910
1640786241.540820,0.169476690,0.275845860,9.573432920,-0.033803290,-0.034298000,-0.028039520
1640786241.543860,0.029544720,0.290195910,9.567035680,0.023192170,-0.001245740,-0.059349850
1640786241.545709,-0.142335360,0.392292590,9.760527610,0.064760450,0.062252590,-0.073407590
1640786241.548770,-0.388400610,0.347800080,10.358545300,0.088205960,-0.007681550,-0.049453980
1640786241.551090,-0.377480000,0.202655930,9.999561310,0.042711200,-0.028967860,-0.013303760
1640786241.554210,-0.228152190,0.067112680,9.585603710,0.002899770,-0.015774370,-0.000213090
1640786241.555810,-0.355828400,0.056607370,10.114841460,0.024804470,0.051404540,-0.000610950
1640786241.559939,-0.057397700,0.283329190,9.759902950,0.027620800,0.026419760,-0.013339520
1640786241.560710,0.037306770,0.389849160,10.086302760,0.032968820,-0.057168300,-0.023345650
1640786241.563779,0.373695700,0.437896520,9.556322100,0.016795100,0.037622450,-0.035235290
1640786241.565709,0.396680180,0.498249200,9.715467450,0.013557080,0.046434990,-0.042565170
1640786241.568820,-0.145528970,0.353924040,10.744044300,0.034652650,-0.010889770,-0.025521220
1640786241.571179,-0.067047960,0.238731430,9.716571810,0.024499000,-0.058756770,-0.012400750
1640786241.573860,-0.327029350,-0.066978570,9.587075230,0.041534010,-0.088121000,-0.008371470
1640786241.575760,-0.292358400,-0.117076290,9.323053360,0.046116110,0.053651630,-0.003886220
1640786241.578790,-0.049660160,0.023374630,9.581945420,0.034561750,0.090683980,-0.014208260
1640786241.580710,-0.113295470,0.080668810,10.492009160,0.013579430,0.032329560,-0.016406180
1640786241.584250,0.312577550,0.352458390,9.885558130,0.008894500,-0.024086240,-0.013901290
1640786241.585970,0.166417580,0.402890890,9.777475360,0.026009980,-0.021110480,-0.031614300
1640786241.588840,0.010104030,0.338211060,9.631448750,0.021584330,0.008152430,-0.048616530
1640786241.590790,-0.051181300,0.313042910,9.874360080,0.056485840,-0.006438790,-0.049354140
1640786241.593860,-0.277375520,0.082768260,9.924866680,0.063732270,0.013303760,-0.043815370
1640786241.595719,-0.066744570,0.114763300,9.702273370,0.053501130,0.003881750,-0.022657220
1640786241.598830,-0.292085110,0.255004820,10.309078220,0.021274390,0.012172760,-0.010478500
1640786241.600940,-0.076462330,0.356860850,9.630481720,-0.041656200,0.016659500,-0.013053420
1640786241.604009,0.027581160,0.561304510,9.898497580,-0.003123280,-0.037647790,-0.021034480
1640786241.605780,-0.128735410,0.603159670,10.054066660,0.022986530,0.030425190,-0.047112990
1640786241.608770,0.292834130,0.657471660,9.409384730,0.030797720,0.009469690,-0.047942990
1640786241.610700,-0.037818730,0.536331710,10.526474950,0.029248000,0.000071530,-0.038321320
1640786241.613819,0.077304390,0.336261570,9.794447900,-0.048384070,0.056901580,-0.033397970
1640786241.615749,0.139465850,0.230266650,9.758988380,-0.038950140,-0.037318470,-0.013080240
1640786241.619269,-0.296541810,-0.040219850,10.160393710,-0.000268220,0.006933510,-0.005058940
1640786241.620730,0.136202230,-0.015480300,9.023065570,-0.003227590,0.020392240,-0.018368660
1640786241.625140,-0.068306550,-0.033376320,9.901367190,0.007760530,0.010679660,-0.029547510
1640786241.626370,0.033971160,-0.090429090,9.900806430,-0.012762850,0.085225700,-0.035186120
1640786241.628890,0.304071130,0.125568330,9.845916750,0.006274880,0.039055950,-0.038798160
1640786241.630730,-0.184032320,0.160551950,10.613923070,0.002658370,-0.011645260,-0.034806130
1640786241.633940,0.007337400,0.231331180,9.603253360,-0.005744400,-0.028154250,-0.024634600
1640786241.636040,-0.098248180,0.091284050,9.339590070,0.044223670,-0.000996890,-0.031921270
1640786241.638880,-0.253494980,0.019818120,9.769706730,0.050783160,0.064915420,-0.048743190
1640786241.641340,-0.135452120,0.157600730,10.086332320,0.054050990,0.049641730,-0.046847760
1640786241.643780,-0.106305460,0.263196380,10.016756060,0.029616060,-0.001043080,-0.031557670
1640786241.645769,0.083366690,0.434426070,9.941175460,-0.032028560,-0.008060040,-0.032892830
1640786241.648949,0.057989650,0.587465820,9.738026620,-0.032621620,0.068447000,-0.025899710
1640786241.650730,-0.094425070,0.509430110,10.197382930,-0.013180080,0.019435590,-0.036357340
1640786241.653869,-0.285213680,0.364513220,10.407011030,0.054067370,-0.033213200,-0.032061340
1640786241.655810,-0.187396390,0.183664680,9.430895810,0.071795280,-0.027857720,-0.040303170
1640786241.658919,-0.047558590,0.063391100,9.594629290,0.005473200,0.004221500,-0.038394340
1640786241.661029,-0.048954590,0.074590880,9.842993740,-0.020964450,0.110197070,-0.008772310
1640786241.663890,0.255903180,0.189100950,9.946741100,-0.053834920,0.055068740,-0.022976100
1640786241.666159,0.216593430,0.326578500,10.363032340,-0.035917750,-0.008560720,-0.020888440
1640786241.669160,0.268506680,0.431562780,9.485552790,0.007949770,-0.007067620,-0.023038690
1640786241.670719,0.226852910,0.267266180,9.672227860,0.007326900,0.024792550,-0.043003250
1640786241.673879,-0.264521420,0.030802960,10.032073970,0.036023560,0.060552360,-0.042489160
1640786241.675740,-0.153378840,-0.099090260,9.692260740,0.047720970,-0.008516010,-0.040148200
1640786241.678789,-0.288804620,-0.131210880,9.939665790,0.035174190,0.014220180,-0.034485760
1640786241.682070,-0.188293230,0.148677020,9.402903560,-0.019723180,0.061941160,-0.017161670
1640786241.683810,-0.123101800,0.270584490,10.279157640,-0.064012410,0.033815210,-0.028669840
1640786241.686090,-0.069316440,0.303867400,9.980444910,-0.005580480,0.064560780,-0.040093060
1640786241.688850,0.206427680,0.451359630,9.720219610,0.074069200,-0.009527800,-0.053063040
1640786241.692210,-0.042822160,0.495291890,10.336616520,0.056549900,0.040787450,-0.055591760
1640786241.694249,0.079840490,0.524168970,9.275973320,-0.022375580,0.034272670,-0.030218060
1640786241.695799,-0.056959030,0.305040450,10.251109120,-0.055408480,-0.031723080,-0.019761920
1640786241.698830,-0.218227040,0.162324520,9.778360370,-0.034804650,0.097866360,-0.029873850
1640786241.700770,0.049363120,0.314642400,9.504270550,0.020213430,-0.017045440,-0.031782680
1640786241.703920,-0.336641940,0.273526670,10.750179290,0.021491950,0.041273240,-0.026567280
1640786241.705809,0.086280890,0.338097840,9.172189710,-0.048001110,0.063242020,-0.029370190
1640786241.708789,0.144237320,0.290241570,10.003301620,-0.050933660,-0.028684740,-0.019195680
1640786241.710700,-0.103145050,0.221161710,9.927351950,-0.024664400,0.114254660,-0.012178720
1640786241.713960,0.229794580,0.176374110,9.309241290,0.001528860,0.027038160,-0.017561010
1640786241.715780,-0.345969380,-0.017151740,10.861050610,0.015944240,-0.025860970,-0.022147600
1640786241.718910,-0.090909850,-0.204390030,9.217368130,-0.003626940,0.027482210,-0.024560100
1640786241.720759,0.059305030,-0.284532310,9.506724360,0.020904840,0.008340180,-0.041763480
1640786241.725060,-0.258727820,-0.142346410,10.169671060,0.023697320,0.134444240,-0.035718090
1640786241.725800,0.121055520,0.152512130,9.691860200,-0.003795330,0.041598080,-0.033693020
1640786241.728839,-0.027855220,0.389649930,10.234458920,-0.012186170,-0.018756090,-0.023511050
1640786241.730880,0.025636540,0.487284780,9.287229540,-0.029596690,0.038470330,-0.010009110
1640786241.734210,-0.067456740,0.430910440,9.958485600,0.008752940,0.030002000,-0.027935210
1640786241.735750,-0.451054420,0.224397170,10.306805610,0.061649080,0.054344530,-0.036582340
1640786241.738870,-0.315839050,0.131130020,9.856811520,0.076296930,-0.050754850,-0.033634900
1640786241.741639,-0.270450710,0.047289070,9.848001480,0.029227140,0.017088650,-0.025905670
1640786241.743800,-0.001745640,0.274667560,9.267195700,-0.058764220,0.081728400,-0.019027290
1640786241.746050,0.014613960,0.359324310,10.357000350,-0.066865970,0.041697920,-0.013549620
1640786241.748800,0.205371480,0.572510300,9.860156060,-0.036482510,0.058847670,-0.025007130
1640786241.751050,0.305038120,0.645659570,9.735755920,0.005683300,-0.060379520,-0.043055420
1640786241.753830,0.149525310,0.512658180,9.992711070,0.023445490,0.045022370,-0.023798640
1640786241.755859,0.168617100,0.295213700,9.443775180,-0.025999550,0.074455140,-0.022821130
1640786241.758960,-0.225907560,-0.141919450,10.376073840,-0.020432470,-0.016140940,-0.012774770
1640786241.760749,-0.141701610,-0.159841400,9.516255380,-0.000011920,0.038197640,0.001871590
1640786241.763939,-0.164555150,-0.138318460,9.369906430,-0.011554360,0.012533370,-0.008375940
1640786241.765849,-0.352464910,-0.057341750,9.998719220,-0.042964520,0.055831680,-0.014674670
1640786241.768810,-0.057636950,0.177926200,9.523850440,-0.039060420,0.038063530,-0.037783390
1640786241.770769,-0.018000860,0.198217600,9.830662730,0.002618130,0.033834580,-0.054544210
1640786241.774829,0.130011650,0.403510030,9.861355780,0.022394960,0.085622070,-0.038561220
1640786241.775770,-0.062830950,0.455353470,10.335230830,0.003561380,0.009559090,-0.030609970
1640786241.778859,-0.078875180,0.142096910,9.721947670,-0.026991970,-0.017902260,-0.000990930
1640786241.780769,-0.011056360,-0.010953330,9.362668040,0.009010730,0.006875400,-0.010700520
1640786241.784170,-0.343438600,-0.062851700,9.945638660,0.023245810,0.071989010,-0.032956900
1640786241.785849,-0.068460630,0.088664960,9.664539340,0.008197130,0.038202100,-0.025083120
1640786241.788859,-0.200604740,0.285097360,10.268352510,-0.020000340,-0.014536080,-0.029157100
1640786241.790809,0.100526120,0.466613050,9.501766200,-0.078234080,0.061169270,-0.034356120
1640786241.793900,0.259590390,0.574305530,9.758114810,-0.046882040,0.034339730,-0.030736630
1640786241.795760,-0.276727320,0.439493450,10.535540580,0.004898010,0.049234930,-0.024837260
1640786241.798790,0.003153230,0.295255900,9.482078550,0.018024440,-0.019872180,-0.024312730
1640786241.801620,-0.282594620,0.005340630,9.864737510,0.028863550,-0.069485610,-0.003501770
1640786241.803799,-0.130779640,-0.231963930,9.195119860,-0.026637310,0.080330660,-0.006486480
1640786241.805879,0.261353550,-0.117020720,9.422667500,-0.030334290,0.097209220,-0.000628830
1640786241.808810,-0.069294110,-0.064133720,10.630929950,-0.027991830,0.076623260,-0.001324710
1640786241.811139,0.355806950,0.186666610,9.783084870,-0.034469370,-0.003534560,-0.012713670
1640786241.813830,0.142495740,0.261012320,9.604184150,-0.001643600,-0.026078520,-0.020423530
1640786241.815790,-0.109988170,0.199499610,9.501794820,-0.008249280,0.045906010,-0.035834310
1640786241.818820,-0.126008760,0.124888850,9.664873120,0.025990610,0.039541720,-0.047235190
1640786241.820760,-0.332541530,0.023011850,9.807702060,0.047181550,0.044207280,-0.038355590
1640786241.825520,-0.178600480,0.038486480,9.914576530,0.023478270,0.025019050,-0.009015200
1640786241.826409,-0.238594040,0.125226320,9.922022820,-0.013481080,0.055928540,0.005930660
1640786241.828950,-0.097052280,0.134905100,9.734551430,-0.053821500,0.006066260,0.001712140
1640786241.831050,-0.043765220,0.164948430,10.021807670,0.003546480,0.032831730,-0.008378920
1640786241.833999,0.096625440,0.384754750,9.373113630,0.042386360,0.054948040,-0.036729870
1640786241.835830,0.069842050,0.344149830,10.066495900,0.021448730,-0.008158390,-0.040881340
1640786241.838820,-0.011865580,0.452779740,9.940199850,-0.004814570,0.058521330,-0.019612910
1640786241.842260,0.085275290,0.325868400,9.656245230,-0.055629010,0.013716520,-0.026485320
1640786241.843799,-0.214419170,0.176681650,10.340645790,-0.030151010,0.008477270,-0.010761620
1640786241.845759,-0.103119480,0.287794740,9.411316870,0.010119380,0.039160250,0.000022350
1640786241.848879,-0.070163090,0.129999940,9.857192990,0.003010030,0.007322430,-0.002560020
1640786241.850809,-0.065223040,0.162794460,9.660558700,-0.009807950,0.068341210,0.004461410
1640786241.853880,0.256244510,0.200244290,9.436148640,-0.034746530,0.037485360,0.000615420
1640786241.859700,0.180034090,0.082611460,10.160191540,-0.030781330,0.081722440,-0.000998380
1640786241.861630,0.171985130,0.250139590,9.690548900,-0.012223420,0.053508590,-0.001901390
1640786241.862939,-0.022774810,0.044334200,10.258564000,-0.005340580,-0.042989850,0.002467630
1640786241.863760,-0.023694340,-0.188899070,9.307822230,0.023829940,0.052906570,-0.003732740
1640786241.865759,-0.020091520,-0.164177670,9.291126250,0.052258370,0.050179660,-0.010873380
1640786241.869170,-0.389343230,-0.173962070,10.387772560,0.023268160,0.089518730,-0.014585260
1640786241.870730,0.020263660,0.047517230,9.277612690,0.007994470,0.037883220,0.004731120
1640786241.873890,-0.086120100,0.137211810,10.126561160,0.000233950,-0.027528410,0.009070340
1640786241.877290,0.032851270,0.237027560,9.583664890,-0.014267860,0.129511970,0.001256170
1640786241.878790,0.108637450,0.237707050,9.821891780,0.041711330,0.025232140,-0.017228720
1640786241.880740,-0.355091120,0.088152990,10.746944430,0.084775670,0.020141900,-0.016921760
1640786241.884110,0.075317260,0.155066420,8.969363210,0.083093350,0.025889280,-0.007203220
1640786241.886030,-0.216330410,0.078730640,9.987417220,0.043895840,-0.022631880,-0.000795720
1640786241.889289,-0.222303020,0.154322700,9.768591880,-0.010646880,0.115549560,0.018106400
1640786241.891980,0.070008380,0.394299060,9.498826980,0.005638600,0.025585300,0.002363320
1640786241.895190,-0.248955980,0.477274030,10.587173460,0.009545680,0.010065740,-0.000946220
1640786241.895840,0.239236740,0.758042990,9.383406640,0.009079280,0.063087050,-0.007681550
1640786241.898790,0.066484820,0.638449310,10.070128440,0.012519960,0.020669400,-0.005216900
1640786241.901010,-0.141008120,0.373900590,10.188826560,-0.008608400,0.047025080,-0.001768770
1640786241.903829,0.089527500,0.227464970,9.399219510,0.012084840,-0.011496240,0.009427970
1640786241.906060,-0.136542890,-0.049569950,9.725800510,0.007204710,0.047476580,0.020204480
1640786241.910100,-0.071520960,-0.146545650,9.743402480,-0.002479550,0.070829670,0.028757750
1640786241.910709,-0.131880610,-0.156038060,10.091018680,-0.001445410,0.018046800,0.023104250
1640786241.913800,0.169579220,-0.121852860,9.496969220,-0.021533670,0.029249490,-0.003606080
1640786241.915880,0.229324330,0.062376240,9.594911580,0.022013490,0.077192490,-0.004194680
1640786241.918820,0.059802290,0.231161890,9.985318180,0.021056830,0.101596140,-0.013805930
1640786241.920920,0.022770110,0.231754960,9.991038320,0.007396940,-0.013481080,-0.003120300
1640786241.923910,-0.272250980,0.110077340,9.774258610,0.051622090,-0.033748150,0.011205670
1640786241.926760,-0.338643730,-0.094603520,9.393058780,0.053896010,0.031737980,-0.001227860
1640786241.928890,-0.512501480,-0.118101620,9.928015710,0.072303420,0.047200920,-0.001133980
1640786241.930800,-0.356768550,-0.019641480,10.056021690,0.062446290,0.040470060,0.015525520
1640786241.933889,0.047132170,0.148693500,9.906999590,0.017045440,0.037096430,0.009831790
1640786241.935940,0.219033900,0.474673090,9.699373250,-0.000919400,0.061722110,0.014537570
1640786241.938969,0.320492450,0.661260310,10.017546650,-0.003349780,0.032632050,0.013764200
1640786241.940820,0.155712160,0.589607180,10.011028290,0.019977990,0.028494000,0.003272290
1640786241.943800,0.052702060,0.424535480,9.521264080,0.064143550,-0.022684040,-0.003661220
1640786241.945789,-0.158043770,0.187376440,10.096265790,0.067131230,-0.008581580,0.004045670
1640786241.949159,-0.143414970,-0.020106720,9.354800220,0.035573540,0.090447080,0.017963350
1640786241.950760,0.022426030,-0.089492660,10.002676010,0.005222860,0.042286520,0.030002000
1640786241.954059,-0.139265250,-0.012742920,10.402562140,-0.013931100,0.092057890,0.032405560
1640786241.955790,0.275167470,0.212665780,9.077567100,0.003525620,0.002862510,0.026217100
1640786241.959040,0.111057360,0.256960030,10.131652830,0.029936440,-0.009229780,0.010336940
1640786241.960820,0.114203220,0.279674830,9.254224780,0.025877360,0.134576860,-0.004394350
1640786241.963770,0.187995150,0.229407240,9.725279810,0.048783410,0.000303980,-0.014688080
1640786241.965770,-0.366704970,0.058374640,10.628307340,0.072856250,0.054289400,0.005583470
1640786241.969050,0.006075740,0.076826040,9.030830380,0.040219730,0.056366620,0.026428700
1640786241.970759,-0.360460130,-0.036508820,10.467608450,0.009593370,-0.013051930,0.031180690
1640786241.974030,-0.352000390,-0.058122960,9.631778720,0.013378260,0.088644010,0.030845410
1640786241.975770,0.204668520,0.119551410,9.065015790,0.059902680,0.026178370,0.004194680
1640786241.978780,-0.196354390,0.255875020,10.519319530,0.062726440,0.111608210,-0.012837350
1640786241.980780,0.148911310,0.630839820,9.700098990,0.025470560,0.066548590,-0.011628870
1640786241.983810,-0.016547160,0.575745400,10.354936600,-0.007355210,-0.047941510,-0.001534820
1640786241.985920,-0.249537540,0.452561020,9.695607190,-0.012949110,0.033910570,0.007596610
1640786241.988829,-0.142174350,0.307697270,9.528703690,0.049105290,0.009152290,0.013048950
1640786241.990860,-0.466962750,0.078404270,10.398550030,0.075565290,0.068537890,0.017786030
1640786241.993840,-0.150414620,0.046789680,9.578246120,0.051966310,0.017690660,0.035478180
1640786241.995790,0.061624230,-0.002531940,9.937210080,0.008653100,0.008909410,0.033044820
1640786241.999150,0.300336360,0.202013180,9.412303920,-0.041195750,0.128522530,0.017161670
1640786242.000779,0.316080870,0.412278950,10.061536790,-0.020954020,0.038050120,0.012408200
1640786242.003880,0.094418560,0.508111830,10.411466600,0.000320370,0.032347440,0.009684270
1640786242.005920,0.197848500,0.399391170,9.238809590,0.032836190,-0.029785930,0.006254020
1640786242.008819,-0.195819770,0.047110960,9.969080920,0.080317260,0.002238150,0.013084710
1640786242.010740,-0.254099990,-0.094452520,9.582447050,0.047829750,0.140839800,0.021336970
1640786242.013820,-0.326965750,-0.276236830,9.986835480,0.026440620,0.007168950,0.032052400
1640786242.016180,-0.272301760,-0.186752500,10.060826300,0.021980700,0.010891260,0.047084690
1640786242.019160,0.151257800,0.045683400,8.988300320,0.003166500,0.072312340,0.024072820
1640786242.020769,0.031272850,0.193052220,9.894622800,0.008393830,0.068573680,0.003728270
1640786242.023840,0.101755280,0.412068990,10.169800760,0.032183530,0.069533300,-0.009848180
1640786242.026059,0.075073880,0.386159150,9.865663530,0.074197350,-0.004604460,-0.023187700
1640786242.028810,-0.082673090,0.300855580,9.868859290,0.080478200,0.000351670,0.001697240
1640786242.030740,-0.329495670,0.236966800,9.965952870,0.046037140,0.036275390,0.014469030
1640786242.033880,-0.442312300,0.024544790,9.674237250,0.019864740,0.017012660,0.034125150
1640786242.035780,-0.270305010,-0.024959980,9.754323960,0.046534840,0.013022120,0.035515430
1640786242.038830,-0.263037920,0.128500240,10.019776340,0.063954300,0.081950430,0.018090010
1640786242.040840,0.116375770,0.424639880,9.564295770,0.038465860,0.047470630,0.011485820
1640786242.043800,0.152729870,0.685324250,10.347565650,-0.000557300,0.003401940,0.019437070
1640786242.045780,0.216554780,0.736182510,9.705750470,-0.045649710,0.061742970,0.013622640
1640786242.049239,0.381601600,0.673381630,9.663003920,-0.016486650,0.008580090,0.003169480
1640786242.051669,-0.244674120,0.448219570,10.612145420,0.056763000,0.026628380,0.010776520
1640786242.053769,-0.148923530,0.247064400,9.404417040,0.039602820,0.009228290,0.021086640
1640786242.057880,-0.160077040,-0.079717480,9.685379030,0.003243980,-0.028000780,0.036381190
1640786242.058920,-0.263004180,-0.273366120,9.542903900,-0.023098290,0.104539110,0.029350820
1640786242.060819,0.296432380,-0.074399990,9.375232700,-0.015254320,0.086165970,0.034184750
1640786242.064010,0.071314510,0.037626420,10.493919370,-0.011272730,0.073336070,0.023721160
1640786242.065889,0.337071390,0.243158730,9.814039230,-0.031237310,0.037324430,0.008164350
1640786242.068770,0.231530560,0.238426490,9.868831630,0.013116000,-0.014604630,-0.010712450
1640786242.070780,-0.177631590,0.115788320,9.490653990,0.045169890,0.044338410,-0.023567680
1640786242.074760,-0.168032850,0.070930500,9.602111820,0.049430140,0.021813810,-0.012993810
1640786242.076040,-0.439458070,-0.071300130,9.872035980,0.058230760,0.070169570,0.009293850
1640786242.078780,-0.318450120,-0.071287590,9.645557400,0.030019880,0.014653800,0.026041270
1640786242.081990,-0.287263840,0.054282360,10.106190680,0.008550290,0.044962760,0.031803550
1640786242.083890,-0.069460900,0.210676090,9.532334330,-0.002460180,0.067751120,0.014419860
1640786242.085800,0.066467230,0.338282140,10.254833220,0.021409990,0.016145410,-0.008499620
1640786242.088840,0.030533980,0.586332020,9.927793500,0.046604870,0.063614550,-0.009588900
1640786242.090799,0.174111950,0.448283700,9.523655890,0.036911660,-0.022657220,-0.028583410
1640786242.093819,-0.127933140,0.356880010,10.218001370,0.039304800,0.020727520,0.001408160
1640786242.095830,-0.144978670,0.214476060,9.448952670,0.020794570,0.064700840,0.011543930
1640786242.098860,-0.316088650,-0.093136090,10.172898290,0.020593410,-0.040209290,0.011204180
1640786242.100860,-0.317221700,0.095489370,9.916688920,0.036388640,0.031304360,0.030885640
1640786242.103760,0.082226860,0.158738750,9.330696110,0.005441900,0.037637360,0.010143220
1640786242.105880,0.034801880,0.282113820,10.212966920,-0.020298360,0.071161990,0.013665850
1640786242.108850,0.288619610,0.600935700,9.650644300,-0.025430320,0.074680130,0.006432830
1640786242.110900,0.264248760,0.452782300,9.994864460,-0.004152960,-0.025531650,0.002940000
1640786242.113920,0.016213430,0.329831030,9.780669210,0.030608480,0.033098460,0.014054780
1640786242.116060,-0.171521710,0.054546410,9.625802990,0.031051040,-0.020417570,0.000074510
1640786242.118759,-0.351750020,-0.448399690,9.826037410,0.048655270,0.011532010,-0.003524120
1640786242.120770,-0.065539990,-0.386829940,9.142807010,0.065854190,0.082074110,0.006458160
1640786242.123989,-0.192270800,-0.254128010,10.284890170,0.024445360,0.078530610,-0.000730160
1640786242.125800,-0.010939250,0.012821800,9.835707660,-0.026161970,0.065785650,0.016514960
1640786242.128899,0.121318330,0.260774310,9.703324320,0.007392470,-0.050108130,0.008273120
1640786242.130820,-0.139964330,0.250335250,9.818742750,0.051081180,0.032338490,-0.018504260
1640786242.133780,0.019734720,0.340242150,9.219815250,0.092297790,0.044749680,-0.028204920
1640786242.135860,-0.526879550,0.107390430,10.599817280,0.113056610,-0.005260110,-0.024937100
1640786242.138870,-0.292082400,0.042783330,9.676472660,0.074741240,0.032578410,-0.004033740
1640786242.141820,-0.204810370,0.014865250,9.730478290,0.059086080,-0.031477220,0.009638070
1640786242.143829,-0.437918310,0.009413980,10.268523220,0.015127660,0.047026580,0.012269620
1640786242.146210,0.089245950,0.282020870,9.293343540,0.032876430,0.031474240,-0.002793970
1640786242.149099,-0.222614910,0.384605200,10.344050410,0.071959180,-0.046192110,-0.012400750
1640786242.150760,0.112938420,0.515458290,9.525476460,0.058686740,0.030572710,-0.022830070
1640786242.153800,0.348524090,0.631013210,9.551356320,0.061470270,0.013180080,-0.028592340
1640786242.155910,-0.127034460,0.424671350,10.590698240,0.024366380,0.028625130,-0.003854930
1640786242.158800,0.146162440,0.329706220,9.715975760,0.015130640,-0.010474030,0.002190470
1640786242.162639,-0.191221450,0.052275990,9.943998340,0.044099990,-0.061193120,0.006504360
1640786242.163760,-0.118000490,-0.093990410,9.415897370,0.050288440,0.010599200,0.008516010
1640786242.166080,0.018164390,-0.062992540,9.434950830,0.063075120,0.048395980,0.000123680
1640786242.168850,0.004318200,-0.019992600,9.839721680,0.021995610,0.065326690,-0.009718540
1640786242.170750,0.277864250,0.112830830,9.975722310,0.005978350,0.024464730,-0.015912950
1640786242.174890,0.126096700,0.230799000,9.973859790,0.045998390,0.029183920,-0.004133580
1640786242.175870,-0.015677260,0.154157500,9.797046660,0.038081410,-0.024384260,-0.021831690
1640786242.179030,-0.288176120,-0.015639430,9.856290820,0.076495120,-0.038933750,-0.017286840
1640786242.180869,-0.295957390,-0.129126700,9.101222040,0.106708710,0.026789310,-0.033923980
1640786242.183830,-0.241617280,-0.206265350,9.720211030,0.101257870,0.037708880,-0.023837390
1640786242.185850,-0.292211170,-0.034116210,10.150589940,0.076478710,0.079874690,-0.011107320
1640786242.188850,0.001757100,0.154752250,10.028576850,0.016430020,-0.017294290,-0.014680620
1640786242.191860,-0.001784620,0.245431200,9.995353700,0.040197360,-0.021699070,-0.003705920
1640786242.195850,0.052295720,0.372490880,9.426248550,0.079129630,0.020217900,-0.033999980
1640786242.196570,-0.059656420,0.304988380,10.104539870,0.112031400,0.007627900,-0.049938270
1640786242.199040,-0.209523600,0.265189200,9.870642660,0.140354050,0.001649560,-0.030811130
1640786242.200760,-0.097105210,0.252548870,9.755797390,0.087448950,-0.058265040,-0.028121470
1640786242.203810,-0.163999900,0.206118320,9.870352750,0.022067130,0.024652480,-0.006474560
1640786242.205910,-0.101231760,0.319689420,9.603927610,0.021262470,0.038214030,0.007925930
1640786242.208819,-0.277306620,0.354753700,10.581364630,0.050175200,-0.032916670,-0.016240780
1640786242.211030,-0.081775320,0.438222770,9.468832020,0.071361660,-0.012314320,-0.024688240
1640786242.213860,0.151115830,0.447420450,9.465120320,0.079496210,-0.054471200,-0.033208730
1640786242.216040,-0.011063130,0.292381940,10.087600710,0.041277710,0.086785860,-0.023603440
1640786242.218809,0.260819640,0.265675840,9.436318400,0.029869380,0.042931740,-0.007238980
1640786242.220810,-0.065063860,-0.024630100,10.847309110,0.041013960,-0.070148720,0.005579000
1640786242.224660,-0.007506160,-0.205952640,9.422122000,0.078414390,0.017078220,-0.001923740
1640786242.225860,-0.002910070,-0.225653920,9.321620940,0.100150700,-0.070548070,-0.009939070
1640786242.228839,-0.479939910,-0.368454160,10.327656750,0.074064740,0.036317110,-0.030714280
1640786242.230870,0.090471130,-0.085988280,8.831932070,0.073985760,0.037762530,-0.039078300
1640786242.233790,-0.127827080,0.095343840,10.419609070,0.094558300,-0.037249920,-0.041005020
1640786242.235890,-0.021633410,0.556013940,9.883313180,0.045084960,0.082297640,-0.027167800
1640786242.238839,0.127734440,0.735923710,9.752077100,0.028598310,-0.061924750,-0.009749830
1640786242.241420,-0.425941590,0.408461750,10.716068270,0.061659530,-0.053249310,-0.020341580
1640786242.244020,-0.167315390,0.345712840,9.150799750,0.122386230,-0.016078350,-0.024782130
1640786242.245880,-0.453845650,0.092739920,9.998214720,0.154198720,-0.069445370,-0.023393330
1640786242.249169,-0.359196160,0.014640710,9.842690470,0.082603100,0.026899580,-0.011357670
1640786242.250769,0.063892490,0.108156420,9.518972400,0.025670230,-0.009927150,-0.005593900
1640786242.253800,0.022433460,0.214953810,10.187712670,-0.016818940,-0.000236930,-0.014431780
1640786242.255900,0.237131280,0.447995130,9.824748040,0.029012560,-0.002413990,-0.015549360
1640786242.258930,0.038701340,0.459640620,10.189660070,0.106339160,-0.071878720,-0.027015800
1640786242.261629,0.015853150,0.286222490,9.717736240,0.091011830,-0.054882470,-0.033274300
1640786242.264200,-0.054472760,-0.021570390,9.544194220,0.112113370,-0.049383940,-0.030942270
1640786242.266080,-0.121596270,-0.197861950,9.641644480,0.099623210,0.033742190,-0.011798740
1640786242.268790,-0.011653770,-0.133316290,9.856212620,0.070689610,0.018167490,0.001303850
1640786242.270830,-0.141117650,0.068168910,10.179603580,0.046482670,-0.039161750,0.006395580
1640786242.273900,0.150199980,0.176453640,9.560646060,0.009731950,-0.046765800,-0.015620890
1640786242.277010,0.080514870,0.234496920,9.554121020,0.076989840,-0.002147260,-0.045435130
1640786242.278790,-0.137699510,0.312527660,10.127189640,0.125044570,0.016894930,-0.064268690
1640786242.280779,-0.151811030,0.330533650,10.250093460,0.113624340,-0.032167140,-0.064912450
1640786242.283850,-0.346274170,0.225459740,9.897659300,0.102682420,-0.078690060,-0.030216580
1640786242.285849,-0.258371740,0.200744750,9.660065650,0.037305060,-0.058193510,-0.016312300
1640786242.288940,-0.202421680,0.178605650,9.532791140,0.034490230,0.029006600,-0.009995700
1640786242.295800,0.004900040,0.189006890,9.709140780,0.082281240,0.012807550,-0.009562080
1640786242.296270,0.116276060,0.344475900,10.523872380,0.099591910,-0.017304720,-0.038199130
1640786242.296660,0.401284070,0.552215700,9.488120080,0.076171750,-0.012387330,-0.043271480
1640786242.299140,0.459094170,0.614529910,9.806178090,0.006008150,-0.061105200,-0.043106090
1640786242.300819,0.156397770,0.498776610,10.033132550,-0.012445450,0.070059310,-0.033369660
1640786242.303830,0.152735010,0.352595360,9.442548750,0.032104550,-0.023365020,-0.039649010
1640786242.306399,-0.339816870,0.034709800,10.625436780,0.095476230,-0.104942920,-0.036071240
1640786242.308869,-0.230179860,-0.195944470,8.990551950,0.105774410,0.026625390,-0.019618870
1640786242.310860,-0.122727250,-0.382991190,9.516975400,0.071372100,-0.021338460,-0.022417310
1640786242.313860,-0.366622180,-0.429273550,10.554400440,0.033137200,0.074166060,-0.018452110
1640786242.315909,0.341934110,-0.036000230,9.126819610,0.045256320,0.017604230,-0.027318300
1640786242.318760,0.192757100,0.197923230,10.426918980,0.061416620,-0.039276480,-0.042258210
1640786242.321149,0.217879400,0.543081640,9.597708700,0.045239920,0.071619450,-0.042146440
1640786242.323840,0.240977690,0.481255710,9.757822990,0.070801380,-0.048236550,-0.045038770
1640786242.326550,-0.355434060,0.125930850,10.408028600,0.121223930,-0.013750790,-0.057016320
1640786242.328820,-0.139804390,0.180130840,9.190696720,0.155082350,0.003530090,-0.049164890
1640786242.330860,-0.465874460,0.159664630,10.290014270,0.090596070,-0.020276010,-0.034406780
1640786242.333840,-0.316226660,0.241205870,9.657609940,-0.012572110,0.046888000,-0.010900200
1640786242.335899,0.061071590,0.354409840,9.731733320,-0.002069770,-0.007671120,-0.021526220
1640786242.339040,-0.068995360,0.450614180,10.293358800,0.027285520,0.066016620,-0.044915080
1640786242.340799,0.159439740,0.618277970,9.706908230,0.090539460,-0.007848440,-0.047910210
1640786242.343880,-0.206272540,0.380542430,10.508590700,0.094857810,-0.071676080,-0.042238840
1640786242.345850,-0.075951470,0.057653550,9.356146810,0.048625470,-0.006453690,-0.036314130
1640786242.349089,0.004841650,-0.131894410,9.479486470,0.069351490,-0.037913030,-0.027893490
1640786242.350790,-0.104029430,-0.253587840,10.147846220,0.060004010,0.093789400,-0.008903440
1640786242.354260,0.270304740,-0.045029090,9.647467610,0.056245930,0.056022410,-0.015641750
1640786242.355830,0.072825840,0.092410900,10.547102930,0.053222480,-0.056020930,-0.017553570
1640786242.359660,0.315147280,0.212631330,9.377326010,0.038039690,0.013142830,-0.037811700
1640786242.361040,0.191939280,0.285084430,9.267812730,0.081501890,0.008983910,-0.067229580
1640786242.363760,-0.304660410,0.269384260,10.318897250,0.092679260,0.037810210,-0.070098050
1640786242.366119,-0.274186430,0.299100430,9.858467100,0.092256060,-0.006626550,-0.049985950
1640786242.368919,-0.476451690,0.050447700,9.846094130,0.105938320,-0.054278960,-0.023873150
1640786242.370869,-0.472940360,-0.018039480,9.989559170,0.063911080,0.007981060,-0.026750570
1640786242.373890,-0.318484100,-0.002476130,9.852219580,0.073951480,0.052464010,-0.022639330
1640786242.375880,-0.130722640,0.023521950,10.066422460,0.092250110,-0.021967290,-0.039426980
1640786242.378780,0.096675990,0.256505910,10.043789860,0.109596560,0.002983210,-0.045736130
1640786242.380770,0.455961140,0.610621990,9.125345230,0.080524370,0.028263030,-0.047886370
1640786242.383800,0.396879760,0.737274230,10.070471760,0.002278390,0.003021960,-0.044846550
1640786242.386109,0.102512020,0.674858270,10.233318330,0.020925710,0.041769450,-0.014330450
1640786242.388900,0.019995400,0.449306280,9.810241700,0.068974480,-0.051775570,-0.033870340
1640786242.392239,-0.387472600,0.147395450,10.240824700,0.113630310,-0.064596540,-0.025916100
1640786242.393910,-0.371099860,0.043562730,9.226144790,0.101175900,0.038763880,-0.012300910
1640786242.395870,-0.276877580,-0.152551610,9.853047370,0.021837650,0.020590420,-0.027216970
1640786242.399119,-0.255170520,-0.094825890,10.000989910,0.012055040,0.062972310,-0.016063450
1640786242.400800,0.211164120,0.250518980,9.458771710,0.033970180,0.000996890,-0.015106800
1640786242.403829,0.177496110,0.318175140,10.209671970,0.038282580,0.011099880,-0.026762490
1640786242.405880,0.218893330,0.429821160,9.549930570,0.040392570,0.041809670,-0.035119060
1640786242.408840,0.003526330,0.207658140,10.293787000,0.082498800,-0.073698150,-0.052793320
1640786242.410859,-0.249403850,-0.046913570,9.752780910,0.115476560,0.012962520,-0.049361600
1640786242.413830,-0.167234690,-0.025841970,9.253054620,0.117577610,-0.025860970,-0.026795270
1640786242.416119,-0.513466540,-0.044553360,10.536565780,0.043690200,0.015985970,-0.013452770
1640786242.418860,-0.059842100,0.207619770,9.173767090,0.002519790,0.041650240,0.004847350
1640786242.420879,-0.093130190,0.359928550,10.205352780,0.021959840,-0.056821110,-0.025662780
1640786242.423869,-0.112446680,0.614043120,10.094489100,0.041823090,0.064925840,-0.037024910
1640786242.425799,0.181389530,0.825294380,9.513490680,0.066041950,-0.043673810,-0.038054590
1640786242.428799,-0.361335310,0.513637190,10.900268550,0.056295100,-0.077989700,-0.035205490
1640786242.430920,0.028595400,0.365937680,9.024549480,0.038556760,0.009465220,-0.017356870
1640786242.433970,-0.161483320,0.135434270,9.764140130,0.049434600,-0.068098310,-0.005203490
1640786242.435830,-0.344381240,-0.047572110,10.213574410,0.023198130,0.041845440,0.016272070
1640786242.438820,0.116937030,0.083327000,9.391733170,0.012043120,-0.023718180,0.010004640
1640786242.440899,-0.081974590,-0.008764660,10.265665050,0.006473060,-0.076156860,-0.009694700
1640786242.443780,0.354248230,0.171255890,9.262685780,0.025266410,0.044319030,-0.025592750
1640786242.445880,0.196525540,0.324429120,10.019886020,0.041700900,0.020864600,-0.035305320
1640786242.449350,-0.041982450,0.228769620,10.444711690,0.022956730,-0.005173680,-0.022438170
1640786242.451120,-0.037384180,0.219012380,9.779172900,0.059796880,-0.093977170,-0.005351010
1640786242.453790,-0.394680260,-0.051130670,9.577601430,0.054916740,-0.046151880,-0.011530520
1640786242.455950,-0.247835080,-0.169326830,9.279484750,0.044824180,-0.000162420,-0.007587670
1640786242.458920,-0.431830440,-0.121570880,10.078391080,0.073841220,0.017695130,-0.012971460
1640786242.463709,-0.121843530,0.046752650,9.773458480,0.055187940,0.013516840,-0.028170640
1640786242.466470,0.099198090,0.407115040,9.945183750,0.047057870,-0.047180060,-0.006596750
1640786242.468420,0.005247290,0.669946910,10.110931400,-0.006505850,-0.003595650,-0.013872980
1640786242.468860,0.202969920,0.628023510,9.840761180,-0.006291270,-0.033982090,-0.009702140
1640786242.470790,-0.150257050,0.527653930,10.090205190,0.064528000,-0.045160950,-0.022983550
1640786242.473820,-0.224082140,0.361956030,9.767766000,0.079846370,-0.047698620,-0.020924210
1640786242.475860,-0.171088800,0.231292800,9.733715060,0.072723630,-0.033219160,-0.005777180
1640786242.478770,-0.305946230,0.117280990,9.706045150,0.002591310,-0.010409950,0.007276240
1640786242.480990,-0.061663520,0.201958510,9.960621830,-0.050538790,-0.026345250,0.006043910
1640786242.484170,0.138370830,0.347090270,9.626783370,-0.026574730,0.023469330,0.010518730
1640786242.485800,0.168008120,0.501639190,10.038642880,-0.005514920,-0.020669400,-0.004479290
1640786242.488839,0.038520280,0.418534040,10.384929660,0.013819340,-0.031331190,-0.010490420
1640786242.492410,0.188925680,0.226542730,9.207677840,0.021448730,-0.063839560,-0.021892790
1640786242.493840,-0.057149510,-0.137867500,9.804783820,0.039692230,-0.064334280,-0.022991000
1640786242.495829,-0.095318730,-0.076582070,9.445150380,0.032494970,0.069388750,-0.001811980
1640786242.500559,-0.137358230,-0.099130010,9.874958040,-0.017550590,-0.030282140,0.007545950
1640786242.501099,-0.251397730,-0.109790860,10.420922280,-0.013536210,-0.048838560,0.021903220
1640786242.503800,0.144766030,0.199098710,9.171504970,0.008586050,-0.015231970,0.013367830
1640786242.505970,0.009957960,0.196119610,9.838920590,0.036188960,-0.010420380,-0.016260150
1640786242.508760,-0.033246960,0.441030260,9.973696710,0.048023450,0.045192240,-0.020903350
1640786242.510870,-0.010542840,0.619088890,10.018773080,0.030937790,-0.059284270,-0.026661160
1640786242.514370,-0.033811900,0.494748090,9.767413140,-0.015649200,-0.046710660,0.004541870
1640786242.516140,0.028851900,0.578543370,9.446530340,-0.031894450,-0.008448960,0.012642150
1640786242.518780,-0.363027480,0.368998260,10.279006000,-0.000348690,0.000712280,0.013989210
1640786242.520850,-0.226011630,0.288111450,9.817817690,0.023694340,-0.034636260,0.015884640
1640786242.523870,-0.239209530,0.248341170,9.983820920,0.023943190,-0.077567990,0.004673000
1640786242.525879,-0.029414630,0.188048630,9.410761830,-0.028307740,0.030744080,0.005003810
1640786242.528849,0.285132410,0.315596400,9.634480480,-0.053209070,0.013238190,0.005826350
1640786242.531100,-0.016276950,0.265914650,10.467055320,-0.049415240,0.003676120,0.002861020
1640786242.534109,0.428417740,0.293883200,9.409184460,-0.028045480,-0.034448500,0.004997850
1640786242.535810,0.061096490,0.156888230,9.999047280,0.027118620,-0.055943430,0.010186430
1640786242.538859,-0.196620700,-0.019020960,9.719170570,0.024786590,0.011359160,0.021468100
1640786242.541870,-0.030808290,-0.045661730,9.597049710,0.007969140,-0.043836240,0.011813640
1640786242.543810,-0.386815910,-0.080991710,9.843943600,-0.007140640,0.005486610,0.008192660
1640786242.545910,0.072917820,0.181262020,9.329408650,-0.016796590,0.020901860,0.017993150
1640786242.548800,-0.040679280,0.361073520,10.221867560,-0.028015680,0.023695830,0.011485820
1640786242.551240,-0.104933050,0.396275790,9.948786740,-0.033593180,-0.019495190,0.004827980
1640786242.553840,0.010888100,0.294196280,9.994051930,0.031235820,-0.087110710,-0.003495810
1640786242.555850,-0.232799260,0.116507710,9.578769680,0.058960900,0.003403420,-0.011609490
1640786242.558849,-0.139193880,0.083319120,9.578315730,0.049686440,-0.026915960,0.000283120
1640786242.562350,-0.318432840,0.092446960,10.377114300,0.011916460,-0.002509360,0.023664530
1640786242.563880,0.027979360,0.248139310,9.226548190,-0.056311490,-0.001369420,0.017800930
1640786242.565920,0.119468900,0.493661370,10.041664120,-0.053903460,-0.048908590,0.026829540
1640786242.568740,-0.012954550,0.614247260,10.102513310,-0.035053500,0.083978470,0.024935600
1640786242.570860,0.077556330,0.626816630,9.898458480,0.012677910,-0.060124700,0.008264180
1640786242.574530,-0.344931010,0.507928310,10.488661770,0.036036970,-0.120049740,0.004926320
1640786242.575810,0.001310520,0.339009670,8.661892890,-0.024114550,-0.012116130,0.012996790
1640786242.578820,0.019201120,0.042148140,9.535699840,-0.041134660,0.017505880,0.024022170
1640786242.580790,-0.245447960,-0.108903500,10.553401950,-0.038599970,0.071755050,0.037881740
1640786242.584169,0.119053680,-0.004470570,9.808604240,-0.008058550,-0.066591810,0.037974120
1640786242.585880,0.109203580,-0.040907700,9.822504040,0.000582640,-0.095129000,0.034718210
1640786242.588840,0.106469300,-0.030499190,9.362156870,-0.027276580,0.035700200,0.018000600
1640786242.592120,-0.051186150,0.007460230,9.858171460,-0.000323360,0.011996920,-0.002056360
1640786242.593840,-0.139882500,0.196456070,10.112981800,0.023406740,-0.046961010,-0.007136170
1640786242.595960,-0.134041470,0.360755920,9.704646110,0.025336450,-0.057925290,0.011852390
1640786242.598780,-0.173109320,0.544605020,9.738837240,-0.035110120,-0.010976190,0.027285520
1640786242.600960,-0.288819640,0.437763420,10.184088710,-0.071725250,-0.018654770,0.040352340
1640786242.603780,-0.386562140,0.233116720,10.122472760,0.016494100,-0.047284360,0.039806960
1640786242.605950,-0.126819910,0.295495780,9.636057850,0.054681300,-0.056886680,0.018054250
1640786242.608810,-0.061939540,0.338490900,9.655462270,0.018939380,-0.021176040,0.024755300
1640786242.610900,0.114068910,0.393003640,9.745631220,-0.073432920,0.009912250,0.036948920
1640786242.613770,0.212649140,0.368055760,10.173458100,-0.110532340,-0.021657350,0.020633640
1640786242.615900,0.118278410,0.348886520,9.808238030,-0.041715790,-0.058344010,0.019137560
1640786242.618780,0.135954720,0.380899070,9.788681980,0.016090270,-0.071890640,0.014144180
1640786242.620790,-0.212916400,0.097321290,9.927453040,0.001923740,-0.003299120,0.020086770
1640786242.623849,-0.150798980,-0.110112840,9.516444210,-0.001712140,-0.068534920,0.030893090
1640786242.625959,-0.164990100,-0.237135470,9.973756790,-0.010731820,-0.038808580,0.031130010
1640786242.628790,0.069635660,-0.094734410,9.076131820,-0.020629170,0.069974370,0.042803600
1640786242.630960,0.160665350,0.227899980,10.169060710,-0.041958690,-0.026546420,0.041157010
1640786242.633800,-0.070404860,0.326835810,10.657196040,-0.056862840,-0.003537540,0.037935380
1640786242.635900,0.249561010,0.295869110,9.147625920,-0.002816320,-0.079882150,0.015284120
1640786242.638860,-0.318208610,0.110486130,10.481846810,0.062160190,-0.097897660,-0.020772220
1640786242.640859,-0.427699920,0.054349840,9.374296190,0.067161030,0.030724700,-0.014944380
1640786242.643950,-0.216373190,0.111949530,9.610857010,0.028492520,-0.104320070,0.001731520
1640786242.645870,-0.414625170,0.138060660,10.379044530,-0.037834050,0.002539160,0.025521220
1640786242.648810,0.299090330,0.505040940,9.030912400,-0.066709520,0.027790670,0.043816880
1640786242.651320,0.123615910,0.644720490,10.633603100,-0.049005450,-0.033035870,0.044214730
1640786242.653810,0.079038790,0.658395890,10.063200950,-0.021368260,0.003196300,0.039811430
1640786242.655920,0.243699640,0.509616020,9.568168640,0.031779710,-0.136180220,0.021097070
1640786242.659020,-0.176828030,0.096807430,9.898014070,0.027869640,-0.044488900,0.011971590
1640786242.661820,0.098297830,-0.065814210,9.052369120,0.010609630,0.030720240,0.026002530
1640786242.663830,-0.158826130,-0.254965010,10.492650990,-0.026534490,0.008136030,0.026188790
1640786242.665850,-0.033300180,-0.136172520,9.857680320,-0.049681970,0.003379580,0.032864510
1640786242.668749,0.141848330,0.098959170,9.586988450,-0.009696190,-0.079953670,0.040909650
1640786242.670850,0.007725930,0.209163470,9.734344480,-0.033335390,0.028692190,0.026659670
1640786242.674000,0.165301220,0.391415120,9.367303850,-0.005082790,0.016078350,0.006774070
1640786242.677690,-0.183762160,0.358913930,10.373118400,0.042259690,-0.049191720,-0.001327690
1640786242.678759,-0.034856190,0.422934440,9.528634070,0.014406440,-0.007155540,0.002847610
1640786242.680780,-0.118891720,0.355010960,9.754812240,-0.003759560,-0.047977270,0.026740130
1640786242.684209,-0.345746870,0.218297120,10.385968210,-0.058427450,-0.006730850,0.032433870
1640786242.685809,-0.047519190,0.172688690,9.541929240,-0.024344020,-0.006434320,0.039304790
1640786242.688860,-0.115503780,0.101628240,9.925670620,0.036542120,-0.035689770,0.025933990
1640786242.690980,0.054232520,0.316109600,9.897669790,0.013710560,0.006347900,0.023096800
1640786242.694000,0.263997940,0.467045340,9.512228970,-0.035451360,0.002618130,0.030341740
1640786242.696590,0.221622230,0.442070450,9.932277680,-0.088460750,-0.018075110,0.025498870
1640786242.698789,0.239548880,0.487438110,9.820723530,-0.061222920,0.004121660,0.022517150
1640786242.701069,0.095848970,0.324351910,9.541773800,0.000096860,0.001044570,0.029172000
1640786242.703810,-0.281392130,0.019701680,10.452107430,0.011308490,-0.048139700,0.023823980
1640786242.706220,-0.453192740,-0.243329470,9.860502240,0.024387240,-0.022673610,0.038020320
1640786242.708819,-0.239114330,-0.455565810,9.254942890,0.007729230,-0.061206520,0.017362830
1640786242.710899,-0.319993560,-0.329142360,9.941987990,-0.009122490,0.051277880,0.015789270
1640786242.713820,0.029736790,0.128861930,9.534523960,-0.033570830,0.093086060,0.023287540
1640786242.715910,0.153231800,0.332316340,10.459568980,-0.045897070,-0.046086310,0.034701830
1640786242.718780,0.189398840,0.488757670,9.873895650,-0.009517370,-0.016036640,0.046022250
1640786242.720899,0.287071110,0.378141430,9.518790250,0.040823220,-0.029657790,0.019758940
1640786242.724099,-0.315345560,0.007994630,10.565194130,0.093165050,-0.005814430,0.010792910
1640786242.725880,-0.380803790,0.002219560,9.498151780,0.101627420,-0.039841230,0.021986670
1640786242.728760,-0.318880380,0.069598700,9.826005940,0.014202300,-0.079895560,0.016351050
1640786242.730800,-0.192002820,0.380297360,9.346419330,-0.079816580,0.069418560,0.040045380
1640786242.734249,0.143502580,0.756812930,9.593110080,-0.085237620,0.025986140,0.048114360
1640786242.735960,-0.071027200,0.866539780,10.830336570,-0.040397050,0.026515130,0.024913260
1640786242.738860,0.174839480,0.956885520,9.513933180,0.016246740,-0.046044580,0.028553610
1640786242.742280,-0.064675470,0.418107030,10.307245250,0.037658210,-0.132396860,0.033563380
1640786242.743759,-0.164220480,-0.135665760,9.491303440,0.008204580,0.059188900,0.035025180
1640786242.745869,0.075217370,-0.471534430,9.299644470,0.014543530,-0.016970930,0.034444040
1640786242.748800,-0.254126790,-0.656814930,10.593755720,-0.007174910,0.026886170,0.043350460
1640786242.751269,0.409579430,-0.281086740,8.827314380,-0.026415290,0.056095430,0.044925510
1640786242.753980,0.154588740,-0.035364590,10.263194080,-0.031200050,-0.051598250,0.029224150
1640786242.755950,0.078294620,0.220308860,9.926640510,-0.014579300,0.047566000,0.018386540
1640786242.760690,0.275454580,0.518155810,9.097929950,0.046180190,-0.040143730,-0.016483660
1640786242.761309,-0.396644230,0.451002360,10.483060840,0.051662320,-0.009292360,-0.009128450
1640786242.763749,-0.257649090,0.606018420,9.467252730,0.035721060,0.033268330,0.010851030
1640786242.765900,-0.479718480,0.483368100,9.960387230,0.002123420,-0.080360480,0.033897160
1640786242.768810,-0.463643670,0.237748160,9.852162360,-0.037752100,0.006268920,0.054109100
1640786242.770920,-0.074893190,0.216344570,9.430541040,0.008355080,0.030204650,0.049395860
1640786242.773860,-0.176114510,0.006630640,10.345574380,0.028529770,0.021241610,0.022229550
1640786242.775900,0.181419690,0.145089920,9.824119570,0.043056910,-0.009727480,0.018005070
1640786242.778740,0.194058360,0.308272660,9.830114360,0.012981890,-0.046342610,0.011740620
1640786242.780890,0.360976670,0.384442690,9.352580070,-0.078833100,0.025308130,0.013050440
1640786242.783840,0.214453130,0.511306940,9.852987290,-0.058208410,0.026719270,0.026479370
1640786242.786399,-0.177427800,0.443371950,10.357978820,-0.024026630,0.011865800,0.011308490
1640786242.788839,-0.104842400,0.333943280,9.757472990,0.022090970,-0.055041910,0.022149090
1640786242.790870,-0.451982020,0.207741980,9.861779210,0.043983760,-0.035317240,0.033684080
1640786242.793959,-0.272105310,0.000502100,9.472587590,-0.033193830,0.030632320,0.027383860
1640786242.795879,-0.036846200,-0.000141230,9.482786180,-0.042267140,0.035141410,0.027360030
1640786242.798730,0.144340520,0.194078520,9.753276820,-0.049415230,0.052277750,0.014469030
1640786242.801100,0.478039030,0.365510310,9.834772110,-0.059098010,0.064173340,0.008808080
1640786242.803979,0.298373280,0.398744820,10.002970700,-0.033505260,0.019258260,0.009121000
1640786242.805950,0.094685350,0.151207890,10.113280300,-0.004422670,-0.060810150,-0.005993250
1640786242.808800,-0.065915090,-0.115006980,9.370978360,0.047166650,0.002121930,-0.012862680
1640786242.810880,-0.300520480,-0.250855420,9.357586860,0.047825280,0.027778740,-0.010050830
1640786242.813789,-0.558254120,-0.197590520,10.373063090,0.005763770,0.035154820,-0.005403160
1640786242.815980,-0.222284560,0.121370470,9.379243850,-0.030648710,0.059938430,0.012451410
1640786242.819180,-0.062430050,0.409431280,10.012856480,-0.070464620,-0.013412540,0.003771480
1640786242.820880,-0.031548720,0.622877420,10.243533130,-0.038538870,0.097402920,0.005696710
1640786242.823799,0.149927050,0.794715230,9.570759770,0.014294680,0.010870400,-0.011339780
1640786242.825909,-0.238707840,0.518163320,10.592840190,0.043983750,-0.061573090,-0.000467900
1640786242.828810,-0.036726460,0.378233850,9.123925210,0.019593540,0.022204220,0.008174780
1640786242.830880,0.066237860,0.100863050,9.485463140,-0.037299100,0.001518430,0.021408500
1640786242.833880,-0.302788140,-0.171663970,10.515764240,-0.041466960,0.104399030,0.027340650
1640786242.836099,0.058730130,0.060308530,9.567678450,-0.027570130,0.012458860,0.010916590
1640786242.838810,0.012411060,0.056708840,10.174758910,-0.025035440,-0.054191050,-0.001466270
1640786242.841960,0.220320330,0.310223010,9.114362720,-0.020892920,0.095179680,0.003644820
1640786242.843789,0.224822340,0.491799470,9.763576510,-0.034844880,0.042200090,-0.020618740
1640786242.845880,0.004671180,0.315468640,10.256444930,-0.034905970,0.072784720,-0.009027120
1640786242.848790,0.230143870,0.467814980,9.382605550,0.008805100,0.027169290,0.003345310
1640786242.851189,-0.262731910,0.250605490,10.391275410,-0.012575090,0.004237890,0.012992320
1640786242.854110,-0.232878040,-0.005941550,9.438922880,-0.044547030,0.055415940,0.026012960
1640786242.855929,-0.329597650,-0.226983250,9.700995450,-0.001940130,-0.030715770,0.003036860
1640786242.859170,-0.283196900,-0.279839100,9.558321950,0.022591650,0.102353100,-0.015142560
1640786242.860940,0.127866190,0.048505120,9.328804970,0.021193920,0.094634300,-0.016312300
1640786242.863799,-0.233605920,0.227935080,10.763599400,-0.029042370,0.035193570,-0.017613170
1640786242.865949,0.194154490,0.462131950,9.534847260,-0.063750130,0.029581780,-0.010196860
1640786242.868830,-0.016661420,0.440801500,9.859277730,-0.016827880,-0.039780140,-0.026084480
1640786242.870890,-0.388544260,0.315545770,10.119885440,0.022888180,0.061151390,-0.032904740
1640786242.873829,-0.121175600,0.264706400,9.568957330,0.066439810,0.020699200,-0.025425850
1640786242.875890,-0.585908230,0.051057550,10.415771480,0.048668690,-0.022251900,-0.014571850
1640786242.878769,-0.031012020,0.132950960,9.248778340,-0.032138820,0.028502940,0.011023880
1640786242.881330,0.112393040,0.238697390,9.520542140,-0.058969860,0.062395640,0.015714760
1640786242.883810,0.050369090,0.313315030,10.160006520,-0.055718430,0.086031860,0.001126530
1640786242.885910,0.321517410,0.598780270,10.074581150,-0.007013980,0.017994640,-0.017061830
1640786242.888919,0.007664130,0.534165020,10.007294650,0.011183320,-0.029866400,-0.029166040
1640786242.892279,0.131394310,0.276269020,9.382451060,-0.005558130,-0.010080630,-0.020378820
1640786242.894500,-0.177116080,0.045651120,9.776450160,0.009664890,0.076813980,-0.008727610
1640786242.895920,-0.319426980,-0.237841700,9.752510070,-0.001442430,0.053276130,-0.009828810
1640786242.898810,-0.222343160,-0.245594350,10.007440570,0.029742720,-0.031781200,0.013487040
1640786242.900889,-0.290004400,-0.096701690,9.565841670,-0.002869960,0.041067600,-0.002764170
1640786242.904049,-0.062624520,-0.004725850,9.535898210,-0.053548820,0.028426950,-0.026433170
1640786242.905949,-0.155332270,0.166304560,10.145041470,0.005191560,0.033955280,-0.027912860
1640786242.908789,0.072563680,0.276196660,9.530555730,0.047364820,0.045317410,-0.057806070
1640786242.910879,0.138881370,0.372662130,9.993724820,0.072346630,0.001201030,-0.035519900
1640786242.914180,-0.137034360,0.410052300,9.971263890,0.022931400,0.043971840,-0.009587410
1640786242.915880,-0.079136010,0.132959500,9.673089980,-0.013348460,-0.014315550,0.001806020
1640786242.918730,-0.337405770,0.044180310,9.816188810,0.025019050,0.001990800,-0.005526840
1640786242.920899,-0.381846160,0.110794790,9.605876920,0.050577520,0.005745890,-0.021827220
1640786242.923849,-0.312601950,0.223471850,9.984004970,0.042401260,0.015430160,-0.024475160
1640786242.925920,-0.190847650,0.443568970,9.724632260,-0.003273790,0.048787890,-0.026473400
1640786242.928979,-0.095863100,0.558809640,10.183627130,-0.040994590,-0.010272860,-0.030002000
1640786242.930940,-0.019957960,0.611964580,9.964399340,-0.016342100,0.040587780,-0.010742250
1640786242.933730,-0.051254730,0.553194520,9.762056350,0.015342240,-0.034610930,-0.007899110
1640786242.935910,-0.291170980,0.336567760,10.167028430,0.035472220,-0.050984320,-0.012773280
1640786242.938850,0.082254450,0.143853870,8.900957110,0.008304420,0.006312130,0.009484590
1640786242.941769,0.024378230,-0.119912440,9.747272490,-0.005130470,0.029118360,-0.000640750
1640786242.943810,0.013490110,-0.095527860,10.206423760,0.001183150,0.110459350,-0.003175440
1640786242.946090,0.192627100,0.152429430,9.885498050,-0.021466610,-0.025758140,-0.005260110
1640786242.948779,-0.089890000,0.135585440,10.108430860,-0.016339120,-0.057870150,-0.006967780
1640786242.950870,-0.007804530,0.266029890,9.207205770,-0.015677510,0.022490320,-0.013712050
1640786242.954200,-0.414752720,0.097351410,9.836180690,0.026208160,0.009462240,-0.047543650
1640786242.955950,-0.494924930,0.072818820,9.826668740,0.072175270,-0.003057720,-0.040978200
1640786242.958770,-0.344517740,0.171549630,9.717520710,0.060732670,-0.019171840,-0.022709370
1640786242.961160,-0.370404270,0.123168320,9.781652450,0.005407630,0.030109280,0.000168380
1640786242.963780,-0.113149110,0.266562910,9.961007120,-0.028611720,-0.010733310,0.007906560
1640786242.965920,-0.192698670,0.257733140,10.146853450,0.004874170,-0.013375280,-0.003683570
1640786242.968750,0.161018650,0.389589400,9.233345030,0.032864510,-0.022010500,-0.029373170
1640786242.971180,0.110351580,0.575408460,10.099070550,0.030811140,-0.014722350,-0.043295330
1640786242.973820,-0.021256600,0.516395510,9.841372490,-0.012832880,0.051361330,-0.028888880
1640786242.975920,0.131862850,0.384054210,9.855712890,-0.023753940,-0.063912580,-0.032775100
1640786242.979230,-0.440625490,0.247484150,10.461798670,-0.000278650,-0.056035820,-0.015270710
1640786242.980870,-0.163894550,0.177704570,8.975982670,0.014080110,-0.014129280,-0.001856680
1640786242.983780,-0.390710500,0.024727420,10.237726210,0.020711130,-0.041608520,-0.002202390
1640786242.985980,-0.496522340,-0.010629650,9.946426390,0.010903180,0.022202730,0.000743570
1640786242.988829,0.234954510,0.142818700,9.221211430,-0.004126130,-0.058022140,-0.009757280
1640786242.990909,0.035108560,0.159478780,10.205638890,-0.022929900,0.035656990,-0.016863640
1640786242.996460,0.238303750,0.310498000,9.617903710,-0.007133190,0.035463270,-0.016936660
1640786242.996919,0.035406710,0.291737620,10.416684150,0.021299720,-0.109550360,-0.027589500
1640786242.998740,-0.215782300,0.101550010,9.524272920,0.029470030,-0.056429210,-0.016115610
1640786243.000890,-0.038116380,-0.044077430,9.221786500,0.050239270,-0.059671710,-0.017511850
1640786243.003860,-0.404759260,-0.248618930,10.122557640,0.045265260,0.061175230,-0.032572450
1640786243.005970,-0.172002030,0.022367590,9.536419870,0.047552580,-0.002761190,-0.021409980
1640786243.008859,-0.184966550,0.211634070,10.282065390,0.026281180,-0.085519260,-0.000517070
1640786243.011060,0.094388310,0.429780360,9.229615210,-0.050735480,0.031413140,-0.014764070
1640786243.013800,0.040448580,0.508564170,9.927592280,-0.020305810,-0.040349360,-0.027483700
1640786243.015900,-0.398765440,0.397938160,10.720090870,0.055065750,-0.023770330,-0.039711590
1640786243.019070,-0.134617160,0.362865180,9.306992530,0.102573660,-0.086653230,-0.048001110
1640786243.020900,-0.447938200,0.224666090,10.198111530,0.077091160,-0.114421550,-0.031983860
1640786243.028020,-0.191892800,0.253984900,9.339072230,-0.035959490,0.044047840,-0.006827710
1640786243.029019,0.094073500,0.245086130,9.561107640,-0.057430570,-0.004425640,0.001619760
1640786243.029369,-0.043449960,0.349427250,10.567846300,-0.027884540,-0.018782910,-0.013285880
1640786243.030870,0.398987530,0.639483630,9.410284040,0.015427170,-0.031070410,-0.009869040
1640786243.033749,0.180117740,0.513252140,9.861442570,0.013688210,-0.074197350,-0.023946170
1640786243.036170,0.003092840,0.309559910,9.974611280,-0.024023650,-0.026182830,-0.035753840
1640786243.038839,0.053627310,0.016540850,9.428067210,0.009706620,-0.033478440,-0.031819940
1640786243.041489,-0.225604000,-0.273499370,9.947379110,0.028680260,-0.009876490,-0.023725630
1640786243.043890,-0.321716430,-0.257787170,10.144531250,0.028963390,-0.013287370,-0.012917820
1640786243.045889,-0.273513470,-0.126192330,9.564340590,0.001500550,-0.060023370,-0.005033610
1640786243.048760,-0.112345210,-0.103462510,9.552575110,-0.032493470,-0.054845210,-0.019775330
1640786243.050920,-0.093896540,0.142960760,9.583886150,0.018420810,0.045120720,-0.030913950
1640786243.053900,0.033146060,0.367661180,9.948120120,0.041593610,0.007362660,-0.053861740
1640786243.056020,-0.018557750,0.491473350,10.329552650,0.058828290,-0.050775710,-0.041113790
1640786243.062009,-0.057097350,0.680499970,9.586632730,0.025711950,-0.060139610,-0.018094480
1640786243.062729,-0.176310230,0.433454480,9.872478490,-0.039799510,-0.049640240,-0.008234380
1640786243.063750,-0.447684790,0.161510800,9.867208480,0.009123980,-0.013256070,0.001351540
1640786243.065879,-0.383932050,0.107853610,9.794257160,0.067508220,-0.078417370,-0.027829400
1640786243.069080,-0.316003620,0.136944880,10.066114430,0.055441260,-0.037875770,-0.026658180
1640786243.071509,0.021142670,0.385017370,9.206034660,-0.002323090,-0.002889340,-0.018604100
1640786243.073920,0.092864530,0.532880010,10.288826940,-0.076794630,-0.037518150,-0.021545590
1640786243.077329,0.202978400,0.716265500,9.862019540,-0.074784470,0.031355030,-0.020532310
1640786243.078750,0.263534250,0.747666480,9.690180780,-0.026112790,-0.121691830,-0.025130810
1640786243.080900,-0.216436220,0.416084530,10.413898470,0.019496680,-0.077024100,-0.008106230
1640786243.083750,-0.103698690,0.135370340,8.893301960,0.020015240,-0.015178320,-0.006543100
1640786243.086190,-0.475730570,-0.396099870,10.281586650,0.010013580,-0.107646000,-0.008657570
1640786243.089079,-0.349554360,-0.498378550,9.652858730,0.007490810,0.031162790,0.011095400
1640786243.093170,0.064292270,-0.219282640,9.204141620,-0.013051930,-0.035724040,0.004990400
1640786243.095510,-0.145821320,-0.067981670,10.615912440,-0.047463170,-0.014193360,-0.001563130
1640786243.096069,0.311920700,0.377859680,9.323435780,-0.040894740,-0.004638730,-0.009635090
1640786243.098760,0.039604160,0.360238460,10.075062750,0.013567510,-0.112323480,-0.040918590
1640786243.100940,-0.094232660,0.349470700,9.760231970,0.063844030,-0.014266370,-0.047993660
1640786243.104410,-0.128925900,0.379213420,9.657235150,0.073432920,-0.070515280,-0.036564470
1640786243.105950,-0.514328180,0.088425440,10.211904530,0.024868550,-0.061267620,-0.010125340
1640786243.109050,-0.176780430,0.124507460,9.453036310,-0.005637110,-0.053292520,0.016631190
1640786243.112100,-0.422387480,0.114887440,10.112542150,-0.020055470,-0.040112440,-0.000117720
1640786243.113760,-0.100468050,0.224671630,9.648318290,-0.010125340,-0.031161310,-0.008961560
1640786243.115900,-0.085079740,0.503276410,10.088541980,0.020796060,-0.087705250,-0.033806270
1640786243.118820,-0.111931310,0.540032030,9.836202620,0.001057980,-0.049144020,-0.042860200
1640786243.121870,0.297482070,0.584048750,9.442640300,-0.011657180,-0.069852190,-0.034450010
1640786243.124250,-0.205779900,0.375362550,10.444428440,-0.001464780,-0.036308180,-0.013917690
1640786243.127220,0.024916360,0.269265150,9.579569820,-0.014631450,-0.058010220,0.001667440
1640786243.129770,-0.126239050,0.098110470,9.995512960,0.009861590,-0.121155400,0.016167760
1640786243.130880,-0.271785910,-0.057277170,9.518480300,-0.003646310,-0.044666230,0.017884370
1640786243.133790,0.127345140,-0.005480940,9.290984150,0.000603500,-0.046181680,-0.001870100
1640786243.135980,-0.169504880,0.083630170,10.084883690,-0.015784800,-0.004373490,-0.019928810
1640786243.139279,0.156295840,0.430662990,9.649266240,-0.031404200,-0.054067380,-0.020638110
1640786243.141049,0.141912740,0.476519170,10.109846120,-0.033183400,-0.050841280,-0.022877750
1640786243.144800,-0.071670740,0.437333700,9.809268000,-0.048339360,-0.040814270,-0.023281570
1640786243.145890,-0.181853950,0.224247830,10.057464600,0.005576010,-0.121173270,-0.012671950
1640786243.148749,-0.387403310,-0.099737050,9.545354840,0.035731500,-0.049942730,-0.013238190
1640786243.150879,-0.223916810,-0.197357030,9.222125050,0.040565430,-0.069361930,-0.020404160
1640786243.154140,-0.319576530,-0.125721170,10.196538930,0.014932450,-0.026844440,-0.002808870
1640786243.156220,0.034673500,0.150198410,9.527596470,-0.055576860,-0.008043650,-0.014148650
1640786243.158890,0.077780120,0.395577730,10.182447430,-0.060048700,-0.087645640,-0.011916460
1640786243.161010,-0.011340970,0.644948120,10.207216260,-0.035387280,-0.031311810,-0.032325090
1640786243.163920,0.021780190,0.735142710,9.583692550,0.010973220,-0.078865910,-0.041872270
1640786243.165910,-0.365342800,0.609658720,10.228128430,0.036382680,-0.121787210,-0.034499170
1640786243.169080,-0.326017680,0.467188510,9.520199780,0.000359120,-0.061723600,-0.016097730
1640786243.170910,-0.246486680,0.249198360,9.431370740,-0.028465690,-0.063261390,0.001448390
1640786243.173910,-0.184587880,0.120620650,10.136688230,-0.058783590,-0.014151630,0.022085010
1640786243.176800,0.044496920,0.253076260,9.943595890,-0.048121810,-0.036315620,0.008325280
1640786243.178789,0.314912440,0.445767760,9.571928980,-0.056587160,-0.085429850,0.003002580
1640786243.180899,0.311564920,0.456763710,9.811967850,-0.079369540,-0.048162050,-0.006721910
1640786243.183770,0.278516770,0.427982900,9.546928410,-0.056785350,-0.012095270,-0.017078230
1640786243.186159,0.245258960,0.253070210,9.801853180,-0.038452460,-0.068098320,-0.031431030
1640786243.189090,-0.151545320,0.046452760,9.952175140,-0.003217160,-0.046055020,-0.017094610
1640786243.190930,-0.212123530,-0.037980700,9.476427080,-0.027157370,-0.045926870,-0.001816450
1640786243.195200,-0.472346220,-0.302254410,10.152019500,-0.068523000,-0.070162120,-0.005534290
1640786243.196009,-0.464276400,-0.282071440,9.458634380,-0.034500660,-0.038270650,-0.004410740
1640786243.198740,-0.125725790,-0.015350190,9.529170990,-0.008124110,-0.049661110,-0.035162280
1640786243.201059,-0.040177480,0.221926320,9.821065900,-0.014150140,0.050738460,-0.039273500
1640786243.203840,0.275003430,0.605526630,9.748354910,-0.041876730,-0.026641790,-0.023648140
1640786243.205999,0.100724460,0.549585520,10.679467200,-0.069743390,-0.071170930,-0.013138350
1640786243.209940,0.097346800,0.433617740,9.381649970,-0.036774580,-0.051379200,-0.016985830
1640786243.210880,-0.084495040,0.273125020,9.905133250,0.019454960,-0.139942780,-0.028915700
1640786243.213770,-0.406451940,0.021383480,9.939188000,0.019080940,0.022563340,-0.029301650
1640786243.215910,-0.100445400,0.089740410,9.152666090,-0.002466140,-0.036881860,-0.013962390
1640786243.218809,-0.328848000,0.016403410,10.651842120,-0.050196060,-0.076447450,-0.012315810
1640786243.221150,0.286620530,0.437705220,8.871761320,-0.092796990,0.053064530,-0.008705260
1640786243.227730,0.283864500,0.663995500,9.907574650,-0.088775150,-0.055092570,-0.015695390
1640786243.228400,-0.006440800,0.596114520,10.574040410,-0.074307630,0.010247530,-0.004546340
1640786243.228730,0.349836320,0.541127500,9.160470010,-0.000301000,-0.083114190,-0.015631310
1640786243.230899,-0.232771610,-0.009872310,10.163036350,0.017471610,-0.087578590,-0.018090010
1640786243.234320,-0.177938660,-0.323219330,9.355485920,0.001432000,0.042469800,-0.011064110
1640786243.235910,-0.295786710,-0.405106190,9.796634670,-0.000126660,-0.044648350,-0.016276540
1640786243.239060,-0.240165230,-0.341923000,9.846776960,-0.040279330,-0.017492470,0.001952050
1640786243.240919,0.170992270,0.102126110,9.353898050,-0.045965620,0.008948150,-0.003561380
1640786243.243759,0.018657920,0.375246700,10.073800090,-0.069411100,0.022770460,-0.028584900
1640786243.245900,0.316290020,0.557798450,9.728500370,-0.018301610,-0.005146860,-0.035624210
1640786243.248819,-0.027796040,0.736404060,10.091688160,0.043140350,-0.042921300,-0.042374430
1640786243.250900,-0.107433830,0.652383740,9.652365680,-0.011014940,-0.025726850,-0.034944710
1640786243.254099,-0.182392240,0.497462930,9.613208770,-0.033989550,-0.048632920,-0.006841120
1640786243.255920,-0.451021730,0.198467400,9.845012660,-0.070782010,-0.005400180,-0.002183020
1640786243.258900,-0.113122950,0.046029220,9.610195160,-0.046555700,0.014367700,0.001674890
1640786243.261230,-0.217210130,0.057415890,10.154753680,-0.010901690,0.014933950,-0.008554760
1640786243.263780,0.028424660,0.178822730,9.921119690,-0.039125980,-0.015304980,-0.024209920
1640786243.266229,0.243453800,0.292199790,9.613653180,-0.065732000,-0.016669930,-0.019939240
1640786243.268740,0.277847200,0.350028130,9.323503490,-0.084637090,0.007222590,-0.025336440
1640786243.271180,0.351496220,0.334805310,9.819815640,-0.048999480,0.032056860,-0.019109250
1640786243.273800,0.112925860,0.266481670,9.939164160,-0.018037860,0.062425440,-0.008451940
1640786243.275910,-0.073460840,0.102136300,10.053859710,-0.011612470,-0.073009740,-0.012980400
1640786243.278760,-0.265543760,-0.118827470,9.808473590,-0.005032120,-0.035716600,0.015792250
1640786243.281270,-0.275372060,-0.192497750,9.022802350,-0.028456750,0.031580030,-0.009287890
1640786243.283840,-0.421547410,-0.143886720,9.896906850,-0.021325050,0.018110870,-0.020712610
1640786243.285930,-0.166981460,0.239965500,9.668151860,-0.028739870,0.059938430,-0.027576090
1640786243.288930,0.083047700,0.506974940,9.531217580,-0.050465770,0.004662570,-0.029453640
1640786243.292719,0.042994300,0.577920790,10.120326040,-0.044074650,0.011588630,-0.006435810
1640786243.294109,-0.137759160,0.536883410,10.238138200,-0.035585470,-0.008173290,-0.018864870
1640786243.295930,-0.287427660,0.197021830,9.855497360,0.022913520,-0.074820230,-0.007791820
1640786243.298750,-0.222216410,0.046306680,9.508798600,0.038726630,-0.048787900,-0.015847390
1640786243.300890,-0.327440170,0.022551460,9.711425780,0.002618130,0.051866480,-0.008448960
1640786243.304030,-0.075344580,0.155713100,9.497359280,-0.069016200,0.034703310,0.007890160
1640786243.305960,-0.004956810,0.329240350,10.273300170,-0.099241760,-0.040578850,-0.003352760
1640786243.308800,0.142757100,0.519985500,9.457078930,-0.066781050,0.017581880,-0.016446410
1640786243.310890,0.339889940,0.696420190,9.486040120,-0.022272760,-0.027455390,-0.010825690
1640786243.313949,-0.198066520,0.394184710,10.486287120,0.003485380,0.017014150,-0.001277030
1640786243.315899,-0.022480250,0.211566730,9.380094530,0.005091730,-0.025336440,-0.002731380
1640786243.318770,-0.165254530,-0.083296410,9.891899110,-0.024063890,-0.072042640,0.000295040
1640786243.320900,-0.221416680,-0.198043180,9.198350910,-0.038085880,0.081630050,0.019542870
1640786243.323809,-0.029099960,-0.019185090,9.585944180,-0.048710410,0.013948980,0.010083620
1640786243.326730,-0.245940030,0.027880810,10.301287650,-0.050090260,0.012706220,0.000454490
1640786243.328810,0.173551100,0.212355790,9.193752290,-0.020596390,-0.028736890,0.002564490
1640786243.330979,0.026345060,0.212777500,10.105369570,0.003722310,-0.004227460,-0.033073130
1640786243.333740,-0.018120310,0.286507840,9.574231150,0.000318880,0.093875830,-0.034154950
1640786243.336120,-0.165572360,0.367009610,10.219626430,0.010673700,-0.063557920,-0.025144220
1640786243.338800,-0.452451970,0.266859500,10.089403150,-0.038388370,-0.035475200,0.000259280
1640786243.342090,-0.001946430,0.325720460,8.518170360,-0.035598880,-0.028496980,0.011911990
1640786243.343760,-0.383528710,0.195891750,10.242321970,-0.020912290,0.026533010,0.018778440
1640786243.346130,-0.132968770,0.288487820,9.877444270,-0.009982290,0.107111040,0.010652840
1640786243.348780,-0.038943540,0.442379150,10.233284000,0.006748740,-0.081793960,-0.003845990
1640786243.350900,-0.123545140,0.497856800,10.105453490,-0.054733460,-0.045202680,0.009432440
1640786243.353790,0.413459360,0.638068680,8.615127560,-0.088207430,0.033137210,0.006370250
1640786243.355970,-0.057011140,0.445601250,10.155240060,-0.081276900,0.034818050,-0.013767190
1640786243.359850,0.043335100,0.342448320,9.968959810,-0.024805960,0.017321110,-0.001059470
1640786243.360920,0.055401420,0.053004290,9.518856050,0.029228630,-0.054794550,0.002221760
1640786243.363900,-0.215136020,-0.296767650,9.828668590,-0.014226140,0.003257390,0.003287200
1640786243.365900,-0.203965890,-0.326583450,9.852251050,-0.025783480,0.023302430,0.010964270
1640786243.369060,-0.265002670,-0.286306170,9.718674660,-0.046293440,-0.004246830,-0.013522800
1640786243.370900,0.138000410,0.112708680,9.314994810,-0.045168400,0.010922550,-0.014685100
1640786243.373860,0.173319890,0.650671180,9.680550580,-0.049050150,0.088235740,-0.009100140
1640786243.375880,0.218021300,0.889936090,10.022910120,-0.082337860,0.048658260,-0.006797910
1640786243.378890,0.037994940,0.836462140,10.319208150,-0.041054190,-0.035128000,0.015532970
1640786243.380900,-0.290022700,0.530375180,9.772741320,-0.008898970,-0.049734120,-0.002662840
1640786243.383760,-0.264021100,0.173967000,9.414449690,0.009074810,-0.020416080,-0.000122190
1640786243.386230,-0.429979290,-0.002910970,9.706174850,-0.013180080,0.061541800,0.007091460
1640786243.388840,-0.208751810,-0.044905640,9.780524250,-0.072951620,0.035753850,0.004008410
1640786243.394120,0.168001310,0.155788820,9.697272300,-0.102897000,0.037242470,0.006410480
1640786243.394850,0.365183530,0.373087760,9.472537040,-0.111207370,0.063131750,0.009296840
1640786243.395920,0.210217850,0.333396230,10.268227580,-0.059126320,0.027374930,-0.002825260
1640786243.398769,0.196160510,0.315031740,9.818961140,-0.004898010,-0.004722180,-0.008860230
1640786243.400910,0.007579060,0.042746970,9.513435360,0.010959800,-0.054551650,-0.006592270
1640786243.403790,-0.159659730,-0.209960130,9.470126150,-0.002041460,0.079286110,-0.005352500
1640786243.405959,-0.120063520,-0.176657290,9.619322780,-0.038905440,0.094337770,-0.004132090
1640786243.408980,-0.314653190,-0.088155600,10.062644960,-0.035633140,0.022298100,0.025299190
1640786243.410900,-0.000831880,0.251499300,9.431756970,-0.050160290,0.006861980,0.024397670
1640786243.413770,-0.048249980,0.354299580,9.613600730,-0.059139730,0.058402120,0.003273790
1640786243.415900,-0.123359380,0.460156140,9.847184180,-0.011028350,0.054243210,-0.001211460
1640786243.419109,-0.163160030,0.468538880,10.237993240,0.026591120,0.009006260,-0.020538270
1640786243.420889,-0.243326100,0.445051670,9.567195890,0.016047060,0.028277940,-0.020717080
1640786243.423869,-0.152862940,0.407159810,9.697904590,-0.032746790,-0.012318790,0.004355610
1640786243.425969,-0.405258420,0.239784060,10.143490790,-0.071042780,0.058168180,0.013785060
1640786243.428920,0.024651590,0.285327700,9.000664710,-0.054493550,0.040481990,0.022314490
1640786243.431010,-0.063729390,0.200122310,10.379157070,-0.004895030,-0.007154050,0.009985270
1640786243.433740,0.010903410,0.300027490,9.660654070,-0.004099310,0.111021100,0.024968390
1640786243.436200,0.341416900,0.414985900,9.560604100,-0.043350460,-0.015635790,0.014603140
1640786243.438789,-0.104633160,0.233458400,10.492454530,-0.079678000,0.024446850,0.010721390
1640786243.441320,0.294817180,0.298670170,8.597848890,-0.057402260,0.051401560,0.011785330
1640786243.444020,0.007041140,0.126397540,9.937791820,-0.014393030,0.000005960,0.006249550
1640786243.445920,-0.380628050,-0.013952260,10.049175260,0.001190600,0.114049040,0.013713540
1640786243.448789,-0.235197930,-0.116401790,9.646522520,0.019226970,-0.049789250,0.002293290
1640786243.450899,-0.512972770,-0.345806840,9.995789530,-0.000406800,-0.014650820,-0.000262260
1640786243.453820,-0.112344790,-0.032631270,8.948663710,-0.005455320,0.092816350,-0.003062190
1640786243.456140,-0.218763660,0.286610070,10.138644220,-0.037010020,0.068564710,-0.015617910
1640786243.462100,0.066038530,0.594589230,9.933361050,-0.063195820,0.058615220,0.006560980
1640786243.462819,0.207253960,0.778218980,9.662616730,-0.023315850,-0.018595160,0.000265240
1640786243.463760,0.008365860,0.648636460,9.958820340,-0.023910410,0.039590900,-0.003927950
1640786243.465910,-0.037853580,0.379029010,9.811719890,0.023370980,0.044023990,0.021387640
1640786243.469179,-0.522434410,-0.041032840,10.323169710,0.049099340,-0.035391750,0.010216240
1640786243.470899,-0.219704090,-0.207354260,9.343439100,0.016722080,-0.004808610,0.023806090
1640786243.473919,-0.079405480,-0.019919570,9.198288920,-0.038824980,0.057496140,0.025427340
1640786243.477560,-0.058821440,0.144942830,9.936721800,-0.100518750,0.115746270,0.013044480
1640786243.478730,0.215272160,0.382576580,10.059081080,-0.061081350,0.044414400,0.006601210
1640786243.480899,0.054544690,0.484971020,9.935807230,0.010424850,-0.045067080,-0.008521970
1640786243.483749,0.087889520,0.377231570,9.569820400,0.048033890,-0.027418140,-0.004032250
1640786243.486179,-0.157398510,0.142758910,9.522734640,0.045146050,0.068770370,0.009907780
1640786243.488850,-0.380775240,-0.077995690,9.754621510,-0.000931320,0.019311900,0.014448170
1640786243.491010,-0.253010390,-0.150016770,9.901796340,-0.000533460,0.011411310,0.043141840
1640786243.495110,0.002292810,-0.007922310,9.210557940,-0.020992760,0.079526010,0.032857060
1640786243.496860,0.047941440,0.096830960,9.994747160,-0.008830430,0.043569510,0.021791460
1640786243.498720,-0.008708010,0.324136290,10.274640080,0.017178060,0.051654890,0.004751980
1640786243.500900,0.141506780,0.404712830,9.512511250,0.023317340,-0.008830430,-0.025549530
1640786243.503800,-0.070125200,0.416761370,9.853795050,0.053030260,0.007693470,-0.007219610
1640786243.506470,-0.221714660,0.559516730,9.744625090,0.010012090,0.053970520,0.004430120
1640786243.508880,-0.403423340,0.451842780,9.761818890,-0.028549140,-0.005823370,0.020842260
1640786243.510900,-0.379909100,0.289164960,9.727769850,-0.019596510,-0.009416040,0.036293260
1640786243.513729,-0.386691330,0.190301270,9.973033910,0.016932190,0.051094600,0.021156670
1640786243.515910,-0.299044040,0.256452770,9.845898630,0.039464240,0.040294230,0.029203300
1640786243.518960,-0.058080810,0.299502130,10.037620540,-0.004400310,-0.030721730,0.026381020
1640786243.520929,0.178031830,0.284052580,9.510651590,-0.045321880,0.039848690,0.014607610
1640786243.524050,0.623238920,0.458756360,8.959737780,-0.054380310,0.057780750,0.011828540
1640786243.525990,0.241756950,0.411680070,10.504080770,-0.025706000,0.066304210,0.012744960
1640786243.529049,0.079253070,0.334155410,9.830665590,0.006933510,0.026220090,0.018362700
1640786243.530890,-0.105560740,0.051250630,9.988298420,0.016632670,-0.109916930,0.016699730
1640786243.533759,-0.598356840,-0.348052410,9.689181330,0.036913160,0.018313530,0.021843610
1640786243.536270,-0.378911610,-0.299175830,8.954551700,0.037820640,0.058993700,0.009949510
1640786243.538869,-0.659339250,-0.174432650,10.475376130,0.011758510,0.044530630,0.001427530
1640786243.540969,-0.303717970,0.291674640,9.480528830,-0.025603180,0.033693020,0.029082600
1640786243.543830,0.083880750,0.597075340,9.700284960,-0.046187650,-0.051519290,0.012943150
1640786243.545889,0.045651360,0.661119760,9.866650580,-0.045233960,0.081557040,0.016357000
1640786243.548740,0.143820820,0.633415280,9.934436800,0.050723550,0.008851290,0.015120210
1640786243.551220,-0.374032740,0.263091650,10.891241070,0.090755510,-0.069351490,-0.000809130
1640786243.554270,-0.094082800,0.224488350,8.986982350,0.058929630,-0.049804160,0.019118190
1640786243.555990,-0.157547980,0.112343780,9.468278880,-0.019384920,-0.040115420,0.032319130
1640786243.558879,-0.109815770,0.164271100,9.624501230,-0.102247310,0.143653150,0.041291120
1640786243.561859,0.239921660,0.435303390,9.655941010,-0.055012100,0.029926000,0.023940210
1640786243.563740,-0.075517910,0.513735120,10.680055620,-0.005578990,-0.053866210,0.013469160
1640786243.565930,0.316382530,0.646271350,9.105125430,0.015236440,-0.001414120,0.013953450
1640786243.569280,-0.231361760,0.341424820,9.946368220,0.002126400,-0.040130320,0.017639990
1640786243.570940,-0.530065600,-0.103569320,10.101188660,-0.021053850,0.008362530,0.018669660
1640786243.573820,-0.206426190,-0.215833890,9.174570080,0.031527880,-0.042690340,0.020268560
1640786243.575930,-0.422221690,-0.300576600,9.709527020,0.025379660,-0.000239910,0.024048990
1640786243.578729,-0.032451640,-0.082753270,9.691815380,-0.014069680,0.059823700,0.037422780
1640786243.580910,-0.044484880,0.109149370,10.066308020,-0.032311680,0.013719500,0.034829970
1640786243.584319,0.158727560,0.187329080,9.915014270,-0.010909140,-0.052383550,0.015515090
1640786243.585960,0.159346980,0.410222740,9.738427160,0.067143160,-0.005686280,0.004427140
1640786243.588850,-0.087870170,0.537263210,9.646337510,0.046123570,0.022560360,-0.021712480
1640786243.594240,-0.257997130,0.673897860,10.092542650,0.003753600,-0.062039500,0.012919310
1640786243.594930,-0.461173420,0.574022290,9.798722270,-0.043056900,-0.043451780,0.030510130
1640786243.595909,-0.160235580,0.335753800,9.189888000,-0.042837850,-0.020052490,0.018694990
1640786243.598790,-0.283987850,0.332532470,10.212977410,0.031840800,0.036442280,0.027669970
1640786243.603350,-0.290704850,0.297387030,10.168276790,0.031322240,0.018967690,0.013805930
1640786243.603799,0.059341940,0.294424330,9.799955370,-0.010290740,-0.107139350,0.020544230
1640786243.605980,0.192784150,0.319412230,9.375374790,-0.069648030,-0.019091370,0.020381810
1640786243.608770,0.431717280,0.318314340,9.195860860,-0.072385380,0.047568980,0.019462410
1640786243.610900,0.277700960,0.188103660,10.114060400,-0.006596740,0.044122330,0.021071730
1640786243.613750,0.097422810,0.143314050,10.171851160,0.029525160,-0.044901660,0.021119410
1640786243.615919,-0.093569450,-0.059790860,9.796759610,0.050742920,-0.080907350,0.031571090
1640786243.619050,-0.324919220,-0.266763300,9.505532260,0.016832350,-0.013650950,0.025172530
1640786243.620910,-0.641532540,-0.304952620,9.848536490,-0.001999740,-0.013437870,0.006295740
1640786243.623900,-0.395428480,0.029690840,9.424342160,0.008811050,0.003793840,0.008846820
1640786243.627669,-0.190004530,0.408691530,9.671525960,-0.002141300,0.005933640,0.009338560
1640786243.628729,-0.142886160,0.694664000,9.842367170,-0.010597710,0.014615060,0.017200410
1640786243.630910,0.064798300,0.755671440,10.048170090,-0.013476610,-0.041195740,0.021229680
1640786243.634060,-0.184959040,0.368732270,10.183411600,0.035893920,-0.058451290,0.021767620
1640786243.636200,-0.153076190,0.132712140,9.519888880,0.095924720,-0.074854500,0.021462140
1640786243.638790,-0.292714540,-0.006844180,10.027955060,0.070096540,-0.053185220,0.015518070
1640786243.641889,-0.221345160,0.030059110,9.277144430,-0.007593630,0.015945730,0.039134920
1640786243.643770,0.081703010,0.175349400,9.823243140,-0.057846310,-0.043809420,0.026927890
1640786243.645929,0.045982330,0.385209260,10.062559130,-0.047931070,0.031521920,0.016030670
1640786243.649040,0.336140220,0.674482460,9.244616510,0.010623040,-0.034126640,0.012871620
1640786243.651770,-0.144078930,0.597136020,10.702882770,0.042890020,-0.090765950,0.004425650
1640786243.653760,-0.220134030,0.428436040,9.371741290,0.020617250,-0.021266940,0.028090180
1640786243.656060,-0.173548790,0.044112430,9.462611200,0.029982630,-0.141823260,0.025032460
1640786243.658880,-0.556892690,-0.289432910,10.127277370,0.033403940,0.024907290,0.027102240
1640786243.661340,0.035519800,-0.072225050,8.814039230,0.027877090,0.037582220,0.027294460
1640786243.663790,-0.201215880,-0.041006840,10.656722070,-0.000287590,-0.074473020,0.017431380
1640786243.665959,0.156201870,0.192461580,9.490938190,-0.016887490,-0.003457070,0.031730540
1640786243.668969,0.359168140,0.322766960,9.214222910,0.024878980,-0.077019630,0.005568560
1640786243.670920,-0.157506940,0.243303790,10.291753770,0.048580760,-0.010862940,-0.001677870
1640786243.673849,-0.039686640,0.420730890,9.605340960,0.077912220,-0.032337010,0.002317130
1640786243.675910,-0.366338760,0.294526400,10.069568630,0.048758090,-0.092159200,0.002600250
1640786243.678759,-0.324097510,0.193997520,9.706350330,0.004540380,-0.034566230,0.021302700
1640786243.680970,-0.487817470,0.240985020,9.881551740,0.026422740,-0.038562720,0.029607120
1640786243.683760,-0.494479890,0.128846290,9.916154860,0.032797450,-0.055095550,0.016415120
1640786243.686040,-0.194179910,0.342126310,9.590447430,0.067290670,-0.082035360,0.007195770
1640786243.688860,-0.183757220,0.584192750,9.779427530,0.016611810,-0.046865640,0.001724060
1640786243.692400,0.277454080,0.685703990,9.535130500,-0.044853990,-0.031051040,0.013504920
1640786243.695770,0.214722510,0.714818600,10.132552150,-0.028729440,-0.038421150,0.013896820
1640786243.696280,0.216772080,0.565825400,9.947927470,-0.010848050,-0.059132280,0.010915100
1640786243.698789,0.222907890,0.339900460,9.832839970,0.037170950,-0.085824740,0.026513640
1640786243.701099,-0.212169410,0.009201010,9.782107350,0.040097530,-0.060880180,0.024145840
1640786243.703790,-0.182988060,-0.242756310,9.599907880,0.017549100,-0.070233640,0.020553170
1640786243.706009,-0.167128260,-0.323100240,9.428014760,0.008569660,-0.031417610,0.012598930
1640786243.708819,-0.054640540,-0.116921160,9.418359760,0.001475210,-0.021253530,0.002472100
1640786243.710889,-0.026095040,0.245572670,10.108474730,-0.008413200,0.014467540,-0.006607180
1640786243.713780,0.007924000,0.582400140,9.869359020,-0.043846670,-0.038538870,-0.008611380
1640786243.715910,-0.133761410,0.441600530,10.218320850,0.006282330,-0.144338610,-0.011108820
1640786243.719169,-0.087324250,0.326653840,9.397382740,0.081866980,-0.043989710,-0.007091460
1640786243.720980,-0.221137420,0.144248280,9.440702440,0.091946120,-0.038500130,-0.002571940
1640786243.723850,-0.412297070,0.015337760,10.260093690,0.058205430,-0.036451220,0.027547780
1640786243.725910,-0.054497630,0.152233760,9.603294370,-0.017686190,-0.054006280,0.035691270
1640786243.728740,0.056931970,0.220351490,9.603037830,-0.052265820,-0.059357290,0.027172270
1640786243.730980,0.193073680,0.468652700,9.797103880,-0.028625130,0.006771090,0.006152690
1640786243.733770,0.156696320,0.609606860,10.175696370,0.025801370,-0.012145940,-0.029586260
1640786243.735920,0.028623880,0.637608710,9.926552770,0.056605030,-0.072664010,-0.027133520
1640786243.738850,-0.076764260,0.587476250,9.918527600,0.023204090,-0.113648180,-0.010961290
1640786243.741890,-0.236355050,0.390018250,9.327086450,-0.029431290,-0.025816260,0.013491510
1640786243.744550,0.042051020,0.209349480,9.209640500,-0.048220150,0.001966950,0.040750210
1640786243.746070,-0.275736810,0.033997670,10.646031380,-0.002731380,0.019139060,0.035132470
1640786243.748720,0.077425960,0.115336940,9.488238330,0.026263300,-0.018882750,0.036777560
1640786243.751129,0.278213350,0.135203610,9.758138660,0.019282100,-0.103160740,0.021667780
1640786243.753759,0.103471940,0.113110650,9.613718030,-0.033414360,0.061944130,0.010244550
1640786243.756000,0.431647990,0.226824690,9.216493610,-0.037583700,0.008492170,-0.017414980
1640786243.761550,-0.089554850,0.303514180,10.507919310,0.000506640,-0.034393370,-0.026667120
1640786243.763140,0.006179270,0.499941970,9.171522140,0.013867020,0.002290310,-0.002293290
1640786243.763800,-0.196149530,0.391751620,9.884996410,-0.010070200,-0.066100060,0.009222330
1640786243.765930,-0.612173080,0.038579110,10.168867110,-0.017470120,0.021582840,0.027330220
1640786243.768870,-0.274374160,0.012367520,9.481012340,0.055438280,-0.037607550,0.021417440
1640786243.770920,-0.422022490,0.046960840,10.092789650,0.052839520,-0.006413460,0.011524560
1640786243.773880,0.052422880,0.374157880,9.219840050,-0.017948450,0.035214430,0.014507770
1640786243.775930,0.168321040,0.616856460,10.015313150,-0.075347720,-0.012229380,0.016258660
1640786243.778880,0.303599980,0.636005760,9.875342370,-0.099198520,0.038988890,0.000442560
1640786243.780900,0.338071230,0.617660940,9.809465410,0.014770030,-0.027896470,-0.010946390
1640786243.784060,-0.233769180,0.390604880,10.553361890,0.064097330,-0.048765540,-0.011128190
1640786243.785920,-0.164742470,0.207784650,9.331823350,0.041231510,-0.038430090,0.015875690
1640786243.788810,-0.351745640,-0.154029250,9.489242550,-0.013807420,-0.045003000,0.034739080
1640786243.791960,-0.163627890,-0.075793300,9.463558200,-0.075064600,0.073641550,0.028534230
1640786243.794570,0.189606920,0.206169890,9.356915470,-0.058615220,0.088140380,0.042393810
1640786243.796490,0.100384800,0.309082300,10.409501080,-0.051240620,0.018076600,0.020746890
1640786243.798800,0.234605090,0.465665580,10.071751590,-0.010129810,-0.025862460,0.004886090
1640786243.801329,0.097464990,0.225718230,9.294535640,0.043658900,-0.040014090,-0.000838940
1640786243.803740,-0.259591280,-0.129151930,9.949323650,0.064417720,-0.019255280,-0.008390840
1640786243.806020,-0.352751460,-0.242462220,9.576855660,0.063557920,0.052276250,0.008697810
1640786243.808950,-0.165115270,-0.218886180,9.359916690,0.018528100,0.003415350,0.003702940
1640786243.810940,-0.173228770,0.014644270,10.093065260,-0.011171400,0.036413970,0.030274690
1640786243.813750,0.124915070,0.408448010,9.375898360,-0.027695300,0.077013680,0.035755340
1640786243.815950,0.063872640,0.374824400,10.245185850,0.014278290,-0.029906640,0.009785590
1640786243.818780,-0.060072560,0.397131320,9.929002760,0.103877480,0.019761920,-0.001232330
1640786243.820930,-0.037324620,0.498373900,9.489734650,0.100912150,-0.010864440,-0.025303660
1640786243.823820,-0.413623450,0.236584130,10.242566110,0.048467520,-0.006531180,-0.005696710
1640786243.827230,-0.258563130,0.276567400,9.416105270,0.003090500,0.011870270,0.010207300
1640786243.828879,-0.290469350,0.172364000,9.873565670,0.000518560,-0.012530390,0.006000700
1640786243.830950,-0.107505110,0.279174800,9.595471380,0.023245810,0.049817570,0.026761000
1640786243.834139,0.077892620,0.472425490,9.794754030,0.051555040,0.006957350,0.029288230
1640786243.835919,-0.077475400,0.404401870,10.291883470,0.035095210,0.015930830,0.026883190
1640786243.838850,0.344183860,0.497139990,9.412898060,0.010672210,-0.017160180,0.013059380
1640786243.841610,0.020477170,0.445170790,9.927483560,-0.003285710,-0.016479200,0.004719200
1640786243.843930,0.188565000,0.411056400,9.241730690,-0.001828370,0.085751720,0.013637540
1640786243.845950,-0.054239590,0.287792590,10.047313690,0.019790230,0.003291670,0.008118150
1640786243.848800,-0.447647090,0.043677070,10.144511220,0.036722430,-0.022099910,0.013549630
1640786243.850910,-0.090598230,-0.191399800,9.153236390,0.059179960,-0.037446610,0.032572440
1640786243.853710,-0.551261310,-0.306180390,9.963946340,0.061810020,0.039508940,0.009258090
1640786243.856040,-0.261292040,-0.071962190,9.621615410,0.038543340,0.044898680,0.010992590
1640786243.862340,-0.100573170,0.251050060,9.953936580,0.011207160,-0.014269350,0.009948010
1640786243.862810,0.022359270,0.516318620,9.517518040,-0.019538400,0.040370230,0.011165440
1640786243.863760,0.225078690,0.726916190,9.898131370,0.013722480,0.011372570,0.007043780
1640786243.866020,-0.158558670,0.580797140,10.331727980,0.052809720,0.028575960,-0.003694000
1640786243.868739,-0.093719260,0.388030380,9.619403840,0.096361340,-0.068633270,-0.002434850
1640786243.870960,-0.362591180,0.215189290,10.151632310,0.094076980,-0.050161780,0.007894640
1640786243.874029,-0.218757200,0.265859400,8.977847100,-0.006848570,0.055585790,0.017412000
1640786243.877699,-0.025251910,0.374446660,9.733568190,-0.042539830,0.000602010,0.037452580
1640786243.878739,-0.048972980,0.499551800,10.278134350,-0.064846860,0.082096460,0.021965800
1640786243.880900,0.416959730,0.763708470,9.279495240,-0.032532220,0.008849800,0.002075730
1640786243.883950,0.025905130,0.627732460,10.448344230,0.023964050,-0.043234230,-0.001174210
1640786243.885910,-0.091806650,0.313909710,9.769913670,0.024685270,0.034198170,0.004079940
1640786243.888970,-0.211434890,-0.069568180,9.512630460,0.050912800,-0.068140040,-0.008299950
1640786243.890970,-0.477714360,-0.374368730,9.854682920,0.029762090,-0.018355250,0.006651880
1640786243.894980,-0.122831950,-0.218826200,8.902126310,0.000786780,0.077606750,0.021903220
1640786243.896020,-0.047529680,-0.061627870,9.789572720,-0.034816570,0.066116450,0.026436160
1640786243.898759,0.038698320,0.217903750,10.487614630,-0.036250060,0.032615660,0.021520260
1640786243.900930,0.289556240,0.426507680,9.569152830,0.037865350,-0.015252830,0.007037820
1640786243.903780,0.166761760,0.426799480,9.617084500,0.063799330,-0.022660200,-0.024759770
1640786243.906319,-0.229956390,0.435004860,10.017720220,0.065825890,0.047057870,-0.019511580
1640786243.908830,-0.343325380,0.514408410,9.578960420,0.020505490,-0.009468200,-0.006859000
1640786243.910940,-0.335204090,0.309334960,9.835110660,-0.019259750,-0.051398590,0.015899540
1640786243.913710,-0.263212680,0.377661050,9.360607150,-0.019252300,0.070677710,0.023540850
1640786243.916190,-0.115069170,0.503027440,9.960285190,-0.018359720,0.052058710,0.014601650
1640786243.918730,-0.174454350,0.364591900,10.557244300,0.011029840,0.034728650,0.020927190
1640786243.921500,0.123884340,0.551572620,9.501835820,0.018261370,-0.025907160,0.004737080
1640786243.923940,0.181576700,0.534698010,9.698303220,-0.030519070,-0.033743680,0.005587940
1640786243.926839,0.266732990,0.435744050,9.125733380,-0.060826540,0.115901250,0.021852550
1640786243.928759,0.129180310,0.338900570,10.013254170,-0.045499210,0.034123660,0.015255810
1640786243.930940,-0.181731670,0.109723850,10.433798790,-0.006698070,0.016149880,0.025208300
1640786243.933920,0.072142040,0.003054760,9.054054260,0.023861230,-0.021956860,0.036834170
1640786243.935969,-0.443593500,-0.236189500,10.186940190,0.013263520,0.001718100,0.023143000
1640786243.938870,-0.206872050,-0.239766090,9.351649280,-0.005663930,0.114697200,0.024816390
1640786243.940970,-0.087643910,-0.021976700,9.619667050,0.002725420,-0.004157420,-0.002041460
1640786243.943770,-0.129893910,0.342378200,9.895724300,-0.015014410,0.077144790,-0.002701580
1640786243.945930,0.418461950,0.855904460,9.053793910,-0.050941110,0.074526680,0.003510710
1640786243.948750,-0.155807140,0.708271270,10.545645710,-0.054983800,0.007443130,0.006131830
1640786243.951099,0.005136240,0.491759000,9.768605230,0.019645690,0.018477440,0.016614790
1640786243.953899,-0.177833840,0.142701430,9.695811270,0.085021560,-0.003929440,0.007647280
1640786243.955999,-0.457842650,-0.140354600,9.874732970,0.070053340,0.057187690,0.006571410
1640786243.959110,-0.169762270,-0.000421690,9.707941060,-0.007416310,0.038896500,0.020428000
1640786243.961030,-0.214603250,0.065948190,9.698538780,-0.083304950,0.061163310,0.012731550
1640786243.963770,0.275754450,0.426387790,9.407461170,-0.099179170,0.046654050,0.005644560
1640786243.966210,0.136809330,0.714163840,10.159360890,-0.026802720,0.086154040,-0.000296530
1640786243.968780,0.129312590,0.732863250,9.807888030,0.003491340,0.063458090,-0.012677910
1640786243.970960,-0.046523570,0.594843090,10.388563160,0.042499610,-0.057742010,-0.003847480
1640786243.973840,-0.320347160,0.295562390,9.685674670,0.009165700,0.023654100,0.014193360
1640786243.976060,0.021339050,0.010347870,8.905009270,-0.029891730,0.050878530,0.029231610
1640786243.978740,-0.336827490,-0.042994820,10.284649850,-0.039289900,0.115098040,0.043728940
1640786243.980929,0.044456660,0.122257450,9.443768500,-0.057029720,0.095003850,0.036872920
1640786243.984059,0.330302720,0.228486630,9.719135280,-0.027492640,0.011196730,0.023344160
1640786243.986359,0.081019900,0.251187350,9.926702500,-0.029999020,0.119289740,-0.004237890
1640786243.988839,0.086135560,0.258687470,9.743917470,-0.004561250,0.040932000,-0.032854080
1640786243.991809,-0.202357400,0.113487590,10.156247140,0.029267370,0.000683960,-0.042629240
1640786243.993889,-0.208779830,0.139632720,9.351343150,0.016914310,0.057415680,-0.021326550
1640786243.995940,-0.219415550,0.164446500,9.549553870,-0.003497300,0.086691980,0.006026030
1640786243.998730,-0.349826220,0.237650680,10.159968380,-0.062644480,0.098614400,0.021345920
1640786244.000949,-0.259095370,0.285685420,9.911414150,-0.018352270,0.026388470,0.030946730
1640786244.003870,-0.119981690,0.307655750,9.595587730,0.030015410,0.034603480,0.005289910
1640786244.006070,-0.095922770,0.488058240,9.685299870,0.021556020,0.072656580,-0.024515390
1640786244.008940,-0.089830740,0.674783710,9.875575070,-0.010129810,0.062550600,-0.003555420
1640786244.010919,0.125259790,0.545070350,9.990170480,-0.071875760,0.076942150,-0.015264750
1640786244.013759,0.032654040,0.474244300,9.938711170,-0.055255010,0.074392560,-0.022338330
1640786244.016379,0.013402200,0.463130590,9.764328960,-0.012350080,0.026011470,0.000230970
1640786244.018839,-0.185128600,0.148925860,9.942819600,0.004284080,0.043886900,0.009597840
1640786244.020939,-0.297971760,-0.005552510,9.298271180,0.009067360,0.055980680,0.016692280
1640786244.023860,-0.216723230,-0.127909730,9.833341600,-0.010930000,0.005407630,0.015272200
1640786244.026010,0.013250850,-0.112209320,9.369272230,-0.013625620,0.144402680,0.008685890
1640786244.028790,0.321587120,0.256079580,9.465377810,-0.027994810,0.125813480,-0.001282990
1640786244.030959,-0.023274700,0.498826470,11.038372990,-0.055664780,0.081486990,-0.007531050
1640786244.034200,0.186090020,0.592587770,9.303651810,-0.043213370,0.038775810,0.008195640
1640786244.036059,-0.173163490,0.229587440,9.782592770,0.026860840,-0.071917470,-0.011418760
1640786244.038839,-0.584024430,-0.088261690,9.687026980,0.071956220,0.118935120,-0.004984440
1640786244.041600,-0.318342060,-0.194333700,9.034111020,0.089958300,0.068439530,-0.004880130
1640786244.043779,-0.698665080,-0.307581990,10.758418080,0.042200090,0.025396050,-0.000405310
1640786244.046000,-0.001521810,0.196834740,9.186079030,-0.040905180,0.116379560,0.013081730
1640786244.049160,0.169549090,0.568682310,9.832406040,-0.083528450,0.041215110,0.006644430
1640786244.051149,0.042589460,0.773076590,10.348310470,-0.051008170,0.112040340,-0.007328390
1640786244.053789,0.300537970,1.051593070,9.559698100,0.040413440,0.023460390,-0.031805030
1640786244.056039,-0.239950170,0.747979640,10.148370740,0.068570670,-0.014208260,-0.026915970
1640786244.058859,-0.173625220,0.501765130,9.375929830,0.035615280,0.034813590,0.002051890
1640786244.060989,-0.468130980,0.218783180,9.877182960,-0.026510660,0.042019790,0.007934870
1640786244.063930,-0.308430340,-0.161543950,9.701039310,-0.067897150,0.084204980,0.020837780
1640786244.065990,0.039068810,0.040586850,9.776965140,-0.025184450,0.063581760,0.022837520
1640786244.068840,-0.046570340,0.175769000,9.960468290,-0.015825030,0.101780900,0.013636050
1640786244.070930,0.286565900,0.256792190,9.578493120,-0.018757580,0.037156050,0.000490250
1640786244.073830,-0.143648030,0.274289400,10.128562930,-0.004723670,-0.005507470,-0.013376770
1640786244.075960,0.085542810,0.211116000,8.969495770,0.000180300,0.047197940,-0.019584600
1640786244.078760,-0.032276240,0.152860910,9.696641920,0.037845970,0.072899460,-0.008861720
1640786244.081339,-0.485586290,0.177412080,10.281701090,0.004076960,0.110973410,-0.003828110
1640786244.083760,-0.236946300,0.187214600,9.958491330,-0.013619660,-0.016088790,0.022962690
1640786244.086059,-0.397180590,-0.011978650,9.816262250,0.002798440,0.009416040,0.016775730
1640786244.088800,-0.229912120,0.084850080,9.155945780,0.023099780,0.067903110,-0.002378230
1640786244.092180,-0.158500850,0.184793310,9.933023450,0.042591990,0.074297190,-0.019331280
1640786244.093999,-0.053803290,0.348969940,9.878668790,0.019769370,0.063374640,-0.021247570
1640786244.096050,0.101639560,0.525235410,9.983193400,-0.003783410,0.002379720,-0.017003720
1640786244.098770,-0.010349600,0.630310300,10.056506160,-0.045385960,0.054910780,-0.010435280
1640786244.101310,-0.191184370,0.476618200,9.925648690,-0.018395480,0.015138090,-0.001947580
1640786244.103780,-0.483012020,0.317668970,10.178886410,0.065690280,-0.022175910,0.002752240
1640786244.106070,-0.389189840,0.226021980,9.420672420,0.061772770,0.003866850,0.000663100
1640786244.108780,-0.246523690,0.219049170,9.286140440,0.025291740,0.027360020,0.008188190
1640786244.110989,-0.053908530,0.342810120,9.868909840,-0.049908460,0.092078750,0.026321420
1640786244.113770,0.259969980,0.418263260,9.915328030,-0.079350170,0.091373920,0.009804960
1640786244.116010,0.253028660,0.571138500,10.003646850,-0.029014050,0.013136860,0.001183150
1640786244.119160,0.200880780,0.530422090,10.059501650,0.004163380,-0.010080640,-0.005963440
1640786244.120970,-0.062358370,0.208378300,9.476504330,0.026981530,0.042630740,-0.006350870
1640786244.127660,-0.284210680,-0.122280850,9.720629690,0.035211450,-0.019019840,-0.015795230
1640786244.128360,-0.549073100,-0.330870180,10.009929660,0.041222570,0.036039950,-0.008144970
1640786244.128749,-0.263379990,-0.138813500,8.880586620,0.025396050,0.066483010,0.003342330
1640786244.131009,-0.304745940,0.190303430,10.385704990,-0.039687760,0.016573070,0.003923480
1640786244.133760,-0.143397360,0.542690630,9.931267740,-0.068043180,0.119383640,0.014048810
1640786244.135990,0.147233980,0.721103250,9.611080170,-0.028413540,-0.030680000,-0.009629130
1640786244.138780,-0.257103650,0.571915510,10.699069980,0.050012770,-0.008618830,-0.027181210
1640786244.141889,-0.028800260,0.605893730,9.074252130,0.073410570,0.050540270,-0.025704500
1640786244.143710,-0.395541820,0.266283750,10.239838600,0.029312070,-0.066988160,-0.023405260
1640786244.146030,-0.495066670,0.088704810,9.909049990,-0.034399330,0.046432020,0.015260280
1640786244.148700,-0.043136200,0.192436580,9.119248390,-0.060813130,-0.006404520,0.005564090
1640786244.151180,-0.306476240,0.107958110,10.435695650,-0.044788420,0.029022990,0.018753110
1640786244.153720,0.095923840,0.421192970,9.592284200,-0.004076960,0.063443190,0.003397460
1640786244.156080,-0.029361200,0.545240340,10.197243690,0.004775820,-0.054934620,-0.021639460
1640786244.159200,0.129789190,0.507915500,9.519852640,-0.018931930,0.002843140,-0.012370940
1640786244.162390,0.151242630,0.505403220,9.491868020,-0.025360290,0.010509790,-0.008755920
1640786244.163940,-0.278517220,0.193930890,10.244678500,-0.041618940,0.047419970,-0.008262690
1640786244.166040,-0.067484420,0.064558660,9.611463550,-0.001786650,-0.036132340,0.012204050
1640786244.168720,-0.480681480,-0.129029170,9.979560850,0.030274690,-0.048382580,0.008791690
1640786244.170940,-0.236335020,-0.202970280,9.148188590,0.004401800,0.040395560,-0.006580350
1640786244.173820,-0.281967280,-0.123373790,9.920123100,0.001633170,0.003927950,-0.021001700
1640786244.176010,-0.232668500,0.087719200,9.896795270,-0.012685360,0.039500000,-0.035972900
1640786244.178769,0.301609100,0.420657160,9.535628320,-0.004747510,-0.006292760,-0.020179150
1640786244.180940,-0.047832190,0.586393180,10.304846760,-0.006973740,0.017996130,-0.020848210
1640786244.184090,0.088565400,0.736435530,9.671354290,-0.027337670,-0.011590120,-0.007139150
1640786244.186020,-0.177761840,0.430937350,10.085914610,0.013613700,-0.054663430,-0.004068020
1640786244.188850,-0.434539740,0.187207480,9.553300860,0.041399900,-0.011742120,-0.009235740
1640786244.191690,-0.285961960,0.146759750,9.586087230,0.056585670,-0.033380090,-0.010943410
1640786244.193850,-0.343415020,0.177134360,9.819356920,-0.014998020,0.051346420,-0.000114740
1640786244.195989,0.058379290,0.333586570,9.472248080,-0.086708370,0.010436770,-0.000819560
1640786244.198840,0.087119140,0.491331340,10.273369790,-0.071834040,0.019593540,-0.006811320
1640786244.201269,0.175929560,0.607618330,9.719462390,-0.038471820,0.018532570,-0.017119950
1640786244.203719,0.021813500,0.501014290,9.899709700,0.035691270,-0.077280410,-0.005663930
1640786244.206060,-0.173549290,0.220110390,9.746259690,0.020624700,-0.026278200,-0.012606380
1640786244.208959,-0.064626310,-0.152314480,9.040217400,0.012968480,0.000055130,-0.011149050
1640786244.211010,-0.271289140,-0.307470980,9.816315650,0.026698410,0.016699730,0.000089410
1640786244.213729,-0.151358800,-0.108842680,9.932185170,-0.019919880,0.062805420,0.003363190
1640786244.216019,-0.027525190,0.149207590,9.660367970,-0.044724350,-0.006796420,0.007995960
1640786244.218760,-0.006161850,0.298661500,9.962064740,-0.038988890,-0.048369170,0.000859800
1640786244.220950,-0.002530430,0.415279210,9.514525410,0.008599460,0.049211080,-0.029569870
1640786244.224000,-0.120811100,0.474164250,9.467700000,0.051778550,0.004455450,-0.040507310
1640786244.226600,-0.451820670,0.355447890,10.632332800,0.053733590,-0.050294410,-0.028297310
1640786244.228960,-0.328316690,0.230459450,9.331156730,0.026673080,0.008584560,0.002096590
1640786244.231010,-0.293661740,0.145785390,9.640542980,-0.009430940,-0.065736480,-0.001116100
1640786244.234120,-0.539698660,0.166860830,10.375440600,-0.015987460,0.030650200,0.014039870
1640786244.235970,-0.003193710,0.397611980,9.054086690,0.000846390,0.007687510,-0.003726780
1640786244.238780,-0.103642830,0.446621090,10.389825820,0.002378230,-0.068598990,-0.017736850
1640786244.243460,0.120658260,0.683626000,9.477140430,-0.004680450,0.041557850,-0.019921360
1640786244.244130,0.346991120,0.756020370,9.378780360,-0.029920040,-0.036074220,-0.026667120
1640786244.246019,-0.071338650,0.419639530,10.392386440,-0.024504960,0.005622210,-0.012114640
1640786244.248720,0.070306030,0.378141340,9.429026600,-0.014974180,-0.009194020,0.006507340
1640786244.251780,-0.351003080,-0.090800650,10.200965880,0.012990830,-0.078614060,-0.002728400
1640786244.253700,-0.278928970,-0.306236590,9.339218140,0.028930610,-0.000345710,0.014512240
1640786244.256029,-0.280587430,-0.332516430,9.520514490,0.019504140,-0.004056100,-0.007516150
1640786244.261380,-0.284600440,-0.208194210,9.822231290,-0.010466580,0.034536430,-0.025816270
1640786244.262889,0.158839000,0.269797120,9.379534720,-0.006708500,-0.015552340,-0.012542310
1640786244.263769,-0.059427430,0.567873300,10.083029750,-0.023891030,-0.002814830,-0.025898220
1640786244.266029,0.242688160,0.832658290,9.538485530,-0.043520320,0.009712580,-0.019529460
1640786244.268720,-0.145306230,0.618065360,10.376486780,0.015926360,-0.062383700,-0.018699460
1640786244.270959,-0.331214130,0.329887540,9.683013920,0.060327360,-0.017367310,-0.022035840
1640786244.273960,-0.161735400,0.231139780,9.356999400,0.071747610,-0.058043010,-0.025808810
1640786244.276369,-0.553951980,0.122184680,9.905186650,-0.008319320,0.008772310,-0.005379320
1640786244.278770,-0.083307390,0.230418060,9.328803060,-0.066857050,-0.002411010,0.009347500
1640786244.280959,-0.064877780,0.314878820,10.100479130,-0.066316140,-0.013707580,-0.005710130
1640786244.284449,0.011093330,0.536915960,9.742261890,-0.044915080,0.022351740,-0.015591090
1640786244.286000,0.105588140,0.595155890,10.217745780,0.006906690,-0.045360620,-0.022636350
1640786244.288859,-0.176442530,0.382159020,10.067625050,-0.000396370,-0.028298790,-0.022706390
1640786244.292080,-0.084558040,0.188059020,9.320300100,0.007528070,-0.094471890,-0.010085110
1640786244.295570,-0.199948250,0.013682870,9.508625030,-0.008741020,-0.028890380,0.005538760
1640786244.296180,0.072269160,-0.001565600,8.977319720,-0.041447570,0.076550240,0.019536910
1640786244.298770,-0.049138230,0.036768610,10.328412060,-0.022545460,0.013929610,0.020299850
1640786244.301230,0.012186000,0.201001440,10.219806670,-0.036284340,-0.013324620,0.004209580
1640786244.303740,0.278510900,0.272969930,9.160025600,-0.007919970,-0.065991280,-0.010149180
1640786244.306190,-0.033911840,0.294007390,9.757067680,-0.003708900,0.015527010,-0.039887430
1640786244.308780,-0.112994780,0.352295430,9.772907260,-0.018721820,0.063288220,-0.040277840
1640786244.310969,-0.275212110,0.183711960,9.845645900,0.023512540,-0.060127680,-0.002989170
1640786244.313720,-0.439850720,-0.044897120,9.989410400,0.040286780,-0.083167860,0.009278950
1640786244.316059,-0.321042120,-0.032370470,9.197833060,0.023439530,0.029228630,0.012706220
1640786244.319160,-0.341028630,0.037226900,9.712935450,-0.007836520,0.006450710,0.010928510
1640786244.321020,-0.335318360,0.118495640,10.607448580,-0.002069770,0.003203750,0.003376600
1640786244.323969,0.230129020,0.524066570,9.138590810,0.023749470,-0.006583330,-0.018185380
1640786244.326120,0.271129460,0.824136260,9.855009080,-0.013139840,-0.047521290,-0.021553040
