timestamp,accel_x,accel_y,accel_z,gyro_x,gyro_y,gyro_z
1640780316188999936,0.025439800,0.104676790,9.884349820,0.050659490,-0.002503400,0.016286970
1640780316190840064,-0.030120670,0.073655040,9.880274770,0.132726150,-0.020758810,0.018620490
1640780316194029824,-0.010842800,0.433313490,9.579801560,0.104486940,0.005011260,0.022162500
1640780316195960064,-0.022478570,0.213283050,9.886262890,-0.033836070,0.023344160,0.028125940
1640780316199169792,0.108298260,-0.057219020,9.812387470,-0.007089970,0.038813050,0.034628810
1640780316200809984,0.176698400,-0.105903660,9.705949780,0.109554830,0.032356370,-0.017756220
1640780316204089856,-0.023342320,0.123163520,10.015750890,0.134111910,0.006969270,0.001689790
1640780316205979904,-0.118174100,0.377113310,9.620589260,0.021496420,0.012567640,0.027742990
1640780316209829888,-0.141886340,-0.094695140,9.619356160,-0.039155780,-0.027742980,0.012950600
1640780316212509952,-0.120422700,-0.280621800,9.602006910,0.068575150,0.052860380,0.005835290
1640780316214129920,-0.012845870,0.081808780,9.500699040,0.134098540,0.081382690,-0.026138130
1640780316216169728,-0.278975930,0.183640490,10.485825540,0.093930970,0.018304590,-0.011587150
1640780316219919872,-0.150367350,0.167107160,9.844772340,0.023770330,-0.007915500,0.012311340
1640780316220880128,-0.006412210,-0.058104120,9.438896180,0.037568800,-0.029133260,0.005206460
1640780316223990016,-0.223951880,-0.051240720,9.886311530,0.109565270,0.059786440,-0.000987950
1640780316225920000,-0.046773300,0.293739500,9.681407930,0.104287270,0.066056850,-0.008320810
1640780316229129984,-0.324018360,0.354200870,10.478137020,0.052644300,-0.017994640,-0.002345440
1640780316230889984,-0.107002000,0.178722290,9.783227920,0.029550490,-0.010828670,0.008167330
1640780316233969920,0.031063610,0.241151120,9.379562380,0.075063110,-0.000937280,-0.010712440
1640780316235889920,-0.263529750,0.352288100,10.166647910,0.097012500,0.054381790,-0.014027950
1640780316239359744,-0.088402210,0.384896160,9.970701220,0.045293570,0.049340730,0.011874740
1640780316240859904,-0.270785180,0.294584810,10.258694650,0.037635870,-0.053317840,0.019249320
1640780316244009984,-0.125694170,0.087423350,9.674213410,0.062154230,-0.017824770,0.019012390
1640780316246259968,0.216722490,0.360667680,9.090328220,0.041796270,0.046843300,0.003989040
1640780316250870016,-0.017938860,0.209405270,10.147150990,0.019103290,0.098824510,0.010912120
1640780316251399936,0.126393230,-0.001133440,10.238061900,0.029715900,0.033703450,0.014360250
1640780316254119936,0.061055080,-0.001157030,9.798796650,0.094959150,-0.066025560,0.015519560
1640780316256620032,-0.080373710,-0.050601050,9.450374600,0.066086660,-0.009311740,0.017715990
1640780316260109824,-0.002620940,0.085793200,9.358360290,-0.008483230,0.086145100,0.011493270
1640780316261600000,-0.275534120,-0.118393180,10.165393830,0.016523900,0.066652890,-0.004637240
1640780316264859904,-0.116420250,0.019255840,10.056319240,0.081148740,0.000229480,-0.014054780
1640780316265979904,-0.005413310,0.213867400,9.447999950,0.116084520,0.013533230,-0.006426870
1640780316269039872,-0.229747590,0.107239720,9.835147860,0.042775270,0.032344460,0.003984570
1640780316271129856,-0.229930590,-0.047195890,9.985424040,0.032259530,0.027123100,0.018018490
1640780316273989888,-0.089061300,-0.187776100,9.437490460,0.095368920,0.011426210,-0.002822280
1640780316275939840,-0.062784250,-0.013293330,9.850888250,0.104805830,0.026990480,-0.010865920
1640780316279079936,-0.082762030,0.309793380,9.900695800,0.070723900,0.078310070,0.000235440
1640780316280849920,-0.156873360,0.261037440,10.086467740,0.028650460,-0.026632850,-0.005990270
1640780316283969792,-0.236427740,0.298443020,10.046429630,0.057487190,-0.024627150,0.001893940
1640780316286010112,-0.078027610,0.459742900,9.114072800,0.098244850,0.015941260,-0.015184290
1640780316288979968,-0.296913560,0.448489010,10.221488950,0.060480830,0.036233660,-0.002598760
1640780316291699968,-0.302413490,0.464162380,10.295520780,0.039523840,0.067377080,0.022551410
1640780316297639936,-0.072410130,0.212824420,9.852970120,0.041522090,-0.060100850,0.013716520
1640780316298419968,-0.065246190,0.203227950,9.926845550,0.059406470,-0.013329090,0.023646650
1640780316299680000,0.273469540,0.333155720,9.010513310,0.039879970,0.096155690,0.021354850
1640780316300900096,0.011340150,-0.024678730,10.443588260,0.016371910,0.028578940,0.024127960
1640780316304059904,-0.068000020,-0.102378280,10.192535400,0.070154670,0.006362800,0.030228500
1640780316306340096,0.310141120,0.003107500,9.095931050,0.079874700,-0.045354670,0.010627510
1640780316309259776,-0.079635570,0.200899690,9.978530880,0.015410780,0.058981780,0.026459990
1640780316310939904,0.054700160,0.150840800,9.566241260,-0.004872680,0.126691180,0.023654110
1640780316313979904,-0.050169330,-0.039011830,10.305664060,0.061276560,-0.019435590,0.001578030
1640780316315919872,-0.216101600,0.259667840,9.761535640,0.122931600,0.015361610,0.019019840
1640780316318959872,0.086149320,0.366521000,8.983418460,0.052146610,0.043924160,0.012779240
1640780316321329920,-0.403379470,0.056133080,10.338048930,-0.008440020,0.061410680,0.018745670
1640780316323959808,-0.116384880,-0.063255060,9.507699010,0.047598790,0.060868270,0.015397370
1640780316326169856,0.155190590,-0.061537490,9.581960680,0.105322920,0.023268170,-0.006671250
1640780316329049856,-0.129466590,0.106428000,10.109619140,0.086097410,0.119890260,0.010830160
1640780316331559936,0.105974570,0.177649480,9.853540420,0.017730890,0.047059360,0.014458600
1640780316334070016,-0.201240360,-0.139349880,10.254378320,0.031790140,-0.016351050,0.014664230
1640780316336119808,-0.185700210,-0.056037220,9.280543330,0.100633500,0.033496320,-0.002647940
1640780316339520000,-0.145503800,0.391635720,9.532769200,0.096563990,0.066792970,-0.008696320
1640780316343989760,-0.541255350,0.575991570,10.404234890,0.027737020,0.080885000,0.005744400
1640780316345139968,-0.125042810,0.635272920,9.846019740,-0.021693110,-0.002838670,0.013409550
1640780316345889792,-0.105542760,0.459286570,9.908186910,0.035956510,0.026099390,0.001706180
1640780316348989952,-0.163428560,0.516230340,9.781564710,0.082367670,0.071957690,0.002133850
1640780316350859776,-0.129049410,0.722774330,10.076483730,0.034175810,0.022791330,0.017908220
1640780316354289920,-0.246303390,0.346091300,9.921051030,-0.035253170,0.000220540,0.021095570
1640780316355949824,0.129079950,0.119536870,9.324433330,-0.033999980,0.011242930,0.019703810
1640780316359139840,0.111920770,0.227162780,9.595498090,0.025294720,0.101684060,0.004541870
1640780316360930048,-0.007984190,0.155467880,10.095335960,0.006881360,0.082324450,0.016273560
1640780316363999744,0.006285260,0.146648690,10.229221340,-0.022694470,0.005342070,0.022906070
1640780316365959936,-0.159045700,-0.013631360,9.671270370,-0.010636450,-0.015693900,0.017715990
1640780316369009920,-0.130723830,-0.015504380,9.390679360,-0.019694860,0.024287400,0.025025010
1640780316370970112,-0.223850740,0.150266220,9.632897380,-0.020329650,0.118148330,0.006780030
1640780316374019840,-0.197169360,0.028286810,9.993864060,-0.011880700,0.061148410,-0.017715990
1640780316376649984,-0.106731660,0.256077260,9.995551110,0.014974180,0.005784630,-0.003269310
1640780316378959872,0.046100070,0.377127890,9.223629950,-0.000120700,0.056986510,-0.001449880
1640780316380909824,-0.097779950,0.148601290,10.030118940,-0.050984320,0.033931440,0.015886130
1640780316383950080,-0.184601660,0.100428800,9.854492190,-0.002154710,0.058826810,0.026758020
1640780316385999872,-0.052083940,-0.169302020,9.466676710,0.037530060,0.000457470,-0.008185210
1640780316388979968,-0.179503920,0.055613180,9.932486530,0.015653670,0.053314870,0.015075500
1640780316391019776,-0.170265960,0.218548330,9.510103230,-0.031313290,0.089222190,-0.010816750
1640780316394019840,-0.315761090,-0.054546210,10.479743960,-0.049629820,-0.032544140,-0.001411140
1640780316395920128,-0.377487540,0.103203060,9.793882370,0.034841900,0.030501190,0.009316210
1640780316398989824,-0.227314890,0.084472930,9.392753600,0.057244310,-0.005678830,-0.013771660
1640780316400879872,-0.419941540,0.405251560,10.403321270,-0.003883240,0.040178000,0.010623040
1640780316404059904,-0.195159090,0.592920540,9.586672780,-0.068132580,0.063638380,0.018566850
1640780316406349824,-0.013011130,0.192390520,10.188980100,-0.048968200,-0.047154720,0.007112320
1640780316408979968,-0.010405230,0.442898960,9.758461950,0.029584770,0.049291550,0.005620720
1640780316410969856,0.218028200,0.632353310,9.322740550,0.010976200,0.024501980,0.007072090
1640780316414059776,-0.278069730,0.391302350,10.757188800,-0.073696670,0.012682380,0.035615260
1640780316416610048,-0.146093550,0.268133880,9.557631490,-0.079922380,-0.006303190,0.029237570
1640780316419289856,0.000661710,-0.074098910,9.621635440,-0.019510090,-0.069455810,0.009049480
1640780316421339904,-0.189163390,0.084045460,9.826552390,-0.006131830,0.106437530,0.009663400
1640780316424029952,0.151132090,0.189247430,9.419453620,-0.054785610,0.073497000,0.001624230
1640780316426470144,-0.189197870,-0.012265450,10.667735100,-0.069566070,-0.016751890,0.018413370
1640780316428989952,0.134164500,0.058074590,9.119117740,-0.033579770,0.005355480,0.022423270
1640780316430840064,0.101370160,0.075927210,9.402562140,-0.015500190,-0.008821490,0.009424990
1640780316434000128,-0.333412350,-0.064402430,10.178349490,-0.031606850,0.082011510,0.007160010
1640780316436519936,-0.011369100,-0.037370410,9.434775350,-0.022163990,0.017547610,-0.001369420
1640780316439299840,-0.237079290,0.105573920,10.111500740,-0.016754870,-0.014713410,-0.015838440
1640780316440849920,-0.125357020,0.186780510,9.360551830,-0.053301450,0.082057720,-0.003169480
1640780316443980032,-0.190913330,0.175074440,9.956616400,-0.043560560,-0.010652840,-0.005848710
1640780316445979904,-0.459978910,-0.098385970,10.075531960,0.013926630,0.009025630,-0.011830030
1640780316449139712,-0.012591670,-0.062729870,9.083068850,0.037994980,-0.006584820,-0.014412400
1640780316450909952,-0.228958820,0.183914420,10.156305310,0.000496210,0.048823670,-0.024996700
1640780316454510080,-0.118744460,0.268225880,10.024971010,-0.082039830,0.066417460,-0.024296340
1640780316456460032,0.049094840,0.256329830,10.144254680,-0.060459980,-0.049842890,-0.012280050
1640780316460039936,-0.193560200,0.091577570,9.839159970,0.041283670,0.004597010,-0.027163330
1640780316461349888,-0.016077550,0.263469580,9.290528300,0.055426360,-0.004017350,-0.018319490
1640780316463949824,-0.270120560,0.574676570,10.034841540,-0.042603910,0.037053230,0.009295350
1640780316465900032,-0.234539630,0.239795520,9.975128170,-0.122801960,0.025588270,0.008209050
1640780316469049856,0.006539120,0.052741460,10.033607480,-0.044775020,-0.030632320,0.007601080
1640780316471489792,-0.015062280,0.154731630,9.657197000,0.059685110,0.045420230,-0.016327200
1640780316473969920,0.185191720,0.238085400,9.646875380,0.003986060,0.032627580,0.000318880
1640780316475940096,-0.033311880,0.227978080,10.224058150,-0.072526940,0.049099330,0.028589360
1640780316478909952,0.000854090,-0.171621750,9.573879240,-0.064834960,-0.032795970,0.005605820
1640780316480909824,0.045153450,-0.137104170,9.713347430,0.011035800,-0.022378560,0.011810660
1640780316484059904,-0.029418220,0.129119920,9.340442660,0.010412930,0.105740140,-0.005595390
1640780316486449920,-0.117274910,-0.060810280,10.139810560,-0.024586920,0.033235550,-0.034803160
1640780316489059840,-0.253128650,0.226422610,10.243060110,-0.025415420,0.029277810,-0.022685530
1640780316496349696,-0.000399980,0.200152110,9.034946440,-0.028246640,-0.009439890,-0.034230950
1640780316496839936,-0.329971970,0.093736700,10.189969060,-0.008149440,0.022670630,-0.005507470
1640780316497189888,-0.279396360,0.204742790,9.478398320,0.018937890,0.069630150,-0.001241270
1640780316498960128,-0.242221310,-0.182233970,9.886048320,0.020132960,-0.040288270,-0.012455880
1640780316501080064,-0.260767580,0.012672110,10.062458040,0.007469950,0.080917780,-0.004589560
1640780316505459968,-0.037261740,0.078370860,9.482658390,-0.016091760,0.034020840,-0.035543730
1640780316506109952,-0.325214000,0.114949630,10.720303540,-0.024878980,-0.052593660,-0.027690830
1640780316508920064,-0.019601700,0.336209120,9.105183600,-0.019958620,0.050321220,-0.031495100
1640780316510919936,-0.069594030,0.219704840,9.672969820,0.019137560,-0.028367340,-0.043787060
1640780316513959936,-0.504013240,0.535355690,10.519853590,0.010144710,0.053535400,-0.014148650
1640780316516000000,-0.133326770,0.540210190,9.376966480,-0.054501000,-0.024974350,-0.007680060
1640780316519619840,-0.370925100,0.087941560,10.533466340,-0.043874980,-0.068376940,-0.000086430
1640780316521109760,-0.041852240,0.130842180,9.235851290,0.016464290,0.080618270,-0.006231670
1640780316523929856,0.174112960,0.112958300,9.599119190,0.025497380,0.003801290,-0.008228420
1640780316528409856,-0.280427370,-0.057535790,10.800531390,-0.018215180,0.043438380,0.005213920
1640780316529270016,0.199233920,-0.193818320,9.210215570,-0.018715860,-0.058230770,-0.011806190
1640780316531169792,-0.087522720,-0.249265220,9.853161810,0.028814380,-0.094544900,-0.022894150
1640780316534139904,-0.026462160,0.036450170,9.160183910,0.004583600,0.108326980,-0.027091800
1640780316538629888,0.037060610,0.063431230,9.819994930,-0.003573300,0.042745470,-0.045110290
1640780316539129856,-0.520254430,0.132358000,10.912328720,0.034494700,-0.027319790,-0.040720410
1640780316540920064,-0.012629920,0.331901730,8.909757610,0.036384170,-0.058719530,-0.017160180
1640780316543990016,-0.361100410,0.192116280,9.834555630,0.026473410,-0.025494400,-0.009468200
1640780316545889792,-0.569261490,0.041199220,9.974484440,0.018812720,0.062635550,-0.011001530
1640780316548999936,-0.157027270,0.086901690,9.639477730,0.045739120,-0.055508320,-0.033919520
1640780316551149824,-0.312399630,0.094704690,10.122929570,0.036163630,-0.001360480,-0.043779600
1640780316554249984,0.087822970,0.273173240,9.396207810,0.011919440,0.035497550,-0.051103530
1640780316555949824,-0.020071830,0.420522090,10.323591230,0.000533460,-0.036697090,-0.047589840
1640780316558909952,-0.047200500,0.258440910,9.873917580,0.006209310,-0.009895860,-0.026890640
1640780316560969728,0.180097700,0.213848710,9.466785430,0.064513090,-0.044424830,-0.022569300
1640780316563939840,-0.194239050,0.406678530,10.075850490,0.055378680,0.015465910,-0.020828840
1640780316569229824,-0.183800310,0.507188980,9.884988780,-0.042018310,-0.011843450,-0.007885700
1640780316570599936,-0.122673850,0.271332860,10.018030170,-0.054328140,-0.042150910,-0.012028220
1640780316571149824,-0.159403500,0.093653990,9.603188510,0.016625230,0.010788440,-0.051380700
1640780316577499904,0.079122260,0.358071060,9.628070830,0.064647210,-0.000573690,-0.038732590
1640780316578159872,-0.046262440,0.422379850,9.998578070,-0.005686280,0.058466200,-0.030249360
1640780316578889728,-0.108580230,0.084877850,10.080221180,-0.057160850,-0.031080850,-0.004075470
1640780316581399808,0.017517980,-0.165748800,9.784553530,0.013156240,-0.053434070,0.003752110
1640780316584019968,0.138795120,-0.206592930,9.043010710,0.057089330,0.026607510,-0.033070150
1640780316585899776,0.045782230,-0.055262850,9.942412380,0.036697090,0.061267610,-0.020501020
1640780316588940032,-0.013037760,0.002946210,10.053067210,-0.001788140,0.062689190,-0.032585860
1640780316590899968,0.040218690,0.002926830,9.724943160,-0.008012350,-0.082774450,-0.043937570
1640780316594009856,-0.139074640,0.162589480,9.675858500,0.037874280,0.030064580,-0.012369450
1640780316595959808,-0.204138370,0.054783770,9.446970940,0.052501270,0.047625610,-0.044952340
1640780316599319808,-0.525597930,0.131251770,10.409982680,0.069190580,-0.041043770,-0.034946210
1640780316600920064,-0.127099480,0.340775460,9.211647030,0.038093330,0.047259030,-0.029158590
1640780316603919872,-0.103512290,0.170268250,9.749706270,0.004415210,0.011871750,-0.041101870
1640780316607559936,-0.357073750,0.409957440,10.622137070,0.021342940,0.036293270,-0.031092760
1640780316608950016,0.131393630,0.349567410,9.383663180,0.027355550,-0.027583540,-0.036674740
1640780316610980096,-0.158443930,0.153473090,10.041522980,0.061474740,-0.030359630,-0.021028520
1640780316614209792,-0.001857040,0.454886910,9.377540590,0.035180150,0.079129640,-0.033180420
1640780316616279808,-0.038070190,0.433232310,9.886966710,-0.024683770,-0.011457500,-0.019972030
1640780316619529984,-0.269127040,0.428132620,10.362348560,-0.053189700,-0.009922680,-0.000812110
1640780316620899840,0.241525840,0.237768190,9.112216950,-0.007115300,0.014038380,-0.030376020
1640780316623919872,-0.099673320,0.125822400,10.087244030,0.075945260,0.006410480,-0.043635070
1640780316625949952,-0.098247600,0.563270270,9.741038320,0.020329650,0.078685580,-0.024253130
1640780316629070080,-0.105933380,0.400879410,9.855091090,-0.083692370,-0.040109460,-0.014629960
1640780316631449856,-0.308346930,-0.028951090,10.036072730,-0.070911650,-0.041529540,-0.013045970
1640780316633989888,0.155848060,0.137024800,8.762040140,0.027266150,0.044526160,-0.041835010
1640780316635959808,-0.014061310,0.130857450,9.873408320,0.049600010,0.067238520,-0.030164420
1640780316638979840,-0.083474190,0.155141740,10.263106350,-0.022742160,0.084430000,-0.018413370
1640780316640879872,0.110603310,-0.054953120,9.780289650,-0.037419800,-0.062823300,-0.019480290
1640780316643980032,-0.107383500,-0.359742400,9.668696400,0.010828670,-0.031511490,-0.014896690
1640780316646149888,-0.051556090,-0.102035630,9.007776260,0.037820640,0.074890260,-0.029523670
1640780316650159872,-0.349032010,-0.061977220,10.005393980,0.031144910,0.042235860,-0.053045150
1640780316651949824,-0.401326540,0.085192890,10.106520650,-0.009413060,-0.003325940,-0.042189660
1640780316653969920,-0.121090330,0.272702400,9.337035180,0.012654070,-0.018692020,-0.033128260
1640780316655959808,-0.320423070,0.216563970,9.972567560,0.026953220,0.031507020,-0.047197940
1640780316659030016,-0.314080540,0.449721460,10.065298080,0.030766430,0.034692880,-0.023926790
1640780316661479936,-0.342765240,0.333736300,9.984185220,0.035129480,-0.023129580,-0.030921400
1640780316664009728,-0.224957990,0.236556380,9.764358520,0.001068410,-0.037407880,-0.019033260
1640780316666009856,-0.030177680,0.443570410,9.321798320,0.007921460,0.020967420,-0.016099220
1640780316668920064,-0.121184560,0.377309800,9.896887780,-0.027383870,0.021801890,-0.024595860
1640780316670929920,-0.101893350,0.298135790,10.195233350,-0.036410990,-0.016215440,-0.009636580
1640780316673979904,-0.026146740,0.122080930,9.669707300,0.048853460,-0.028584900,-0.031940640
1640780316675940096,-0.094935070,0.128577220,9.844451900,0.031372900,-0.040696560,-0.046506530
1640780316678929920,-0.198569150,0.520962830,9.737187390,-0.038120150,0.028578940,-0.003008540
1640780316680860160,-0.186562840,0.195485170,9.757126810,-0.090408330,-0.023713700,-0.013293330
1640780316684489984,-0.086554440,-0.137565330,9.853440280,-0.010164080,-0.042729080,-0.017061830
1640780316685979904,0.076137010,0.186032070,9.026205060,0.091364990,0.027906900,-0.034506620
1640780316688959744,-0.095214010,0.175158020,9.978540420,0.019225480,0.005912780,-0.020642580
1640780316690929920,-0.299961570,0.163022940,10.271019940,-0.077071800,-0.007055700,0.005841260
1640780316694039808,-0.092891320,-0.145971820,9.362254140,-0.042469800,-0.080855200,-0.031462310
1640780316696440064,-0.177774180,-0.257738890,9.765563960,0.048550960,-0.019215050,-0.043752790
1640780316698979840,-0.140503590,0.182602210,9.327066420,0.065423540,0.084403140,-0.057663030
1640780316701419776,-0.170347590,0.188328030,10.188209530,-0.011524560,-0.040797890,-0.049600000
1640780316703980032,-0.294032690,0.088721530,10.113094330,-0.030218070,-0.043791530,-0.006635490
1640780316705959936,-0.021523930,-0.016247630,8.894877430,0.029070680,-0.062350940,-0.038236380
1640780316709009920,-0.395755320,-0.098712740,10.193913460,0.083453970,-0.038357080,-0.030481820
1640780316710909952,-0.297891200,0.212771770,9.560826300,0.068826980,0.035761300,-0.038690870
1640780316713949952,-0.245003270,0.264832230,10.086899760,-0.009731950,-0.086030370,-0.042226910
1640780316715930112,-0.376644820,0.301151100,10.182406430,-0.019049650,-0.030809640,-0.024481120
1640780316718959872,0.057248580,0.355376150,9.029541020,0.036235150,-0.039321180,-0.041647250
1640780316720939776,-0.279954700,0.503503020,10.394660950,0.057302410,-0.065743920,-0.034300980
1640780316723959808,-0.229501680,0.447714240,9.635187150,0.027345120,-0.003710390,-0.015902520
1640780316726539776,-0.017397070,0.319882480,9.645173070,0.001867120,-0.129315230,-0.021514290
1640780316728999936,-0.263503430,0.307937200,10.119154930,-0.005295870,-0.025148690,-0.002092120
1640780316731399936,0.212797660,0.239892390,9.087228780,-0.021587310,-0.002923610,-0.006119910
1640780316734560000,-0.040854120,-0.000880520,10.436916350,0.012275580,-0.062775600,-0.026561320
1640780316736399872,0.003057740,-0.022935310,9.478023530,0.053596500,-0.014032430,-0.022219120
1640780316739009792,0.168014930,0.142289640,9.240608220,0.033366680,-0.101621460,-0.027428570
1640780316740929792,-0.459633860,0.156499640,10.266066550,-0.048245490,-0.020262600,-0.015436110
1640780316744009984,-0.051734850,-0.022350340,9.183820720,-0.046259160,-0.044935950,-0.026306510
1640780316746019840,-0.214399730,-0.057606670,10.063544270,0.057052090,-0.078524660,-0.051015620
1640780316748940032,-0.165577490,0.242666110,9.507339480,0.067128250,0.034055110,-0.044281780
1640780316751309824,0.023476300,0.279570520,9.704860690,0.008820000,-0.059884800,-0.026388470
1640780316753979904,-0.366753760,0.006615980,10.325290680,-0.018617520,-0.084969420,-0.015525520
1640780316755960064,0.067139010,-0.117884830,8.856526370,0.035232310,-0.083579120,-0.011800230
1640780316759179776,-0.163378980,-0.194693370,9.725241660,0.103962440,-0.035037100,-0.032036010
1640780316760890112,-0.392201360,0.060701980,10.028251650,0.067509720,0.011236970,-0.047764180
1640780316764000000,-0.172153560,0.332401630,9.910968780,0.009122490,-0.124250370,-0.043635070
1640780316768139776,-0.328668480,0.197413820,9.874948500,-0.010080640,-0.091265160,-0.041268770
1640780316769199872,-0.138553690,0.373056830,9.256442070,0.043590370,-0.050416590,-0.046017770
1640780316772470016,-0.221562520,0.597272870,10.023474690,0.082139670,-0.047467650,-0.038319830
1640780316774040064,-0.319702950,0.581657350,10.086663250,0.014810260,-0.057803090,-0.027884540
1640780316776169984,-0.078414900,0.467274010,9.783967020,-0.007580220,-0.117684890,-0.009085240
1640780316778970112,-0.055534020,0.254779700,9.685574530,-0.000609460,-0.070540610,-0.024594370
1640780316781240064,0.037959760,0.397484810,9.603267670,0.002090630,-0.041574240,-0.029189880
1640780316784430080,0.086456830,0.233823550,9.923538210,0.002299250,-0.033259400,-0.014127790
1640780316785920000,-0.020626790,-0.092401950,9.937007900,0.012911860,-0.083294520,-0.031849740
1640780316788940032,-0.029749490,0.081146470,9.690552710,0.042408700,-0.124125170,-0.019125640
1640780316791360000,-0.036144670,0.167892100,9.328033450,-0.018164520,-0.059136750,-0.020414590
1640780316794019840,-0.269428970,-0.022953210,9.924280170,-0.055766110,-0.047829740,-0.024558600
1640780316796049920,-0.188042950,-0.000286420,9.795628550,0.022657220,-0.046882040,-0.039714590
1640780316799000064,-0.069920730,0.142260910,9.556955340,0.062885890,-0.090946260,-0.055740780
1640780316801289984,-0.205039050,0.476869370,9.806829450,0.020326670,-0.047148760,-0.013919170
1640780316804039936,-0.092909440,0.371186490,9.621897700,-0.062073770,-0.044424840,-0.018602610
1640780316806259968,-0.225656240,-0.120852110,10.124794010,-0.009533760,-0.105267790,-0.022386010
1640780316808999936,-0.145062190,0.062454840,9.491422650,0.092077250,-0.049383940,-0.038841360
1640780316811259904,-0.044811640,0.217560350,9.611474040,0.048291690,-0.061553720,-0.058132410
1640780316814019840,-0.321930800,0.341385660,10.242323880,-0.043720010,-0.047360360,-0.038200620
1640780316816069888,0.039092420,0.305132720,9.570922850,-0.074683140,-0.071802740,-0.035993750
1640780316819340032,-0.169390560,-0.026535320,10.105286600,0.030078000,-0.089326500,-0.033168500
1640780316820899840,-0.257753100,0.343041900,9.644749640,0.101123750,-0.066104540,-0.029444700
1640780316823989760,-0.137498940,0.573293090,9.752432820,-0.001293420,-0.094121700,-0.018689040
1640780316825959936,-0.385009230,0.321439800,10.206264500,-0.096693640,-0.042210520,0.003527100
1640780316828899840,-0.034128940,0.192236350,9.739746090,-0.050158800,-0.077874960,-0.012561680
1640780316830960128,-0.038208530,0.214188680,10.009129520,0.056323410,-0.085908170,-0.033293660
1640780316834300160,0.129564200,0.430207970,9.435528760,0.033450130,-0.016276540,-0.028559560
1640780316836049920,0.208969460,0.412533370,9.845442770,-0.055663300,-0.051142290,-0.016903880
1640780316839200000,-0.060846800,-0.104648820,10.075287820,-0.046111650,-0.072199110,-0.011374060
1640780316840910080,0.258158150,-0.042662010,9.118289950,0.024876000,-0.102373980,-0.012639170
1640780316843989760,-0.043742220,0.030619740,9.786749840,0.025697050,-0.020587440,-0.018531080
1640780316846030080,-0.071670340,-0.114716820,9.810173990,-0.026614960,0.020301340,-0.025971240
1640780316849030144,-0.121060640,-0.034826590,10.148315430,0.001007320,-0.090460480,-0.023792690
1640780316852460032,-0.219651730,-0.048835290,9.677018170,0.034224990,-0.060574710,-0.033687060
1640780316853969920,-0.100206410,0.186148090,9.427417760,0.012014810,-0.054138910,-0.024616720
1640780316856420096,-0.372977970,0.147915830,10.102400780,0.009745360,-0.020514430,-0.020021200
1640780316859010048,-0.133918320,-0.073291160,9.598445890,0.042921300,-0.047227740,-0.035648050
1640780316860979968,-0.060983780,0.223696630,9.886440280,0.065608320,-0.061059000,-0.038208070
1640780316863940096,-0.042827160,0.271184470,9.714860920,0.025528670,-0.002698600,-0.045776370
1640780316866050048,0.004470020,0.295872810,10.010579110,-0.012585520,-0.069746380,-0.039485100
1640780316869560064,-0.175389440,0.354147200,9.998909950,0.015617910,-0.053523490,-0.019764900
1640780316871039744,-0.111066460,0.079929490,9.494129180,0.057458890,-0.073443370,-0.039760780
1640780316873959936,-0.294418720,0.416397990,10.112603190,0.065340090,-0.052616000,-0.025448200
1640780316875949824,-0.317596820,0.555339520,9.716814990,-0.021658840,-0.029133260,-0.024193530
1640780316878929920,-0.178146590,0.139764230,10.055562970,-0.043001770,-0.093612060,-0.014510750
1640780316880919808,-0.080416880,0.254890110,9.733104710,0.035889450,-0.020970410,-0.031137470
1640780316884300032,0.096191580,0.296300710,9.553890230,0.056536510,-0.053347650,-0.036348410
1640780316886720000,-0.093336470,0.333619180,10.245498660,0.013083220,-0.034086410,-0.005288420
1640780316889019904,0.008075020,0.208062720,9.505181310,-0.046387310,-0.060892120,-0.022841990
1640780316891279872,0.040027440,-0.162925060,9.797026630,0.016427040,-0.109902020,-0.012914840
1640780316894389760,0.184844460,0.118323090,9.292104720,0.044812260,0.036226220,-0.021447240
1640780316896019968,0.139943290,0.186099140,9.755749700,0.003491340,0.008013840,-0.033566350
1640780316901899776,-0.203798010,0.081834440,10.589920040,0.000414250,-0.044777990,-0.015158950
1640780316902959872,0.110745850,0.171859620,9.098585130,0.016473230,-0.095711670,-0.030329830
1640780316904470016,-0.296413000,-0.009211100,9.709540370,0.042995810,-0.058212880,-0.019776820
1640780316906540032,-0.336110030,0.110838150,9.627678870,0.037810210,0.047434870,-0.029346350
1640780316908979968,-0.345648530,0.066592770,9.895551680,0.034368040,-0.062158710,-0.042890020
1640780316910879744,-0.414986490,0.173146870,10.140336990,0.029058750,-0.053149470,-0.030779840
1640780316913889792,0.153097850,0.360914320,9.154777530,0.001852210,0.002108510,-0.035297870
1640780316915969792,-0.240117130,0.288901360,10.395282750,0.026556850,-0.032533710,-0.031553210
1640780316919079936,0.015835780,0.359593360,9.765084270,0.037014480,-0.024984780,-0.023432070
1640780316920999936,0.067432290,0.355202260,9.573723790,0.042875110,-0.080932680,-0.031760330
1640780316923919872,-0.241641240,0.357617500,9.955930710,0.033073130,-0.028866530,-0.028087200
1640780316926039808,0.013987920,0.671108900,9.503709790,-0.035305320,-0.020974880,-0.020681320
1640780316929159936,-0.316976670,0.409009780,10.285753250,-0.047211350,-0.052285190,-0.014095010
1640780316931000064,-0.063451540,0.176712900,9.700716970,0.020188090,-0.024910270,-0.023724140
1640780316934049792,0.026519160,0.321320740,9.598896980,0.072579090,-0.043445830,-0.042711200
1640780316936630016,-0.160405740,0.301799240,9.768462180,0.002093610,-0.003515180,-0.015942750
1640780316939009792,0.032472880,0.202946500,9.766028400,-0.081126400,-0.025518240,-0.005631150
1640780316940979968,-0.123810640,-0.220530570,9.909169200,-0.020554660,-0.050391250,-0.027965010
1640780316943980032,0.207072730,-0.161733690,9.218655590,0.065745400,-0.030358130,-0.038975470
1640780316945969920,0.190761430,0.206530350,9.592333790,0.051601230,0.050915780,-0.042735040
1640780316948989952,-0.051741100,0.088374320,10.127426150,-0.022977590,0.031922760,-0.030015410
1640780316951180032,-0.141687240,0.038878950,10.219766620,-0.011160970,-0.104559980,-0.022572280
1640780316953969920,-0.169221920,-0.024925060,9.152206420,0.055962800,-0.053635240,-0.035865600
1640780316956379904,-0.197130580,-0.009334490,9.265359880,0.069586930,0.020894400,-0.042311840
1640780316958950144,-0.416556690,0.225837980,10.225542070,0.056588650,0.071829550,-0.048060710
1640780316960989952,-0.275856200,0.138897660,9.827086450,0.019852820,-0.040604170,-0.057521460
1640780316963980032,-0.100144770,0.207960900,9.917264940,0.029331450,-0.081127880,-0.022581220
1640780316966060032,-0.007418770,0.200006040,9.407527920,0.053863230,0.062635540,-0.030072040
1640780316970700032,-0.099271930,0.136386920,10.109606740,0.070776050,-0.038181260,-0.052165990
1640780316971449856,-0.239137050,0.492587330,10.134890560,0.067545470,-0.025400520,-0.026759510
1640780316974479872,0.098209580,0.271544960,9.104507450,0.018270320,-0.051368770,-0.046841800
1640780316975950080,-0.127152700,0.424602270,10.021228790,0.021235640,-0.017938020,-0.034178800
1640780316978989824,0.005904210,0.732248540,9.547132490,0.000950690,0.058728460,-0.039944060
1640780316981070080,-0.008005860,0.334960460,10.143293380,0.013908740,-0.041410330,-0.038003930
1640780316984019968,-0.194967990,0.517551420,10.025933270,0.054511420,-0.016759330,-0.030794740
1640780316985980160,-0.014930800,0.452116070,9.263169290,0.017948450,-0.049188740,-0.037373600
1640780316989349888,-0.326304730,0.263654950,10.119296070,-0.033158060,-0.010225180,-0.002223250
1640780316990989824,-0.108881790,0.133174850,9.411941530,-0.037749110,0.029933450,-0.020794570
1640780316993969920,0.045983260,-0.210937440,9.715949060,0.039221350,-0.041785840,-0.038644680
1640780316995980032,0.141200130,0.071341620,9.587977410,0.065499540,0.077506900,-0.029034910
1640780316998970112,0.173492390,0.118585180,9.819612500,-0.007323920,0.031596430,-0.033654270
1640780317000919808,-0.225187420,-0.147858770,10.515413280,-0.018605590,-0.050973890,-0.016123060
1640780317003969792,0.182161900,-0.030370170,8.866092680,0.029343370,-0.038477780,-0.047390170
1640780317006569984,-0.116778000,0.080008280,9.382513050,0.056128200,0.035890930,-0.055748220
1640780317008940032,-0.320347820,0.246312510,9.927993770,0.033576790,0.114853690,-0.040613110
1640780317010959872,-0.314480540,0.314733650,10.052412990,0.020600860,-0.050097700,-0.047779080
1640780317014099712,-0.444507420,0.107822110,9.848629000,0.045920920,-0.063432750,-0.022184850
1640780317016109824,-0.079519640,0.112713060,8.968021390,0.057326250,0.031755860,-0.015592570
1640780317018929920,-0.534620400,0.088083440,10.379136090,0.066919620,0.037491330,-0.032924120
1640780317020959744,-0.351842400,0.137901870,10.003188130,0.041869280,-0.006061790,-0.030985480
1640780317024129792,-0.051609940,0.267129600,9.645149230,0.020237260,-0.080126520,-0.043421980
1640780317026549760,-0.162479460,0.248940860,9.578532220,0.030787290,0.025987620,-0.049161910
1640780317028969984,0.103608820,0.581080680,9.518377300,0.034874680,0.005909800,-0.044061240
1640780317031030016,-0.230811070,0.521523590,10.302392010,0.034223500,-0.011229520,-0.028340520
1640780317033999872,-0.043097650,0.399985850,9.551951410,0.030703840,-0.037483870,-0.028403110
1640780317035970048,-0.004625540,0.389023010,9.773640630,0.038364520,-0.044406940,-0.018884240
1640780317039219968,-0.314814330,0.394843040,9.791668890,0.001166760,0.025604670,-0.023698810
1640780317040889856,-0.031546590,0.435062320,9.754383090,-0.036036970,-0.029161570,-0.016134980
1640780317043969792,-0.130446880,0.145164130,9.977195740,-0.004646180,0.008884070,-0.019352140
1640780317046180096,0.091959740,0.002698200,9.303310390,0.048477940,-0.010845070,-0.039407600
1640780317049839872,0.021560170,0.196183470,9.816244130,0.054641070,0.008840860,-0.017121440
1640780317051020032,-0.193277510,0.036617590,9.806911470,-0.023335220,0.007650260,-0.007435680
1640780317054009856,-0.010826220,-0.136455640,9.641029360,-0.018139190,-0.070586820,-0.021468110
1640780317056449792,0.018816180,-0.081780740,9.328493120,0.036570430,0.033429270,-0.047226250
1640780317059010048,-0.012581040,0.080581110,9.504885670,0.047293300,0.053405750,-0.054766230
1640780317062729728,-0.173033100,0.316834390,10.301578520,0.031407180,0.023645160,-0.037442150
1640780317064179968,-0.193884890,0.158517930,9.810060500,0.000599030,-0.048998000,-0.031521910
1640780317065999872,-0.264301810,-0.002893930,9.534999850,0.046913320,-0.076888490,-0.010237100
1640780317068929792,-0.294768390,0.019793850,9.229562760,0.084747370,0.043603780,-0.017941000
1640780317071209984,-0.410682230,-0.048806690,9.984749790,0.058592850,0.018353760,-0.039410580
1640780317073900032,-0.439118590,0.213568150,10.157266620,0.046190620,-0.008925790,-0.032529230
1640780317075970048,-0.089390080,0.177752420,9.661769870,0.017240640,-0.056926910,-0.051853070
1640780317079000064,-0.185327650,0.260351120,9.863305090,0.064614420,-0.013747810,-0.033929940
1640780317080930048,0.036247030,0.566015840,9.496270180,0.062003730,0.034308440,-0.046841800
1640780317083940096,-0.161272170,0.439645440,10.366077420,0.037646290,-0.018604100,-0.020998720
1640780317086020096,-0.176667600,0.481841060,9.770401000,0.039111070,-0.043964380,-0.010268390
1640780317088929792,0.047859910,0.447145430,9.414978980,0.028359900,-0.069640580,-0.029051310
1640780317091040000,-0.177711340,0.517564830,9.823559760,0.006024540,0.038465860,-0.011625890
1640780317094080000,0.058696120,0.389777900,9.561302190,-0.007607040,0.038124620,-0.015495720
1640780317096669952,-0.192838950,0.054093060,10.580032350,0.031700730,-0.044539570,-0.029143690
1640780317100090112,-0.050524110,0.199634080,9.365826610,0.063748670,-0.011192260,-0.018042330
1640780317101270016,-0.016384900,0.193403690,9.505241390,0.005479160,-0.050193060,-0.012804570
1640780317103969792,-0.285896480,0.044750600,9.904994010,-0.038038190,0.029958790,-0.000552830
1640780317106619904,0.277600050,-0.048671700,8.915909770,0.011672080,0.019225480,-0.022265320
1640780317108939776,0.016783940,0.073689160,10.287565230,0.071322930,0.022272770,-0.033299630
1640780317110949888,0.113937740,0.335250470,9.608372690,0.043548650,0.070452690,-0.024874510
1640780317113929984,0.022961400,0.230040070,9.996365550,-0.005927680,-0.074665270,-0.018349290
1640780317115919872,-0.295107250,0.015839950,9.825420380,0.003913040,-0.007621940,-0.029264400
1640780317118909952,0.051471190,0.096321170,8.555810930,0.059986120,0.013148780,-0.034423180
1640780317121239808,-0.450673520,0.117680720,10.235154150,0.067628930,0.046864150,-0.046506520
1640780317123960064,-0.360393260,0.240801720,9.753726960,0.017610190,0.062035030,-0.041270260
1640780317126210048,-0.210548100,0.019393450,9.887917520,0.030332800,-0.097188350,-0.023846330
1640780317129120000,-0.381112250,-0.165221600,9.823855400,0.062952940,0.005523860,-0.024864080
1640780317131310080,-0.023657170,0.095250770,9.185438160,0.076751400,0.030349200,-0.027506050
1640780317134039808,-0.278069910,0.102426010,10.478621480,0.060467430,0.012764330,-0.030255320
1640780317136029952,-0.112779680,0.236313630,9.840631480,0.021551550,-0.005336100,-0.023365020
1640780317139709952,0.155500870,0.323053180,9.373723980,0.049686440,-0.064815580,-0.030425200
1640780317141509888,-0.036018750,0.406490860,9.740316390,0.049549340,0.034600500,-0.038684900
1640780317143990016,0.013214160,0.744299770,9.639213560,0.027102230,0.041569770,-0.035142900
1640780317146040064,-0.216844440,0.481092180,10.263168330,0.012104210,-0.026597080,-0.024546680
1640780317148969984,-0.204795930,0.348652010,9.909701350,0.019864740,-0.045017890,-0.028550630
1640780317150929920,-0.022800480,0.500987950,9.278653140,0.048322980,0.016747420,-0.024344030
1640780317154269952,-0.131485000,0.312408210,9.914876940,-0.016592440,0.033685570,-0.010949370
1640780317156039936,-0.029505150,0.066642870,9.853766440,-0.012138490,0.047449760,-0.001218920
1640780317159229952,0.063949440,-0.207234350,9.544256210,0.056976070,-0.018601120,-0.028364360
1640780317160950016,0.041458310,-0.155602130,9.745417590,0.064088400,-0.026734180,-0.019407270
1640780317163950080,-0.029171810,0.048003970,9.349985120,0.013260550,0.048132250,-0.022862860
1640780317166060032,0.002351840,-0.114081410,9.798693660,-0.040568400,0.005972390,-0.044487420
1640780317169060096,-0.140893120,0.080502120,10.017516140,0.028151280,0.046803070,-0.038503110
1640780317171089920,-0.003048920,0.412649420,9.237850190,0.075660640,0.015845890,-0.058630110
1640780317174819840,-0.255061420,0.418929760,10.182201390,0.035171220,-0.002063810,-0.022898620
1640780317176699904,-0.403934900,0.392290590,9.465496060,0.002765660,0.033639380,-0.015057620
1640780317178989824,-0.249703510,-0.118964050,9.582068440,0.038121640,-0.050072370,-0.029216710
1640780317181009920,-0.384255140,-0.032906520,9.878627780,0.088319170,0.071835500,-0.023263690
1640780317183939840,-0.107556890,0.097466510,9.464848520,0.058153280,0.058342530,-0.060111290
1640780317185959936,-0.276633620,0.019893240,10.751908300,0.011985000,-0.024828320,-0.047491490
1640780317189420032,-0.018220040,0.101053590,9.380776410,0.019645690,0.008653100,-0.041840970
1640780317191079936,0.032139760,-0.161333170,9.523595810,0.085628030,-0.043140340,-0.056296580
1640780317193949952,-0.325700640,0.305800170,10.166781430,0.104689610,0.055873390,-0.048923500
1640780317195950080,-0.181127680,0.579315720,9.494438170,0.019006430,-0.012661520,-0.047786530
1640780317198929920,-0.434051810,0.383173820,10.523395540,-0.018906590,-0.069873030,-0.020001830
1640780317200989952,-0.097311940,0.408536430,9.307993890,0.034198170,0.046613810,-0.036522750
1640780317204089856,-0.096818940,0.373957220,9.779529570,0.100329540,-0.011678040,-0.047488510
1640780317206119936,-0.248907480,0.510836600,10.309380530,0.068740550,0.041967630,-0.019972030
1640780317208989952,0.072362620,0.259017290,9.438087460,-0.019396840,-0.026234990,-0.022259350
1640780317211069696,-0.188702570,-0.167555290,10.100771900,0.004626810,-0.064072010,-0.021584330
1640780317213920000,0.168486190,-0.134786620,9.126828190,0.066231200,0.054630640,-0.042592000
1640780317215970048,-0.021046660,-0.229075150,9.844536780,0.086936370,0.015860800,-0.046077370
1640780317218929920,-0.197637040,-0.152543010,10.229200360,0.062620640,0.035761300,-0.037935380
1640780317221050112,0.033563710,-0.087943860,9.646570210,0.048191850,-0.053820010,-0.034929820
1640780317224310016,-0.362599220,-0.193453790,9.861400600,0.074103480,-0.029976660,-0.024065370
1640780317226230016,-0.135458590,0.095656370,9.210997580,0.088571000,0.025698540,-0.047776100
1640780317228979712,-0.482223450,0.111314450,10.141790390,0.098706780,0.002078710,-0.061377880
1640780317230969856,-0.300467310,0.275082920,9.630766870,0.097693500,0.002804400,-0.058510910
1640780317233989888,-0.057403670,0.563238440,9.731064800,0.080867120,-0.032879410,-0.054855650
1640780317235989760,-0.212061110,0.345994470,10.028292660,0.059883290,0.035101170,-0.029760600
1640780317239490048,0.004192330,0.311191740,9.850102420,0.084052990,-0.020425020,-0.030967600
1640780317241119744,-0.344555800,0.093488360,10.427263260,0.129869580,-0.040298700,-0.029301650
1640780317243909888,-0.207527010,0.052879520,9.331160550,0.113387410,-0.053273140,-0.035043060
1640780317246059776,-0.170158420,0.307078240,9.581540110,0.064149500,-0.055901710,-0.050601370
1640780317249379840,-0.297585610,0.300576980,9.813642500,0.004047160,0.052551930,-0.041785840
1640780317250959872,-0.051259270,0.238889830,9.816649440,0.052391000,-0.034767390,-0.030334300
1640780317254169856,-0.307046350,0.198157590,10.412052150,0.147788240,-0.053051110,-0.054824360
1640780317256120064,-0.095546490,0.479195650,9.329088210,0.122208890,-0.051721930,-0.037062160
1640780317261279744,-0.127893120,0.631797670,9.688343050,0.012184680,-0.044369700,-0.008325280
1640780317261730048,-0.180246560,0.182015480,10.004026410,-0.041578710,0.027632720,-0.005365910
1640780317263949824,0.206231940,-0.089268030,9.514687540,0.089965780,-0.019538410,-0.026370590
1640780317266019840,0.051026780,0.042807720,9.840806960,0.168806310,-0.028063360,-0.055991120
1640780317269039872,0.065962520,0.236738520,9.498025890,0.077907750,0.002656880,-0.027720630
1640780317271059968,-0.110883620,-0.059733990,9.823045730,-0.015734140,-0.044986610,-0.018726290
1640780317274060032,-0.297584440,-0.416246150,10.041927340,0.033709420,-0.055067250,-0.043925650
1640780317275960064,-0.238090870,-0.136097490,9.460575100,0.157575310,-0.021852550,-0.056399420
1640780317278880000,-0.349929450,0.209983270,9.724292760,0.136160840,-0.004443530,-0.074958790
1640780317280920064,-0.541688920,0.438430760,10.343921660,0.031216450,-0.012113160,-0.048233580
1640780317283959808,-0.285237700,0.284503550,9.519151690,0.038392850,-0.067761540,-0.029307610
1640780317286379776,-0.189698400,0.130773740,9.642517090,0.108726320,-0.087432560,-0.031690300
1640780317288940032,-0.144036320,0.363581630,9.677780150,0.161966700,0.036293270,-0.026148560
1640780317291049984,-0.030353810,0.403438510,10.008186340,0.084874030,-0.018695000,-0.041483350
1640780317296109824,-0.242690090,0.269936080,10.806902890,0.022970140,-0.068604950,-0.023095310
1640780317296829952,0.064969710,0.148508280,9.280083660,0.056326390,-0.063233080,-0.048655280
1640780317299559936,0.086339110,0.114497480,9.579939840,0.099611270,-0.078214700,-0.062629580
1640780317301539840,-0.165446420,0.501222490,9.785726550,0.089299690,0.054124010,-0.034093860
1640780317304519936,-0.114510810,0.281139250,9.804489140,0.034180290,-0.049288570,-0.046002870
1640780317306749696,-0.411106290,0.107505490,10.600657460,0.057287530,-0.114907350,-0.024725500
1640780317308889856,-0.163159820,0.396744580,9.044495580,0.079698850,-0.053970520,-0.038635730
1640780317310919936,-0.148559180,0.322319720,9.894050600,0.041703880,-0.044280280,-0.028549130
1640780317313900032,-0.161815940,0.407912110,10.103639600,0.017640000,0.068448480,-0.006663800
1640780317315970048,0.096871010,0.058634680,9.724852560,0.068579620,-0.068445510,-0.038148460
1640780317319229952,-0.069830440,0.075192500,10.156748770,0.127416850,-0.094836960,-0.019925830
1640780317321209856,0.091813800,0.345376520,8.822865490,0.048187380,-0.022563340,-0.032480060
1640780317323899904,-0.131161650,-0.113009510,9.987652780,-0.007776920,-0.062218310,-0.022976100
1640780317326059776,-0.121938250,-0.120868520,9.861996650,0.053568190,0.044676660,-0.038388370
1640780317329030144,-0.062693620,0.010296590,9.719820980,0.119480500,-0.073091690,-0.060556840
1640780317330979840,-0.366730060,0.221159180,10.350940700,0.108051310,-0.032833220,-0.017857550
1640780317334199808,-0.214266170,0.228362080,9.454503060,0.025729840,-0.042736530,-0.024774670
1640780317336099840,-0.606689690,-0.055064560,10.065196990,0.041258340,-0.110347570,-0.021487480
1640780317342039808,-0.310810710,0.147148420,9.130915640,0.114299370,-0.021839150,-0.033190850
1640780317342939904,-0.190628930,0.336542250,9.737972260,0.098745550,-0.043424970,-0.061090300
1640780317343919872,-0.333205430,0.673984940,10.393953320,0.034780800,-0.006185470,-0.040917110
1640780317346020096,0.140109660,0.531242910,9.929751400,-0.006504360,-0.096422430,-0.031794600
1640780317349019904,-0.117408070,0.196607370,10.271714210,0.067017980,-0.087888540,-0.029909620
1640780317350989824,0.121554900,0.481704380,9.243090630,0.110846770,-0.044095520,-0.036834180
1640780317354209792,-0.210119460,0.397570190,10.232225420,0.036965310,-0.065360960,-0.016231840
1640780317356039936,-0.308760670,0.295979770,9.824874880,-0.022251910,-0.036568940,-0.001104180
1640780317358959872,0.064990590,0.125389490,9.584265710,0.005801020,-0.133757310,-0.020597880
1640780317360999936,-0.179542770,0.131923290,9.974556920,0.066769130,0.004926320,-0.030338760
1640780317363940096,0.097420020,0.482653740,9.456738470,0.045362130,-0.009337070,-0.023081900
1640780317368160000,-0.368048850,0.299360130,10.877319340,-0.000678000,-0.092311210,-0.003975630
1640780317368939776,-0.170863850,0.153330490,9.346673010,0.001513960,-0.103592870,-0.004781780
1640780317371140096,0.144592430,0.242727290,9.070753100,0.045247380,-0.123938920,-0.028976800
1640780317374349824,-0.069205920,0.271982130,9.759623530,0.012592970,0.084957480,-0.018017000
1640780317376089856,0.283407330,0.295644730,9.715023040,-0.004372000,0.023877620,-0.014850500
1640780317380229888,-0.134300930,-0.005611750,10.960583690,0.039114060,-0.122471150,-0.005449360
1640780317381029888,0.080616050,0.030251500,9.095497130,0.062443320,-0.087860230,-0.004242360
1640780317384019968,-0.120726580,-0.021016970,9.205065730,0.036722430,-0.088398160,-0.016517940
1640780317385979904,-0.601073150,-0.073241140,10.105479240,-0.003838540,0.027135020,-0.022047760
1640780317389159936,-0.322151450,0.131088990,9.573283200,0.018642840,-0.047142810,-0.042654580
1640780317390980096,-0.502735970,0.223471090,10.341828350,0.056877730,-0.105761000,-0.030663610
1640780317394320128,-0.162372380,0.556609630,9.582186700,0.039294360,-0.019499660,-0.034016370
1640780317396129792,-0.198661820,0.614241720,9.971852300,0.010241570,-0.069993740,-0.025913120
1640780317399079936,-0.262430550,0.406518490,10.175256730,0.002259020,-0.064833450,-0.001388790
1640780317400979968,-0.016974210,0.522171500,9.411269190,0.039762260,-0.088083750,-0.015999380
1640780317404249856,-0.098244520,0.517020520,9.842782020,0.007806720,-0.082208220,-0.014209750
1640780317406119936,-0.010337540,0.616760610,9.933453560,-0.049385430,-0.042042140,0.001871590
1640780317409199872,-0.057795820,0.241118540,10.041384700,-0.037784870,-0.076456380,0.004568700
1640780317411020032,-0.032159850,-0.077979000,10.107332230,0.023452930,-0.088733430,-0.009208920
1640780317414080000,-0.166449700,0.330538990,9.802058220,0.042049590,-0.074583300,-0.009085240
1640780317416250112,-0.312124010,0.216052980,9.731205940,-0.055676700,-0.079125170,0.014637410
1640780317419020032,-0.282769080,0.131890540,9.859254840,-0.099028660,-0.102221990,0.008995830
1640780317421649920,-0.168523700,0.043837660,9.409152030,-0.013488530,-0.064280630,-0.014482440
1640780317423929856,0.091375460,0.233993430,9.562108040,0.043851140,-0.034923860,-0.018472970
1640780317426050048,-0.001680740,0.535595770,10.195478440,-0.006298720,-0.011017920,0.008469820
1640780317429219840,-0.039399170,0.255016090,10.169745450,-0.080555680,-0.086648760,0.012272600
1640780317431099904,0.076585210,-0.009596540,9.938236240,-0.029219690,-0.138877330,0.007422270
1640780317433939968,0.011253970,-0.047634810,9.094185830,0.029143690,-0.050577520,-0.009028610
1640780317436039936,-0.032173130,0.053205680,9.418385510,0.017589330,-0.027169290,-0.003790860
1640780317438989824,-0.241783170,0.053957700,10.186714170,-0.029709940,-0.003241000,-0.014394520
1640780317440979968,-0.189705730,0.022534320,9.935254100,-0.046728540,-0.120642770,-0.008030230
1640780317443960064,-0.187130590,0.088703650,9.769386290,0.018720330,-0.098243360,0.003746150
1640780317446209792,-0.240333420,0.091094080,9.731904030,0.025866930,-0.033396480,-0.015194720
1640780317449379840,-0.397572580,0.221465450,10.212960240,0.018274790,-0.054320690,-0.003245470
1640780317451020032,-0.232415180,0.426433980,9.862631800,-0.010004640,-0.094465920,-0.008778270
1640780317453959936,-0.081987340,0.445606290,9.644404410,-0.042375920,-0.099910800,-0.007192790
1640780317456280064,-0.006884700,0.637231290,9.572050090,-0.019998850,-0.039155780,-0.008466840
1640780317460199936,0.093117970,0.613686740,10.072523120,-0.035662940,-0.058867040,-0.031425060
1640780317461079808,-0.124272830,0.494795770,10.370284080,-0.007529560,-0.067739200,-0.005581970
1640780317464320000,0.068445980,0.495895150,9.677384380,-0.021433830,-0.127957780,-0.014640390
1640780317466049792,-0.131944340,0.491605700,10.149914740,-0.080563140,-0.082610550,0.013174120
1640780317468899840,-0.019745310,0.440679130,9.458574300,-0.110542800,-0.010114910,0.027832390
1640780317470959872,-0.028150160,-0.008986920,10.146606450,-0.065746890,-0.103905800,0.004084410
1640780317473959936,-0.141317810,0.103949140,9.763629910,0.014047330,-0.047770140,0.004099310
1640780317475989760,0.158222350,0.342914520,9.098909380,-0.035472220,-0.094605990,0.001773240
1640780317478950144,-0.366747110,0.277604700,10.693096160,-0.141270470,-0.042541330,0.019107760
1640780317481129984,-0.078214620,0.186060980,9.512465480,-0.135464940,-0.043101610,0.010119380
1640780317483949824,0.022558270,-0.050664480,9.994209290,-0.020334120,-0.144396740,-0.016848740
1640780317486060032,-0.009004620,0.478248630,9.524165150,0.005218390,0.037679070,-0.011006000
1640780317489049856,0.235291170,0.430759430,9.504943850,-0.098109250,-0.038254260,0.004415210
1640780317493489920,-0.292741240,-0.007634850,10.830107690,-0.117471820,-0.082166490,0.029996030
1640780317495719936,0.153163240,-0.095037430,8.872978210,-0.053504110,-0.093199320,0.008071960
1640780317496879872,-0.163714350,-0.288238640,9.907773020,0.011266770,-0.088465220,0.011035800
1640780317498949888,-0.319520440,0.101012720,9.942955970,-0.030343240,0.051918630,-0.002495940
1640780317502539776,-0.201304960,0.127928470,10.065397260,-0.092796980,-0.101265320,-0.016467280
1640780317504219904,-0.415099140,0.097073530,10.364845280,-0.080278520,-0.105898070,0.012798610
1640780317506000128,-0.029447510,0.262158330,8.971050260,-0.025476510,-0.061890490,-0.021347400
1640780317508979968,-0.367780060,0.442800250,10.246987340,-0.005702680,-0.065860160,-0.012464820
1640780317511020032,-0.190920010,0.693327370,9.867441180,-0.066906220,-0.018338860,0.024181600
1640780317513900032,-0.032671540,0.517056050,10.021211620,-0.104331970,-0.122369830,0.010500850
1640780317515980032,0.040765510,0.504823800,10.037566180,-0.075377530,-0.052903600,0.016930700
1640780317518959872,0.341585730,0.594393010,9.470091820,-0.073046990,-0.031881030,0.015793740
1640780317521420032,-0.106991190,0.292843160,10.425494190,-0.075043740,-0.052352250,0.023807590
1640780317523990016,0.092535260,0.096142690,9.653812410,-0.067660220,-0.092074290,0.025209790
1640780317530400000,-0.134383540,0.018104720,9.710382460,-0.061553710,-0.133328140,0.020438430
1640780317531699968,-0.156590100,0.045087200,9.457951550,-0.108765090,-0.011846420,0.028023130
1640780317532320000,0.036249310,0.021015320,9.958033560,-0.129298870,-0.014968220,0.011387470
1640780317533959936,-0.220704570,-0.029309870,10.399886130,-0.075045240,-0.023135550,-0.000339750
1640780317536039936,0.246286480,0.350867210,9.489248280,-0.034427640,-0.080825390,0.002194940
1640780317539949824,-0.128729340,0.483874650,10.011725430,-0.094309450,-0.050972410,0.013530260
1640780317541280000,0.007326080,0.328771980,9.385588650,-0.135429200,-0.036092110,0.029103460
1640780317544209920,-0.109558680,0.095849200,9.993748660,-0.076437000,-0.081090640,0.004878640
1640780317545989888,-0.185044880,0.096540060,9.627039910,-0.037612030,-0.010854010,-0.005067890
1640780317548930048,-0.054843050,0.331718980,9.783503530,-0.059430300,-0.049561260,0.003503260
1640780317550969856,-0.283906190,0.215955750,10.501365660,-0.129581990,-0.034414240,0.009417530
1640780317554380032,-0.015994130,0.067492000,9.605365750,-0.125303860,-0.076502570,0.014449660
1640780317556099840,-0.159708220,-0.005183700,9.933653830,-0.035662950,-0.069220370,-0.001357500
1640780317559049728,-0.214923840,0.215605230,9.854965210,-0.038240850,-0.026161970,-0.015211110
1640780317561939968,-0.098092440,0.585810960,9.780285840,-0.104473540,-0.071384010,0.008107720
1640780317563949824,-0.144258310,0.434105370,10.100981710,-0.170382870,-0.057235360,0.010861460
1640780317566169856,0.054564540,0.245941480,9.894439700,-0.101383030,-0.043813880,0.005622210
1640780317569009920,0.114804130,0.481122820,9.797164920,-0.028960410,-0.047452750,-0.000265240
1640780317571120128,0.030850060,0.577874240,10.174616810,-0.103476640,-0.031897430,0.015059120
1640780317574019840,-0.031685510,0.399216590,9.923196790,-0.165279220,-0.032141800,0.025416910
1640780317576400128,0.073149170,0.051766690,9.737511630,-0.135792790,-0.118286920,0.012747940
1640780317578909952,0.140175100,0.086101320,9.498723030,-0.076462340,-0.008001920,0.016435980
1640780317580989952,0.287502530,0.078408480,9.347429280,-0.092504930,0.059303640,0.012964010
1640780317583969792,-0.088034330,-0.179966050,10.874732970,-0.114898390,-0.024087730,0.021094090
1640780317586030080,-0.035227820,-0.102754060,9.791907310,-0.082710390,-0.061348080,0.028239190
1640780317588999936,0.088708960,-0.244695070,9.302594180,-0.083687900,-0.109763450,0.013498960
1640780317591200000,-0.282023280,-0.004163690,9.807162280,-0.094112750,0.051444770,0.030294060
1640780317593949952,0.002478240,0.044455970,9.423790930,-0.088429450,0.038248300,-0.002077220
1640780317596049920,-0.159237340,0.140873880,10.609451290,-0.053080920,-0.048647820,-0.001163780
1640780317598959872,0.136609200,0.599718810,9.341164590,-0.060044230,0.019787250,0.010897220
1640780317601009920,0.099815000,0.271763320,9.936182980,-0.088928650,-0.055904690,0.001685320
1640780317604339712,-0.236760320,0.224870940,10.241625790,-0.069575020,0.028774150,0.029715900
1640780317606279936,0.054440550,0.070182930,9.284128190,-0.039656460,-0.039759270,-0.007273260
1640780317609040128,-0.230574560,0.010195990,10.383301730,-0.026832520,-0.019513070,0.004757940
1640780317611099904,0.036279980,0.344340560,9.403635980,-0.093387070,0.054104630,-0.005745890
1640780317614019840,-0.163457750,0.136535420,10.359696390,-0.122712560,-0.049319860,0.000680980
1640780317616059904,-0.164840770,0.055002860,10.032909390,-0.060956180,0.008994340,0.006626550
1640780317619510016,-0.011808360,0.240740580,9.470462800,-0.008386370,-0.050659480,-0.023192170
1640780317621069824,-0.364166200,0.568952320,10.266878130,-0.052611530,-0.004425640,0.012552740
1640780317624290048,0.006324760,0.685919760,9.485757830,-0.157012020,0.022619960,0.021193920
1640780317626060032,-0.206031780,0.260602500,10.294658660,-0.128947210,-0.044888270,0.007131700
1640780317629619712,0.215088250,0.353627180,9.485225680,-0.025005640,0.021207330,0.007990000
1640780317631009792,0.302758490,0.368748280,9.565855980,-0.028653440,0.014254450,0.010591750
1640780317633920000,0.014888790,0.191405180,10.254472730,-0.110061470,0.053723150,0.024610760
1640780317636009984,0.211016600,-0.076803040,9.862144470,-0.127863880,-0.050103660,0.017066300
1640780317639249920,-0.115491660,-0.545907620,9.839810370,-0.044411420,-0.050552190,0.004029270
1640780317641600000,0.032134390,-0.259742500,8.998620990,-0.015857810,0.052468470,-0.021001690
1640780317643929856,-0.362586710,-0.160214510,10.380514140,-0.056070090,0.045682490,-0.029051310
1640780317646080000,-0.425088760,-0.077580970,9.994515420,-0.083218500,-0.001285970,-0.017237660
1640780317649039872,-0.007721930,0.198266360,9.547098160,-0.048801310,-0.081096590,-0.003159050
1640780317651019776,-0.187734100,0.145731630,9.941137310,-0.030352180,0.085322560,0.003392990
1640780317655649792,0.045170210,0.351042630,9.805436130,-0.004066530,0.034384430,0.004863740
1640780317656930048,-0.183896020,0.402980300,10.611679080,-0.016520920,-0.030885640,0.005306300
1640780317660879872,0.076944730,0.422214450,9.324140550,-0.066462170,-0.014261900,0.007934870
1640780317661789952,0.076172690,0.406455250,9.610157010,-0.069318720,-0.028818850,-0.008820000
1640780317663970048,-0.140214380,0.301897410,10.115839960,-0.063017010,0.064264250,-0.011071560
1640780317666019840,-0.044531930,0.248257070,9.919937130,-0.031079350,0.005494060,-0.003436210
1640780317669119744,-0.312314000,0.148432050,10.435669900,-0.023463370,-0.041046740,-0.004078450
1640780317671030016,-0.278100790,0.301447780,9.701991080,-0.062698130,-0.026445090,0.014385580
1640780317673989888,-0.141610700,0.301718860,9.439106940,-0.110423590,-0.006090110,0.020127000
1640780317676059904,-0.107036040,0.084653660,10.022993090,-0.106255710,0.056770440,0.027404730
1640780317678949888,0.113878000,0.107269850,9.902138710,-0.004912910,0.043122470,0.014567370
1640780317681009920,0.186248570,0.234529410,9.959419250,-0.005106630,-0.027972460,0.015003980
1640780317683929856,0.080490990,0.296705010,10.028451920,-0.098171830,-0.007271770,0.036495920
1640780317686220032,0.107978350,-0.017175640,9.520874980,-0.116711850,0.014527140,0.033609570
1640780317689060096,0.093867150,-0.311556940,9.832652090,-0.038036710,-0.020040570,0.018051260
1640780317691049728,0.134696250,0.056410220,9.437269210,0.027941170,0.105080020,0.009357930
1640780317694319872,0.076004180,0.069519370,9.988707540,-0.040161610,0.055831670,0.010132790
1640780317697559808,-0.351987630,-0.134297680,10.733638760,-0.073164710,-0.011946260,0.026929370
1640780317698940160,-0.211613340,-0.194752420,9.117007260,-0.015152990,-0.058600310,-0.001023710
1640780317702119936,-0.294686110,-0.323338750,9.543983460,0.031517450,-0.011847910,-0.003257390
1640780317704059904,-0.330770490,0.086523090,9.527082440,0.017437340,0.151956080,0.003525610
1640780317706009856,-0.168125610,0.046238810,10.253350260,-0.028526780,0.010369720,-0.010398030
1640780317708959744,-0.151919660,0.028418430,10.579768180,-0.008946660,-0.009199980,0.023873150
1640780317711309824,0.208936070,0.069220700,9.074184420,0.038230420,-0.004886090,0.002251570
1640780317713939968,-0.077394750,0.060350170,10.269776340,0.058427460,-0.003251430,0.012436510
1640780317716049920,-0.069992640,0.328495620,9.817012790,0.012388830,0.099511440,0.013996660
1640780317718909952,-0.046316250,0.168231800,10.067632680,-0.021903220,-0.052824630,0.005130470
1640780317720950016,-0.122788670,0.250794500,10.059782980,0.036093590,0.014139710,0.020389260
1640780317723919872,0.096072490,0.453503910,9.223640440,0.026899580,0.030361110,-0.006593760
1640780317726349824,-0.435185760,0.399541110,10.537336350,0.004102290,0.007992980,0.031475730
1640780317729069824,-0.164089050,0.210348960,9.751462940,-0.000275670,0.030542920,0.026594100
1640780317731129856,-0.225250510,-0.028139010,9.958992960,0.035913290,-0.066640980,0.011017920
1640780317734520064,-0.050905850,0.279708980,9.582346920,0.041216620,0.058622660,0.034394860
1640780317736179712,0.230943460,0.174331160,9.755356790,-0.042238840,0.074496870,0.023205580
1640780317738970112,-0.031216610,-0.122801470,10.506283760,-0.011377040,0.042985380,0.036098070
1640780317740989952,0.441675810,-0.028884250,9.372965810,0.060662630,-0.021894280,0.013272460
1640780317744730112,0.030913850,-0.006360730,9.939839360,0.069820900,0.008025770,0.018559400
1640780317746029824,0.018220330,0.184632940,9.326478000,-0.010599200,0.071775910,0.034046180
1640780317749009920,-0.174595430,-0.128815560,10.163585660,-0.028361380,-0.003908570,0.016918780
1640780317750999808,-0.368672700,-0.117935010,9.818341260,0.049096350,0.059527160,-0.002555550
1640780317753899776,-0.072878270,0.230770190,9.384146690,0.088612740,-0.003547970,0.000931320
1640780317756039936,-0.629742320,0.258926450,10.548866270,0.034604970,0.049877180,0.013422970
1640780317758939904,-0.147756490,0.268167380,9.313407900,-0.013306740,0.015163420,0.016085800
1640780317761580032,-0.263619540,-0.033293320,10.263315200,0.033959760,-0.026279690,0.010116400
1640780317764019968,-0.137986290,0.074146580,9.640729900,0.085493920,0.092558570,0.000461940
1640780317766139904,0.164544080,0.394700110,9.851105690,0.063589220,-0.004883110,-0.013700130
1640780317769120000,-0.188002500,0.407207610,10.512628560,-0.018180910,0.033643840,0.016157330
1640780317771100160,0.352425810,0.281430510,9.210978510,-0.025349860,0.005498530,0.012573600
1640780317773959936,-0.000997510,0.081719710,10.279278760,0.064083930,0.008851290,-0.005692240
1640780317776229888,-0.019966380,0.403291790,9.532333370,0.072050090,0.083087380,0.008265680
1640780317780150016,-0.197466120,0.327735070,10.053346630,0.010170040,-0.012442470,0.023400790
1640780317781039872,-0.437365650,0.073425980,10.247588160,-0.036539140,-0.004470350,0.032082200
1640780317784009984,0.021871930,0.149547130,9.026336670,0.015588100,0.002288820,0.018614530
1640780317786119936,-0.108445370,0.152781680,9.922687530,0.042304400,0.079229480,0.009854140
1640780317788889856,0.007757430,0.261229130,9.990924840,0.011472400,0.131051260,0.024202470
1640780317790999808,-0.085832310,0.027503240,10.350663190,0.035411110,-0.043663380,0.015054640
1640780317795249920,-0.038208640,-0.111802500,9.691446300,0.041204700,-0.054152320,0.009980800
1640780317796759808,0.169044730,0.154413660,8.707617760,0.017392630,0.041396910,0.002950430
1640780317799099904,-0.091528240,0.011925890,9.894315720,-0.020010770,0.132259740,-0.003246960
1640780317801029888,-0.073853840,0.020268310,10.583599090,0.031407170,0.083942700,0.001257660
1640780317803930112,-0.113024090,0.079048750,9.981122970,0.099262580,-0.041627890,0.013203920
1640780317806119936,-0.126304940,0.114446300,9.566848750,0.056736180,-0.030012430,0.023403770
1640780317808930048,-0.289880070,0.134122340,9.469854350,0.000779330,0.092183050,0.023943190
1640780317811899904,-0.456652130,-0.041393170,9.908197400,0.002725420,0.049190230,0.005498530
1640780317814089984,-0.347641200,0.152414660,10.258579250,0.062023110,-0.013352930,0.000464920
1640780317816049920,-0.136914150,0.376679240,9.488067630,0.066414480,0.015726690,-0.017730890
1640780317819609856,0.062071700,0.623534260,9.859169960,-0.005172190,0.033225120,-0.002689660
1640780317820999936,-0.060398560,0.624867560,10.362018590,-0.035862620,0.089201340,0.009469690
1640780317823899904,-0.045073030,0.256737380,10.014831540,0.005525350,-0.024530300,0.008918340
1640780317826129920,-0.017506770,0.470316650,9.759943010,0.075210620,-0.060848890,0.019091370
1640780317829069824,-0.002694140,0.566802980,9.172761920,-0.012806060,0.069351480,0.028668340
1640780317831019776,-0.019440290,0.310802370,10.002391820,-0.096379220,0.074850030,0.041858860
1640780317834039808,-0.099192780,0.034707580,10.368856430,-0.040732330,0.048328940,0.026874250
1640780317836079872,0.096332670,-0.082056620,9.704934120,0.050190090,-0.026541950,0.002905730
1640780317838869760,0.071621090,0.249533390,9.620843890,0.031325220,0.030787290,0.021618600
1640780317841049856,-0.170797410,0.169634770,9.790453910,-0.093902650,0.068102780,0.022384530
1640780317844509952,-0.095397250,-0.173441340,9.826842310,-0.068131100,0.015489760,0.029823190
1640780317846129920,0.040700610,-0.084456030,9.361878400,0.025384130,0.038068000,0.002570450
1640780317850200064,-0.118321030,0.229930910,9.719222070,0.040610140,0.063993040,0.009313230
1640780317850999808,-0.184011970,0.252062440,10.012609480,-0.024998190,0.059269370,0.026640300
1640780317854029824,-0.268195840,-0.046459760,10.153060910,-0.058154770,-0.036525730,0.017724930
1640780317856019968,-0.206834540,-0.110451120,9.541424750,0.030156970,0.011536480,0.019496680
1640780317859000064,0.010555650,-0.014148730,9.311966900,0.057911880,0.065831840,-0.010411440
1640780317861989888,-0.292725060,0.165351260,10.326738360,0.014601650,0.089025500,-0.007426740
1640780317864179968,-0.034428310,0.373080520,9.726301190,-0.036641960,0.021371250,0.000451510
1640780317866360064,-0.055141350,0.103611620,10.003309250,-0.030000510,-0.063347820,0.000675020
1640780317868919808,-0.073196620,0.273751470,9.239153860,0.037409370,0.062705580,-0.003142660
1640780317871009792,-0.116144680,0.271310060,9.949569700,0.036694110,0.040936470,-0.017680230
1640780317873949952,-0.526800630,0.345135750,10.792897220,-0.003862380,0.044083600,0.007478890
1640780317876099840,-0.086574800,0.384531650,9.320487020,-0.040750210,-0.047864020,0.000275670
1640780317879020032,-0.143902240,0.188948620,10.051350590,-0.026594110,-0.010588770,0.007157030
1640780317880989952,-0.022230570,0.465241340,9.307900430,-0.009348990,0.133208930,0.007061660
1640780317883940096,-0.029187040,0.313628230,10.282867430,-0.020162760,-0.017784530,0.003972650
1640780317886129920,-0.210481350,0.184911040,10.394867900,-0.004808600,-0.001704690,0.021398070
1640780317889050112,0.237357850,0.281323160,8.827707290,-0.023625790,-0.033986570,-0.006766620
1640780317891059968,-0.145855710,0.337299230,10.295994760,-0.069405140,0.025512280,0.018653280
1640780317894520064,0.122798070,0.360324500,9.392196660,-0.091294970,0.140279530,0.017885870
1640780317897840128,0.121078910,-0.019152220,10.127804760,-0.026060640,-0.020855670,-0.009740890
1640780317900649984,-0.135726480,0.273507800,10.002696990,0.027288500,0.035075840,0.009040540
1640780317901239808,0.070039730,0.218239190,8.952389720,-0.040677190,-0.000622870,-0.006783010
1640780317903960064,-0.472382840,0.026112750,10.282490730,-0.099232820,0.012281540,0.025056310
1640780317905999872,-0.079016730,-0.040235020,9.150387760,-0.071960690,0.077612700,-0.004073980
1640780317909339904,-0.132230760,-0.230130260,10.043115620,0.016306340,0.023651120,-0.020562110
1640780317911150080,-0.104255600,0.260271370,9.941135410,0.013035540,0.110809500,-0.001391770
1640780317913969920,-0.002855010,0.188833550,9.880531310,-0.063216690,-0.010231140,-0.004915890
1640780317916049920,-0.308128390,-0.029430930,10.156070710,-0.072412190,-0.005373360,0.021417440
1640780317918899968,0.000619770,-0.009639480,8.855724330,-0.011640790,0.019665060,-0.005744400
1640780317921009920,-0.396819060,0.068407720,9.985033040,0.025276840,0.040996070,-0.017745790
1640780317924009984,-0.186904550,0.504978660,9.764969830,-0.037688010,0.098378960,-0.016266110
1640780317926299904,-0.283135830,0.487796130,10.418430330,-0.097817190,-0.039364400,-0.016275050
1640780317931160064,-0.253473580,0.290373560,10.017207150,-0.056731700,0.004431610,-0.009751320
1640780317932849920,0.101915090,0.341086240,9.315400120,-0.000025330,0.020362440,-0.020463760
1640780317934119936,-0.422201130,0.464678080,10.383956910,-0.010815260,0.057576600,0.000900030
1640780317936179968,-0.051032000,0.471186880,9.581570630,-0.091005860,0.012174250,0.036230690
1640780317938939904,-0.134424370,0.000245090,10.113592150,-0.104655330,-0.058066850,0.018711380
1640780317941169920,0.161822070,-0.026785990,9.136926650,-0.041008000,0.064095850,0.011570750
1640780317944019968,0.310702950,0.025795010,9.736463550,-0.013141340,0.055503850,-0.002677740
1640780317946820096,-0.044871160,0.011631540,10.396489140,-0.053344670,0.105753560,0.003498790
1640780317948930048,0.206404460,0.035968050,9.771789550,-0.077724460,-0.035114590,0.000017880
1640780317950990080,-0.169924470,-0.155856830,10.110482220,-0.045317420,-0.035883490,-0.003656750
1640780317953879808,0.055032680,0.113999490,8.615878110,-0.034944710,0.078199810,-0.009438400
1640780317956110080,-0.202886850,0.116492080,10.094601630,-0.042566660,0.069767240,-0.007645790
1640780317959059968,-0.342305060,0.094872700,10.173252110,-0.032278900,0.115413980,0.005130470
1640780317961149952,0.011823940,0.251593290,9.523430820,-0.007915500,-0.061559680,0.007894640
1640780317963959808,-0.272375200,0.134846510,10.065664290,-0.038279590,0.034940250,0.027179720
1640780317966129920,0.035426950,0.120143720,9.167152400,-0.053058560,0.095985830,0.014209750
1640780317968979712,-0.290672840,-0.120029720,10.528284070,-0.011153520,0.012767320,-0.011418760
1640780317971059968,-0.196567950,0.151891190,9.706774710,-0.004537400,0.045078990,-0.017222760
1640780317974129920,0.156185020,0.365490730,9.212013240,-0.038194660,-0.006367270,-0.026734180
1640780317976989952,-0.219942140,0.395931780,10.258789060,-0.098429630,0.086252400,-0.012260680
1640780317978950144,0.027905520,0.484310360,9.666388510,-0.064653150,0.058819350,0.006115440
1640780317981599744,-0.276584420,0.258488300,10.434421540,-0.000175830,-0.030598050,-0.000709300
1640780317983919872,-0.216176180,0.566075090,9.579685210,-0.026337800,0.018803770,0.005094710
1640780317986049792,-0.204244390,0.584045650,9.569969180,-0.110381830,0.018772480,0.019647180
1640780317988960000,-0.356707270,0.228237940,10.179337500,-0.152555120,0.066597760,0.028893350
1640780317991149824,0.043054500,0.171735640,9.524472240,-0.065462310,0.029730800,0.001600380
1640780317993929984,0.032622990,0.299354170,9.830462460,-0.020845240,0.021974740,-0.017225740
1640780317996049920,0.210468870,0.543334540,9.651945110,-0.111566480,0.082895140,0.010536610
1640780317998999808,-0.066537160,0.241530660,10.154479030,-0.171765730,0.017285350,0.024802990
1640780318001080064,0.010611610,-0.171583830,9.864077570,-0.113096860,-0.021648410,0.017276410
1640780318003919872,0.167279440,0.007044500,9.129996300,-0.029177970,0.032417480,-0.008599460
1640780318006269952,-0.009930600,0.157307970,9.503723140,-0.085067760,0.125667470,-0.002267960
1640780318010700032,-0.072619120,0.150865110,10.271443370,-0.155375900,0.086165970,0.011667610
1640780318011360000,-0.363643740,-0.188598390,10.218601230,-0.117626790,-0.027883050,0.010366740
1640780318014009856,-0.096399990,-0.222332610,9.129014970,-0.034032770,-0.043606760,0.002209840
1640780318016599808,-0.299653560,0.030831940,9.504478450,-0.038640200,0.098934780,-0.009742380
1640780318019009792,-0.321025550,0.106800510,9.885748860,-0.118014220,0.125323240,-0.011271240
1640780318021060096,-0.207585100,0.160352540,10.450620650,-0.116233540,0.008979440,-0.009456280
1640780318024089856,-0.098942570,0.145341050,9.755200390,-0.072576110,0.010393560,-0.020897390
1640780318026099968,0.094560730,0.375607250,9.265319820,-0.036227710,0.024555620,-0.005792080
1640780318028940032,-0.199179350,0.552188160,10.033093450,-0.080931190,0.072957580,-0.007461010
1640780318031309824,-0.200071560,0.382254870,9.791226390,-0.129239280,0.042216480,0.005771220
1640780318034009856,-0.232769270,0.313092620,9.972574230,-0.091429050,-0.043493510,0.006634000
1640780318036069888,-0.240084040,0.378851060,9.653212550,-0.085179520,0.031638150,-0.014582280
1640780318038980096,-0.104394060,0.539167880,9.559686660,-0.113454450,0.051590800,0.006335970
1640780318040999936,-0.230986700,0.310014190,10.294878010,-0.155910860,0.053603950,0.010082130
1640780318043929856,-0.121901840,0.081853350,9.939323430,-0.113306940,0.004746020,0.001414120
1640780318046180096,0.019751230,0.077123640,9.468476300,-0.061124570,-0.023795660,0.006289780
1640780318048969984,-0.129710760,0.139087100,9.649286270,-0.119993090,0.041385000,0.010767580
1640780318051719936,-0.007193060,0.040035260,9.644303320,-0.158277150,0.048731270,0.018660730
1640780318054019840,0.018434070,-0.195834200,9.824895860,-0.122445840,0.008466840,-0.007537010
1640780318056310016,0.055140210,0.124069820,9.640106200,-0.069186080,0.036492940,-0.008699300
1640780318059020032,0.050113610,0.276668310,9.528947830,-0.086735200,0.042007860,0.004805620
1640780318061029888,-0.252890110,0.080468830,10.218969350,-0.146956740,-0.006216760,0.012327730
1640780318064389888,-0.193636400,0.002078150,9.388201710,-0.096389660,0.003509220,0.014886260
1640780318066069760,-0.137823150,-0.080892500,9.443531990,-0.061313810,0.005368890,-0.011244420
1640780318068989952,-0.316954340,0.243288320,9.988015170,-0.081901260,0.087414680,0.000862780
1640780318071229952,-0.181369780,0.289554480,9.757368090,-0.118215380,0.022761530,-0.013498960
1640780318073929984,-0.269102220,0.052045110,10.379421230,-0.108948350,-0.039771200,0.000166890
1640780318076089856,-0.077861800,0.179900260,9.141251560,-0.054904830,0.023604930,-0.007125740
1640780318078929920,-0.151955130,0.159465360,9.794536590,-0.057314350,-0.010441240,-0.010944900
1640780318081420032,-0.269143040,0.373745590,10.211488720,-0.109228500,0.078219180,0.008316340
1640780318084019968,-0.096775450,0.357285620,9.761446950,-0.161495820,-0.020900370,-0.005301830
1640780318086169856,-0.060242220,0.176137950,10.246360780,-0.106865180,-0.043775140,0.012137000
1640780318090519808,0.165860940,0.360571210,9.094757080,-0.059719390,0.069642070,-0.023072960
1640780318091359744,0.053040010,0.465491770,9.885339740,-0.103807460,0.014853480,0.001129510
1640780318094099968,-0.130601640,0.400321420,10.269657140,-0.142908110,0.063277780,0.025123360
1640780318096049920,0.010148580,0.036609310,9.598170280,-0.136357560,-0.062973800,0.008189680
1640780318099429888,-0.110730530,0.122284680,9.661734580,-0.074842560,-0.026923420,0.027000900
1640780318101270016,0.086118290,0.062305360,9.028629300,-0.117431580,0.098997360,0.005315240
1640780318103989760,-0.079297800,-0.188684120,10.154625890,-0.127516690,0.068219030,0.005179640
1640780318106169856,-0.060434930,-0.023938210,9.991780280,-0.088132910,0.021529200,0.007429720
1640780318108889856,-0.019277730,-0.133397190,9.656399730,-0.080296400,-0.056278710,-0.014281270
1640780318111069952,-0.245153900,0.133251520,9.508802410,-0.102089350,0.033606590,0.000515580
1640780318113979904,-0.149530110,0.068153900,9.409130100,-0.126874450,0.041186810,-0.015425680
1640780318116689920,-0.406340240,0.043478280,10.238962170,-0.072428570,0.050856170,-0.008861720
1640780318119459840,0.025207070,0.370484590,9.364654540,-0.057563190,0.030195710,-0.008687380
1640780318121039872,-0.194114120,0.366221340,10.251646040,-0.102305430,0.000733140,0.007821620
1640780318123950080,-0.092539080,0.331358670,9.603669170,-0.127206760,0.060592600,0.004200640
1640780318126289920,-0.195729870,0.032576270,9.996715550,-0.095851720,-0.049869720,-0.008621810
1640780318128929792,-0.457597790,0.115971100,9.889147760,-0.038580600,0.022205710,-0.001318750
1640780318131079936,0.050925120,0.386064200,9.008788110,-0.092031080,-0.005856160,-0.026543440
1640780318134060032,-0.320536490,0.486072990,10.486998560,-0.185343640,0.056098400,-0.001704690
1640780318137239808,0.089532320,0.364327610,9.463520050,-0.167968880,0.068275640,0.006733830
1640780318138939904,-0.040077730,-0.039724150,10.517736430,-0.052694980,-0.067310040,-0.008432570
1640780318141079808,-0.110969600,0.361250670,9.412611010,-0.014756620,0.025787950,0.001305340
1640780318143919872,0.083696870,0.264941480,9.221814160,-0.132898990,-0.032193960,0.004330280
1640780318146050048,-0.288132220,0.019922620,10.308237080,-0.205127910,0.071448100,0.036121900
1640780318148999936,0.192909230,-0.134086940,9.137855530,-0.135134180,0.042296950,0.001569090
1640780318151279872,-0.104276280,-0.216724470,10.523076060,-0.010760130,-0.030043730,-0.019139050
1640780318153990144,0.037212750,0.281906550,9.217866900,-0.050181150,0.084601340,-0.005462770
1640780318156119808,-0.119065530,0.058385090,9.826235770,-0.151529920,-0.042985390,-0.001776220
1640780318158899968,-0.359390410,-0.144004690,10.140581130,-0.144718590,0.033880770,0.010274350
1640780318161129984,0.114774740,-0.094031630,8.839681630,-0.057189180,0.017242130,-0.023774810
1640780318163970048,-0.301474750,0.038179930,10.351557730,-0.006926060,0.030377510,-0.011074540
1640780318166339840,-0.041104140,0.364592790,9.645409580,-0.080151860,0.100642440,-0.012883540
1640780318169019904,-0.202487540,0.021843320,10.217196460,-0.121094300,-0.071673100,0.007483360
1640780318172420096,-0.187852670,0.002975680,9.696570400,-0.069572030,0.008967520,0.015087430
1640780318174160128,0.079026970,0.112592320,9.210192680,-0.027953090,0.017414990,-0.025314100
1640780318176189952,-0.352288310,0.309515860,10.419514660,-0.051906720,0.069165240,-0.006870930
1640780318178969856,-0.041783640,0.499903680,9.846753120,-0.114494570,0.008092820,-0.012882060
1640780318181139968,-0.154786380,0.137836380,10.151742940,-0.089830160,-0.055547060,-0.006154180
1640780318184059904,0.115243460,0.316801970,9.192502980,-0.039391220,0.034283100,-0.008794670
1640780318186400000,0.065079800,0.454218780,9.853132250,-0.064623360,0.037056210,-0.011940300
1640780318188879872,-0.237679350,0.271374520,10.303167340,-0.101460530,0.078395020,0.015677510
1640780318191059712,0.073832420,0.087208960,9.775299070,-0.090572230,-0.080858160,0.013533230
1640780318193939968,-0.204600720,-0.125765670,9.860920910,-0.041808190,-0.014665720,-0.000676510
1640780318196120064,0.282142760,0.184253480,8.775671010,-0.061163320,0.079189250,0.002259020
1640780318199149824,-0.106445060,0.007203420,10.550202370,-0.108231600,0.066113480,0.010560450
1640780318201459968,-0.032836950,-0.147398960,9.924357410,-0.070278350,0.060223040,0.007192790
1640780318203990016,0.139463370,-0.053891370,9.709033010,0.000786780,-0.094282630,-0.005613270
1640780318206209792,-0.226863940,0.082704510,9.554615970,-0.035563110,0.060503190,0.000341240
1640780318208950016,0.035436530,0.146656290,9.122565270,-0.095511970,0.055278840,-0.019760430
1640780318211049984,-0.326206590,-0.006403360,10.538509370,-0.072875620,0.045575200,-0.030621890
1640780318214069760,0.078831340,0.290559590,9.333518030,-0.020603840,0.059668720,-0.014005600
1640780318216940032,-0.051121700,0.274773360,10.193546300,0.000579660,-0.013574960,-0.007271770
1640780318218989824,-0.259559990,0.259132560,9.966906550,-0.060838470,0.066860030,0.014342370
1640780318221129984,-0.165202650,0.145213260,9.532230380,-0.063428290,-0.042624780,0.019216540
1640780318223939840,-0.462281350,-0.132834670,10.089399340,-0.035114590,0.014290210,0.008454920
1640780318226089984,-0.135407920,0.159343330,9.165132520,-0.013259050,0.051482020,-0.011612480
1640780318229049856,-0.321492550,0.369830160,10.243765830,-0.044974680,0.002187490,-0.026424230
1640780318231200000,-0.148554040,0.432293590,10.025594710,-0.110559170,0.042198600,-0.004319850
1640780318234009856,0.088018690,0.283983680,9.630669590,-0.057645140,-0.017426910,-0.010961290
1640780318236339712,-0.107255580,0.378390220,10.114521980,-0.008559230,0.001481180,-0.007647280
1640780318238880000,0.184416310,0.653760730,9.468111040,-0.048342340,0.029017030,0.015124680
1640780318241079808,0.026720650,0.245187640,9.916884420,-0.117343660,0.011856850,0.022226570
1640780318243980032,0.197901160,-0.007250500,9.778706550,-0.089019560,0.048679120,0.015860800
1640780318246680064,0.149451660,-0.122575260,9.686454770,-0.004413720,0.026668610,-0.003454090
1640780318248940032,0.051371910,-0.013496610,9.720650670,-0.025063750,0.031194090,0.007686020
1640780318251200000,-0.150043120,-0.025983190,9.876325610,-0.082904090,0.026038290,0.018616020
1640780318254279936,-0.287561390,-0.389898180,9.799077030,-0.071662660,-0.000934300,0.003939870
1640780318256140032,-0.039066130,-0.130531310,9.403927800,-0.010725860,0.011643770,-0.013116000
1640780318260539904,-0.180678000,0.134357850,9.738734250,-0.008462370,0.102160880,-0.025542080
1640780318261209856,-0.007901940,0.256160590,10.011919020,-0.050802530,0.074267390,-0.017224250
1640780318264029952,-0.104213440,0.265930590,10.175594330,-0.032149260,-0.020381810,-0.000892580
1640780318266099968,0.056380690,0.089708310,9.213007930,-0.006021560,-0.000992420,0.007313490
1640780318269179904,0.098889960,0.130253940,9.441789630,0.022344290,0.063046820,0.012080370
1640780318271079936,-0.290229410,0.131696430,10.251278880,-0.014168020,0.094512090,-0.000710790
1640780318273969920,-0.177565540,0.259555220,10.121459960,-0.049191710,0.004123150,-0.000450020
1640780318276120064,-0.205123050,0.118435080,9.978835110,-0.035753840,-0.021791460,-0.002843140
1640780318279170048,-0.096043500,0.287491710,9.341156010,-0.009307270,0.050061940,-0.010649860
1640780318281070080,-0.121490630,0.551975730,9.731335640,-0.012418630,0.074724860,-0.003224610
1640780318283910144,-0.252173780,0.346169050,10.248987200,-0.065626200,0.055223700,0.025057790
1640780318286670080,-0.108321650,0.217033790,9.828006740,-0.018161540,-0.028736890,0.023989380
1640780318288989952,0.009697220,0.198869030,9.625141140,0.003649290,-0.011645260,0.010922550
1640780318291139840,0.004033620,0.335743960,9.540477750,-0.058594350,0.082230580,0.019690400
1640780318294509824,0.097908450,0.180951740,9.697307590,-0.082756570,0.079421680,0.017702580
1640780318296550144,0.010302200,-0.083070550,10.341564180,-0.040785970,0.025236610,0.003242490
1640780318298919936,0.099060920,0.149268820,9.388820650,0.022259360,0.003579260,0.012128060
1640780318301110016,0.001250680,0.125693530,9.481249810,-0.033473960,0.002272430,0.016388300
1640780318303959808,-0.249190350,-0.000138710,9.957714080,-0.082886210,0.100372720,0.018367170
1640780318306249984,-0.131436850,-0.165775820,9.564659120,-0.035946070,0.035870080,-0.006587800
1640780318308979968,-0.203471810,0.003842760,10.113845830,0.021830200,0.002332030,-0.010505320
1640780318311519744,-0.095932100,0.368547350,9.316280360,-0.005848710,0.088314720,-0.004139540
1640780318313920000,-0.175406630,0.254328730,9.963771820,-0.074440250,-0.005529820,0.005058940
1640780318316119808,-0.306197110,0.135801320,10.131385800,-0.040775540,0.030042230,0.023029740
1640780318318869760,-0.096969240,-0.035844450,9.280244830,0.015553830,0.009718540,-0.005964930
1640780318321009920,-0.290364000,0.244127170,10.241849900,0.024548170,0.025857980,0.010585780
1640780318324369920,-0.200202930,0.508596660,9.788763050,-0.059917570,0.068539390,0.004304950
1640780318326449920,-0.121434550,0.267665570,10.050129890,-0.111028550,-0.031027200,0.016601390
1640780318331840000,-0.086670030,0.262368230,9.716415410,-0.021293760,0.036673250,0.023959580
1640780318332569856,-0.059816770,0.193407310,9.491438870,0.026507670,0.019355120,-0.006617610
1640780318333999872,-0.215562670,0.521283150,10.140498160,-0.015881660,0.025278330,0.037027900
1640780318336089856,-0.097787400,0.410481540,9.714159010,-0.130350890,0.016260150,0.036139790
1640780318343459840,-0.014690500,-0.066773720,9.984508510,-0.091934200,-0.010833140,0.037233530
1640780318344630016,0.169896710,0.085964640,9.617206570,0.009767710,0.066818300,0.012953580
1640780318345549824,0.033093260,0.257370170,9.893137930,-0.006300210,0.030428170,0.022126730
1640780318346050048,-0.100676410,0.171367140,10.006484030,-0.064644220,0.028839710,0.046265120
1640780318348870144,-0.026366060,-0.142798070,9.627108570,-0.095058990,-0.039149820,0.026503210
1640780318351059968,-0.122420470,-0.222157060,9.522621150,-0.012417140,0.020137430,0.035595890
1640780318353869824,0.139606580,0.017634480,9.255734440,0.001879040,0.095306360,0.012196600
1640780318356230144,-0.183108910,0.131318960,10.587145810,-0.040243570,0.090594600,0.031021240
1640780318360899840,-0.080706560,0.153420970,9.887716290,-0.048457090,0.020404170,0.051213800
1640780318361440000,-0.054721300,-0.129362210,9.875666620,-0.016941130,-0.077770650,0.034123660
1640780318363989760,-0.194297780,0.017646300,9.130078320,0.030861800,0.071850420,0.053900480
1640780318366139904,-0.074237410,0.035132350,9.401741980,-0.005720560,0.051820280,0.025537610
1640780318368919808,-0.433147130,0.093245600,10.780614850,-0.040563940,0.084090230,0.030007960
1640780318371239936,0.008371120,0.216450630,9.503802300,-0.027717650,0.002220270,0.036191940
1640780318374219776,-0.094973210,0.145763640,10.345463750,0.003696980,-0.048294670,0.025863950
1640780318376119808,-0.005598720,0.581607340,9.239806180,-0.011488800,0.115899740,0.036291780
1640780318379059968,-0.002161750,0.387423900,9.906230930,-0.054417550,0.006645920,0.054869060
1640780318381159936,-0.353460370,0.300161690,10.573000910,-0.029739740,0.043529280,0.065237290
1640780318383999744,0.122247000,0.405137570,9.037831310,-0.024169680,-0.030893090,0.050175190
1640780318386089984,-0.148305580,0.402751830,10.145497320,-0.051412000,-0.004626810,0.069533290
1640780318389339904,0.044931300,0.521203220,9.451588630,-0.098754470,0.142578800,0.056777890
1640780318391209728,-0.005969840,0.037668700,10.343379970,-0.074769560,-0.003126260,0.053353610
1640780318393979904,-0.113238740,0.158185240,10.185085300,-0.003729760,0.029854480,0.063684580
1640780318396080128,0.177836210,0.211942760,9.150083540,-0.040963300,-0.005143880,0.036184490
1640780318398939904,-0.256801660,0.241715710,10.117575650,-0.117568670,0.040483480,0.084538760
1640780318401019904,0.094412980,0.050836100,9.265789990,-0.130367290,0.074744220,0.061638660
1640780318404039936,-0.051777090,-0.146361870,10.144883160,-0.024093690,0.023198130,0.049720720
1640780318406659840,0.110141390,0.276882500,9.580330850,0.005526840,0.095039590,0.065061440
1640780318409199872,0.032746810,0.156526550,9.891465190,-0.077918190,0.020360950,0.067768990
1640780318411079936,-0.317310010,-0.054778070,10.315089230,-0.109621890,0.040894750,0.083088870
1640780318414219776,-0.027645010,-0.261105810,9.215132710,-0.049404800,-0.015571710,0.057195130
1640780318416129792,-0.417310270,-0.147551430,9.837976460,0.003188850,0.044015050,0.038993360
1640780318418899968,-0.059708890,0.267179910,9.350755690,-0.041447580,0.123839070,0.037440660
1640780318421720064,-0.375830890,0.155253460,10.741539000,-0.099676870,0.013946000,0.058919200
1640780318425019904,-0.239906760,0.044260000,9.807119370,-0.045357650,0.011916460,0.071296100
1640780318427209728,0.042569230,-0.003995950,9.438861850,0.009740890,-0.049515070,0.055296720
1640780318428910080,-0.332019210,0.163618270,9.878967290,0.009173160,0.110730530,0.076328230
1640780318431039744,-0.019800670,0.337770100,9.677315710,-0.067298120,0.050537300,0.071308020
1640780318433979904,-0.276497450,0.166988800,10.805379870,-0.099779670,-0.017383700,0.079974530
1640780318436209920,0.215412180,0.182122980,8.987985610,-0.033608080,0.024147330,0.067885230
1640780318439030016,0.126345690,0.282783090,9.933294300,0.005491080,0.016523900,0.051732370
1640780318441409792,-0.136703280,0.392742600,10.026785850,-0.035119050,0.123041870,0.087627750
1640780318443919872,0.054965540,0.139874890,9.768533710,-0.067077580,-0.046461820,0.090210140
1640780318446129920,-0.238888800,-0.156807230,10.275419240,-0.034426150,-0.023819500,0.084562610
1640780318448959744,0.258041590,0.011085110,8.554797170,-0.013545160,0.083087390,0.070208310
1640780318451069952,-0.135237810,-0.094062860,10.336536410,-0.033167010,0.062644480,0.064975020
1640780318454690048,-0.196611510,-0.073958710,10.202905650,-0.039607290,0.098600980,0.064480310
1640780318456219904,-0.036110150,-0.075749910,9.646900180,-0.000423190,-0.082728270,0.063395500
1640780318462060032,-0.288059950,-0.009973920,9.843460080,-0.000405310,0.003419820,0.077205900
1640780318462659840,-0.006014500,0.189324920,8.948436740,-0.036945940,0.105191780,0.059627000
1640780318463929856,-0.395364490,-0.047090110,10.586110120,-0.022122260,0.030629340,0.059257450
1640780318466099968,-0.174861640,0.154570300,9.929962160,0.021423400,0.033080580,0.059668720
1640780318468930048,0.134877980,0.281857790,9.394637110,0.024929640,-0.024560090,0.059188910
1640780318471219968,-0.148816850,0.331553070,10.102023120,-0.043512880,0.076931700,0.076425080
1640780318473969920,-0.032232180,0.279721260,9.774858470,-0.047926610,0.042408700,0.069817910
1640780318476179712,-0.361140130,-0.056470880,10.394823070,0.012949110,-0.036972760,0.061330200
1640780318478889984,-0.176707540,0.274712090,9.473998070,0.040650360,0.001913310,0.060829520
1640780318481070080,-0.244889450,0.473694410,9.686965940,-0.023549790,0.014552470,0.052788860
1640780318483889920,-0.288746830,0.412904200,10.157275200,-0.112667680,0.053139030,0.073073800
1640780318486629888,-0.021562780,0.270000790,9.873869900,-0.065204500,0.004082920,0.072857730
1640780318489100032,-0.161311820,0.016890500,10.077438350,0.034683940,-0.012762850,0.061342120
1640780318491089920,0.122008700,0.362543260,9.461879730,0.032539670,0.000418720,0.067955260
1640780318494579968,-0.141097530,0.339729730,9.866209030,-0.085225690,-0.000002980,0.082203730
1640780318496179712,0.115172320,-0.047179180,9.579385760,-0.130945430,0.041967630,0.087194130
1640780318499480064,0.244507800,-0.258462880,9.814052580,-0.022765990,0.022082030,0.060009960
1640780318501109760,0.045293110,-0.029083030,9.868553160,0.053773830,0.044572360,0.046899930
1640780318504079872,0.142845170,0.202093900,9.751603130,-0.007967650,-0.002744790,0.061523920
1640780318506160128,-0.317140580,-0.102812690,10.167028430,-0.093095010,-0.002770130,0.074313580
1640780318509260032,-0.010900140,-0.275935050,9.277820590,-0.043825810,-0.003474950,0.071518140
1640780318511049984,-0.150009050,-0.211653410,9.845105170,0.051100560,0.048403450,0.038947170
1640780318513919744,-0.175615650,0.073954730,9.784607890,0.033298130,0.084707150,0.039480630
1640780318516069888,-0.063388680,0.258383510,10.129364010,-0.014559930,-0.023387370,0.053301460
1640780318518949888,-0.156921830,0.007043560,9.889006610,-0.039964910,0.003695490,0.068053600
1640780318521060096,0.176052480,0.006097050,9.216478350,0.018706920,0.006581840,0.059558450
1640780318524029952,-0.121959670,0.180187900,10.242365840,0.049209590,0.067403920,0.041544440
1640780318526289920,-0.132057040,0.367628130,9.969459530,-0.001978870,0.045436620,0.055095560
1640780318529809920,-0.129918110,0.357548980,10.086679460,-0.034455960,-0.049792240,0.064638260
1640780318531309824,-0.126645130,0.133647700,9.667377470,-0.032354890,0.019787250,0.048160560
1640780318534929920,0.091168220,0.274953100,9.281766890,0.015500190,0.048320000,0.048612060
1640780318537139968,-0.203759890,0.336443750,10.340824130,0.005799530,0.068958100,0.055649880
1640780318539589888,-0.126585740,0.170062900,10.058194160,-0.032703580,0.025048850,0.071521110
1640780318542039808,-0.031383510,-0.041131940,9.828371050,-0.004559760,-0.070105520,0.074134790
1640780318543959808,0.046796560,-0.087880570,9.476272580,0.001840290,0.038382420,0.061969470
1640780318546119936,0.285045530,0.093067620,9.230266570,-0.008100270,0.105915980,0.070653860
1640780318549059840,0.056434650,-0.160512460,10.297900200,-0.017139320,0.086514660,0.061844290
1640780318551099904,0.003158830,-0.130484150,10.127968790,0.022235510,-0.005102160,0.049422690
1640780318553890048,0.076285630,-0.052537790,9.236250880,0.057072940,-0.049468890,0.046466290
1640780318556150016,-0.176650450,0.040805410,9.395201680,-0.007604060,0.053219500,0.040307640
1640780318558969856,-0.253685740,0.143044710,9.687417980,-0.027635700,0.118471680,0.049264730
1640780318561110016,-0.330706920,-0.094765870,10.303850170,0.026619440,0.027006860,0.042451920
1640780318564039936,-0.280067680,0.089353440,9.984615330,0.091296440,-0.015839930,0.056862830
1640780318566299904,-0.024232570,0.147831200,9.140926360,0.062708560,0.025518240,0.053258240
1640780318568940032,-0.208284050,-0.045251860,10.031382560,-0.027747450,0.054246180,0.054484610
1640780318571219968,-0.190656330,-0.102116640,9.940451620,0.017282360,0.073842690,0.045415750
1640780318574169856,-0.070752960,-0.055626690,9.937339780,0.071248410,-0.042216480,0.014206770
1640780318576239872,-0.042302590,0.415638180,9.790599820,0.062330070,0.002114470,0.031524900
1640780318578929920,0.105952680,0.577002820,9.314682010,-0.014631450,0.060059130,0.018797810
1640780318581270016,-0.108771210,0.391573940,10.526218410,-0.045111780,0.046296420,0.052379080
1640780318583989760,-0.214327800,0.292263030,9.983507160,0.057038660,0.028675800,0.064125660
1640780318586079744,-0.127260520,0.194296490,9.698258400,0.090363630,-0.080697250,0.036600230
1640780318588919808,-0.117505620,0.505286510,9.500960350,-0.003854930,0.043590360,0.068572170
1640780318591480064,0.082269360,0.217372430,9.136549950,-0.094388430,0.095078350,0.063993040
1640780318594039808,0.030860970,-0.308557960,10.554343220,-0.022773440,0.067850930,0.046598910
1640780318596219904,0.095900420,-0.063880380,9.811049460,0.120267290,0.046348570,0.031080850
1640780318599069952,0.033184490,0.018445750,9.719422340,0.068710750,-0.076092780,0.031358010
1640780318601049856,-0.153718720,0.181527500,9.579733850,-0.059378150,0.061048580,0.059853510
1640780318603919872,0.018818190,-0.182110090,9.046316150,-0.075830510,0.079144520,0.033321970
1640780318606230016,-0.208612110,-0.209527160,10.402115820,0.063627970,0.047838690,0.017967820
1640780318609040128,-0.045318800,0.367326650,9.507191660,0.121378900,0.055843600,0.009439890
1640780318611559936,-0.023517720,0.392501890,9.646770480,0.004322830,-0.029839580,0.040377680
1640780318614149888,-0.293836650,0.313823010,10.076044080,-0.068172810,0.089190910,0.047898290
1640780318616160000,-0.162017760,-0.126454900,9.543972970,-0.008584560,0.023157890,0.025810300
1640780318619059968,-0.383278250,-0.079545180,10.298563960,0.114999730,-0.021022560,0.035990770
1640780318621090048,0.001372320,0.350813420,9.046519280,0.068189200,0.089226660,0.012251740
1640780318624339712,-0.052351130,0.251222190,10.037199970,-0.061626730,0.029844050,0.024387240
1640780318626129920,-0.067825910,0.226796580,10.199068070,-0.068303950,0.067757080,0.047670300
1640780318629040128,0.209995180,-0.064317730,9.537078860,0.029990080,-0.016561150,-0.003539030
1640780318631119872,-0.113242140,0.283851530,10.100277900,0.112387550,0.003078580,0.026711830
1640780318633889792,-0.065188230,0.578167500,9.273509030,-0.001578030,0.067308550,0.020757320
1640780318636149760,-0.201951250,0.249059830,10.124352460,-0.105005510,0.005418060,0.049656630
1640780318638850048,-0.048768850,0.084510480,9.650172230,-0.047819320,0.071878730,0.052663690
1640780318641520128,0.141029100,-0.107524980,9.433986660,0.070431830,0.035114590,0.006572900
1640780318643950080,-0.006538230,0.171196280,10.046511650,0.080189110,0.074020040,0.027644640
1640780318646870016,0.021392210,0.144397830,9.574712750,-0.044539570,0.051864980,0.021420420
1640780318649029888,-0.186149370,-0.437121180,10.173918720,-0.051724910,-0.033952300,0.024934110
1640780318651140096,0.002259120,-0.304081380,9.187014580,0.047907230,0.046634680,-0.005593900
1640780318653910016,-0.080081140,-0.014266410,9.464425090,0.066487500,0.041683020,-0.013177100
1640780318656359936,-0.298152710,0.231814090,10.233459470,0.013874470,0.111657380,-0.004805620
1640780318660259840,-0.199066560,0.313930960,10.003079410,-0.044395030,-0.006085630,-0.010277330
1640780318661789952,-0.340030790,0.133830090,9.998987200,0.020426510,-0.061333190,0.037042800
1640780318664379904,-0.024029770,0.283600090,8.961296080,0.071339310,0.059929490,0.006137790
1640780318666289920,-0.288911340,0.405056600,10.159947400,0.028739870,0.057710700,-0.002083180
1640780318668890112,-0.341841550,0.463145380,10.283160210,-0.014095010,0.047184530,0.025789440
1640780318671059968,0.071490140,0.145986710,9.750328060,-0.039745870,-0.062146790,-0.001622740
1640780318674180096,-0.004670280,-0.010287880,9.676231380,0.035962470,0.018598140,0.013993680
1640780318676169984,0.217521280,0.158353970,9.163719180,0.060439110,0.065357990,-0.011867290
1640780318678909952,-0.158011820,0.098591300,10.416724210,-0.012239810,0.019043680,0.005313750
1640780318681049856,-0.145354420,-0.019179820,9.676790240,-0.030353670,-0.004652140,0.038665530
1640780318683879936,-0.034643880,-0.486944260,9.670857430,0.032380230,-0.069081780,-0.002492960
1640780318686249984,-0.308421080,-0.090859820,9.582344060,0.088039050,0.053828960,0.003194810
1640780318688989952,-0.117966410,0.153984670,9.315747260,0.019261240,0.033165520,0.001695750
1640780318691769856,-0.437516630,-0.019403770,10.600352290,-0.028033560,0.014859440,0.006690620
1640780318695159808,-0.138864430,0.003107710,9.348895070,0.045891110,-0.024075810,0.007520620
1640780318698020096,-0.104285470,-0.037573480,9.707309720,0.096629570,-0.082947320,-0.004847350
1640780318698979840,-0.249051270,0.262972650,9.613788600,0.064662110,0.076794620,0.007212160
1640780318701129984,-0.023061070,0.164543660,9.654482840,-0.005698200,-0.004091860,-0.008323790
1640780318704009984,-0.414102140,0.030687080,10.818106650,0.009921200,-0.047875950,-0.003322960
1640780318706209792,0.065370750,0.188570690,8.976017950,0.068415710,-0.031970450,-0.012324750
1640780318709420032,-0.085291360,0.208582150,9.914413450,0.069922210,-0.071100900,-0.013563040
1640780318711099904,-0.329343230,0.513253090,9.884166720,0.013087690,0.059606140,0.002233680
1640780318713969920,-0.095823870,0.275594920,9.677438740,-0.027114160,-0.064995880,0.005209450
1640780318716100096,-0.533008990,-0.008526330,10.648297310,0.049152970,-0.088883920,0.013352930
1640780318718880000,-0.039529020,0.321917090,8.746570590,0.087778270,-0.043766200,-0.018040840
1640780318721089792,-0.111415420,0.350355150,9.937272070,0.007306040,-0.056713830,0.008253750
1640780318724400128,-0.052868780,0.307490920,9.885295870,-0.054536760,0.103984770,0.024983290
1640780318728839936,0.202089590,-0.171234310,10.011223790,0.013305250,-0.086972120,0.002563000
1640780318729840128,-0.092438400,-0.185884540,10.283128740,0.123664760,-0.109009460,0.009587410
1640780318731459840,0.231312780,0.153649670,8.426867490,0.067360680,-0.029860440,-0.010848040
1640780318733949952,-0.218267070,-0.070568670,10.191866870,-0.051803890,-0.033494830,0.010810790
1640780318736140032,-0.258239300,-0.113194440,9.693718910,-0.023829940,0.034137070,-0.009104610
1640780318738929920,-0.080462380,-0.071013530,9.670852660,0.086095930,-0.128811610,-0.038412210
1640780318742470144,-0.330405830,0.284298990,10.099783900,0.103521350,-0.019834940,-0.007776920
1640780318744279808,-0.118923870,0.382224620,9.206173900,0.007839500,-0.020429490,-0.012475250
1640780318746179840,-0.480899480,0.004350950,10.741606710,-0.006453690,-0.086660680,0.010108950
1640780318748950016,-0.248618420,0.072124090,9.374658580,0.046874580,-0.030702350,0.000983480
1640780318751089920,-0.109368530,0.128793480,9.471980090,0.082851970,-0.133500990,-0.025682160
1640780318753880064,-0.258401720,0.547334430,10.040265080,0.021535150,0.009964410,-0.020296870
1640780318756219904,0.184561220,0.509468560,9.393729210,-0.064331300,-0.032819810,-0.014357270
1640780318759630080,-0.116435690,0.050383440,10.648081780,0.006374720,-0.096853080,-0.010749700
1640780318761080064,0.110621880,0.277343570,9.355598450,0.090861330,-0.049124670,-0.021509830
1640780318763980032,-0.026803520,0.302585210,9.645154000,0.047822290,-0.132732060,-0.006714460
1640780318766269952,-0.296753500,0.330690120,9.833349230,-0.058747820,-0.008007880,0.007157030
1640780318769289984,0.040837480,-0.159657450,9.315620420,-0.063003600,-0.066801910,-0.005690750
1640780318771200000,-0.199589430,-0.393682300,10.178355220,0.077328090,-0.069426010,-0.012499090
1640780318774139904,0.175819440,0.201273010,9.169569970,0.085285290,-0.030168890,-0.040762120
1640780318777599744,-0.153122280,0.165272800,10.193679810,-0.016270580,-0.084814430,-0.004036730
1640780318780059904,-0.218670440,-0.035603130,9.865438460,-0.060406330,-0.062869500,-0.002840160
1640780318781499904,0.035624870,-0.199257870,9.388123510,0.031612820,-0.124044720,-0.040791930
1640780318783929856,-0.188225060,0.025429490,9.589173320,0.113649670,-0.021953880,-0.021980700
1640780318786190080,0.046225110,0.387728270,9.399473190,0.041660670,-0.010579820,-0.039544710
1640780318788950016,-0.340907630,0.289063420,10.586935040,-0.039353970,-0.087210540,-0.017054380
1640780318791319808,-0.026241590,0.095276180,9.415681840,-0.002600250,-0.108005110,-0.003615020
1640780318795329792,-0.144094470,-0.005523940,9.662916180,0.087928760,-0.117658090,-0.034920860
1640780318796150016,-0.292663780,0.241006340,9.706007960,0.089320540,-0.007081030,-0.036410980
1640780318798949888,-0.097062860,0.329333570,9.755751610,-0.008945170,-0.076799090,-0.033982100
1640780318801090048,-0.408028070,0.157674580,10.542194370,-0.042344630,-0.100797430,-0.037027900
1640780318803939840,0.256218820,0.098021130,9.054504390,0.020349030,-0.095818940,-0.036805870
1640780318806560000,0.043549120,0.203306630,9.911070820,0.080375370,-0.085735310,-0.059790900
1640780318808919808,-0.033775520,0.493790030,9.768480300,0.033104410,0.009840730,-0.030308960
1640780318811209984,-0.005140720,0.285868910,10.067842480,-0.037921970,-0.140747430,-0.006756190
1640780318814149888,-0.303558740,-0.097028590,10.038693430,-0.004486740,-0.146070120,-0.006300210
1640780318816189952,0.335155730,0.083150730,8.445775990,0.049470380,-0.072428590,-0.022336840
1640780318818869760,-0.044109700,0.064790440,10.125928880,0.029979650,0.017175080,-0.016099210
1640780318821209856,0.013454090,0.029294570,9.881414410,-0.001521410,0.027149920,-0.020663440
1640780318824019968,-0.000929420,-0.207901840,10.317583080,0.023318830,-0.183764070,-0.043840700
1640780318826629888,-0.221176270,-0.231302020,9.394661900,0.069685290,-0.118778650,-0.028166170
1640780318829339904,0.108139540,-0.026162560,8.516175270,0.044919550,-0.069783630,-0.048834100
1640780318831130112,-0.321082950,-0.033546880,10.389115330,-0.003556910,0.035452840,-0.050066410
1640780318833890048,-0.074289280,0.021194640,9.758925440,0.029423830,-0.009715560,-0.050218400
1640780318836140032,-0.070166380,0.125879450,10.249065400,0.091125070,-0.188165900,-0.054425010
1640780318839079936,-0.063806600,0.341251250,9.342549320,0.066697610,-0.046643630,-0.033238530
1640780318841199872,0.114865020,0.270258130,9.114217760,0.017640000,-0.062350940,-0.028270490
1640780318843969792,-0.459945560,0.041551220,10.747165680,0.029502810,-0.029626490,-0.035487120
1640780318846210048,-0.047250490,0.198530520,9.333714490,0.071731220,-0.083643210,-0.045448540
1640780318849439744,-0.108869500,0.228362950,9.964838980,0.065721570,-0.149141270,-0.058855120
1640780318851159808,-0.058712730,0.550230150,9.587378500,-0.017020110,0.033693020,-0.051428390
1640780318854099968,0.170617460,0.399933010,9.573453900,-0.032688680,-0.063423820,-0.040575870
1640780318856219904,-0.182328370,0.069836120,10.432105060,0.045534960,-0.064396840,-0.047968320
1640780318863569920,0.235827770,0.303761630,8.981196400,0.093413880,-0.073163200,-0.049340730
1640780318864169728,-0.066964330,0.273226650,9.808482170,0.027865180,-0.095638640,-0.028014190
1640780318864499712,-0.082459870,0.201292840,9.532077790,-0.073792040,0.001727040,-0.018475950
1640780318866079744,0.180647980,-0.094928680,9.492452620,-0.027318300,-0.063274800,-0.044740730
1640780318868880128,-0.069898080,-0.165532310,10.170053480,0.078216200,-0.013323130,-0.046029690
1640780318871239936,0.218527390,0.221531510,9.274096490,0.080525880,-0.035333640,-0.050115590
1640780318873900032,-0.184045240,0.060278030,10.080475810,-0.009739400,-0.076693300,-0.036685170
1640780318876600064,-0.018723920,-0.088560300,9.325836180,-0.041601060,-0.040034950,-0.028386710
1640780318878929920,-0.063713580,-0.197321010,9.395502090,0.054959950,-0.046394770,-0.057858230
1640780318881079808,-0.144491610,0.075095100,9.750996590,0.087980930,0.007002060,-0.065435470
1640780318883940096,-0.052308210,0.442360580,9.733531950,0.032840670,-0.029867890,-0.058256090
1640780318886429952,-0.322134880,0.264818610,10.239309310,-0.031557680,-0.079563250,-0.053660580
1640780318890599936,-0.002886630,0.196626450,9.436811450,-0.000123680,-0.074048340,-0.041048230
1640780318891239936,-0.220275300,0.084317500,9.586682320,0.082235050,-0.037556890,-0.059750680
1640780318897609984,-0.157412220,0.285153390,9.772557260,0.070478020,-0.006340440,-0.061835360
1640780318899780096,-0.201819140,0.423176770,10.064828870,-0.012807550,-0.056616970,-0.043022640
1640780318900859904,-0.116656280,0.111682010,9.751009940,-0.041422250,-0.080128020,-0.029508770
1640780318901209856,0.319667430,0.016840300,9.351259230,0.029206280,-0.043238690,-0.043176110
1640780318904019712,0.049284680,0.161637740,9.871852870,0.078533580,0.013694170,-0.054943560
1640780318906149888,0.188899320,0.313488160,9.839614870,0.028683250,-0.020769240,-0.027932230
1640780318909240064,-0.030644810,0.085728030,10.165012360,-0.032101580,-0.077547130,-0.026880210
1640780318911079936,0.045130810,-0.217989490,9.221937180,0.005604330,-0.063596670,-0.040502850
1640780318913910016,0.156039450,0.015955710,9.199827190,0.064140550,-0.025503340,-0.052438670
1640780318916100096,-0.114297560,0.113808630,9.757958410,0.032846630,0.078780960,-0.052897630
1640780318918939904,-0.028065520,0.116617720,9.844139100,-0.005899370,-0.020629170,-0.036557020
1640780318921139968,-0.273234130,-0.079248440,10.245110510,0.031551720,-0.091847760,-0.037048750
1640780318923909888,-0.083180840,-0.112762860,8.985548020,0.065517430,-0.046350070,-0.039635600
1640780318929809920,-0.147440280,0.077017280,9.409147260,0.062917170,-0.015747550,-0.047570470
1640780318930779904,-0.239398510,0.010532250,9.943760870,0.005604330,0.067655750,-0.053535410
1640780318931229952,0.081750960,0.027003220,9.696926120,0.039272010,-0.037883220,-0.048767030
1640780318934209792,0.011936280,0.058652560,9.903818130,0.074881320,-0.064438580,-0.045470900
1640780318936309760,0.060418360,0.197874260,9.366772650,0.057397790,-0.018262860,-0.051154200
1640780318938959872,-0.039504820,0.240299980,9.703600880,0.033305580,-0.025466080,-0.054214890
1640780318941210112,-0.316848750,0.140338080,10.149587630,0.021231170,-0.004111230,-0.049357120
1640780318944320000,-0.124973680,0.316888180,9.665079120,0.064855810,-0.050124530,-0.055049360
1640780318946159872,-0.124397170,0.463493350,9.749226570,0.043067340,-0.060673060,-0.053991380
1640780318948949760,0.004187630,0.636337580,9.438045500,-0.008164350,0.013686720,-0.027167800
1640780318951340032,0.116778290,0.372789980,9.567991260,-0.012493130,0.010950860,-0.018587710
1640780318953939968,-0.007863160,0.054547270,10.157831190,0.037455560,-0.016249720,-0.019899010
1640780318956199936,0.171919700,0.178995550,9.385795590,0.081582380,-0.052250930,-0.018142170
1640780318959439872,0.145853030,0.093521890,9.512660980,-0.010813770,-0.030089910,-0.024844710
1640780318961109760,0.119049330,-0.019654220,9.621308330,-0.066974770,0.064422190,-0.016781690
1640780318964019968,0.101044960,-0.314356770,9.708444600,0.016103680,0.012283030,-0.049608950
1640780318966650112,0.013373480,-0.093742440,9.928504940,0.102143000,-0.041225560,-0.050751860
1640780318968910080,0.018242730,0.373835440,8.978133200,0.046716630,0.000546870,-0.033967200
1640780318971129856,-0.180608270,0.149618540,9.773712160,-0.066748270,-0.007623430,-0.020453330
1640780318973959936,-0.247461890,-0.009698140,9.876761440,-0.021986670,0.042313350,-0.019268700
1640780318976529920,-0.174488590,0.067606890,9.459476470,0.082254400,-0.027251240,-0.051809850
1640780318978880000,-0.180673300,0.393672020,9.972498890,0.073464220,0.004841390,-0.040662290
1640780318981220096,-0.104696180,0.532506170,9.440988540,-0.030827530,0.044177470,-0.027613340
1640780318983939840,-0.081324560,0.272140200,9.807162280,-0.062279400,-0.045922390,-0.007820130
1640780318986109952,-0.012900080,0.139435720,9.664124490,0.016167760,0.015828010,-0.019125640
1640780318988899840,0.063359610,0.129280980,9.331690790,0.054819880,-0.005207960,-0.044603650
1640780318991499776,-0.082078780,0.456970360,10.125793460,0.023660060,0.004319850,-0.016632680
1640780318993919744,-0.073320280,0.296466620,9.729046820,-0.088159750,0.022165480,-0.013241170
1640780318996209920,-0.003279600,-0.117673900,9.590819360,-0.051805380,-0.054335590,-0.004054610
1640780318999150080,0.028065590,0.100643490,9.316399570,0.043986740,0.025933980,-0.024689740
1640780319001099776,0.032044420,0.237559690,9.378179550,0.020001830,0.039461250,-0.016249710
1640780319003909888,-0.140370800,0.184820740,10.005264280,-0.037910050,0.021077690,0.014701490
1640780319006209792,-0.251650600,-0.159957630,9.869393350,-0.047624110,-0.062862050,-0.012242800
1640780319008960000,-0.140158770,-0.124016510,9.270411490,0.027793650,-0.060628360,-0.009953980
1640780319012229888,-0.050854970,0.157890230,9.071303370,-0.002074240,0.051355360,-0.024956460
1640780319013979904,-0.231855710,0.164504160,10.131162640,-0.051210830,0.067159540,-0.022403900
1640780319016649984,-0.059146770,0.156673610,9.969961170,-0.007267300,-0.022763010,-0.005625190
1640780319018869760,0.145636350,0.109935270,9.624333380,0.020702180,-0.091686830,-0.008460880
1640780319021119744,0.071719430,0.340727300,9.297386170,0.013695660,0.047382720,-0.004918870
1640780319023919872,0.040120620,0.255061600,9.654498100,-0.051072240,0.029033420,-0.002887850
1640780319026789888,-0.335017590,0.230132130,10.448556900,-0.048874320,-0.016522410,-0.000321870
1640780319029009920,0.020989770,0.323402290,9.065902710,-0.003731250,-0.047832730,-0.010219220
1640780319032120064,-0.060157840,0.258425000,9.666080470,-0.014270840,-0.027342140,-0.024552640
1640780319033870080,-0.074934150,0.647498970,9.388195040,-0.045600530,0.086258360,-0.004436080
1640780319036130048,0.055755320,0.239141900,9.937665940,-0.086928900,-0.003556910,0.013552610
1640780319038879744,-0.166458610,-0.133178100,10.381229400,-0.013124940,0.000014900,0.036823740
1640780319041149952,0.128684360,-0.095857980,8.970796590,0.048735740,-0.055588790,0.012563170
1640780319043929856,0.043877080,-0.044470940,9.629906650,-0.023885080,-0.014327470,0.027912860
1640780319046399744,0.196733090,0.037738540,9.021183970,-0.119523720,0.141370330,0.015330320
1640780319049039872,0.098156770,-0.308890700,10.224741940,-0.064712760,0.007197260,-0.006493930
1640780319051139840,-0.085011470,-0.010437540,10.123099330,0.072266160,-0.026954720,0.000956650
1640780319053989888,0.135828420,0.395948710,8.642843250,0.025282810,-0.058409580,-0.009109080
1640780319056279808,-0.344392780,0.448086350,9.952486990,-0.091317300,0.035028160,0.024947530
1640780319064029952,-0.377112720,0.167000070,9.643349650,-0.107437380,0.099919740,0.015988950
1640780319064920064,-0.470647070,-0.108078910,10.192828180,0.032255050,-0.077697640,-0.007721780
1640780319065399808,-0.368190710,0.383614150,9.609037400,0.077530750,-0.009574000,-0.004564230
1640780319066109952,-0.105997150,0.365770130,9.051218030,-0.054799030,0.002546610,0.001920760
1640780319068869888,-0.202342120,0.245152590,10.051794050,-0.124026850,0.030569740,0.043506920
1640780319071139840,0.157384660,-0.001299550,9.623975750,-0.063002090,0.033997000,0.025902690
1640780319073900032,0.001588780,-0.135727170,10.224252700,0.053113710,-0.058569020,0.028169160
1640780319076589824,0.176159580,0.399828610,9.366874690,0.034226470,-0.018732250,0.018376110
1640780319078899968,0.133223180,0.370046140,9.496809960,-0.122506930,-0.012236840,0.028240680
1640780319081159936,0.082296500,0.075510790,9.565933230,-0.126467650,0.066986690,0.056593120
1640780319083869952,0.196935190,-0.082483870,9.616607670,-0.000636280,0.001083310,0.011257830
1640780319086230016,-0.202735750,0.202957120,10.040452000,0.072824960,-0.016556680,0.021937490
1640780319088889856,0.023893220,0.420480880,8.865274430,-0.040778520,0.006246570,0.038763880
1640780319091269888,-0.431722040,-0.042824590,10.303058620,-0.135302560,-0.010366740,0.043743850
1640780319094679808,-0.284809110,-0.244958670,9.380867960,-0.038383900,0.055280330,0.014942880
1640780319097959936,-0.094992040,-0.146784780,9.507409100,0.050361450,-0.059340890,-0.005634130
1640780319100809728,-0.286212770,0.230469020,9.796654700,0.019538400,0.093780460,0.008402770
1640780319101369856,0.110764320,0.169775530,9.355361940,-0.082401950,0.006487970,0.022700430
1640780319103960064,-0.239769790,-0.155393330,10.586622240,-0.061845790,-0.045600540,0.049032280
1640780319106139904,0.082402480,0.031990520,8.876461980,0.024884940,0.017927590,0.044164070
1640780319108950016,-0.050526360,0.004637770,9.977893830,0.045995410,-0.042541330,0.027842820
1640780319111709952,-0.326451300,0.384374830,9.984273910,-0.022670630,0.084233280,0.039067860
1640780319113900032,0.052003200,0.340123710,9.537502290,-0.081786510,-0.063022980,0.025013090
1640780319116139776,-0.204859760,0.141760860,10.298453330,-0.037507720,-0.018006570,0.041134660
1640780319118939904,0.194534150,0.494976910,8.709873200,0.010852520,0.031997260,0.015932320
1640780319121129984,-0.058842140,0.365052580,10.168719290,-0.004604460,-0.013574960,0.052431230
1640780319123929856,-0.141811030,0.181278230,9.829464910,-0.050483660,0.074426830,0.077359390
1640780319126729984,-0.009644330,-0.208128900,9.685483930,-0.020799040,-0.104063750,0.055031490
1640780319131119872,-0.109506820,-0.241165490,9.768120770,0.022926930,-0.010710950,0.069901350
1640780319131759872,0.250437800,-0.113793000,8.724689480,-0.019823020,0.094376530,0.045116260
1640780319133920000,-0.220490380,-0.279088170,10.587531090,-0.027766820,0.029104950,0.033350280
1640780319136299776,-0.057495470,-0.127099130,9.731945040,0.020639600,-0.014255940,0.043630600
1640780319139799808,0.158148290,-0.063686300,9.082405090,0.044354790,-0.094659620,0.026653710
1640780319141159936,-0.162119450,0.225241350,9.678943630,0.005108120,0.076362490,0.051632520
1640780319144089856,-0.071331930,0.200059940,9.746859550,-0.026631360,0.048767030,0.045846400
1640780319146649856,-0.428745630,0.058910180,10.454048160,0.032521780,-0.049829480,0.038249790
1640780319148900096,0.090508540,0.487782480,9.095353130,0.045758490,-0.019162890,0.032824280
1640780319151089920,-0.141543000,0.523683130,9.616921420,-0.014330450,0.008748470,0.037844480
1640780319153859840,-0.109040430,0.536953270,9.672676090,-0.054702170,0.056077550,0.060138110
1640780319156179968,0.095047190,0.271600190,9.887340550,-0.026214130,-0.010748210,0.058726970
1640780319158939904,-0.213777690,-0.092837340,10.081525800,0.052829100,0.007027390,0.056806210
1640780319161720064,0.098687390,0.179622620,9.263311390,0.056006010,-0.048512220,0.046783690
1640780319163960064,-0.283734080,0.161609110,9.959748270,-0.055673720,0.003150110,0.051106510
1640780319166230016,0.099191320,-0.055205860,9.148264880,-0.104652350,0.056849420,0.058500470
1640780319168920064,0.023413650,-0.132687360,10.055329320,0.005953010,-0.007146600,0.035591420
1640780319171289856,0.034486940,0.086779680,9.546587940,0.081872950,0.045593080,0.041919950
1640780319175799808,0.281158750,0.342882960,9.229571340,0.011469420,-0.010092560,0.052458050
1640780319176479744,-0.349558620,0.017763610,10.498235700,-0.065541270,0.025385620,0.073982780
1640780319179970048,-0.012743420,-0.269686190,9.153668400,-0.003425780,-0.024664400,0.059117370
1640780319181149952,-0.177105490,-0.180286680,9.698844910,0.073204940,-0.048375130,0.028420980
1640780319183929856,-0.147730290,0.188664270,9.356449130,0.021296740,0.136421590,0.016935170
1640780319186159872,-0.142299460,0.279138300,10.059968950,-0.036676230,-0.007914010,0.023168330
1640780319188920064,-0.356774570,0.091600630,10.391053200,-0.020937620,-0.051233180,0.048606110
1640780319191190016,0.214930710,0.137763020,8.721330640,0.042709720,-0.011089440,0.049169370
1640780319194959872,-0.120941970,0.031011200,10.066132550,0.064760450,0.030860310,0.047339500
1640780319196460032,-0.099449320,0.234322910,10.015002250,0.007699430,0.091372430,0.060984500
1640780319198919936,-0.055247210,0.147798880,10.108089450,-0.024458770,-0.062929100,0.052472960
1640780319201120000,-0.149780290,-0.088351330,9.918016430,-0.005827850,-0.034235420,0.037314000
1640780319203939840,0.148200290,0.303852890,8.882531170,0.034438070,0.012527410,0.020064410
1640780319207190016,-0.024398410,0.368034960,9.814132690,0.008419160,0.044693050,0.036272410
1640780319208930048,0.104652100,0.286397250,9.858068470,-0.030422220,0.084090230,0.061534350
1640780319211249920,0.093095560,0.013931150,10.010805130,0.022101400,-0.041551890,0.065430980
1640780319214169856,0.012903680,-0.153425380,9.799949650,0.044968730,-0.024846200,0.065782670
1640780319216159744,0.002841400,-0.055243400,9.230950360,0.018537050,0.030474370,0.056001550
1640780319219970048,-0.238026220,-0.319824760,9.803277020,-0.007711350,0.040726370,0.020241740
1640780319221149952,-0.147231280,-0.209105550,9.757186890,0.024181600,0.016117100,0.015406310
1640780319223919872,-0.068706480,0.065877440,9.352981570,0.062726450,0.011304020,0.011421740
1640780319226199808,-0.077950910,0.159556120,9.911437030,0.023821000,0.035396220,0.032293800
1640780319229600000,-0.094862300,0.157572520,10.085918430,0.022968650,0.031387810,0.053490700
1640780319231119872,-0.143299590,0.011207180,9.863840100,0.061330200,-0.017435850,0.041835010
1640780319233949952,-0.080275000,0.278995100,9.840602870,0.068195160,-0.005371870,0.033587220
1640780319236259840,-0.125967670,0.494969640,9.489776610,0.021360820,0.044280290,0.021116440
1640780319238919936,-0.069787060,0.565602960,9.766080860,-0.034543880,-0.010292230,0.031654540
1640780319241119744,0.099195190,0.439639300,9.780341150,0.000001490,0.046215950,0.042177740
1640780319244339968,0.081648840,0.178865780,9.584307670,0.060388460,0.017389660,0.030894580
1640780319246249984,0.024412420,0.339988530,10.077574730,0.066752740,-0.007823110,0.053824490
1640780319249289984,-0.079541220,0.182362420,9.681274410,-0.034579630,0.040844090,0.052811210
1640780319251190016,-0.087973930,-0.348745610,9.803968430,-0.059810280,-0.020882490,0.057876110
1640780319254129920,-0.099158100,-0.376785580,9.767711640,0.059564420,0.033864380,0.020390750
1640780319256310016,0.085263870,-0.150508640,9.142461780,0.083293010,0.035174190,-0.012311340
1640780319258919936,0.001730150,0.239512410,9.923894880,0.008058550,0.066992640,0.021106010
1640780319261629696,-0.154618700,0.087420970,10.056664470,-0.052607060,0.041888660,0.026389960
1640780319263949824,-0.112080630,-0.138589580,9.864716530,0.041209160,-0.091232380,0.042641160
1640780319266229760,-0.120987830,0.105147440,9.354682920,0.112207220,0.017005200,0.030618910
1640780319268979968,-0.119226780,0.164496780,9.494384770,0.044666220,0.089669220,0.002190470
1640780319271139840,-0.293434260,0.324530510,10.357915880,0.000721220,0.041311980,0.024823840
1640780319273880064,-0.094845560,0.236453460,9.798707960,-0.006373230,-0.041680040,0.012658540
1640780319276679936,0.047176730,0.182830320,9.408651350,0.050704180,-0.022539500,0.013014670
1640780319278889984,0.040836860,0.362424640,9.492877010,0.075598060,0.056700410,0.013497470
1640780319281149952,-0.036922450,0.264558140,10.141803740,0.030100350,0.034040210,0.029246510
1640780319283899904,-0.085921200,0.159891220,10.168226240,0.006751720,0.007730720,0.041565290
1640780319286579968,-0.041083530,-0.090607280,9.765474320,0.019814080,-0.052329900,0.026553870
1640780319288960000,-0.039980270,0.035991780,9.485335350,0.062114000,-0.003558400,0.017932060
1640780319291200000,0.217813860,0.192005660,9.008935930,0.017312170,0.066152220,0.013206900
1640780319294519808,0.020457400,-0.009278200,10.181263920,-0.002667310,0.070419920,0.026057660
1640780319296489984,0.069448190,-0.055556780,9.933963780,0.079692900,0.023946170,0.031772260
1640780319300069888,0.077737560,-0.007994620,9.801504140,0.080353030,-0.083985920,0.018954280
1640780319301209856,-0.180524590,0.147166480,9.600647930,0.027991830,0.035317240,0.035990770
1640780319304069888,-0.013932200,-0.159427550,9.308867450,0.002422930,0.052507230,0.006361310
1640780319306219776,-0.337688680,-0.272746320,10.380157470,0.080321740,0.020103160,-0.006669760
1640780319309299968,0.033588490,0.222330570,9.051582340,0.128492730,0.022771950,-0.003583730
1640780319311179776,0.131118480,0.160932730,9.747331620,0.050191580,-0.013899800,0.003021960
1640780319313880064,-0.152968360,0.140884380,10.016338350,0.014849010,0.083494180,0.032876420
