timestamp,accel_x,accel_y,accel_z,gyro_x,gyro_y,gyro_z
0.000000000,-0.137941150,0.473914860,9.408524510,-0.062832240,-0.033958260,0.011603540
0.001230001,-0.091767940,0.551072300,9.976452830,-0.059515240,-0.030635300,0.016000870
0.001660109,0.362305070,0.717674490,9.444912910,-0.073693690,0.061018770,0.027935210
0.004500151,0.410116880,0.685229660,10.008270260,-0.071150060,-0.019623340,0.034125150
0.006760120,0.213246050,0.587436970,10.346481320,-0.107230250,-0.007253890,0.045666100
0.009570122,0.449216930,0.440593390,9.115859990,-0.137172650,-0.040814280,0.054264070
0.011970043,0.010715950,-0.050723780,10.137529370,-0.092160710,-0.024612250,0.039120020
0.014620066,0.001796740,-0.099227490,9.374203680,-0.044146180,0.081983210,0.029292710
0.016990185,-0.077864310,-0.169183180,9.742667200,-0.067993980,-0.034229450,0.018946820
0.019540071,-0.344371080,-0.155909970,10.186100010,-0.108382110,0.041350730,0.018718840
0.021680117,-0.115482400,0.096368830,9.119890210,-0.126539170,-0.013695660,0.021441280
0.024570227,-0.446792630,0.020936960,10.360111240,-0.096647450,-0.049573180,0.024534760
0.026780128,-0.092007080,0.203931630,9.208015440,-0.056992470,0.059963770,0.004209580
0.029700041,0.175283920,0.216918190,9.445554730,-0.021067260,-0.025464590,0.009649990
0.031750202,0.084507470,0.193053810,10.296990390,-0.039806960,0.089445710,0.028397140
0.035720110,0.517949460,0.253476680,9.286673550,-0.097420810,0.035828360,0.028565530
0.037810087,0.108240590,-0.079441620,10.558424950,-0.093413900,-0.071531530,0.031256680
0.039530039,0.129530160,-0.166084960,9.197690010,-0.032652910,0.028216840,0.008511540
0.041810036,0.125233690,-0.185610800,9.037179950,0.011400880,-0.032196940,-0.008784240
0.044900179,-0.400615220,-0.315365020,10.519338610,-0.004291530,0.096263010,0.002743300
0.046770096,-0.146032260,-0.184495120,9.468013760,-0.020988280,0.053860240,0.003346800
0.050020218,-0.450059950,-0.036806540,10.569284440,-0.016717610,-0.095558170,0.010548530
0.051770210,-0.440874790,0.292650610,9.571054460,-0.042861700,0.031049550,0.009126960
0.054450035,-0.107144940,0.509188060,9.128019330,-0.030472880,-0.020337100,0.005616250
0.056830168,-0.377780110,0.584966300,10.661359790,0.001588460,0.026489790,0.005987290
0.059480190,0.225268210,0.628752950,9.214914320,0.001405180,0.045950710,0.012648110
0.062100172,0.446410300,0.450415850,9.927879330,-0.004081430,-0.032758720,0.025436290
0.065210104,0.190928380,0.520442310,10.367298130,-0.050722060,0.088338560,0.021031500
0.067400217,0.400685910,0.320807490,9.383591650,-0.105184320,-0.010555980,0.032478570
0.069480181,0.095173980,-0.099456540,10.117511750,-0.064240400,-0.066697600,0.036123390
0.072970152,0.052895300,-0.365746860,9.159788130,0.026504690,0.065290920,-0.001296400
0.074580193,0.112175000,-0.319781900,9.332669260,0.062131890,0.038057570,-0.006069240
0.077840090,-0.467326310,-0.098062960,10.654185300,-0.014752150,0.055223700,0.013726950
0.079520226,-0.236644220,-0.156995580,9.594026570,-0.104686610,0.005750360,0.017923120
0.083870173,-0.238732530,-0.095907840,9.835682870,-0.018504260,-0.084596880,0.016620760
0.084980011,-0.391720290,0.151512590,9.566230770,0.065724550,0.046496100,-0.019000470
0.086720228,0.158916990,0.283740760,8.965818410,0.061422600,0.060017410,-0.012233860
0.089610100,0.001641430,0.383033870,10.445735930,0.033193830,0.042204560,0.008071960
0.091740131,0.235767660,0.288110080,9.801328660,-0.022029870,0.052955740,0.016053020
0.094790220,0.475429090,0.083558160,9.506729130,0.004896520,-0.051508850,0.039133430
0.096850157,-0.125504940,0.004989700,10.199628830,0.045166910,0.024372340,0.017260020
0.099920034,0.124433350,-0.116710910,9.172748570,0.053185240,0.041097400,0.008825960
0.102170229,-0.196881520,-0.148913670,10.037659650,0.085651860,-0.029546020,0.010021030
0.106220007,-0.387734410,-0.175505150,10.062052730,0.045938790,0.074729330,-0.004652140
0.107380152,0.015352260,0.122882310,9.406852720,0.039592390,0.005362930,-0.003100930
0.109690189,-0.630790650,0.412518140,10.770778660,0.036706030,-0.027167800,0.000864270
0.112210035,-0.140761000,0.593855020,9.219084740,-0.020295380,0.039833790,-0.003016000
0.114960194,0.135584700,0.645218430,9.432957650,0.040735310,-0.039939580,0.008578600
0.116940022,-0.148491280,0.566024070,10.410538670,0.073759240,0.095653540,-0.000123680
0.121540070,0.566230830,0.623289470,9.041939740,0.037518140,0.056995450,0.011187790
0.122390032,0.107775670,0.366941990,10.582036970,-0.003986060,-0.052064670,0.036843120
0.125230074,0.166269420,0.046124250,9.655838010,-0.045949230,0.068408270,0.022022430
0.127340078,0.359282910,-0.144365740,9.153572080,0.026699900,-0.040501360,0.013694170
0.129510164,-0.342074870,-0.312509480,10.583350180,0.065234300,0.042694810,-0.006696580
0.131820202,0.134498420,-0.352120340,8.916743280,0.050881510,0.088332600,-0.030091400
0.136870146,-0.251353590,-0.205396030,10.166125300,0.070898230,-0.053282090,-0.019298500
0.137520075,-0.523781480,0.138860760,9.954658510,0.011932850,0.066930060,-0.008463860
0.139590025,-0.015401080,0.275853780,8.926060680,-0.020128480,-0.037685030,-0.008292490
0.141970158,-0.453501940,0.334339800,10.536763190,0.059388580,-0.004105270,-0.008176270
0.146730185,0.030094850,0.478438380,9.088248250,0.090315930,0.095021710,-0.028502940
0.148650169,0.145286410,0.431330590,9.891330720,0.102491680,-0.023894010,-0.017274920
0.152300119,-0.121684500,0.433081950,10.520334240,0.040820240,0.064629320,-0.000499190
0.153120041,0.280761720,0.206537840,9.207890510,-0.014878810,-0.029663740,-0.006476050
0.154489994,-0.128831040,0.035542060,10.173252110,0.025866930,-0.072146960,-0.007432700
0.157190084,-0.177756860,0.102516970,9.403393750,0.043429440,0.074552000,-0.037668640
0.159960032,-0.055993590,-0.040465040,9.812715530,0.073620680,-0.011701880,-0.038731100
0.161770105,-0.535097360,0.224759760,10.753067020,0.066272910,0.011561810,-0.024415560
0.165000200,-0.185862030,0.302896110,9.348186490,-0.007925930,-0.030966100,-0.030596550
0.166950226,-0.109672850,0.353592400,9.802925110,-0.002151730,-0.060455500,-0.004182760
0.171070099,-0.342657740,0.636201320,10.013877870,0.028686230,0.065335640,-0.011290610
0.174550056,0.000767590,0.546867010,9.708107950,0.016225880,-0.016546250,-0.020034610
0.175460100,0.058297310,0.573428270,10.146059040,0.035062440,-0.056986520,-0.003512200
0.180170059,0.277854740,0.463991550,9.489070890,0.009657440,0.025205320,-0.037990510
0.180700064,0.456902650,0.409221740,9.622187610,-0.026474890,0.019051130,-0.014936920
0.181740046,-0.069993530,0.329046930,10.392889980,-0.039483610,-0.005261600,0.000712280
0.184530020,0.115532360,-0.133662330,9.613611220,-0.031438470,-0.043153760,-0.019748510
0.187310219,0.029446690,-0.269888820,9.601048470,0.064586100,-0.053781270,-0.006689130
0.189590216,-0.444854620,-0.272325580,9.838780400,0.073882920,0.027199090,-0.035093720
0.191890001,-0.115877990,-0.257153780,9.467685700,-0.010113420,0.017809870,-0.042852760
0.194560051,-0.358568010,0.098928110,10.150654790,-0.016763810,-0.043791530,-0.028191510
0.197090149,-0.192946370,0.183297200,9.635309220,-0.020703670,-0.000736120,-0.039057430
0.199540138,0.105652560,0.338303210,9.497782710,0.043234230,-0.010985140,-0.036723920
0.201870203,-0.331970240,0.462988620,10.459868430,0.088931620,-0.028346480,-0.039878490
0.205050230,0.203615920,0.332961290,9.332713130,0.041043760,-0.019560760,-0.046531860
0.206870079,0.146591690,0.224700320,9.684273720,0.041450550,-0.042510030,-0.017724930
0.210480213,-0.010726120,0.070692170,10.104468350,0.010907650,0.045350190,-0.011652710
0.211830139,0.288918580,0.023636990,9.638471600,0.027340650,-0.029601160,-0.017350910
0.214610100,-0.292040530,0.101114880,10.462942120,0.059241060,-0.088259590,-0.013957920
0.217670202,-0.155199660,0.110413200,9.394957540,0.016973910,-0.001695750,-0.040337440
0.219490051,-0.233354960,0.010008940,9.881973270,0.051636990,-0.052762040,-0.038751960
0.223500013,-0.583507780,0.164685590,10.500545500,0.082017480,-0.010745230,-0.039090220
0.224590063,-0.007450490,0.365934130,9.336470600,0.046645110,-0.024794050,-0.033134230
0.226840019,-0.204892290,0.551421520,10.232242580,0.021170080,-0.073458250,-0.019389390
0.229460001,0.011241290,0.856960000,9.718758580,-0.039015720,0.024589900,-0.010532140
0.231840134,0.335226890,0.638966800,9.687489510,-0.016431510,-0.046198080,-0.018520660
0.234490156,-0.005702260,0.429226610,10.472387310,0.050613290,-0.041018440,-0.015863780
0.237170219,0.383494500,0.277776870,9.098811150,0.068852310,-0.017200410,-0.033934410
0.240280151,0.136802630,-0.015272810,9.966872220,0.037108360,-0.046047570,-0.026601550
0.241780043,-0.114880790,-0.022346360,9.888359070,-0.042672450,0.046008830,-0.002387170
0.245570183,-0.000646300,-0.350355420,9.762759210,-0.060534480,-0.051875420,-0.014659760
0.246770144,-0.381595160,-0.452791660,10.386430740,0.064851340,-0.066564970,-0.020916760
0.249650002,-0.179448750,-0.103645350,9.010752680,0.111368280,-0.020726020,-0.049178290
0.251870155,-0.166093410,-0.084946390,9.783742900,0.062260040,-0.022794310,-0.044852500
0.256370068,-0.263185650,0.132938070,10.108439450,0.020276010,0.055047860,-0.015051660
0.258450031,0.028456540,0.223434970,9.792181970,0.037947300,-0.079561780,-0.027342140
0.259480000,-0.034684930,0.314041760,10.147085190,0.088992710,-0.071047250,-0.019377470
0.261770010,0.089868970,0.664514840,9.187584880,0.058218840,0.005993250,-0.019365550
0.264560223,0.058337100,0.364398810,10.098028180,0.033159550,-0.037460040,-0.021736330
0.266849995,0.007814180,0.288824590,10.051946640,0.060646250,0.006307660,-0.011630360
0.269659996,0.171649140,0.234152510,9.536269190,0.082080070,-0.049909950,-0.027431550
0.271750212,-0.052148450,0.075151380,10.397660260,0.059111420,-0.032244620,-0.021779540
0.275400162,-0.235721330,0.263808670,9.725000380,0.021958350,-0.016562640,-0.018392510
0.282170057,-0.279960600,0.147746280,9.974664690,-0.000777840,-0.101347270,-0.025708970
0.283940077,-0.333632980,0.076437790,9.957901000,0.052617490,-0.022332370,-0.018782910
0.286070108,-0.110133140,0.397837820,9.426239010,0.096009680,-0.009374320,-0.032077730
0.287630081,-0.108596940,0.544024470,10.404792790,0.040115420,-0.035730000,-0.019626320
0.288280010,0.065303650,0.650967000,9.674682620,-0.028608740,-0.014165040,-0.008586050
0.289470196,0.218020990,0.557967960,9.783993720,-0.024592880,-0.076393790,-0.015574700
0.291810036,0.090892430,0.426579920,10.190145490,0.032632050,-0.011882180,-0.019948190
0.294550180,0.160894740,0.390673040,9.348385810,0.050982840,-0.042203070,-0.017252570
0.296810150,0.182265220,0.095808570,9.937702180,0.011950730,-0.050427020,-0.028859080
0.299670219,0.134169550,-0.029480290,9.648733140,0.001654030,0.049018870,-0.023593010
0.301880121,-0.074570370,-0.011865060,9.853336330,0.000441070,-0.048901150,-0.014269350
0.304510117,-0.294453170,-0.038415600,10.296501160,-0.012701750,-0.069156290,-0.017867980
0.307280064,-0.278941750,-0.099646740,9.299986840,0.027532880,-0.056436660,-0.028543180
0.309540033,-0.285757660,-0.038159510,9.672748570,0.068779280,-0.048127760,-0.034491710
0.311860085,-0.313832670,0.087285610,9.999679570,0.064887110,0.044173010,-0.030849880
0.314590216,-0.099173970,0.228417710,9.868057250,0.029167530,-0.025545060,-0.014217200
0.316850185,-0.079551860,0.318632510,10.426391600,0.013718010,-0.089572390,-0.009745360
0.320110083,-0.003717650,0.385548110,9.496972080,0.015883150,-0.046870100,-0.014956290
0.321720123,0.156588600,0.481982050,9.430994030,0.030149530,-0.057137020,-0.013895330
0.325210094,-0.088525130,0.377337160,10.391662600,0.057253250,0.007647280,-0.023551290
0.326719999,0.057640550,0.317835810,9.931842800,0.056083500,-0.027972460,-0.015383960
0.329460144,0.119604370,0.331363350,10.051637650,0.038470330,-0.111076230,-0.007258350
0.332030058,-0.136085970,0.265409590,9.901806830,-0.002236660,-0.023894010,-0.023999810
0.334480047,-0.082749460,0.484040950,9.512950900,-0.023844840,-0.039465720,-0.007511680
0.336820126,-0.356448830,0.507128120,10.454611780,-0.017033520,-0.080665950,-0.008943680
0.339520216,-0.171337310,0.289895420,9.742959980,-0.009983780,-0.029721860,-0.025352840
0.342180014,0.154112200,0.328274760,9.464070320,0.055190910,-0.061081350,-0.019864740
0.344720125,-0.137461560,0.387151360,10.415636060,0.034435100,-0.004167850,-0.021155180
0.346850157,0.230935560,0.422900080,9.533854480,-0.076690320,-0.013425950,0.004899500
0.349820137,0.122469750,0.232519540,10.119777680,-0.087174760,-0.123150640,0.013244150
0.352540016,0.081604670,-0.063859780,9.828827860,0.001102690,-0.011049210,-0.016441940
0.354480028,0.396606420,0.029790970,9.022745130,0.082527110,-0.033544000,-0.034765900
0.356920004,-0.138695960,0.073513670,10.579406740,0.037741660,-0.021564960,-0.033049280
0.359990120,0.167209830,0.039261020,9.533001900,-0.063107920,0.033150610,-0.017611680
0.361820221,0.025945990,0.029018930,9.956319810,-0.022366640,-0.094583630,0.002862510
0.365500212,-0.500525410,0.086642680,10.421887400,0.015981500,-0.033529100,-0.022043290
0.366710186,0.055651520,0.331577180,8.724988940,0.019639730,-0.045099860,-0.023519990
0.369720221,-0.402498070,0.288616930,10.445785520,0.030104820,-0.051561010,-0.023755430
0.371710062,-0.113748270,0.330749720,9.812623980,-0.006963310,0.082528590,-0.036960840
0.374580145,0.217343170,0.370545510,9.808609960,0.020590420,-0.098378960,-0.016689300
0.378320217,-0.227551160,0.392830430,10.886261940,0.006388130,-0.037884720,-0.022657220
0.379640102,0.351613610,0.591219900,8.855750080,-0.048580770,-0.012251730,-0.018277770
0.382210016,-0.033936710,0.480927350,10.246730800,-0.032974780,-0.113077460,-0.003062190
0.384580135,-0.065395470,0.310325710,10.067710880,-0.016896420,0.060507660,-0.023283060
0.387690067,0.313061620,0.383215190,9.446867940,0.014092030,-0.047624120,-0.022900110
0.389440060,-0.311559710,0.446371820,11.069588660,-0.013610720,-0.062465660,-0.000360610
0.391910076,0.066408330,0.401860650,9.217756270,-0.108534110,0.015953180,-0.022792810
0.394600153,-0.058189790,0.431594670,9.752769470,-0.075767940,-0.107286870,-0.019264220
0.397240162,-0.460648270,0.426476930,10.418507580,-0.042229890,0.010900200,-0.013007230
0.399630070,0.156202970,0.299155770,8.851484300,-0.042760380,-0.026908520,-0.026957690
0.401800156,-0.065839630,0.138751020,10.441182140,-0.019182260,-0.054998700,-0.015683470
0.404560089,0.135471480,0.138609530,9.735746380,-0.046445440,0.076933210,-0.025805830
0.407050133,0.362411590,0.117269590,9.684503560,-0.073280940,-0.063098970,-0.014753640
0.409450054,-0.136420060,0.107935750,10.749757770,-0.099393730,-0.043627620,-0.004240870
0.411900043,0.262354550,-0.037415470,8.905890460,-0.067464990,-0.013762710,-0.024871530
0.414670229,0.023912380,-0.101050340,9.879212380,0.031176210,-0.058439370,-0.039471680
0.417050123,-0.241599560,0.164764960,9.867063520,0.007997450,0.078660250,-0.030961640
0.419640064,0.120202860,0.154384910,9.580948830,-0.071638820,-0.023010370,-0.027288500
0.421770096,-0.295832190,0.207653270,10.844190600,-0.069946050,-0.040429830,-0.003409390
0.424540043,-0.158802550,0.272633790,9.544738770,-0.049181290,-0.010581310,-0.026251380
0.431349993,-0.069491050,0.269317270,9.731340410,0.010256470,-0.074195870,-0.031031670
0.432270050,-0.422037660,0.403428880,10.282871250,0.009973350,0.037918990,-0.033253430
0.432870150,0.006897310,0.369934530,9.501101490,-0.047023590,-0.015524030,-0.036597260
0.434480190,0.045350050,0.338622240,10.105051040,-0.058190530,-0.058647990,-0.000669060
0.443260193,0.050464970,0.473592670,9.737035750,-0.074414920,0.032582880,-0.026702880
0.443950176,0.294265060,0.565663870,9.884229660,-0.072895000,-0.023150440,-0.023102770
0.444370031,-0.081800240,0.623767910,10.491497990,-0.069560130,-0.026880210,-0.000338260
0.444860220,0.096903940,0.223303960,9.623086930,-0.072336200,-0.041736670,-0.028444830
0.447200060,0.238443080,0.007976710,9.620491980,-0.004914400,-0.022348760,-0.021030010
0.449570179,-0.126156550,0.130454330,9.867897990,-0.016999240,0.045779350,-0.019675490
0.451750040,0.114478940,-0.026118510,9.743698120,-0.115837180,0.009474160,-0.009275970
0.454540014,-0.072692260,-0.047791960,10.171363830,-0.102272650,-0.027978420,0.004997850
0.456750154,-0.166423750,-0.071756750,9.679124830,-0.031982360,-0.051948430,-0.027763850
0.459820032,0.009017700,0.015748960,9.452617650,0.010107460,-0.016194580,-0.044015060
0.462120056,-0.295506950,0.294391540,9.977869030,-0.019101800,0.037632890,-0.027079880
0.464590073,-0.082861320,0.190227450,10.084177970,-0.079114740,0.001810490,-0.014501810
0.466770172,-0.011347660,0.208950650,10.086729050,-0.035659960,-0.034920870,-0.006374720
0.469560146,-0.182806910,0.357184170,9.713903430,-0.020559130,-0.046488640,-0.008812550
0.471830130,0.108529560,0.225289630,9.510031700,-0.035677850,-0.021202860,-0.014106930
0.475310087,-0.099560310,0.276303500,9.957502370,-0.013253090,0.020769240,-0.014719370
0.478820086,-0.037840980,0.194293600,9.998880390,-0.028541690,-0.023508070,-0.015337770
0.481920004,0.102213540,0.158940120,10.033101080,-0.029194360,-0.024119020,-0.013625620
0.483220100,-0.161581380,0.401917520,10.033477780,-0.047792500,-0.017914180,-0.019223990
0.486110210,-0.083408520,0.486082020,9.874385830,-0.100591790,-0.049830970,-0.009825830
0.487460136,-0.103370680,0.463684740,9.757177350,-0.078181920,-0.011536480,-0.015062090
0.489570141,-0.096311670,0.432056100,9.783529280,-0.032137340,-0.001639130,-0.028359900
0.494340181,0.009213810,0.422927560,10.018878940,-0.005851690,-0.011873250,-0.017325580
0.495210171,-0.007324450,0.439115790,9.774835590,-0.050383810,-0.010386110,-0.007699430
0.497200012,0.156878190,0.268526910,9.715110780,-0.136870130,-0.017224250,0.014218690
0.499469995,0.100846320,0.120661710,10.013465880,-0.084456800,0.010125340,0.014361740
0.503470182,0.049437490,0.077119370,9.714935300,-0.041124230,-0.022901600,-0.002551080
0.504600048,0.181869390,0.086422760,9.664212230,-0.041954210,-0.022274250,-0.018285210
0.506850004,0.077230280,-0.010786190,9.799703600,-0.049960610,0.051578880,-0.022356210
0.509960175,0.117823270,0.086432690,9.868189810,-0.061595440,0.024846200,-0.019037730
0.516490221,-0.261810840,0.114490850,10.453057290,-0.068147480,-0.015337770,-0.016759340
0.517480135,-0.277258460,0.157411460,9.616074560,-0.078314550,-0.037890670,-0.016114120
0.518330097,-0.202312190,0.114463750,9.446805000,-0.040735310,-0.045844910,-0.020769240
0.519470215,-0.348397250,0.139523180,9.785088540,-0.003305080,0.060188780,-0.022818150
0.521830082,0.018229290,0.242589860,9.771369930,-0.033745170,0.053681440,-0.015932320
0.524930000,-0.131211460,0.248583410,10.825462340,-0.045172870,-0.025184460,-0.009380280
0.526960135,-0.015504450,0.277836470,9.987881660,-0.062224270,-0.021375720,-0.015081470
0.529560089,0.119615120,0.356326670,9.395985600,-0.065144880,-0.080028170,-0.028704110
0.531710148,-0.308269830,0.326298240,10.137099270,-0.023914880,0.016759340,-0.035296390
0.534510136,0.004600790,0.457747040,9.594833370,-0.025558470,0.035108630,-0.035530330
0.536810160,-0.136686300,0.460528430,10.354503630,-0.036682190,-0.059558450,-0.014561420
0.539650202,-0.250934690,0.406634660,10.236210820,-0.094668570,-0.001007320,-0.024440880
0.542090178,0.135733140,0.477379920,9.468838690,-0.102145950,-0.033953780,-0.012986360
0.548430204,-0.383762660,0.307087840,10.736001970,-0.057326250,-0.035969910,-0.012840330
0.549160004,-0.131496890,0.316939770,9.643836020,-0.058916210,0.011636320,-0.018391010
0.549670219,0.162624120,0.232196060,9.540559770,-0.052435700,-0.088475640,-0.012739000
0.551860094,-0.160205990,0.241491120,10.348362920,-0.068086390,0.041840970,-0.014749170
0.554600000,0.261377690,0.432259980,9.479398730,-0.131240500,0.031046570,-0.009101630
0.557430029,-0.177852380,0.194711640,10.778120040,-0.118878480,-0.093294670,-0.005264580
0.560270071,-0.101719730,0.184668080,9.749368670,-0.069209940,-0.026352700,-0.019291050
0.561770201,0.282000420,0.202138890,8.822789190,-0.022323430,-0.055715450,-0.015980010
0.564650059,-0.222589160,0.082773530,10.430468560,-0.054919720,0.050064930,-0.006878380
0.566970110,0.163876100,0.096350290,9.647637370,-0.117124620,0.078399480,0.002257530
0.569460154,-0.015976620,-0.126195770,10.482076640,-0.078955290,-0.111332520,-0.001782180
0.571930170,-0.227931260,-0.063964840,9.975223540,-0.036033990,-0.029873850,-0.018334390
0.574970007,0.217602150,0.084427030,8.655277250,-0.034347180,-0.020228330,-0.024063890
0.576850176,-0.341942730,-0.108442770,10.456919670,-0.032962860,0.017730890,-0.028634080
0.580470085,-0.046488070,0.065650490,9.603701590,-0.040492420,0.074869400,-0.029714410
0.581720114,0.067640850,0.111642340,10.009405140,-0.014473500,-0.082093480,-0.008472800
0.584460020,-0.282992150,0.040760960,10.455724720,-0.028440360,-0.000204150,-0.006084140
0.586810112,0.161406580,0.271773280,9.036952970,-0.033231080,-0.009797510,-0.014072660
0.589540005,-0.283109490,0.088633010,10.354047780,0.000354650,-0.066903240,-0.011667610
0.592010021,-0.132928310,0.109954160,9.574860570,0.002348420,0.052462520,-0.021310160
0.594480038,0.082075420,0.272210960,9.764216420,0.021119420,-0.053003430,-0.027185680
0.597100019,-0.412581680,0.211279840,10.837669370,-0.009992720,-0.007517640,-0.021392110
0.599539995,-0.008670190,0.459347310,9.278191570,-0.063529600,-0.027877090,-0.021256510
0.602100134,-0.255344390,0.436877190,10.268436430,-0.037311020,-0.093692540,-0.022950770
0.604570150,-0.208969700,0.448635730,9.784032820,-0.011436640,0.043892860,-0.016854710
0.607720137,0.157473770,0.641917470,9.464985850,-0.005857650,-0.036358830,-0.017170610
0.609500170,-0.132906360,0.454633740,10.605606080,-0.039967890,-0.014100970,0.011983510
0.611750126,0.212681800,0.406894650,9.466917990,-0.078859910,0.007922950,0.003206730
0.614530087,0.002214970,0.340855510,10.186149600,-0.050774220,-0.085791940,0.007501240
0.620370150,-0.216309380,0.142187790,10.027389530,-0.063066180,-0.012375420,0.004343690
0.621750116,0.187474980,0.006257380,8.994215970,-0.030596560,-0.039255620,-0.003030900
0.622350216,-0.097658400,-0.143951390,10.218626980,0.002054870,-0.001725550,-0.020609800
0.625240088,0.139145140,0.083568220,9.563939090,-0.045523050,0.069975860,-0.017559530
0.627290010,0.023376750,0.115208820,10.217492100,-0.067499290,-0.063115360,-0.010576840
0.629600048,-0.201650840,-0.036656660,10.344947810,-0.063470010,-0.037682050,-0.006730850
0.631820202,0.095342960,0.027730220,8.910935400,0.007942320,-0.053535410,-0.016954540
0.634580135,-0.290426790,0.022693220,10.003623010,0.051632520,-0.008258220,-0.019283590
0.639840126,-0.082024200,0.057452440,9.627522470,-0.003857910,0.082470480,-0.014747680
0.641380072,-0.063199340,0.023162320,10.251073840,-0.017228720,-0.062537180,0.002594290
0.642390013,-0.223676070,-0.024024560,10.335305210,-0.003622470,-0.037230550,0.000540910
0.646780014,0.118156220,0.097918630,8.968246460,0.008755920,-0.052696470,-0.021940470
0.647630215,-0.203449700,0.170179380,10.141819950,0.044432290,-0.026604530,-0.019219520
0.649550200,0.036788320,0.258591120,9.663897510,0.009861590,0.064894560,-0.026796760
0.651840210,0.040949220,0.173867260,10.058508870,0.030802190,-0.056108840,-0.007921460
0.654900074,-0.204283580,0.120948070,10.423525810,0.049038240,-0.023855270,-0.007839500
0.656750202,0.049269400,0.288174360,9.308121680,0.028942520,-0.034533440,-0.031386310
0.659530163,-0.470295820,0.387498020,10.461707120,0.018790360,-0.066353370,-0.010497870
0.661800146,-0.280059340,0.426553850,9.657295230,-0.022931400,-0.001664460,-0.010624530
0.666750193,0.086700350,0.350026280,9.470004080,0.014030940,-0.053043660,-0.025787950
0.667610168,-0.095151510,0.515910860,10.468816760,0.048805770,0.035585460,-0.020912290
0.669490099,0.274716970,0.660265150,9.560850140,-0.017771120,0.022055210,-0.020553170
0.681430101,0.062705310,0.328517650,10.434234620,-0.046843290,-0.099821390,-0.004757940
0.682240009,0.051075970,0.177664560,9.674758910,-0.008104740,-0.015109780,-0.002545120
0.684260130,0.173839930,-0.046061680,9.151794430,0.041869280,-0.047636030,-0.033231080
0.685980082,-0.252315820,-0.094061990,10.280802730,0.046636160,-0.006325540,-0.029112390
0.687350035,0.118871660,-0.039631280,9.323669430,-0.017306210,0.047866990,-0.032964350
0.688590050,-0.007288970,-0.108431070,10.251853940,-0.011539460,-0.047625590,-0.029203300
0.689800024,-0.298101720,0.178147480,10.186873440,0.008140500,0.005061920,-0.020754330
0.691200018,-0.024120930,0.273892700,9.262349130,0.005395710,-0.074774050,-0.037539010
0.691750050,-0.341311160,0.149911460,10.124196050,0.040732330,-0.040191420,-0.034835930
0.695660114,-0.130431950,0.345327080,9.138751030,0.055690110,0.035749380,-0.040243580
0.697250128,0.008659990,0.221008090,10.036444660,0.042259690,-0.036510830,-0.030176350
0.699550152,-0.097382120,0.195415940,10.519569400,0.019378960,0.038009890,-0.003664200
0.702520132,0.228826700,0.284837840,9.610157010,0.006549060,-0.046595930,-0.025688110
0.704590082,-0.115368220,0.157758470,10.357714650,0.009605290,-0.078059730,-0.025627020
0.706850052,-0.039826880,0.365914880,9.206830980,0.023825470,0.013874470,-0.040842600
0.709930182,-0.057817410,0.362534170,9.838988300,0.026357180,-0.048939890,-0.066582860
0.712530136,-0.322858540,0.436317320,10.441644670,0.017574430,0.019286570,-0.044859950
0.714550018,-0.009327030,0.629336830,9.480968480,-0.024048980,-0.033679600,-0.040695070
0.716810226,-0.248505220,0.422512260,10.594833370,-0.032414500,-0.059814750,-0.039798020
0.719690084,-0.244234790,0.485732970,9.861024860,-0.014707440,0.005175170,-0.016622240
0.721810102,-0.089233040,0.320558280,9.656230930,-0.003668670,-0.092968350,-0.010058280
0.725110054,-0.047887920,-0.073673690,9.889329910,0.004804130,-0.005845720,-0.015951690
0.726820230,0.385422140,0.062969920,8.925239560,0.016336140,0.037978590,-0.027456880
0.729480028,0.146222900,-0.011914720,10.566823010,-0.008957090,-0.003382560,-0.028377780
0.731870174,0.139375610,0.007568880,10.135775570,-0.057241330,0.013309720,-0.020408630
0.739400148,0.220900160,0.051254890,9.536963460,-0.014427300,-0.119699560,-0.041896100
0.740080118,-0.142021130,-0.037934480,10.001452450,0.044488910,-0.010424850,-0.066693130
0.740620136,-0.039005080,0.222229380,8.949690820,0.042811040,0.061893470,-0.049802660
0.742110014,-0.381383960,0.200834420,10.446829800,0.013403590,-0.034154950,-0.026910010
0.745820045,-0.377934900,0.012821160,10.079290390,-0.011309980,0.017467140,-0.019903480
0.750400066,-0.138090880,0.064078850,9.224563600,0.045098360,-0.109994430,-0.014378130
0.752080202,-0.459634240,-0.005348660,10.284706120,0.054685770,-0.011147560,-0.032435360
0.752610207,0.100012210,0.073227870,9.105001450,0.026914480,0.059027980,-0.042979420
0.754559994,0.031492160,0.094788510,10.446211810,0.050736960,-0.047984720,-0.043952460
0.756830215,0.058394450,0.083447510,10.247942920,0.040283800,0.040854510,-0.041158500
0.759460211,0.332798660,0.152181300,9.294016840,0.051359840,-0.073598330,-0.040066250
0.762350082,-0.343776170,0.186551960,10.678270340,0.066885360,-0.066836190,-0.043870510
0.764510155,-0.134428190,0.319393250,9.066168790,0.024208430,0.000989440,-0.048916040
0.766930103,-0.271685600,0.302826400,9.765787120,0.046496090,-0.100268450,-0.031514470
0.769740105,-0.413215670,0.394445660,10.427898410,0.061368940,0.063093010,-0.037136670
0.774760008,0.090462820,0.711939870,9.445894240,0.035727030,-0.008852780,-0.029927500
0.783080101,-0.283780490,0.752305750,10.847130780,-0.010174510,-0.103335080,-0.014567380
0.784920216,0.079837150,0.661434230,9.362135890,-0.062602760,0.007797780,-0.032149260
0.785500050,0.162190940,0.396602600,9.552149770,0.025019050,-0.075027350,-0.038933770
0.785970211,-0.236329940,0.268836770,10.619401930,0.070734330,0.000303980,-0.037691000
0.786350012,0.366423430,0.105745700,8.958908080,0.013388690,-0.007088480,-0.044755640
0.786880016,0.102043230,-0.075179140,10.243141170,-0.022579730,-0.053590540,-0.024531780
0.789660215,-0.015112240,0.017499380,10.002499580,-0.058862570,0.071562830,-0.023812060
0.791800022,0.169496540,-0.060173750,9.561985970,-0.017744300,-0.078004600,-0.037989020
0.794640064,-0.305061190,-0.045785050,10.346762660,0.050801050,-0.060482330,-0.038355590
0.796790123,0.009876910,0.139420960,8.880897520,0.047154730,0.027580560,-0.071980060
0.803470135,-0.127470270,0.195687520,9.870891570,0.038500130,-0.017590820,-0.046299400
0.804800034,-0.390867140,0.296592770,10.331291200,-0.024245680,0.055585800,-0.030122700
0.805390120,-0.012127790,0.261442660,9.736672400,-0.020311770,-0.069119020,-0.045347210
0.808760166,-0.236111210,0.103862980,10.176669120,0.054162740,-0.083252800,-0.028829280
0.816350222,0.025659670,0.141996370,9.045486450,0.059689580,0.035028160,-0.052747140
0.816970110,0.079577200,-0.000559740,9.905756950,0.050176690,0.004136560,-0.048457090
0.817400217,0.003527970,0.008133040,10.394441600,0.034734610,0.045642260,-0.036273900
0.817920208,0.138824150,0.008035900,9.867866520,0.027357040,-0.063058740,-0.051334500
0.819490194,-0.160991430,0.069286250,10.116249080,0.039097660,-0.078631930,-0.052815680
0.821820021,-0.227065010,0.332320600,9.471206670,0.023584070,0.009332600,-0.058256100
0.824480057,-0.448716700,0.271323380,10.281251910,0.052212180,-0.041612980,-0.067143150
0.827140093,-0.403098400,0.340261490,10.055154800,0.072175260,-0.000996890,-0.041359670
0.829490185,-0.084499450,0.416088430,9.574107170,0.063668190,-0.046375400,-0.045256320
0.831930161,-0.199298160,0.485305400,10.321271900,0.036896760,0.006197390,-0.023870170
0.836890221,-0.000193800,0.644849900,9.719573970,-0.026279690,-0.009942060,-0.011251870
0.837550163,-0.020279840,0.416727420,10.172491070,-0.022602080,-0.102466330,-0.031906360
0.839800119,0.170831730,0.201212660,9.665950780,0.059719380,0.005660950,-0.038547810
0.841820002,0.263479500,0.291890380,9.508162500,0.094480820,-0.013181570,-0.065976380
0.848930120,-0.194768950,0.266678210,10.725298880,0.031057000,-0.012896960,-0.043186550
0.849700212,0.102685700,0.235925030,9.483592030,-0.057905920,-0.026166440,-0.022991000
0.850030184,-0.188197060,0.021619470,9.966978070,-0.015684960,-0.117698330,-0.028724970
0.851870060,-0.171782990,0.083131680,9.604233740,0.051274900,0.030846900,-0.032949450
0.854490042,0.138216700,0.184653860,9.179086690,0.073364380,-0.000262260,-0.040091570
0.856830120,-0.174447430,0.109377590,10.671743390,0.038424130,-0.002624090,-0.047463180
0.860430002,0.252106880,0.281244580,9.474736210,-0.005966430,0.030308960,-0.025737290
0.864800215,0.007340460,0.075968470,10.165828700,0.014616550,-0.086639810,-0.028134880
0.865590096,-0.326135670,-0.013176920,10.200402260,0.051988670,-0.001004340,-0.037617990
0.867240191,0.026297450,0.115584230,8.930994990,0.084683310,-0.059972700,-0.055621560
0.869780064,-0.427360560,-0.021932450,10.128256800,0.083290050,-0.025975700,-0.047265000
0.871890068,-0.009774390,0.114451100,9.443223950,0.029489400,0.098128630,-0.025166580
0.874600172,-0.008811210,0.122619940,10.433907510,0.041425240,-0.046318780,-0.019143520
0.881280184,-0.393139390,0.157670360,10.716034890,0.073005260,-0.036916140,-0.026877220
0.882400036,0.133652940,0.492851940,8.927414890,0.058588390,-0.091178720,-0.044420360
0.883810043,-0.290699900,0.476066440,10.013268470,0.044558950,-0.030370060,-0.044611100
0.884470224,-0.141811770,0.522670270,9.792314530,0.038276610,0.082321450,-0.045441090
0.886930227,0.009234880,0.583899560,10.250928880,0.066272920,-0.064308940,-0.041487810
0.889490128,-0.250157560,0.380702880,10.487228390,0.049158930,-0.045673550,-0.027506060
0.891800165,0.239275630,0.504828510,9.161460880,0.011245910,-0.025479500,-0.019437080
0.894840002,-0.174966590,0.309778960,10.383489610,0.013916190,-0.030955670,-0.018012520
0.896960020,-0.091762840,0.134027780,9.832888600,0.012771790,0.008597970,-0.014097990
0.899620056,0.222676750,0.104750010,9.558044430,0.061900920,-0.070931000,-0.032041960
0.902130127,-0.095903770,-0.008008380,10.111565590,0.059734290,0.028096140,-0.047960880
0.904860020,0.166116890,0.301619320,9.553273200,0.000090900,0.019632280,-0.028027600
0.906800032,-0.272779110,0.163139490,10.673724170,-0.018455090,-0.066010660,-0.018410390
0.910090208,-0.075475890,-0.049919380,9.646728520,0.023749470,-0.029526650,-0.036950410
0.914250135,0.093601570,0.119767910,9.286516190,0.124871730,-0.044529130,-0.034360580
0.914990187,-0.186612800,0.213233500,9.985555650,0.096431370,0.067062660,-0.028720500
0.916820049,0.315582040,0.213951650,9.537088390,-0.007033350,0.055064270,-0.009527800
0.920320034,-0.035099420,0.162002700,10.682487490,0.021548570,-0.030648710,-0.000423190
0.921900034,-0.017398360,0.057507530,9.709577560,0.057064000,-0.021062790,-0.030978030
0.924730062,0.082666030,0.124874030,9.240536690,0.106532870,-0.070776040,-0.043439870
0.926940203,-0.382829790,0.134346890,10.002870560,0.089469550,0.065188100,-0.048065180
0.929470062,-0.018366850,-0.007258530,9.606151580,0.059464570,0.053016850,-0.049516550
0.932050228,-0.296358500,0.052918560,10.471169470,0.095184150,-0.039032100,-0.006268920
0.934480190,-0.152862490,0.177555560,9.750929830,0.066372750,0.008863210,-0.024576490
0.936910152,0.048717400,0.240320710,9.624708180,0.064395380,-0.024828310,-0.008016820
0.941790104,-0.360645620,0.390526320,10.186274530,0.086018440,0.018018480,-0.020267070
0.942570210,0.073053330,0.343778400,9.550925250,0.080971420,-0.001838800,-0.035128000
0.947280169,0.019021040,0.398889010,10.043816570,0.119714440,-0.011031330,-0.019615890
0.948470116,-0.150057730,0.578840200,10.107807160,0.072476280,0.045028330,-0.047887860
0.950190067,-0.055593160,0.690527020,10.159433360,0.008639690,-0.025458630,-0.025790930
0.952190161,-0.325453850,0.663095180,9.967913630,0.004559760,-0.048379610,-0.008489190
0.954470158,-0.082605900,0.467420220,9.551911350,0.040039420,-0.013829770,-0.037662690
0.956920147,-0.030958930,0.459305670,9.853033070,0.093105440,0.038664040,-0.006562470
0.959480047,-0.097081650,0.313481420,9.996642110,0.053589050,0.019273160,-0.005997720
0.962190151,0.108546850,0.156064030,10.228393550,-0.001232330,-0.004857780,-0.010651350
0.964980125,-0.062722820,0.168760910,9.947280880,-0.006935000,-0.005993250,0.012008850
0.966840029,-0.143917310,0.086132970,9.823207860,-0.003832580,-0.058245660,-0.008164350
0.969530106,-0.040466090,0.024464710,9.694234850,0.035095210,-0.004436080,-0.011889630
0.972210169,0.125646410,0.048305910,9.244341850,0.086197260,0.056119260,-0.022089480
0.975590229,-0.001741700,0.135270730,10.399005890,0.074666750,0.044469540,-0.022140150
0.976880074,-0.010050110,0.318558570,10.198641780,0.020159780,0.035502020,0.005507470
0.979590178,0.069193500,0.227308900,9.745996480,-0.011886660,-0.080175680,0.010494890
0.981850147,-0.136731730,0.060974950,9.912393570,0.047630080,0.002098080,-0.002214310
0.984490156,0.028902820,0.210772290,8.793091770,0.108598170,0.057062510,-0.016580520
0.986920118,-0.147474560,0.156123940,10.229426380,0.092078750,0.016376380,-0.013254580
0.989790201,-0.162295970,0.066238490,10.275282860,0.046451390,0.090275700,0.011575220
0.991870165,-0.005334140,0.008366220,9.801494600,0.040528180,-0.062045470,0.002396110
0.994590044,-0.380046160,-0.047910360,10.453100200,0.077509890,-0.036232170,0.000917910
0.996980190,-0.023913570,0.192192910,8.886754990,0.092752280,0.057995330,-0.010737780
0.999580145,-0.155719520,0.291281880,10.158688550,0.088419040,-0.013378270,-0.011534990
1.002240181,-0.216491310,0.443886400,10.255618100,0.059613590,0.085529690,0.003747640
1.004820108,0.221379710,0.504539370,9.412657740,0.055474040,-0.036606190,0.003920490
1.006820202,-0.258594420,0.481003430,10.913106920,0.071562830,-0.026711820,0.003913040
1.009540081,-0.081083130,0.624082390,9.493753430,0.050051520,0.043484570,0.010178980
1.011890173,-0.105032740,0.430816260,9.983105660,0.052881250,-0.090539460,0.012841820
1.014660120,-0.198638720,0.231539430,10.012171750,0.058180100,0.043782590,0.018699470
1.018429995,0.293545280,0.379521820,9.008808140,0.061616310,0.049510610,0.005064900
1.019500017,-0.173411270,0.422868970,10.962841030,0.024487080,0.002853570,0.014317030
1.022480011,0.003397550,0.451541690,9.844583510,-0.031930200,0.024078780,0.023412700
1.024450064,0.171951980,0.332840260,9.664953230,0.014449660,-0.096273420,0.003442170
1.026910067,-0.136448220,0.309117530,10.041430470,0.060045730,0.048951810,0.007410350
1.029690027,0.195500820,0.399535890,9.168320660,0.050765270,0.065763290,0.014844530
1.032100201,-0.121670730,0.215875070,10.769498830,0.006021560,-0.008398290,0.012175740
1.034630060,0.091739710,0.137231860,9.689853670,-0.016412140,0.045034290,0.041617460
1.036870003,0.198385540,0.032724980,9.535622600,0.038558240,-0.054782640,0.034657120
1.039800167,-0.096484470,0.036371950,10.131226540,0.045742090,0.062060360,0.020608310
1.041790009,0.288897840,0.184419450,9.086428640,0.028373310,0.064729160,0.022101400
1.044630051,-0.041533530,0.140689790,10.569413190,0.026942790,0.015224520,0.022467970
1.046980143,0.037033290,0.154209630,9.832443240,0.014442210,0.084809960,0.029636920
1.049880028,-0.069874860,0.101891240,9.942944530,0.051017110,-0.049363090,0.025467580
1.052100182,-0.445304810,0.030106060,10.287526130,0.064663600,0.019684440,0.015756490
1.055190086,0.002738350,0.107264930,8.788742070,0.063233080,0.026443600,0.020062920
1.059290171,-0.273927150,0.065693100,10.231083870,0.072540350,0.034569200,0.036481020
1.059880018,0.012767150,0.268626900,9.948674200,0.035539270,0.130435820,0.028914220
1.061840057,0.143148540,0.495947300,10.123186110,0.038087370,-0.038957590,0.042946640
1.064500093,-0.232854250,0.643908440,10.419539450,0.006845590,-0.004239380,0.040785970
1.067290068,0.275200640,0.595953640,8.992780690,-0.008852780,0.027008350,0.027491150
1.069510221,-0.227000800,0.450142890,10.540296550,0.079195200,0.027817490,0.045439600
1.071830034,-0.154182550,0.438277900,10.133968350,0.066897270,0.079436600,0.038746000
1.074460030,0.181217910,0.354520470,9.525458340,0.015884640,-0.039015710,0.050075350
1.076900005,-0.195107190,0.291742950,10.310954090,-0.029438740,0.043827300,0.057040160
1.079660177,0.134311380,0.295331360,9.605047230,-0.057500600,0.075906500,0.052429740
1.082020044,-0.135545520,0.206127810,10.424897190,0.014895200,-0.029988590,0.059153140
1.084540129,-0.023285950,0.249854850,9.825950620,0.036238130,0.030669580,0.035029650
1.087370157,0.367985840,0.276572170,9.184038160,0.018742680,0.052511690,0.026442110
1.089500189,-0.195567550,0.273591520,10.589941980,-0.003127750,0.085039440,0.060448060
1.092090130,-0.056504500,0.255620000,10.064731600,-0.059318550,0.028409070,0.056219100
1.094930172,0.000179560,0.010742640,9.756839750,-0.004081430,-0.062991690,0.075672570
1.102120161,-0.071413230,0.020122770,9.362257960,0.059652320,0.045493240,0.060431660
1.104330063,0.153410870,0.160858140,9.364557270,0.040483480,0.108851490,0.053785750
1.104870081,-0.035419140,0.046026630,10.457490920,-0.003199280,0.083605970,0.070746240
1.105270147,0.168546450,0.082632500,10.153997420,-0.021941960,0.029964750,0.058119000
1.106810093,0.018805840,-0.073877330,9.862549780,0.039619210,-0.014962260,0.057639190
1.109549999,-0.208333300,-0.099948940,9.359688760,0.072827940,0.032444300,0.051018600
1.112560034,-0.222508740,0.023404490,9.521935460,0.059458610,0.040335950,0.033895680
1.114550114,-0.404239450,-0.101022880,9.947875020,0.060148540,0.070832670,0.060318410
1.116910219,-0.204631780,0.028166860,9.814897540,0.055347380,0.020992760,0.078947850
1.119729996,-0.315811870,0.103836110,10.356952670,0.056743620,0.001721080,0.070299210
1.122180223,-0.121034870,0.208862300,9.685306550,0.055122370,0.030542910,0.066332510
1.124550104,-0.040517190,0.435697880,9.935370450,0.053758930,-0.015656650,0.055345900
1.126910210,-0.072805960,0.392654360,9.834894180,0.065389290,0.055082150,0.057217490
1.129540205,0.281044840,0.399963200,9.459553720,0.079061090,0.015988950,0.059361760
1.132010221,-0.142695990,0.457197070,10.615349770,0.066857040,0.001987810,0.054541240
1.134550095,-0.117682730,0.436494650,9.658044820,0.012432040,0.013844670,0.066643950
1.139680147,-0.085240150,0.374275920,9.765203480,-0.002831220,-0.076530860,0.074012580
1.140280008,-0.402324380,0.266882210,10.147048950,0.041566790,0.046940150,0.062291330
1.141810179,0.001406530,0.418487100,9.448189740,0.049845880,0.037242480,0.060270730
1.145240068,-0.244520470,0.535320400,10.572789190,0.027412180,-0.028672820,0.080768760
1.146900177,-0.147041340,0.463448970,9.845237730,-0.042530890,0.022408360,0.072403240
1.149490118,0.201352020,0.548845830,9.509196280,-0.030852850,-0.055950880,0.069907310
1.151850224,-0.276147810,0.444857180,10.444280620,-0.001500550,0.007025900,0.079685450
1.155450106,0.264621940,0.291503880,9.258442880,0.002072750,0.028944010,0.070312630
1.156930208,0.270960240,0.222146470,9.986538890,0.022825600,-0.014688070,0.075888630
1.163870096,-0.051139110,0.169399510,10.201191900,-0.016589460,0.062584880,0.071156030
1.165130138,0.352280970,0.174554410,9.508908270,-0.065656010,-0.017818800,0.079746540
1.166270018,-0.256665770,0.014130720,10.349520680,-0.047901280,-0.047256050,0.080405180
1.167860031,0.006709980,-0.111285610,9.102059360,0.002494450,0.023275610,0.051270430
1.169460058,0.025778640,-0.028045970,9.519403460,0.067931410,0.010377170,0.051997610
1.171800137,-0.470303740,0.074468060,10.490033150,0.025576350,0.079762920,0.066731880
1.174490213,-0.010656290,0.075876940,9.810074810,-0.048695500,-0.004690890,0.089488930
1.176940203,-0.298652950,-0.036798020,10.274219510,-0.006300210,-0.080205500,0.083263220
1.180030107,-0.168685900,0.005793970,9.225876810,0.038608910,0.009806450,0.065973410
1.184530020,0.148449050,0.141512410,9.216608050,0.082173950,0.015778840,0.061312330
1.186950207,-0.240405780,0.204065020,10.437834740,0.044697520,0.060558320,0.067095460
1.188570023,0.233120980,0.332386400,9.843309400,-0.014591220,0.012391810,0.067225100
1.189530134,-0.033643280,0.300550400,10.328485490,0.014963750,-0.080451350,0.079967090
1.192370176,-0.221012580,0.347523900,9.829822540,0.018227100,-0.002639000,0.050531330
1.194610119,-0.104984480,0.455532490,9.705475810,0.030992930,-0.013683740,0.056697430
1.197970152,-0.542350950,0.345912160,10.336245540,0.038996340,-0.017341970,0.071914490
1.199720144,-0.145485620,0.200402390,9.579353330,0.022561850,-0.011365120,0.070278350
1.201800108,-0.092766290,0.342825830,9.961852070,0.025087590,-0.026342270,0.071923430
1.204540014,-0.285871800,0.457121940,10.216927530,-0.029586260,0.005581980,0.076046590
1.207030058,0.067724410,0.536800150,9.795758250,-0.063171990,-0.064378980,0.083200630
1.212620020,0.017139980,0.437112750,9.898892400,-0.010143220,-0.047981730,0.078497820
1.214050055,0.199105010,0.307952970,9.562902450,0.030541420,0.019888580,0.054650010
1.215140104,0.179390000,0.523317810,10.068691250,0.031332670,-0.003451110,0.068721180
1.216980219,-0.139823060,0.402641210,10.214813230,-0.067858400,-0.035707660,0.080312800
1.220310211,0.098638420,0.203944610,9.572817800,-0.107169160,-0.068864230,0.084616250
1.221940041,-0.118680900,0.138867180,9.820460320,-0.022499260,-0.030905000,0.074551990
1.224450111,-0.060084600,0.105451520,9.559191700,0.012362000,0.009664890,0.050421060
1.227310181,0.088404050,0.174567490,9.802972790,-0.001451370,-0.001426040,0.066562000
1.229629993,-0.038399230,0.057798880,10.023614880,-0.037628420,0.034780800,0.077886890
1.232990026,0.066573260,-0.008602730,9.889044760,-0.053796170,-0.050485140,0.078231100
1.234430075,-0.186393200,0.023260440,9.870660780,-0.015673040,-0.075992930,0.080725540
1.236860037,-0.035313810,-0.078277680,9.156733510,-0.007686020,-0.023920830,0.047102570
1.239460230,0.026152580,-0.097891550,9.713151930,0.030702350,0.016996260,0.050513450
1.241870165,-0.005731120,0.032051940,10.008057590,0.036996600,0.062727920,0.059592720
1.248620033,0.209999460,0.061782690,10.061674120,-0.000253320,-0.025932490,0.062729410
1.250020027,-0.085097880,0.193331670,10.265586850,0.002790990,-0.057125080,0.073786060
1.251320124,0.021421520,0.177377130,9.193496700,-0.000916420,-0.040593750,0.059194860
1.251830101,-0.102512290,0.192831980,9.602875710,0.036190450,-0.028407580,0.048026450
1.254500151,-0.218485370,0.340992630,9.905113220,0.061090300,0.054501000,0.046694280
1.256890059,0.028337450,0.407265190,10.045252800,0.025013090,-0.005252660,0.053338710
1.259970188,-0.265835820,0.528923570,10.617545130,-0.019256770,-0.056016460,0.066165640
1.261950016,-0.034084140,0.515570940,9.444479940,-0.056140120,-0.038905450,0.057797130
1.264930010,0.000587370,0.457774850,9.677168850,-0.002986190,-0.039358440,0.056205700
1.266810179,-0.301590000,0.494427560,10.144496920,0.034198160,0.014327470,0.060597070
1.269500017,0.207174660,0.427981640,9.436244010,-0.000183280,-0.012126570,0.067678090
1.271880150,0.059874250,0.275175390,10.265228270,-0.035400690,-0.023426110,0.072401760
1.274470091,-0.057600320,0.275635780,10.147123340,-0.063599650,0.028401610,0.070263450
1.281170130,0.123204520,0.287946160,9.744574550,-0.055107480,-0.068809090,0.066544120
1.281890154,-0.283612250,0.208843450,10.223219870,-0.026613480,-0.069600340,0.060611970
1.282299995,0.144747050,0.080722480,8.916479110,-0.007742640,0.028926140,0.050254170
1.284440041,0.010583530,0.195638020,9.863348010,0.021953880,-0.011298060,0.047366320
1.286930084,-0.325559470,0.295082300,10.465004920,-0.045703340,0.031232830,0.074806800
1.289560080,0.249981390,0.254518810,9.407713890,-0.098764900,-0.039678810,0.087149430
1.292190075,-0.214915720,0.018470740,10.483312610,-0.032731900,-0.061981390,0.075128680
1.294460058,0.031949110,0.054680100,9.276835440,0.023008880,0.027257200,0.053825980
1.297090054,0.137704610,0.048449770,9.488484380,0.049835450,-0.042469800,0.048853460
1.299430132,-0.278172370,-0.118080860,10.381295200,-0.008523460,0.036118930,0.046628710
1.301840067,0.185557870,-0.062332990,9.365175250,-0.032250590,-0.006568430,0.052168970
1.304480076,-0.309171050,-0.158134240,10.282328610,0.022594630,-0.116002560,0.053951140
1.306930065,-0.189464410,-0.032793650,9.368174550,0.025561450,0.005695220,0.033985080
1.309610128,0.034846590,0.147387300,9.429170610,0.040718910,-0.022737680,0.038330260
1.315370083,-0.448092340,0.139311250,10.742716790,0.049260260,0.001709160,0.056369610
1.316359997,0.110493230,0.231898340,9.397003170,0.037002560,-0.020018220,0.059621040
1.317110062,-0.149554310,0.222048830,10.179460530,0.061264630,-0.107742870,0.063920030
1.319730043,-0.291041050,0.323496610,9.968191150,0.021910660,0.000570710,0.050112600
1.321860075,0.065391340,0.361059460,9.278968810,0.016699730,-0.068800150,0.046806030
1.324780226,-0.328541430,0.263132150,10.356101990,0.056363650,-0.071087490,0.046460330
1.326940060,0.163460700,0.348655280,9.387360570,0.043036050,0.029376150,0.026157500
1.329740047,0.086781150,0.507071500,10.274144170,0.034774840,-0.062039500,0.038184230
1.331809998,-0.266078680,0.557450650,10.634345050,-0.024600330,-0.046204030,0.048390030
1.334410191,0.262139650,0.489720790,9.154356960,-0.037905570,-0.094668570,0.044979160
1.336899996,-0.107188190,0.380647480,10.063873290,0.042638180,-0.057451430,0.045789780
1.339590073,-0.036668160,0.584343250,9.759984970,0.022682550,0.043420500,0.044298180
1.342290163,0.178032290,0.423687520,9.767063140,-0.015828020,-0.061962010,0.056388970
1.344580173,-0.142231790,0.232288730,10.450122830,-0.045524540,-0.036817790,0.052104900
1.347400188,0.115394820,0.337495360,9.487998010,-0.042994320,-0.024481120,0.032569460
1.349470139,-0.111752750,0.194929910,10.059230800,-0.002703070,-0.096981230,0.046782200
1.352060080,-0.012212230,0.245925810,9.521733280,-0.027208040,0.009085240,0.033038850
1.354490042,0.310636250,0.233395220,9.260881420,-0.036883360,0.004255770,0.026968120
1.357940197,0.012576790,0.124777340,10.428226470,-0.019787250,0.015044210,0.054110600
1.359390020,0.119462680,0.248684850,9.861668590,-0.040219730,-0.014945870,0.044888260
1.363210201,-0.026544210,0.036106700,10.047255520,-0.036999580,-0.118128940,0.052820140
1.364500046,-0.095025370,-0.111999420,9.456870080,0.000248850,-0.010161100,0.040765110
1.367180109,0.010272630,0.019346700,9.250311850,0.026521090,0.011508170,0.013893850
1.369520187,-0.207852690,-0.017402990,10.407790180,0.013245640,0.029918560,0.039543210
1.371870041,0.045831570,0.161928400,9.796134950,-0.026322910,0.001570580,0.039890410
1.374600172,-0.179883000,0.151632280,10.296571730,-0.017698110,-0.092589840,0.027774280
1.382130146,-0.182283630,0.194858280,9.498559000,0.016540290,-0.039857630,0.037835540
1.382930040,-0.078092990,0.324755190,9.333853720,0.030905010,-0.029250980,0.026863810
1.383370161,-0.314489990,0.185272930,10.569254880,0.036397580,0.034329300,0.032535200
1.384800196,-0.017193390,0.322453110,9.801016810,0.024171180,-0.007557870,0.039651990
1.387670040,-0.135553550,0.321955080,10.425251010,0.002165140,-0.110465310,0.028549140
1.390450001,-0.118005740,0.428879830,9.769683840,-0.036521260,-0.007945300,0.035338100
1.392270088,-0.044065200,0.576323510,9.468420030,-0.029867890,-0.055564950,0.034809120
1.394470215,-0.292041210,0.352725450,10.513864520,-0.001333650,-0.037536030,0.027626750
1.396860123,0.204220290,0.296841000,9.179143910,0.028869510,0.003011520,0.040794910
1.399870157,0.071524350,0.346643920,10.194208150,0.034599010,-0.054536760,0.024844710
1.401960135,-0.086890360,0.357992410,10.439111710,-0.061453880,0.027149920,0.033836070
1.404440165,0.058079750,0.251170750,9.467087750,-0.096540150,-0.096170600,0.050039590
1.407840014,-0.281090410,-0.063604810,10.306186680,-0.010782480,-0.115351390,0.029465560
1.409580231,0.045904140,-0.034291200,8.936087610,0.064264250,0.036707520,-0.001296400
1.414010048,-0.062143110,0.267779230,9.919666290,0.045043230,-0.033405430,0.019004940
1.415830135,-0.221823040,0.170969220,10.705612180,-0.067147610,0.032594800,0.036476550
1.418350220,0.201786880,0.030327830,9.418395040,-0.075963140,-0.065256660,0.032652920
1.422680140,-0.210139990,-0.011341460,10.381373410,0.033879280,-0.116093460,0.030417740
1.424679995,-0.073597580,0.036802860,9.180935860,0.069381300,0.019420680,0.010548530
1.425950050,-0.019677880,0.047122440,9.445865630,0.066304220,-0.060646250,0.016793610
1.426860094,-0.201967360,0.043074680,10.541900630,0.005909800,0.018784400,0.030750040
1.429580212,0.238588690,-0.034642920,9.420859340,-0.010229650,0.000271200,0.026954710
1.431820154,-0.171427610,-0.013221560,10.770493510,0.062844140,-0.107443320,0.026117260
1.435690165,-0.200404790,0.252291200,9.860160830,0.063648830,-0.026209650,0.002540650
1.438510180,-0.044107310,0.310842540,9.072772980,0.038546320,-0.107660900,0.002519790
1.439440012,-0.278944130,0.323308290,10.132781030,0.033724300,-0.009810920,0.023931260
1.442589998,0.111787740,0.343775150,9.539643290,0.042222440,0.054793060,0.000764430
1.447290182,-0.093294110,0.510667620,10.831621170,0.051139300,-0.086779890,0.012125080
1.448050022,-0.150435450,0.713628650,10.261745450,-0.008387860,-0.057578090,0.017701090
1.449400187,0.198114100,0.452673290,9.147541050,-0.038290020,-0.099170220,0.013406570
1.452810049,-0.070378910,0.299470280,10.260209080,0.044672190,-0.002118950,0.018011030
1.454490185,0.082666400,0.335245640,9.651351930,0.059792390,0.042623280,0.004729630
1.458440065,0.116216440,0.267146800,10.160326960,0.018540020,-0.081752250,0.004398820
1.459430218,-0.085086930,0.383395640,10.171264650,-0.043462220,-0.024940080,0.014805790
1.461830139,0.051504250,0.281565870,9.393217090,-0.064246360,-0.059938440,-0.001403690
1.464500189,-0.203290160,0.222081080,10.175481800,-0.005136430,-0.071610510,-0.000619890
1.466820002,-0.003612590,0.222894220,9.363956450,0.029395520,0.030687450,-0.006063280
1.469870090,0.254119750,-0.006599170,9.789221760,0.043359400,-0.002475080,-0.017026070
1.472130060,-0.020471880,0.171916600,10.517796520,0.029620530,0.038282570,0.017678740
1.474460125,0.123860290,0.161521600,9.650694850,-0.043360890,-0.060389940,0.012707710
1.477460146,0.082136010,0.043003520,9.897523880,-0.041738150,-0.112293670,-0.001809000
1.480600119,0.037808100,0.141964180,9.028691290,0.028343500,0.048783410,-0.018766520
1.482430220,0.107088890,0.104608540,9.654787060,0.057803100,0.020796060,-0.051629550
1.484470129,-0.272891100,0.148661110,10.868963240,0.065302850,0.030747060,-0.021953880
1.486880064,-0.084929650,0.171841640,9.819017410,0.014273820,-0.049354140,-0.015139580
1.489500046,-0.200480510,0.062988300,10.060623170,-0.011333830,-0.109274700,-0.005786120
1.493180037,-0.318285970,0.123507620,9.401227950,0.001849230,0.028169160,-0.008639690
1.494440079,0.056875990,0.242309510,9.439112660,0.046017770,0.002835690,-0.025305150
1.496910095,-0.126552890,0.382751700,10.732276920,0.067535040,0.017163160,-0.017446280
1.501020193,0.154329840,0.510522010,9.753422740,0.015403330,-0.000911950,-0.020937620
1.501940012,0.273998320,0.449571820,10.054148670,-0.016735490,-0.087009370,-0.019256770
1.504559994,-0.100470270,0.504158560,10.142331120,0.001114610,-0.000409780,-0.022956730
1.508270025,0.174430470,0.476829230,9.305363660,0.005787610,-0.011087950,-0.028505920
1.511710167,-0.061942140,0.411230240,10.200522420,0.018073620,-0.029234590,-0.013022120
1.512470007,-0.043307860,0.237466310,9.678096770,0.000205640,0.036835670,-0.033399460
1.517710209,0.153949630,0.178015680,9.801314350,0.002521280,-0.016406170,-0.026561320
1.518640041,-0.458437290,0.236794310,10.733285900,-0.009360910,-0.023919350,-0.007104870
1.519490004,-0.089254680,0.002203360,9.454384800,-0.042533870,-0.036709010,-0.017867980
1.521890163,0.171755280,-0.076859560,9.490771290,0.025911630,-0.035639110,-0.027284030
1.524510145,-0.038816110,0.100021310,9.860478400,0.059831150,0.096121440,-0.041419270
1.528430223,0.478538930,0.223736020,9.557389260,0.006420910,0.047062340,-0.019577150
1.529500008,0.050020220,0.216380510,10.563699720,-0.028778610,-0.040304660,-0.006382170
1.531960011,0.108487720,-0.010346100,9.573525430,0.000585620,-0.023692850,-0.018976630
1.534860134,0.117451450,-0.093539920,9.257939340,0.095053020,-0.044773520,-0.030809640
1.536960125,-0.469611440,0.002328810,10.114501000,0.100782520,0.041183830,-0.050032140
1.539470196,-0.067820970,0.018718680,9.620382310,0.027894970,0.053077940,-0.038504600
1.541920185,-0.295811860,0.077677080,10.421008110,0.023755430,-0.022757050,-0.014337900
1.544800043,-0.266620780,0.176838790,9.916043280,0.020925700,-0.004979970,-0.030457980
1.548530102,0.156265200,0.251868490,9.281057360,0.058315710,-0.027742990,-0.038418170
1.549510002,-0.329939750,0.375735820,10.299128530,0.096926100,0.027632720,-0.033976140
1.551930189,0.146291600,0.401904020,9.640118600,0.053876640,0.039654970,-0.023794180
1.554910183,0.150394930,0.318150310,10.144952770,0.060212610,-0.021682680,-0.008854270
1.556900024,-0.116857450,0.433813690,10.317987440,0.042828910,0.004599990,-0.030371550
1.560950041,0.124130790,0.619619370,9.608760830,0.000983480,-0.024373830,-0.036709010
1.562950134,-0.311946870,0.587094130,10.084854130,-0.003091990,-0.031301380,-0.021925570
1.564540148,-0.075484190,0.456120220,9.623031620,0.004382430,0.010302660,-0.044754150
1.566920042,0.093867130,0.350203310,9.683420180,0.077401100,0.014844540,-0.050635640
1.569590092,-0.173668240,0.441398980,10.261018750,0.049942740,0.034011900,-0.034171350
1.572110176,0.174383370,0.350039630,9.879900930,-0.059157610,0.006809830,-0.014311070
1.574450016,0.001559160,0.015996430,10.134961130,-0.038638710,-0.028145310,-0.008648630
1.577220201,-0.001637360,-0.027634900,9.696724890,0.034828490,-0.006391110,-0.025811790
1.581550121,0.184806200,0.002326360,9.340250020,0.066500890,0.001439450,-0.035813440
1.582159996,0.001442080,-0.031168340,9.912959100,0.036267930,0.052776940,-0.028409060
1.585120201,0.268209550,0.173792990,9.799465180,-0.007353720,0.052081060,-0.025285780
1.586890221,0.033111730,0.071592000,10.316370010,0.004784760,-0.000041720,-0.031802050
1.589480162,-0.049920600,0.203460170,9.821743010,0.025661290,-0.009173150,-0.036105520
1.592030048,-0.025160140,0.315603640,9.513587950,0.053408750,-0.014139710,-0.057476770
1.594490051,-0.255506580,0.142677740,9.730310440,0.064738090,0.047826780,-0.045427690
1.597230196,-0.057735190,0.339572850,9.460759160,0.050835310,0.036376720,-0.035247210
1.599570036,-0.216975480,0.189429300,10.391665460,0.030797720,0.026261800,-0.024998190
1.602560043,-0.088356130,0.132113950,10.051926610,0.022231040,0.032180540,-0.018516180
1.604510069,0.024695740,0.336431410,9.904137610,0.044202800,-0.036840140,-0.019727650
1.606880188,-0.115967910,0.148625970,9.982316020,0.045104330,0.030620400,-0.031970430
1.609560013,0.288681420,0.352896060,9.322687150,0.056353220,0.046774740,-0.022968650
1.617570162,-0.006059240,0.500561240,10.458646770,0.044299670,0.018979610,-0.034879150
1.619210005,0.190704270,0.526623850,9.763133050,-0.018592180,0.048041340,-0.024473670
1.620720148,0.259637890,0.620868800,9.668207170,-0.004774330,-0.003321470,-0.017112490
1.621830225,-0.247539920,0.581517040,10.535208700,0.018051270,0.045785310,-0.032795970
1.622370005,0.031767950,0.531632900,9.403764720,0.001516940,0.017380720,-0.016449390
1.625590086,-0.190834050,0.344303880,10.019479750,0.007957220,-0.024951990,-0.010393560
1.627260208,0.022925270,0.014343270,9.546072960,-0.011174380,0.131045300,-0.013850630
1.629900217,0.202918710,0.036265410,9.650041580,0.033001600,0.056518620,-0.008809570
1.632250071,-0.383407030,0.032265660,10.863543510,0.009378790,0.010731820,-0.009053940
1.634470224,0.208936070,-0.097800880,9.048252110,-0.051730860,-0.011901560,-0.012104210
1.636860132,0.053839620,-0.241737370,9.723819730,0.041650240,-0.003504750,-0.014722350
1.639440060,-0.036652390,-0.173649120,9.870909690,0.085775550,0.152732450,-0.042082370
1.641880035,0.232401820,0.129896920,9.686465260,0.068484250,0.040334470,-0.029180940
1.648860216,-0.243616480,0.263250380,10.785492900,0.005881490,-0.010961300,-0.014902650
1.649830103,0.243334680,0.264610470,9.067315100,-0.031901900,0.032994150,-0.015631320
1.650520086,-0.116538090,0.129430670,9.745070460,0.076512990,-0.011527540,-0.017897780
1.651930094,-0.318056940,0.223013190,10.069812770,0.122219330,0.099214920,-0.043652940
1.654510021,0.111745800,0.255867150,9.617514610,0.072400270,0.039947040,-0.028289850
1.656980038,-0.321441830,0.169849220,10.760395050,0.042079390,0.023713710,0.000400840
1.659720182,0.063461270,0.145629440,9.567199710,-0.005157290,0.054171670,-0.009618700
1.662520170,-0.065427220,0.146915360,9.841199870,0.058609250,-0.034523010,-0.022275750
1.664830208,-0.220203350,0.301954660,10.019416810,0.090304020,0.070045890,-0.020812450
1.666920185,0.269290210,0.352609930,9.311604500,0.047187510,0.051952910,-0.025016080
1.669470072,-0.030773430,0.234587280,10.494275090,0.065052510,0.032030040,-0.009597840
1.671930075,0.239991350,0.308297160,9.686941150,0.052249430,0.086164460,-0.023625790
1.674440145,0.204370200,0.517254770,9.917877200,0.028999150,-0.001184640,-0.015230470
1.684740067,-0.270300750,0.433031890,10.303290370,-0.008648630,0.037869810,0.009448830
1.685970068,0.190115960,0.120380000,9.054533000,0.021298230,0.020505490,-0.019086890
1.686480045,-0.178313910,-0.137211780,10.059918400,0.136253240,0.021006170,-0.043272970
1.686910152,-0.107153880,0.084204070,9.631875040,0.114302360,0.121569650,-0.037708890
1.687669992,0.099509670,0.073672620,9.763572690,0.013601780,0.026780370,-0.012254720
1.689510107,-0.245539010,-0.045185730,10.491594310,-0.017228720,0.042182210,-0.000895560
1.692130089,0.203871350,0.122014370,9.113089560,0.050047050,0.037485370,-0.015389920
1.696050167,-0.125139560,0.045593980,10.046252250,0.138418390,-0.005152820,-0.035281480
1.699420214,-0.110831340,0.191028250,9.614030840,0.126650930,0.109076520,-0.032356390
1.700690031,0.183271590,0.192315940,9.529148100,0.084985790,0.033636390,-0.033596160
1.701890230,-0.318019720,0.043640550,10.691658970,0.069510940,0.052756070,-0.015376510
1.704580069,0.129497870,0.246404620,9.257440570,0.067289170,0.033687060,-0.010314580
1.706870079,-0.154043780,0.251003090,10.144619940,0.096547600,-0.012019280,-0.022900110
1.709550142,-0.257786270,0.364169540,9.795095440,0.088764730,0.093440720,-0.029374660
1.714340210,0.158643050,0.499147650,9.297082900,0.082093480,0.025384130,-0.029328470
1.717100143,-0.275343570,0.317019940,10.736862180,0.097668190,0.045937300,-0.023511050
1.717680216,0.081868520,0.605461540,9.536297800,0.067026920,0.066781040,-0.014305110
1.719460011,-0.037131300,0.589097440,10.032093050,0.043804940,-0.049951670,-0.011278690
1.721920013,-0.273559930,0.469066770,10.063388820,0.011487310,0.063140700,-0.001183150
1.724670172,0.230751280,0.471625950,9.183708190,0.059081610,0.034554300,-0.001315770
1.727020025,-0.185039510,0.277818410,10.613615990,0.102856740,0.024808950,-0.008921320
1.729600191,0.103777710,0.408665090,9.400336270,0.043477120,0.072847310,-0.004474820
1.731940031,0.303681790,0.225248010,9.459000590,0.015658140,-0.011472400,-0.001735990
1.735010147,-0.088151500,0.053382790,10.254027370,0.017765160,0.087472780,-0.007145110
1.736890078,0.171829860,0.193449410,9.417584420,0.049041220,0.034414230,-0.009810920
1.740080118,-0.179813360,-0.034838300,10.323938370,0.073584920,-0.043882430,-0.020246210
1.741890192,0.006297900,-0.059859930,9.264068600,0.065134470,0.088545690,-0.026300550
1.746440172,0.064431520,0.019829660,9.526352880,0.092202430,0.056825580,-0.016742940
1.747740030,-0.254966380,0.037951290,10.514171600,0.064191220,0.082601610,0.000837450
1.749480009,0.075486000,0.192093850,9.528203960,0.039078300,0.017763670,0.005453830
1.751929998,-0.054606310,0.098457580,9.961005210,0.082884750,-0.030232970,0.006605690
1.754500151,-0.018974320,0.187157770,9.335989950,0.100883850,0.090278690,-0.023709240
1.759160042,0.096653020,0.248279750,9.581267360,0.107802450,0.052565340,-0.029601150
1.760090113,-0.188794420,0.181856630,10.607766150,0.098286570,0.068934270,-0.023056570
1.761900187,0.046896750,0.378009320,9.644629480,0.063537070,0.012037160,-0.021097060
1.764560223,-0.218832910,0.269399850,10.001212120,0.080046040,-0.033646830,-0.010754170
1.766900063,-0.153692570,0.332289370,9.477851870,0.076544290,0.073036550,-0.021524730
1.771320105,-0.143866000,0.378848310,9.832340240,0.103020680,0.029332940,-0.010980670
1.772490025,-0.249762420,0.206192490,10.422511100,0.106385350,0.036427380,0.012333690
1.774500132,0.219030100,0.225825120,9.300257680,0.091020760,0.020445890,0.009648500
1.776940107,0.103400670,0.261813220,10.002661710,0.088855620,0.019496680,-0.004112720
1.779870033,0.121927950,0.425309780,9.842604640,0.051486500,0.100111960,0.007896130
1.781880140,0.138772460,0.396755010,9.891286850,0.027890500,-0.029507280,0.004442040
1.784480095,-0.120877830,0.110891920,10.202682500,0.096380730,0.008425120,0.002591310
1.787510157,0.200898950,0.180251110,8.903942110,0.152945520,0.037764020,-0.022844970
1.792270184,-0.097637770,0.257198600,10.045309070,0.112700470,0.039330120,-0.001758340
1.793750048,0.011606020,0.193067670,9.806144710,0.016403200,0.126929580,0.015176840
1.795260191,0.201299040,0.176663820,9.699265480,0.027886030,-0.013358890,0.013940040
1.797090054,-0.162237540,0.081908760,10.346491810,0.110055520,0.013628600,0.006006660
1.799580097,0.161248510,0.123142860,8.835589410,0.140260170,0.060746070,-0.016990310
1.801830053,-0.248120350,0.100464040,10.186433790,0.128826500,-0.003567340,-0.022515660
1.806790113,-0.225970890,0.086008770,9.870952610,0.076915320,0.094783310,-0.005999210
1.808080196,0.138936070,0.157339100,9.279480930,0.069676340,0.000377000,0.001135470
1.809440136,-0.287458780,0.191272600,10.774255750,0.091141460,0.046794120,0.011153520
1.813020229,0.175983760,0.340488700,9.264479640,0.112575290,0.080952050,0.012254720
1.814520121,-0.064119640,0.360471100,10.105493550,0.135061160,-0.074544550,-0.016310810
1.816970110,-0.091527230,0.430830300,9.754158970,0.101043280,0.089821210,-0.001357500
1.819640160,0.352820280,0.601603090,9.010582920,0.072394310,0.049425670,-0.011056660
1.822000027,-0.343767370,0.614394430,11.173338890,0.070425850,0.011312960,0.001651050
1.824710131,0.091725720,0.858308370,9.249589920,0.021481510,0.060807180,0.002580880
1.827730179,0.012429950,0.699571250,9.785231590,0.031819940,-0.051566960,0.002577900
1.829420090,-0.438287790,0.474887280,10.551001550,0.063119840,0.097657740,0.008441510
1.832190037,0.112130750,0.391154410,9.098844530,0.076413160,0.028528270,-0.004322830
1.834500074,-0.248799880,0.156691390,10.534066200,0.066192450,-0.049722200,0.009514390
1.837370157,0.150800840,0.202865320,9.181952480,-0.001931190,0.121097270,0.006479020
1.839750051,0.354708370,0.299249320,9.560893060,-0.016756360,0.031605370,0.007411840
1.841860056,-0.196972980,0.315568980,11.040778160,-0.011254850,0.050851710,0.021909180
1.844600201,0.311263980,0.209047990,9.111520770,0.022342800,0.011740630,-0.008045140
1.846920013,0.060725080,0.073175100,9.914426800,0.114792580,-0.061188630,-0.015565750
1.849460125,-0.193581250,0.207453470,9.509778020,0.075793270,0.127640370,-0.004926320
1.852090120,0.110192640,0.222152430,9.236545560,-0.011052190,0.047782070,0.003987550
1.854580164,-0.414189700,0.152873690,10.953326230,-0.023648140,0.006791950,0.026451050
1.856910229,0.007596190,0.238197910,9.186754230,0.014278290,0.029005110,0.011931360
1.859860182,-0.002127310,0.171276300,9.701463700,0.091518450,-0.029827650,-0.003850460
1.862020016,-0.376331450,0.254909310,10.278031350,0.076925760,0.121855740,-0.005933640
1.866180182,0.070693550,0.190943520,9.409609790,0.036680700,0.016707180,-0.008168820
1.866980076,-0.213533800,0.109893440,10.415194510,0.043964390,-0.041310480,0.011196730
1.869710207,-0.009394440,0.294553130,9.240020750,0.019562240,0.064824510,0.000856820
1.872310162,0.094879430,0.338371690,9.818749430,0.028268990,-0.004823510,0.001850720
1.874460220,-0.280945540,0.559465890,10.617595670,0.035747900,0.039753330,0.005115570
1.877070189,0.140253620,0.655548570,9.449731830,0.005160270,0.008505580,-0.005958970
1.879800081,-0.059633850,0.622964860,10.295973780,0.022000080,-0.020033120,0.006082650
1.881910086,-0.114703270,0.831709800,9.724736210,-0.007498270,0.053589060,0.007358190
1.884720087,0.081782110,0.737251160,9.620478630,-0.056968630,-0.005371870,-0.002954900
1.887240171,-0.215196520,0.645039500,10.204663280,-0.062884380,0.018101930,0.020281970
1.889710188,-0.060071910,0.358708560,9.548762320,-0.038912900,0.011318920,0.006224220
1.891900063,-0.013023250,0.066551410,10.066786770,0.018802290,-0.013175610,0.015448030
1.895170212,-0.070603680,0.101782280,9.714110370,-0.012382860,0.046959520,0.023375450
1.897130013,0.216167930,-0.157756430,9.606146810,-0.072453920,0.019331280,0.002306700
1.899790049,0.134850530,0.002231400,10.078558920,-0.065746910,0.045147540,0.012411180
1.902780056,0.154748530,0.221384730,9.590764050,-0.058065370,0.027801100,0.003516670
1.904450178,0.055709760,0.192174640,10.096162800,-0.027337670,-0.009363890,-0.013700130
1.906900167,-0.102896220,0.428793970,9.561685560,-0.001218910,0.014059250,-0.009660420
1.909460068,-0.133003220,0.408257900,9.480830190,-0.010795890,-0.010076170,-0.013443830
1.912030220,-0.248509530,0.382112090,10.018423080,-0.048075620,0.070378190,0.017176570
1.914900064,-0.255438830,0.340583560,9.894144060,-0.057826940,0.031508510,0.022582710
1.916990042,-0.276033940,0.145182360,10.303917880,-0.025539110,-0.052332890,0.016656520
1.919730186,-0.145705090,0.257214250,9.402306560,-0.006860500,0.006349390,0.007231530
1.922240019,-0.046850710,0.252303750,9.454925540,-0.038158900,-0.007171930,-0.006473070
1.924580097,-0.052815240,0.122898530,10.287570950,-0.042608370,0.054106110,-0.008989870
1.926930189,0.116419750,0.309985970,9.725110050,-0.027050080,0.005166230,-0.007158520
1.931380033,-0.016274390,0.348487790,10.377374650,-0.034096840,-0.065127020,-0.005872550
1.931970119,-0.040532130,0.489835920,9.860244750,-0.057117640,0.015401840,0.002597270
1.935570002,-0.136924910,0.649846140,9.672748570,-0.073854630,-0.046189130,0.012533370
1.936930180,-0.363982950,0.512022850,10.416990280,-0.063933420,-0.028437370,0.016480680
1.939470053,0.023695300,0.529433490,9.110802650,-0.036284320,0.004372000,0.014035400
1.941870213,-0.041978660,0.637975810,10.002996440,-0.043047970,-0.035117570,0.010502340
1.948840141,-0.081412050,0.630530770,10.250180240,-0.121970470,0.065760320,0.026549400
1.950480223,0.122234460,0.447725770,9.662773130,-0.145067270,-0.055600710,0.022280220
1.950940132,-0.180759700,0.100409030,10.516912460,-0.080215940,-0.090491770,0.008964540
1.951890230,0.024400650,-0.015087320,8.959924700,-0.008299950,0.000326340,0.003893670
1.954450130,0.023191380,-0.010343150,9.448315620,-0.031836330,-0.041112300,0.013372300
1.956890106,-0.179097670,-0.076546700,10.344721790,-0.117348130,0.064040710,0.023482740
1.959500074,0.194602530,-0.022645260,9.312230110,-0.127281260,-0.033570830,0.025841600
1.962240219,-0.141051470,0.087573160,10.467876430,-0.062185530,-0.103777670,0.022900100
1.964770079,-0.024481180,0.259791400,9.319512370,-0.036659830,0.013020630,0.005814430
1.966920137,0.079085920,0.276652600,9.393103600,-0.029300150,-0.067661710,-0.001320240
1.969440222,-0.263724540,0.297321740,10.467542650,-0.033918020,0.028018660,0.011081990
1.971950054,0.100491430,0.265065130,9.175322530,-0.061519440,-0.003069640,0.016596920
1.974500179,-0.158556010,0.184532430,10.459863660,-0.054450340,-0.103952010,0.034190720
1.979300022,-0.201518130,0.154156740,9.774800300,-0.044408440,0.006800890,0.026951730
1.980800152,0.068600490,0.108605040,9.134531020,-0.027011340,-0.082288680,0.021436810
1.985430002,-0.283188760,0.204339710,10.408751490,-0.017267470,-0.011159480,0.024388730
1.986829996,0.091341920,0.306200980,9.441989900,-0.056953720,0.042387840,0.011639300
1.987510204,-0.011878220,0.493860480,10.365273480,-0.056141610,-0.095860650,0.021263960
1.989450216,-0.257845160,0.726741430,10.214860920,-0.085785990,-0.027188660,0.013992190
1.991910219,0.061612940,0.570582630,9.218243600,-0.095388300,-0.079184780,0.011590120
1.994450092,-0.331561330,0.484375980,10.473971370,-0.021910670,-0.066313150,0.029109420
1.997840166,-0.192272250,0.349252280,9.582760810,-0.032402580,0.003145640,0.025339420
2.004820108,0.234966490,0.097801890,9.535670280,-0.053107740,-0.074173510,0.052557890
2.005320072,0.020031330,0.214127630,10.156396870,-0.070630010,0.017435850,0.055162620
2.005789995,0.397740130,0.356701110,9.440914150,-0.139670090,0.005061920,0.038434580
2.006910086,0.151254910,0.333997990,10.399033550,-0.119982680,-0.085788970,0.065237280
2.009480000,-0.020794510,0.157327950,9.753150940,-0.058898320,-0.028812890,0.021016590
2.013080120,0.120832360,-0.109379590,9.306695940,0.020493570,-0.068186220,-0.003074110
2.016610146,-0.479276420,0.083496040,10.123179440,0.033767520,-0.004689400,0.024555620
2.017360210,-0.309936550,0.055535470,9.526595120,-0.110247730,-0.013954940,0.021731860
2.017770052,-0.171030010,-0.067660020,10.022446630,-0.129602850,-0.086016960,0.060187290
2.022150040,-0.263271690,0.043180400,9.762181280,-0.034049160,-0.013807420,0.044208770
2.024470091,0.196945430,0.106955540,9.450713160,0.021405520,-0.030672560,0.008350610
2.030880213,0.031865060,0.296229270,10.176082610,0.028425450,-0.008954110,0.022988020
2.032240152,0.216280460,0.309838770,9.634004590,-0.034339730,-0.018689040,0.010162590
2.034240007,0.167104300,0.155560540,9.933759690,-0.047035510,-0.093433250,0.032973290
2.035290003,-0.076118070,0.178947760,9.636210440,-0.018757580,-0.044175980,0.039367380
2.039490223,-0.004916450,0.074223500,9.745854380,0.000150500,-0.046695770,0.008904930
2.040310144,-0.352472510,0.120619070,10.315324780,0.025129320,-0.044292220,0.025652350
2.042080164,-0.230696800,0.252162130,9.531016350,0.002801420,-0.046719610,0.016413630
2.047440052,-0.070409420,0.218172250,9.999095920,-0.024671850,-0.057728590,0.023454420
2.048330069,-0.239641730,0.527183410,9.988101010,-0.016011290,-0.007751580,0.037568810
2.048830032,-0.068715740,0.670831020,9.777153970,-0.044578310,-0.096493970,0.020264090
2.051940203,-0.055506780,0.685153310,9.961351390,-0.054061410,-0.087827440,0.022789840
2.055040121,0.079348480,0.630549310,9.428973200,-0.022891160,-0.021173060,0.025440760
2.056970119,0.231657740,0.477182390,10.267867090,-0.004319850,-0.026632850,0.015109780
2.057510138,0.072455230,0.406247740,10.285086630,-0.028659400,-0.027039650,0.042949620
2.062370062,0.263282840,0.268272250,9.489982600,-0.076386330,-0.089207290,0.039438910
2.064790010,0.123327840,0.223761930,9.895070080,-0.081019100,-0.046700250,0.033497810
2.066940069,-0.079495990,0.275729390,9.524906160,-0.074000660,-0.011539460,0.040395560
2.067400217,0.059960960,0.210365530,9.768317220,-0.057846320,-0.066125400,0.020955500
2.071990013,-0.056966460,0.169927570,9.950062750,-0.028292840,-0.015826530,0.007912520
2.074560165,0.076487750,0.284144130,9.596836090,-0.034800170,-0.003936890,0.013971330
2.077080011,-0.084116850,0.286261380,10.465402600,-0.067517170,-0.025500360,0.029902160
2.078580141,-0.248376190,0.091663040,10.039931300,-0.075253850,-0.048384070,0.042164330
2.082159996,0.066320300,0.043617740,9.251537320,-0.027473270,-0.107033550,0.020146370
2.084490061,0.024829990,0.159366940,9.334365840,0.002679230,-0.003269310,0.014694040
2.087040186,0.189051090,0.220854180,9.426010130,-0.043936080,0.075574230,0.013947490
2.088680029,0.229856420,0.342053650,10.514487270,-0.056757030,0.000657140,0.016753380
2.092530012,-0.037894300,0.191733760,10.392358780,-0.042662020,-0.074025990,0.033751130
2.094440222,0.093702290,0.078775130,9.381273270,-0.008694830,-0.096878390,0.013242660
2.097050190,-0.284015330,0.087810590,9.786109920,0.023885070,-0.021144750,0.009502470
2.098460197,-0.423166990,-0.017649140,9.776589390,0.010003150,0.019647180,0.010977690
2.102050066,-0.202583700,0.201429640,9.819602970,0.000225010,-0.047527260,0.015866760
2.105840206,-0.207225100,0.424921450,9.937461850,-0.029878320,-0.025968250,0.028948490
2.106970072,0.145483850,0.698546950,9.680106160,-0.070440790,-0.007885690,0.020882490
2.108500004,0.030361050,0.950908180,10.306390760,-0.050124530,-0.035017730,0.030983980
2.112930059,0.046678480,0.813212040,10.025439260,-0.042147940,-0.042256720,0.022450090
2.114510059,0.302819070,0.637253110,9.736432080,-0.006470090,-0.044018040,0.025621060
2.116950035,0.060403510,0.483189280,9.989529610,0.008770820,-0.009949510,0.041162970
2.117640018,0.077480410,0.280421580,9.725211140,-0.080603350,-0.013095140,0.039315220
2.124270201,0.027252970,0.206103380,9.860561370,-0.127196310,-0.033181910,0.046563150
2.125160217,-0.097377980,0.002262710,9.768360140,-0.085935000,-0.015529990,0.041744110
2.127050161,0.063813890,0.008706370,9.720280650,-0.009542700,-0.020146370,0.015327330
2.127640009,-0.065263390,0.235232060,9.858184810,0.007715820,0.007769470,0.017698110
2.135220051,0.109907870,0.268993470,9.646907810,-0.075051210,-0.001662970,0.015456980
2.135650158,0.111408960,0.396191420,9.905418400,-0.094527010,-0.005380810,0.029800830
2.136930227,-0.035091120,0.380553070,9.848740580,-0.077067320,-0.009584430,0.038094810
2.137450218,0.008653500,0.272162740,9.803586960,-0.036622580,-0.047868490,0.026108320
2.142100096,-0.053969870,0.140366990,9.668101310,0.021056830,-0.017908220,0.012570620
2.142930031,0.116606220,0.068736770,9.269562720,0.010180470,0.017231700,0.009484590
2.147330046,0.104182420,0.133289410,9.957667350,-0.043024130,0.042964520,0.024056430
2.147950172,0.115533880,0.124663100,10.044117930,-0.093668690,0.033502270,0.028605760
2.152290106,0.216610600,0.230281130,9.965860370,-0.057591510,-0.062093150,0.027668480
2.154489994,-0.121116240,0.246984330,9.876586910,0.009265540,-0.005219880,0.013938550
2.157380104,-0.110316300,0.291454700,9.458057400,0.017888850,0.001020730,0.000399350
2.158010006,-0.336192730,0.364896060,10.296401020,0.006131830,-0.017419460,0.006461140
2.162130117,-0.332957420,0.290479450,9.789666180,-0.031398240,0.010192390,0.023533400
2.163660049,0.069116890,0.368371810,9.299935340,-0.052231550,-0.026652220,0.025384130
2.167129993,-0.069077090,0.475589750,10.135174750,-0.039729480,0.029982630,0.021246080
2.167900085,0.350308390,0.428922800,9.499915120,-0.037257380,0.058467690,0.022032860
2.172040224,0.465616410,0.190239800,9.936812400,-0.002542140,-0.034368040,0.028005250
2.172640085,0.442443700,-0.304017160,9.710915570,0.034025310,0.048474980,0.006458160
2.177020073,0.794599000,-0.707326950,9.069391250,0.091297920,0.039637090,0.012178720
2.177590132,0.131931160,-0.818199630,10.345654490,0.122256580,0.050413610,0.011244420
2.182440042,0.148248970,-0.882670460,9.434218410,0.045143070,0.056862830,0.002546610
2.184580088,-0.012531460,-0.663898350,9.489926340,0.079968580,-0.034572180,0.007313490
2.187040091,-0.338896780,-0.217292200,9.630608560,0.124885140,0.087000420,-0.021539630
2.187650204,0.070984040,0.407900390,8.949736600,0.130108000,0.100325060,-0.030799210
2.191950083,-0.163555320,0.999005910,10.113138200,0.121319320,0.060223050,-0.032445800
2.192460060,0.312705460,1.124570250,9.196362500,0.068733100,0.123330960,-0.033955280
2.198800087,0.475071700,0.928861080,9.423901560,0.117993370,0.052604080,-0.003232060
2.200330019,0.060515960,0.441879360,10.103718760,0.165607050,0.094473360,-0.009448830
2.202540159,0.411346200,-0.094163610,8.854915620,0.166277590,0.045119220,-0.025530160
2.203690052,0.018845330,-0.497581660,9.378639220,0.173974050,0.042869150,-0.035093730
2.207200050,0.125123400,-0.655566160,9.030401230,0.106205070,0.183546570,-0.055986650
2.208310127,0.005876210,-0.594031690,9.826302530,0.119811320,0.101561840,-0.073841220
2.212110043,-0.401430520,-0.130393010,10.381773950,0.166845340,0.062645980,-0.088280450
2.213479996,-0.097688590,0.399895160,8.925247190,0.155828910,0.017574430,-0.099612780
2.216989994,-0.292909830,0.693750680,9.390039440,0.158466410,0.063452120,-0.090321900
2.217519999,-0.119646970,0.868179860,9.414907460,0.152464210,0.205953430,-0.074645880
2.222490072,0.069550540,1.037882330,9.870837210,0.185445000,0.074891750,-0.067423280
2.224460125,0.092829440,1.011578680,9.957239150,0.140452380,0.054466730,-0.055073200
2.227110147,0.636704800,0.943076610,8.536068920,0.059442220,0.117218500,-0.060625380
2.227770090,0.275438010,0.588618640,10.001475330,0.059930980,0.120899090,-0.081104040
2.231960058,0.194044530,0.328653720,9.696939470,0.100040440,0.163321210,-0.098058580
2.232530117,0.336158630,0.210486890,9.146250720,0.135189270,0.016483660,-0.122119470
2.238580227,-0.081053590,0.161993470,9.779879570,0.088059900,0.129687800,-0.126808900
2.240160227,0.056324400,0.336678120,8.803169250,0.011798740,0.186072260,-0.108353790
2.241990089,-0.392124740,0.308652130,10.421989440,-0.002923610,0.072431570,-0.115741790
2.242770195,-0.227823820,0.293677450,9.461288450,0.058780620,0.136098280,-0.109168900
2.246920109,0.105441880,0.349573640,8.800120350,0.139342230,0.060699870,-0.121517480
2.247580051,0.056853260,0.503798900,9.716073990,0.094993410,0.194478050,-0.133112070
2.252600193,0.645302950,0.472150420,8.780422210,0.003159050,0.239783540,-0.121632220
2.254530191,0.591750740,0.326282050,10.109744070,0.006830690,0.131608550,-0.128917410
2.256940126,0.571985420,0.269266160,9.424664500,0.051647430,0.191579760,-0.146187840
2.257369995,0.441996510,0.108803610,8.957238200,0.076174760,0.102002930,-0.156214850
2.262070179,-0.150664480,-0.063734460,9.698590280,0.086997440,0.158557310,-0.172548000
2.262630224,-0.343528960,-0.241529870,8.851909640,0.083257240,0.170524400,-0.182177100
2.266970158,-0.490922240,-0.172715710,9.286596300,0.091023740,0.142657770,-0.172679140
2.267680168,-0.579016630,-0.005890710,9.651539800,0.080889460,0.204382850,-0.180938810
2.272290230,-0.379046530,0.210838230,9.550930980,0.070758160,0.167232740,-0.187619030
2.273390055,-0.171926540,0.528769250,9.609584810,0.089445720,0.115093590,-0.192424640
2.276970148,-0.026154860,0.579573990,9.391487120,0.083631270,0.156322090,-0.203101310
2.277410030,0.526918110,0.555237950,9.012591360,0.102250290,0.210236060,-0.206960770
2.282030106,0.433924560,0.466212270,9.865130420,0.148116070,0.175616160,-0.194510850
2.282490015,0.450592640,0.419299720,9.523202900,0.097028920,0.186152730,-0.185635700
2.287389994,0.645071270,0.368412640,8.845579150,0.041224070,0.130574410,-0.178602340
2.288120031,-0.045294440,0.141462710,9.942924500,0.043813890,0.192210080,-0.178624700
2.292000055,-0.021602180,0.121711230,8.981462480,0.076274570,0.217747660,-0.196605910
2.293270111,-0.488828720,0.080303620,9.813344960,0.142575820,0.085011120,-0.210841010
2.297120094,-0.628065940,0.251158890,9.331558230,0.105942790,0.206625480,-0.240849000
2.298320055,-0.205243140,0.577663180,8.638758660,0.039583450,0.154151020,-0.241769890
2.303690195,-0.561323230,0.592345710,10.229438780,0.006304680,0.193558620,-0.213016540
2.304620028,0.222570850,0.638562320,8.800582890,0.023941690,0.223961460,-0.239510800
2.307480097,0.406248930,0.528223400,9.731433870,0.136917840,0.093995020,-0.235877930
2.308210135,0.567143860,0.658248840,9.071362500,0.120273250,0.260320370,-0.230878640
2.313580036,1.019474860,0.426015620,8.770458220,0.000450020,0.200089830,-0.237792730
2.314530134,0.401192400,0.162135450,10.161719320,-0.005848710,0.232456620,-0.210841010
2.317160130,0.438660800,-0.013350490,8.730975150,0.049479300,0.180055220,-0.243315090
2.317750216,-0.201920140,-0.177120580,9.533836360,0.106492660,0.112760080,-0.258363810
2.322040081,-0.726532160,-0.002490780,8.845657350,0.083850340,0.221614570,-0.273248580
2.322740078,-0.770803870,-0.205236330,9.068517680,0.043645500,0.139163450,-0.300486390
2.326930046,-1.021370530,-0.064455610,9.700510980,0.099451850,0.219719110,-0.272670390
2.327419996,-0.471804770,0.125770870,8.930111890,0.109268720,0.193822400,-0.281420350
2.332070112,-0.339128850,0.349126790,10.060416220,0.111766160,0.146533520,-0.267715780
2.332590103,0.052694500,0.699976500,9.025975230,0.077816830,0.179918130,-0.259867250
2.337140083,0.485685740,0.663574160,8.968378070,0.038012870,0.110909360,-0.270625950
2.337940216,0.540013190,0.656926750,9.344886780,0.078795850,0.221584750,-0.277505820
2.342040062,0.759531320,0.579406200,9.056416510,0.112165530,0.195704450,-0.294604960
2.342680216,0.453422400,0.584483500,9.824968340,0.098255300,0.148200990,-0.288757710
2.347230196,0.139447570,0.478110880,9.228803630,0.008229910,0.168366750,-0.283627240
2.348070145,-0.079381380,0.366924880,8.986539840,-0.019648670,0.146897140,-0.281150670
2.352090120,-0.542287470,0.268336360,9.509872440,0.033204260,0.163947060,-0.291597840
2.353060007,-0.575952890,0.207598850,8.992150310,0.061564150,0.187788920,-0.294569130
2.357380152,-0.394405100,0.256932710,8.960872650,0.085698090,0.150491330,-0.303262530
2.358100176,-0.376748920,0.237513510,9.548192020,0.048039860,0.212346050,-0.307417010
2.362030029,-0.014214830,0.382371540,9.040751460,-0.001916290,0.204238310,-0.289225580
2.362620115,0.079700600,0.299432370,9.641487120,-0.005675850,0.106120120,-0.305041610
2.367220163,0.363730340,0.115868950,8.991082190,0.045065590,0.178952560,-0.317016330
2.368430138,0.799992500,0.262121260,8.222414970,0.112640860,0.186173630,-0.324581560
2.372370005,0.468537390,0.244630780,9.613358500,0.053165850,0.264731020,-0.332838240
2.373790026,0.610682610,0.302763490,8.883341790,-0.017610190,0.241032260,-0.318290230
2.377070189,0.257901370,0.195256320,9.491189960,0.009779630,0.106070940,-0.318649440
2.377870083,-0.319315760,0.161524650,9.007841110,0.050207980,0.192750990,-0.341039930
2.382080078,-0.361612080,0.222505750,8.296516420,0.068049130,0.141224270,-0.354474810
2.383630037,-0.873453440,0.014022730,9.559259410,0.073924670,0.199536980,-0.374376800
2.386920214,-0.572311700,0.038457120,8.687466620,0.070264940,0.254957380,-0.372584160
2.387370110,-0.379842820,0.051395300,9.529537200,0.074116890,0.141474620,-0.356528160
2.392140150,-0.297933940,0.269682320,9.476834300,0.053788720,0.208875540,-0.352114470
2.393860102,0.347012520,0.448849890,8.484185220,0.032058360,0.137807430,-0.338017970
2.397230148,0.262852490,0.463849040,9.203074460,0.056433680,0.168147680,-0.342981520
2.398590088,0.585374180,0.500242950,8.570018770,0.060059130,0.252290070,-0.356486470
2.402000189,0.558763740,0.441235150,9.365112300,0.104716420,0.179992590,-0.346940730
2.402630091,0.085117280,0.512363140,9.685317040,0.081586860,0.193208490,-0.348819820
2.407400131,0.218483690,0.503220200,8.618846890,-0.018550460,0.145281850,-0.361573760
2.408140182,-0.374945100,0.470319300,9.133075710,-0.001977380,0.144445900,-0.344668360
2.411980152,-0.446656760,0.427749840,8.812316890,0.010544060,0.228798400,-0.378325580
2.412520170,-0.318104270,0.450852510,8.778330800,0.064364080,0.167842210,-0.365638760
2.417170048,-0.438942430,0.463084280,9.261636730,0.038239360,0.195215660,-0.370842250
2.417790174,0.261724470,0.360087310,8.371310230,-0.012636180,0.226438060,-0.369870660
2.422049999,0.054932020,0.299499450,9.538315770,0.006310640,0.198218260,-0.349854020
2.423840046,0.255905660,0.203073590,9.057383540,-0.014936930,0.226342710,-0.367367300
2.427420139,0.523889540,-0.044895920,8.595102310,0.042650100,0.122340020,-0.372077470
2.428200006,0.273552810,-0.071454760,8.690951350,0.075438620,0.237360610,-0.387659670
2.432350159,0.490693600,0.034472360,8.101640700,0.045579680,0.253838360,-0.404173230
2.433100224,-0.066649950,0.041612320,9.589714050,0.007899110,0.217856470,-0.386686650
2.437010050,0.105134040,0.243655830,8.523663520,-0.004768370,0.219945650,-0.392520520
2.437780142,-0.184654910,0.153168840,9.058860780,0.050430000,0.144699220,-0.392860200
2.442450047,-0.357778310,0.310800160,8.642769810,0.069448370,0.282301070,-0.390982720
2.446160078,-0.317529320,0.256636320,8.805688860,0.073952980,0.179016590,-0.413504270
2.448750019,-0.519562900,0.191007210,9.314196590,0.070151700,0.233535510,-0.398501840
2.449190140,0.117281950,0.378160660,7.894663330,0.043772160,0.196728110,-0.397302180
2.452030182,-0.071054120,0.265213490,9.374066350,0.032764680,0.205482560,-0.395996870
2.452650070,0.322079930,0.534494340,8.285079000,0.042435530,0.280188110,-0.394347370
2.457050085,0.216175850,0.500807400,9.242443080,0.040434300,0.143763420,-0.402273240
2.457670212,0.183549110,0.354555130,8.868309020,0.040882830,0.261820940,-0.388565660
2.463700056,0.454089400,0.350070000,8.175134660,0.063776970,0.179870430,-0.393749800
2.464680195,-0.123673240,0.213399530,9.517868040,0.065934660,0.257040590,-0.390063230
2.466930151,0.042210020,0.271423370,8.060747150,0.021883850,0.241386920,-0.388816000
2.467620134,-0.347261670,0.204661730,9.136409760,0.002974270,0.134848070,-0.385290380
2.472390175,-0.457374480,0.103449650,8.448664670,0.032424930,0.250843170,-0.387667210
2.473080158,-0.301348690,0.120486150,8.389461520,0.086799270,0.155408680,-0.399476320
2.477400064,-0.424393090,0.023990440,9.162669180,0.092713540,0.251725320,-0.403788750
2.478510141,0.170350250,0.105470640,8.183947560,0.070169580,0.243346440,-0.402362700
2.483900070,0.111225310,0.241011260,9.141664510,0.057160850,0.202570890,-0.394603700
2.484549999,0.272455960,0.235912280,8.567653660,0.015555320,0.227466260,-0.395464990
2.487010002,0.517522570,0.251887140,8.252723690,0.054076330,0.169973080,-0.406113330
2.488630056,0.326367530,0.115433150,8.414972310,0.130254050,0.235240160,-0.425817160
2.492530107,0.311685740,0.218108970,8.232571600,0.131618980,0.268600880,-0.433059130
2.494040012,0.041076970,0.235906240,8.869845390,0.083021820,0.234244810,-0.415727560
2.497040033,-0.221071810,0.043400790,9.030824660,0.027447940,0.200983930,-0.408898380
2.497640133,-0.207653480,0.084080580,8.234137540,0.083568710,0.208357020,-0.397284390
2.502000093,-0.577154100,0.020379580,8.607903480,0.123183440,0.200814010,-0.413099020
2.502590179,-0.466961470,0.089387740,8.447206500,0.140036660,0.264595450,-0.423219830
2.507150173,-0.280121420,0.207432930,8.484466550,0.147083400,0.189760340,-0.419816400
2.509050131,-0.136910570,0.359895350,8.756478310,0.074052810,0.240333420,-0.418831470
2.513480186,0.462871730,0.559909280,7.978983880,0.073592370,0.254443320,-0.398808780
2.514080048,0.236561330,0.700113300,9.203825950,0.074170540,0.223644120,-0.410065110
2.516990185,0.583743510,0.930069030,8.321464540,0.070492930,0.275284110,-0.408782120
2.517530203,0.447519720,0.870372180,8.399798390,0.063112390,0.171163710,-0.412963420
2.522290230,0.257890820,0.682442670,8.280155180,0.050352520,0.293138710,-0.419795570
2.523190022,0.193910030,0.554153320,8.077648160,0.070108500,0.251999560,-0.411540360
2.526920080,-0.424598840,0.399981590,9.045145990,0.012433530,0.238832860,-0.397981760
2.527500153,-0.166742910,0.193717150,7.912001130,-0.018174950,0.230333250,-0.411103730
2.532010078,-0.508065220,0.034812880,8.585320470,0.019204620,0.240552470,-0.408122000
2.532430172,-0.490054990,-0.022803250,8.610230450,0.050732500,0.295920700,-0.425878230
2.536960125,-0.298259290,-0.081843130,8.652579310,0.050036620,0.199902090,-0.431463180
2.537690163,-0.062418570,0.003243100,8.120332720,0.049605970,0.242693750,-0.431557090
2.542659998,0.410411000,0.131637630,7.796603200,0.036075720,0.277036520,-0.427945020
2.544150114,0.444566940,0.473104270,8.361184120,0.015825040,0.336393770,-0.405323590
2.547800064,0.583332660,0.470994920,8.638278010,0.002728400,0.252266290,-0.410512150
2.548600197,0.312295910,0.389228280,8.598567960,0.057026750,0.215668980,-0.409026530
2.551990032,0.260422200,0.393807320,7.804876330,0.070221720,0.212776690,-0.435981180
2.553710222,-0.228525770,0.062369280,8.535517690,0.056163970,0.296977160,-0.425800770
2.557380199,-0.258432270,0.072881470,8.110103610,0.055232660,0.312744140,-0.424109460
2.559140205,-0.507344420,-0.113213620,8.900272370,0.034400820,0.215467810,-0.422605900
2.561950207,-0.214511600,0.029907180,7.666131970,0.047558550,0.304201280,-0.398111400
2.562310219,-0.046677020,-0.006567120,8.305778500,0.049975530,0.246968900,-0.425829080
2.566930056,-0.114107650,0.043134480,8.755530360,0.089520220,0.349861470,-0.410550920
2.567480087,0.429265950,0.249619360,7.979613300,0.106517970,0.233356700,-0.423501490
2.573240042,0.193145620,0.185117350,8.804949760,0.090573740,0.287741480,-0.413294230
2.573930025,0.703678910,0.671678900,7.508352280,0.060591110,0.341792400,-0.411999320
2.576950073,0.107785620,0.777524050,9.140430450,-0.000278650,0.271044700,-0.406174390
2.577380180,0.074434240,0.931881190,7.981648920,-0.010770560,0.321282450,-0.389979810
2.581950188,-0.002116090,0.790657280,8.102740290,0.026556850,0.194898280,-0.415216480
2.582490206,-0.540629570,0.552393500,8.478058820,0.083731120,0.361768900,-0.406624410
2.587290049,-0.161227240,0.541888480,7.672894950,0.043000280,0.289121360,-0.400492640
2.588890076,-0.547028300,-0.007963530,9.005317690,-0.022539500,0.298996270,-0.394344360
2.592730045,0.046862170,-0.039318770,7.630121710,-0.017742810,0.342853370,-0.389549230
2.593350172,-0.060016670,-0.122874250,8.693380360,0.022108850,0.248882200,-0.394490450
2.596890211,0.092760610,-0.119471510,8.136234280,0.037886210,0.342834090,-0.389553700
2.597280025,0.487985730,-0.006116500,7.694056030,0.049334770,0.254030620,-0.411354060
2.601999998,0.228572550,0.048934740,8.328716280,0.055362280,0.359460710,-0.405254990
2.602580070,0.572227540,0.351009910,7.683731560,0.040411960,0.364813270,-0.391054240
2.607070208,-0.026762260,0.430141330,8.901364330,0.006042420,0.287848740,-0.389582010
2.607990026,-0.009916570,0.501946270,7.990450380,0.013926630,0.306402150,-0.384059580
2.614450216,-0.284219210,0.386689870,7.805458550,0.064364100,0.244465520,-0.405699070
2.614960194,-0.562461080,0.237204180,8.106105800,0.064796220,0.361220600,-0.414203200
2.616990089,-0.362839520,0.145194490,7.955732820,0.075942290,0.350765970,-0.410261840
2.618370056,-0.539466200,-0.025091880,8.832230570,0.068026800,0.294433590,-0.403401350
2.622080088,-0.039554980,0.055756840,7.707400800,0.046846270,0.309382410,-0.391146540
2.622920036,-0.068922410,0.166226700,8.090083120,0.016549230,0.289307530,-0.395776420
2.627030134,0.133412990,0.201960910,8.230439190,0.038024790,0.361526010,-0.402280750
2.627810001,0.224496050,0.441830130,7.955776210,0.097769510,0.283238380,-0.403967560
2.632050037,0.101677910,0.595659550,8.339051250,0.065526370,0.298741490,-0.406292080
2.633210182,0.208188220,0.720940830,7.785095210,0.051397090,0.323137730,-0.382855530
2.637270212,-0.255475550,0.748322610,8.640828130,-0.007726250,0.274290170,-0.390449200
2.638190031,-0.349934460,0.650231360,8.130254750,-0.005614760,0.289338860,-0.372345750
2.641990185,-0.464994700,0.578599570,7.879270550,0.017002230,0.239250110,-0.393386240
2.642770052,-0.524234830,0.434093120,8.176272390,0.038337720,0.329123500,-0.397218850
2.649910212,-0.283583310,0.437474940,7.858627320,0.033620000,0.296615060,-0.379921500
2.650500059,-0.177821980,0.247458830,8.318195340,-0.038632750,0.277777020,-0.388810130
2.651980162,0.118887260,0.228277390,7.705911160,-0.026033820,0.292038980,-0.366680410
2.652650118,0.032170820,0.277326320,8.212842940,-0.014758110,0.257542820,-0.373551310
2.657200098,-0.068116610,0.124266140,8.081659320,0.003327430,0.269722940,-0.360505340
2.658660173,-0.082440430,0.195512790,7.734451290,0.012794140,0.217564430,-0.383251940
2.662080050,-0.136252940,0.125670430,7.857252120,0.023008890,0.279440080,-0.389975370
2.664210081,-0.065488280,0.331755790,7.751528260,0.001271070,0.311948390,-0.372907580
2.667590141,-0.121692900,0.288052890,8.471589090,-0.042659060,0.290995900,-0.385841790
2.668840170,-0.092668060,0.313990410,8.220409390,-0.005605820,0.259234100,-0.366698270
2.671950102,0.021738750,0.307421240,7.684138300,0.018894670,0.200571130,-0.383426250
2.672540188,-0.075239670,0.054472030,7.588923930,0.047856580,0.288589360,-0.376266330
2.677020073,-0.008542030,0.073717860,7.665475370,0.028821830,0.321441920,-0.377729620
2.678450108,-0.216356050,-0.288416800,8.495431900,0.037813190,0.250658390,-0.368595210
2.683870077,-0.080445740,-0.154911800,7.716745380,0.065456330,0.248695880,-0.358521910
2.684470177,-0.167367280,-0.137543070,7.866390710,0.054427990,0.227826880,-0.382180570
2.687270164,-0.326562290,0.107069020,8.120242120,0.042749950,0.305472310,-0.371547040
2.688160181,-0.174498870,0.409140530,7.846984860,0.050278020,0.219178240,-0.388930740
2.692059994,-0.308518950,0.456766690,8.241127010,0.067481410,0.251393020,-0.370605380
2.692710161,0.065413640,0.684232060,7.514765740,0.085803860,0.282683910,-0.371228190
2.699620008,-0.425006960,0.622542620,8.821092610,0.063946840,0.228300740,-0.374287400
2.702410221,-0.070433360,0.828991170,7.612038610,0.026148560,0.235109030,-0.345544490
2.703270197,-0.077155780,0.436664310,7.834157940,-0.000260770,0.172448170,-0.349126760
2.703790188,0.025382720,0.304715190,7.801392080,0.045676540,0.343665540,-0.352332090
2.707010031,0.052295300,0.377577660,8.012070660,0.079673540,0.217583780,-0.361393390
2.707870007,-0.348019930,0.344140020,8.531274800,0.017070770,0.228121880,-0.344818860
2.712630033,-0.050175060,0.450390070,7.260686870,-0.036083160,0.183182950,-0.355035100
2.714280128,-0.731081960,0.272240640,8.589770320,-0.031112140,0.190357880,-0.361430640
2.717000008,-0.411709070,0.463614610,7.273210050,0.038394330,0.234936190,-0.358141990
2.717770100,-0.624599340,0.444652500,8.293995860,0.021170080,0.146372630,-0.376310940
2.722110033,-0.048319310,0.563560720,7.450778010,0.000777840,0.296033950,-0.349022450
2.722790003,0.191563520,0.426467750,7.992180350,-0.033107400,0.188657640,-0.349584250
2.727030039,0.236206990,0.291304650,8.276378630,-0.020809470,0.293491720,-0.329162180
2.727600098,0.583381240,0.194787470,7.532357220,0.009688740,0.149562980,-0.347744020
2.732070208,0.251118570,0.002358870,8.001945500,0.019772350,0.204686820,-0.361558820
2.733130217,0.488463190,0.029081860,6.647773270,0.023840370,0.265465680,-0.357882710
2.736920118,-0.258678970,-0.136954040,8.483472820,-0.021539630,0.242447900,-0.376278250
2.737390041,-0.277567860,-0.010142320,7.710936550,0.024284420,0.246331130,-0.356417920
2.741930008,-0.665057780,-0.034347010,8.150537490,0.029814250,0.098159920,-0.374807510
2.742460012,-0.664230170,0.084027800,7.400107380,0.046984840,0.252744590,-0.364948810
2.747310162,-0.478258880,0.163749840,7.560022830,0.038208070,0.204759840,-0.367893280
2.748010159,-0.425224810,0.055311750,8.470692630,0.067299610,0.282454490,-0.363320140
2.752050161,0.228954020,0.264932570,7.471109870,0.091059510,0.201062870,-0.350730120
2.753400087,0.070322180,0.200962440,8.372921940,0.065337130,0.185079870,-0.344337550
2.756990194,0.382034120,0.321914730,7.304731850,0.046871600,0.235886890,-0.345730810
2.757620096,-0.116285080,0.387871000,8.316980360,0.025475030,0.143860300,-0.372451540
2.764180183,-0.198205160,0.408183930,7.637848850,0.052107880,0.201012240,-0.352887870
2.764990091,-0.268186480,0.417229530,7.551598550,0.059024990,0.141261490,-0.370603770
2.767160177,-0.475998070,0.327331720,8.100501060,0.087831910,0.247626050,-0.364008580
2.767910004,-0.296696190,0.572754620,7.747484210,0.047372280,0.191546990,-0.345332920
2.772020102,-0.427561730,0.361044170,8.385109900,-0.011944770,0.149695590,-0.346170370
2.772710085,0.029681440,0.261629520,7.217971320,0.017119940,0.193727030,-0.326311590
2.779790163,0.014518060,0.184671210,7.841472150,0.082765510,0.179511310,-0.361394880
2.781030178,0.088710330,0.338016750,7.757946010,0.076246260,0.240691020,-0.358329710
2.783380032,0.265393560,0.450206130,7.591508390,0.000169870,0.131820190,-0.352940020
2.786150217,0.112945520,0.197995590,7.898398400,-0.025637450,0.214463490,-0.353749100
2.787580013,0.109983700,0.411528290,7.488773820,0.020392240,0.200429530,-0.360819640
2.787970066,-0.423818920,0.169947450,8.451536180,0.044821200,0.143508580,-0.369490650
2.792060137,-0.166004720,0.217049520,7.063713550,0.051155690,0.171941520,-0.358140500
2.792680025,-0.380482760,0.107489330,7.721408370,0.032347440,0.169816580,-0.365319820
2.798530102,-0.397033810,0.139737440,7.650413510,0.011549890,0.270304080,-0.338596110
2.799440145,-0.448155250,0.099039620,8.049578670,0.016430020,0.106473290,-0.348688720
2.802200079,-0.521435860,-0.013246870,7.957471850,0.043517350,0.146622960,-0.347104700
2.803410053,-0.193734200,0.118939740,6.946334840,0.088201460,0.111779590,-0.373609360
2.807090044,-0.387875140,0.117902580,7.891705510,0.057554250,0.176391010,-0.381240250
2.807770014,0.125385250,0.310973910,7.362840180,0.051617620,0.214594570,-0.361992390
2.813050032,0.014209930,0.175496040,8.541896820,0.035701690,0.145423410,-0.367015630
2.815840006,0.184354260,0.405147910,7.721469400,0.064170360,0.145241630,-0.342525540
2.816970110,-0.057589690,0.346002580,7.722230910,0.052520640,0.046740480,-0.355754820
2.817450047,-0.287507030,0.322326330,7.580763820,0.057423120,0.168615580,-0.352083180
2.821920156,-0.471364470,0.421679200,7.640324590,0.060914470,0.119558000,-0.366072360
2.822410107,-0.709834040,0.290727940,8.074883460,0.036847600,0.124253350,-0.349153610
2.826990128,-0.395514250,0.397363130,7.404158120,0.056266790,0.103245700,-0.352193500
2.828820229,-0.590716180,0.478836150,8.267492290,0.016242270,0.137203930,-0.368131730
2.832260132,-0.421636160,0.632864650,7.894712450,0.019298500,0.113309930,-0.345108000
2.834020138,-0.327930210,0.451044560,7.992949490,-0.011996930,0.021348900,-0.364470540
2.836940050,0.100094970,0.293449910,7.267995360,0.048141190,0.124849390,-0.352017580
2.837490082,0.092125490,0.300550190,7.643370150,0.060886150,0.134933040,-0.376243950
2.842100143,-0.053475130,0.350934770,8.122714040,0.014878810,0.113752490,-0.347244740
2.842860222,0.051789810,0.288472240,7.570985790,-0.050321220,0.028064850,-0.338256360
2.847040176,-0.157986880,-0.000071870,7.746809960,-0.024411090,0.061480710,-0.359617260
2.847760201,-0.433320550,-0.001791710,7.749272350,0.082615030,0.093682110,-0.370088250
2.852330208,-0.758745550,0.059758670,8.042417530,0.070750730,0.023965540,-0.382924170
2.853780031,-0.729955200,0.038889220,7.771529200,0.035311290,0.043049460,-0.358100320
2.856990099,-0.606103540,0.129400120,7.605229380,-0.015573200,0.059147180,-0.360640910
2.857590199,-0.575663690,0.091043700,8.080825810,0.038427120,0.045174360,-0.346718760
2.862179995,-0.181702540,0.297232180,7.379354000,0.069665910,0.028078260,-0.359414610
2.862960100,0.124671290,0.188817930,7.676419730,0.081495940,0.018027430,-0.362585480
2.867560148,0.308591810,0.257147520,7.558695320,0.066120920,0.112974670,-0.350706370
2.868420124,0.371747400,0.129515500,8.015704150,0.058850650,0.020322210,-0.366802510
2.872020006,0.063346240,0.099296460,8.131283760,0.078439730,0.047607730,-0.360721410
2.872720003,-0.126649830,0.264651060,7.559056760,0.053150960,-0.040130320,-0.383947790
2.877140045,-0.854400810,0.275594230,8.104888920,0.032876430,-0.020731990,-0.373111750
2.878360033,-0.718188350,0.400530280,6.978565220,0.035794080,0.000192220,-0.371702050
2.881980181,-1.110512730,0.203402430,8.534037590,0.078614060,0.009752810,-0.378206460
2.882660151,-0.704385220,0.560909210,7.767216680,0.097669670,0.072075430,-0.363527270
2.887420177,-0.530039430,0.442053650,8.624534610,0.039358450,-0.094579180,-0.350660150
2.888510227,-0.022115670,0.380191060,7.515725610,0.006182490,0.058346990,-0.335329800
2.892460108,0.370951210,0.385204340,7.710856910,0.027200580,-0.047640500,-0.370493560
2.893590212,0.242809950,0.362794610,8.149429320,0.068141530,0.054958470,-0.351698760
2.897000074,0.821975230,0.466444020,6.950201990,0.049611930,-0.063522170,-0.382143350
2.897520065,0.226159890,0.329271850,8.277789120,0.014235080,0.037176910,-0.381098690
2.902270079,0.302813650,0.558406770,7.230316640,-0.007835030,0.047285860,-0.383871790
2.903380156,-0.788622140,0.325175110,9.180645940,-0.023916370,-0.079935790,-0.385308300
2.907010078,-0.698828280,0.356766580,7.166772840,0.003704430,-0.025461620,-0.363746260
2.907730103,-1.051594260,-0.084863850,7.952753540,0.049170850,-0.126811880,-0.386771560
2.912120104,-0.820614100,-0.080326530,7.281743050,0.079984970,0.116452580,-0.369001920
2.912790060,-0.349926680,-0.084427460,7.948293690,0.051474580,-0.011001530,-0.375817780
2.917290211,-0.127107890,-0.166958170,8.685250280,0.010788440,0.083802650,-0.344276460
2.918840170,0.692171810,0.026228010,7.479708670,0.038367510,-0.057366490,-0.354920360
2.922000170,0.292937190,0.052399470,8.312982560,0.068391860,-0.037449610,-0.364324540
2.923330069,0.662695290,0.315004860,6.623953820,0.095804040,0.005581970,-0.377191630
2.927130222,-0.186516090,0.371226310,8.303317070,0.056938820,-0.043648480,-0.406587150
2.927839994,-0.212954730,0.563667890,7.475116730,0.050596900,0.040513280,-0.380298580
2.931970119,-0.780140100,0.557725970,8.378911970,0.032693150,-0.100335490,-0.390768050
2.933090210,-1.046664830,0.578760150,8.119027140,0.039190060,-0.002759700,-0.377339180
2.936940193,-1.042240260,0.606707810,7.787128450,0.035291910,-0.110438470,-0.371618600
2.937480211,-1.082569960,0.320007150,8.262230870,0.030095880,-0.029224160,-0.367745850
2.942480087,-0.222627330,0.176526350,7.386178490,0.058484090,-0.025561460,-0.363595780
2.943130016,-0.118059020,-0.047038530,8.626961710,0.086908060,-0.022828580,-0.367222790
2.947250128,0.547164380,0.154943670,7.794591900,0.074012580,-0.020305810,-0.362914860
2.947810173,0.511981960,0.359218300,8.084135060,-0.024211410,-0.107495490,-0.372852390
2.951930046,0.516769950,0.319928140,7.770082470,-0.035199520,-0.019329790,-0.367994640
2.952360153,0.220298770,0.528454600,7.653240680,0.034183260,-0.073206410,-0.392793090
2.957560062,-0.398445310,0.627298650,8.267207150,0.082315510,-0.077718500,-0.401513220
2.958450079,-0.504895570,0.798206150,7.369577880,0.031118100,-0.072865200,-0.384295080
2.961960077,-0.899593890,0.579318460,8.117178920,-0.043098640,-0.074253980,-0.388781790
2.962510109,-0.861270840,0.547877430,7.964735980,-0.052335860,0.011301040,-0.367210840
2.967630148,-0.702693340,0.391212250,8.199548720,-0.015719240,-0.112941880,-0.363962350
2.968350172,-0.327058260,-0.053612120,8.093400000,0.030128660,-0.047244140,-0.370459350
2.972310066,0.274409680,-0.144723160,7.313510890,0.073210900,-0.043024120,-0.382146270
2.972990036,0.174393180,-0.367914770,8.428118710,0.045503690,-0.019672520,-0.373846380
2.977420092,0.618256030,-0.301262590,7.377224920,0.013135380,-0.033387550,-0.362297950
2.978430033,0.305794720,-0.285896510,8.420804020,0.000993910,-0.114887960,-0.383917990
2.981980085,0.260540220,0.035527380,7.434062480,0.048445170,0.003905590,-0.370076330
2.982720137,-0.219170870,0.284165230,8.066012380,0.077222290,-0.115619610,-0.403116640
2.987070084,-0.632680710,0.473985970,8.087722780,0.063629450,0.012876100,-0.400364490
2.988470078,-0.635305110,0.671790300,7.814850810,0.058318690,-0.097590680,-0.399033810
2.992030144,-1.186051130,0.489562180,8.620393750,0.046809020,-0.057135530,-0.384519990
2.992810011,-0.616051380,0.468698410,7.162581440,0.067874800,-0.092841710,-0.372563360
2.997050047,-0.877194580,0.168539730,8.725641250,0.052936380,-0.063256930,-0.386931030
2.997620106,-0.165534350,0.173615370,7.649640560,0.066049400,0.007091460,-0.376130700
3.002340078,-0.116839330,0.006353360,8.715075490,0.054490570,-0.145965810,-0.387862350
3.005120039,0.460150930,-0.109959830,7.635146140,0.072217000,-0.012815000,-0.375951890
3.006990194,0.503837350,0.059598830,8.072151180,0.093716390,-0.101126730,-0.387503210
3.007990122,0.036825460,0.315915380,8.605002400,0.050643090,-0.024959450,-0.391606990
3.012010098,0.096794100,0.624145510,7.599648950,0.017444790,-0.171460210,-0.390453670
3.012580156,-0.547146380,0.634260120,8.340474130,0.000512600,-0.094427170,-0.403063030
3.016950130,-0.468305410,0.853844110,7.534147260,0.058376790,-0.031818440,-0.408299210
3.017490149,-1.117193100,0.946642100,8.980087280,0.035145880,-0.127246950,-0.403368500
3.022140026,-0.724270050,0.747485460,7.706653120,0.002841650,-0.088287900,-0.391279100
3.023190022,-0.612207530,0.527698990,7.947031500,-0.023584070,-0.126619640,-0.385591420
3.026970148,-0.429122060,0.207635270,8.264785770,-0.010597710,-0.016631190,-0.371335480
3.027520180,0.021158610,-0.073021370,8.083568570,0.024177140,-0.129027660,-0.369544360
3.031970024,0.145968720,-0.376064150,8.336112980,0.038602950,-0.105023380,-0.394368200
3.032400131,0.551883940,-0.392501380,7.526530270,0.039514900,-0.065112120,-0.395548400
3.037480116,0.247257460,-0.268639030,8.369474410,0.021654360,-0.072711710,-0.404831800
3.038910151,0.041631520,-0.228751410,8.357877730,0.028827790,-0.083906960,-0.400391280
3.045420170,-0.213935930,0.206938250,8.037901880,0.040720410,-0.174050020,-0.407001380
3.045819998,-0.567523600,0.322257670,7.982459550,0.044143190,-0.115704530,-0.414869190
3.047150135,-0.598075450,0.541447880,7.694305420,0.046806040,-0.051751740,-0.407139990
3.047650099,-0.925890740,0.445886280,8.873098370,0.067317490,-0.078549980,-0.412295790
3.053800106,-0.780385320,0.346171590,8.435482980,0.085222710,-0.117997810,-0.389192970
3.054510117,-0.594576900,0.210342110,7.944682120,0.081795440,-0.194863960,-0.383771900
3.056970119,-0.550773560,-0.203083050,8.145559310,0.045889620,-0.073342020,-0.386668710
3.057550192,-0.279578800,-0.208026620,8.170949940,0.090166930,-0.112609590,-0.382840630
3.062050104,-0.391318410,-0.412144010,8.953705790,0.114822400,-0.186102120,-0.396768840
3.062669992,0.234119250,-0.261549530,7.623091220,0.133952500,-0.133168710,-0.389023130
3.066950083,-0.033368300,-0.071238340,8.576363560,0.125478210,-0.149540620,-0.420661300
3.067840099,-0.059897250,0.383026360,8.505101200,0.079572190,-0.077779580,-0.421409250
3.072130203,-0.222460300,0.791644220,8.494468690,0.072164860,-0.236776520,-0.416678250
3.073909998,-0.391850380,0.875303800,8.333488460,0.051459670,-0.159731510,-0.413942370
3.077090025,-0.203137030,1.009400960,7.614398000,0.115017600,-0.137180090,-0.420510770
3.077680111,-0.751486900,0.901216920,8.967145920,0.093567390,-0.138288780,-0.417503770
3.081950188,-0.357012090,0.718542400,7.978484630,0.055566440,-0.136469300,-0.383034380
3.082410097,-0.600057130,0.268090400,8.815586090,0.025476520,-0.212523370,-0.388301940
3.087030172,-0.461666610,0.062892230,8.404055600,0.035080310,-0.116457050,-0.391922920
3.087610006,-0.487423420,-0.109637980,8.364769940,0.074528170,-0.243225740,-0.402256910
3.091989994,-0.500290570,-0.245885340,8.648995400,0.047607720,-0.164532660,-0.429280130
3.092550039,-0.066475290,-0.095422170,7.722481250,0.074057280,-0.155682880,-0.422608910
3.097020149,-0.332787690,0.058618550,9.035654070,0.055603690,-0.188864810,-0.421218660
3.098600149,0.096249290,0.327587220,8.075958250,0.062631080,-0.134779510,-0.398112860
3.102110147,-0.010277790,0.500117960,8.703431130,0.047405070,-0.247162630,-0.408458770
3.103000164,0.140735690,0.510998670,8.312065120,0.054559120,-0.119517760,-0.411805600
3.107590199,0.318404320,0.559044180,7.806372640,0.079257790,-0.152963400,-0.424921570
3.108190060,-0.082298140,0.388958780,9.126140590,0.061798100,-0.100073240,-0.432239530
3.112240076,0.072273230,0.357148110,8.028691290,0.048659750,-0.129136460,-0.424049850
3.113030195,-0.444730550,0.101646990,9.039108280,0.032240160,-0.246009230,-0.424629540
3.117160082,-0.530876990,-0.126438560,7.897304530,0.055533650,-0.103169680,-0.411519410
3.117790222,-0.637155830,-0.205826010,8.464159970,0.087143500,-0.185754940,-0.422377940
3.122340202,-0.986903550,-0.216359690,9.498064040,0.093798350,-0.082503270,-0.421829520
3.123239994,-0.250690820,0.070237500,8.140914920,0.075358150,-0.180998460,-0.409947340
3.126940012,-0.398095550,0.016713120,9.314907070,0.068700330,-0.175952960,-0.413581820
3.127390146,0.236126440,0.318183990,7.744660380,0.081172590,-0.057862700,-0.432202280
3.132019997,0.000527600,0.577489260,9.211483000,0.090551400,-0.186927660,-0.433026310
3.133270025,-0.087011680,0.631735740,8.719384190,0.061252720,-0.112380090,-0.416059820
3.137150049,0.253070830,0.560405970,7.986666200,0.066527740,-0.230383920,-0.424021570
3.137840033,-0.385623480,0.418843420,9.008898740,0.080345580,-0.101606550,-0.415194060
3.141980171,-0.145064520,0.458860580,8.085683820,0.071099400,-0.089660290,-0.410333310
3.142510176,-0.737901570,0.168544110,9.528897290,0.021088120,-0.184033810,-0.393924150
3.147010088,-0.604768340,-0.200554560,8.519729610,0.040839610,-0.130443290,-0.387039870
3.147980213,-0.553089440,-0.640211820,8.443156240,0.137750850,-0.208000870,-0.414168920
3.151940107,-0.743777690,-0.674994470,8.696360590,0.184848950,-0.117488230,-0.423818890
3.152400017,-0.262196270,-0.531453490,8.211891170,0.148329150,-0.132647190,-0.424614640
3.157220125,-0.264335960,-0.362049670,9.149999620,0.074674200,-0.140477760,-0.424985680
3.157840014,-0.070231940,-0.019591370,8.797066690,0.114753840,-0.128589590,-0.409223140
3.162070036,-0.086544590,0.302177520,8.739422800,0.159125060,-0.212276010,-0.411725130
3.164020061,-0.376868400,0.557881180,8.947810170,0.190380260,-0.201454790,-0.437824520
3.167080164,-0.290320550,0.742802980,8.176300050,0.156490500,-0.164021570,-0.425164490
3.167750120,-0.443127390,0.605730530,8.727828030,0.134086620,-0.175218280,-0.413586290
3.171930075,-0.449284820,0.419133570,8.910031320,0.140137970,-0.109387950,-0.401139350
3.172490120,-0.181970370,0.377423850,8.837696080,0.136069970,-0.167882440,-0.417655800
3.183250189,-0.615070160,0.130375010,9.645403860,0.132052620,-0.198420910,-0.412915710
3.183740139,-0.310054330,0.112855690,8.322632790,0.118501510,-0.203807680,-0.424818780
3.184220076,-0.610789660,-0.199586060,8.951103210,0.145876440,-0.232611630,-0.441649650
3.184720039,-0.662846330,-0.007680690,8.791198730,0.169430670,-0.124527540,-0.431953430
3.187190056,-0.582007590,0.241574360,9.063790320,0.134246080,-0.237977550,-0.440041810
3.187790155,-0.799405870,0.410617560,9.409823420,0.087323810,-0.235955450,-0.420470630
3.191950083,-0.164317340,0.813194390,8.268169400,0.071901090,-0.216452820,-0.429920910
3.192530155,-0.329603640,0.660187660,9.369351390,0.098438580,-0.176988540,-0.422628250
3.197550058,0.111808420,0.828320320,8.912962910,0.126728420,-0.151947190,-0.417246010
3.198770046,0.235451590,0.505445120,8.966037750,0.120386500,-0.226445540,-0.418064060
3.202000141,0.105160880,0.159862850,8.844213490,0.097857440,-0.178460820,-0.404639600
3.202610016,-0.159452140,0.092356090,8.783823010,0.074121360,-0.217367740,-0.402219680
3.206990004,-0.585183740,-0.343906130,9.112369540,0.046922270,-0.244028900,-0.414337280
3.209580183,-0.603414420,-0.432347360,8.629457470,0.112572330,-0.234419150,-0.425936340
3.212240219,-0.701830330,-0.384866180,8.842093470,0.160609200,-0.180295150,-0.455333350
3.214990139,-0.564747150,-0.124334660,9.248187070,0.161083070,-0.147032780,-0.432314040
3.216870070,-0.483285250,0.121064250,9.487152100,0.103846210,-0.202167060,-0.422264700
3.217190027,-0.136464390,0.061985330,9.172925000,0.090216120,-0.234939200,-0.423006770
3.222060204,-0.082827580,0.190510690,8.698615070,0.182019170,-0.222665100,-0.411516460
3.222880125,-0.018125070,0.171610950,8.551783560,0.213338480,-0.186032090,-0.438699220
3.227060080,0.014076820,0.160769190,9.038557050,0.196354140,-0.150543450,-0.421372120
3.227660179,-0.140545980,0.205412430,9.335147860,0.162558300,-0.180311500,-0.418123690
3.232030153,-0.386212560,-0.116679300,9.670275690,0.153380650,-0.248380050,-0.420410990
3.232670069,-0.594027400,0.009010890,8.975205420,0.194133820,-0.233234480,-0.419667360
3.236930132,-0.966564300,0.071626390,9.416635510,0.204147410,-0.268241760,-0.443467500
3.237420082,-0.998391750,0.135138660,9.147482870,0.195379570,-0.193153290,-0.436297090
3.242110014,-0.826904300,0.317962440,9.147405620,0.195460050,-0.278277750,-0.438574050
3.242860079,-0.745141800,0.274134040,9.677020070,0.192648190,-0.199760500,-0.436550470
3.247390032,-0.142571540,0.626514320,8.955362320,0.201420500,-0.219972460,-0.426921310
3.247950077,-0.468506490,0.693498430,10.286809920,0.166156900,-0.295509400,-0.425186840
3.252030134,0.255973880,0.699608860,8.663601880,0.134019600,-0.221027480,-0.402681590
3.252660036,0.123552060,0.506497560,9.436749460,0.179110500,-0.281584350,-0.420519770
3.257340193,-0.103625860,0.522144020,9.734829900,0.181643690,-0.158590120,-0.417591720
3.258540154,0.059536050,0.533293660,9.058959010,0.152158780,-0.287009840,-0.408384290
3.262230158,-0.766877950,0.167979080,10.031369210,0.104671740,-0.290331270,-0.418326320
3.263689995,-0.492676590,0.205925930,8.609712600,0.113251820,-0.245666550,-0.425273240
3.267310143,-1.020128130,0.018344970,9.736341480,0.157326500,-0.298245310,-0.425429700
3.267840147,-0.874336180,0.025769370,9.566689490,0.168828680,-0.228050380,-0.424167600
3.271950006,-0.432038310,0.102936910,9.206480030,0.173339280,-0.264926250,-0.424131840
3.272460222,-0.432543460,0.136193140,9.733943940,0.142303140,-0.233915490,-0.402867850
3.277370214,-0.045339480,0.364936680,9.396585460,0.121310380,-0.251431820,-0.391230050
3.278400183,0.025995720,0.271203960,9.423953060,0.116544980,-0.289821680,-0.399604530
3.282130003,0.115558300,0.051702570,9.381056790,0.185255720,-0.275743100,-0.410026370
3.283920050,0.104659140,0.143772080,8.904167180,0.230145480,-0.235457760,-0.430280030
3.286970139,-0.101785880,-0.006834400,9.645600320,0.183647870,-0.244106400,-0.423310790
3.288310051,-0.401138930,-0.079677280,9.881069180,0.153382170,-0.224034550,-0.397226300
3.291940212,-0.635420440,-0.181001590,9.651713370,0.166547300,-0.313180690,-0.422276650
3.292800188,-1.066256050,-0.251329780,9.692595480,0.217826690,-0.337627560,-0.417916540
3.296910048,-0.865710910,0.105853880,8.689248090,0.227783670,-0.274112880,-0.416673780
3.297660112,-0.980300550,-0.070272320,9.978634830,0.221169020,-0.248201240,-0.430025220
3.301970005,-0.641329410,0.203876410,9.783789630,0.235684230,-0.223699230,-0.404894350
3.302430153,-0.357012180,0.284609230,10.013200760,0.235192510,-0.369210630,-0.417211710
3.306980133,-0.058541260,0.336732390,9.643461230,0.205685240,-0.283066990,-0.410394430
3.307450056,0.242871390,0.632401110,9.274637220,0.197894890,-0.286863740,-0.412096170
3.312080145,-0.129667770,0.322303120,10.317710880,0.203050670,-0.282639270,-0.415988360
3.312730074,0.332976400,0.348563850,8.959464070,0.246959970,-0.285826620,-0.413602680
3.316900015,-0.199337380,0.327039180,9.995782850,0.255551990,-0.328834440,-0.426258240
3.317600012,-0.410672280,0.332555120,9.696583750,0.173658150,-0.213933020,-0.414255350
3.322230101,-0.660834430,0.394319000,9.739982600,0.144265590,-0.364513700,-0.410807220
3.324210167,-1.139177800,0.175356910,10.208867070,0.159412620,-0.334152670,-0.411947130
3.326970100,-0.536867140,0.207078750,9.003409390,0.237624380,-0.282327920,-0.425131710
3.327530146,-0.838222440,0.339922250,10.167486190,0.244298650,-0.276579020,-0.423033620
3.332000017,-0.268100260,0.383517270,9.779878620,0.157941910,-0.242847230,-0.399197730
3.333630085,0.084403660,0.205097420,9.716560360,0.144109170,-0.300113920,-0.393015240
3.336940050,0.092607970,0.175537390,9.906118390,0.177074970,-0.301660630,-0.389988750
3.337410212,0.311317770,0.168112370,9.614904400,0.217418420,-0.299584930,-0.385424580
3.342540026,0.209220040,0.121450400,9.456204410,0.204819490,-0.262785050,-0.400437470
3.343240023,0.091087240,0.058112940,9.799791340,0.171391670,-0.240024970,-0.412458240
3.347170115,-0.238855020,0.159670730,9.984266280,0.177572700,-0.230453950,-0.397805960
3.347950220,-0.580186190,-0.007408860,10.078889850,0.177015360,-0.320138070,-0.405225220
3.351970196,-0.880222500,-0.101220630,9.805101390,0.214985030,-0.322535660,-0.410135150
3.352600098,-0.848403220,-0.006907720,9.139602660,0.242842760,-0.279638200,-0.419421550
3.357560158,-0.905920570,-0.150210870,9.965510370,0.247190920,-0.234337200,-0.410223100
3.360590219,-0.521440270,0.111626940,9.841640470,0.221636910,-0.206242500,-0.382195440
3.361920118,-0.368024590,0.000410890,10.643136980,0.206850500,-0.306531790,-0.393688710
3.362390041,-0.049385230,0.097704040,9.892552380,0.234402760,-0.279071990,-0.387269350
3.367040157,0.153986390,0.223035480,9.384207730,0.259907570,-0.334961710,-0.399000940
3.368090153,-0.074643300,0.091845770,10.096375470,0.256882670,-0.225180430,-0.420790970
3.372130156,0.197382390,0.294544160,9.484592440,0.255359770,-0.233350720,-0.409425880
3.376380205,-0.460169880,0.277592390,10.792138100,0.244151100,-0.310421050,-0.415332700
3.379120111,-0.480052590,0.412776800,9.856157300,0.198669780,-0.261205430,-0.413815740
3.379800081,-0.808943510,0.578929540,10.059228900,0.196880120,-0.361540910,-0.411562710
3.383170128,-1.336183670,0.526229500,10.566335680,0.188061620,-0.271076020,-0.412516390
3.383840084,-0.716174360,0.573710140,9.418190000,0.216271030,-0.295013190,-0.406722810
3.387050152,-0.849809940,0.396013260,10.390932080,0.241397350,-0.290121170,-0.405262440
3.387890100,-0.122540350,0.456906020,9.843590740,0.196050140,-0.226613920,-0.406444130
3.392310143,0.222408890,0.468053280,10.287344930,0.147973050,-0.270970200,-0.389765200
3.392940044,0.338587020,0.177690390,10.277601240,0.116992010,-0.256544380,-0.385110080
3.396920204,0.541002810,0.008763400,10.044623370,0.207325860,-0.303868950,-0.416165650
3.397460222,0.179533840,0.106991140,9.996266370,0.261703130,-0.274169470,-0.431385640
3.402110100,0.092262360,0.247523260,9.621684070,0.180633400,-0.252178370,-0.414520590
3.402760029,-0.343229830,0.429400530,10.193413730,0.090776390,-0.222379000,-0.390535620
3.407600164,-0.508378030,0.516899760,10.220827100,0.076872110,-0.222857340,-0.406652780
3.408990145,-0.603902580,0.544551010,10.448785780,0.161422790,-0.267261300,-0.392372910
3.412090063,-0.649884220,0.632110420,10.033317570,0.202712460,-0.233893140,-0.396545290
3.412670135,-0.316315620,0.236961220,10.016918180,0.178496570,-0.222812640,-0.406849440
3.416910172,-0.033599720,0.083542210,9.857596400,0.165119770,-0.129635650,-0.382731880
3.417410135,0.088569780,-0.026195610,10.336809160,0.131936390,-0.189818470,-0.390015630
