timestamp,accel_x,accel_y,accel_z,gyro_x,gyro_y,gyro_z
1640785325498529792,-0.165386470,0.235179480,9.935882570,-0.026056170,0.043784090,0.002220270
1640785325499769856,0.298840640,0.386070550,9.218745230,-0.041699410,0.000028310,-0.016945600
1640785325503719680,0.042050520,-0.032399660,10.259336470,-0.032477080,-0.028796500,0.000557300
1640785325510059776,-0.000188110,-0.012730540,9.601068500,0.010968750,0.001882020,-0.003446640
1640785325510840064,-0.114028900,-0.170374010,9.608089450,0.026170910,-0.079756960,-0.009924170
1640785325511249920,-0.496292380,-0.226371270,9.776884080,-0.009709600,-0.004337730,0.019277630
1640785325514210048,-0.269352640,-0.086339830,9.295016290,-0.008185210,0.005827840,0.004340710
1640785325514929920,-0.339182200,0.026471150,10.217821120,0.000286100,-0.020691750,-0.000740590
1640785325519249920,-0.149026290,0.481894280,9.626802440,-0.017277900,0.031055510,0.019435590
1640785325520029952,-0.015197180,0.424624060,9.934399600,-0.003607570,-0.009851160,0.018459560
1640785325523759872,-0.226221650,0.277452410,10.350583080,0.035440930,-0.007638340,0.009803470
1640785325526170112,-0.212906390,0.469093500,9.447036740,0.053800640,-0.070661300,-0.003808740
1640785325530030080,-0.422181370,0.245664100,9.782144550,0.011906030,-0.072011350,-0.007082520
1640785325532879872,-0.442365170,0.256401030,9.570153240,-0.027677420,0.014844540,0.000271200
1640785325534909952,-0.227192130,0.407594800,9.879432680,-0.015072530,-0.022576750,0.005444890
1640785325537210112,-0.121801230,0.442297760,10.299034120,-0.038899490,0.018875300,0.025194880
1640785325538980096,0.266785380,0.507281600,9.650327680,-0.036919120,0.004746020,0.025221710
1640785325540199936,0.256725790,0.359087170,10.214910510,0.000436600,-0.022029880,0.000375510
1640785325543619840,0.141953170,0.386398970,9.563972470,-0.023601950,0.010316080,-0.011266770
1640785325544319744,-0.028698910,0.233849320,9.421936040,-0.026486810,-0.073258560,0.006279350
1640785325548519936,-0.420646640,-0.196058910,9.895249370,-0.011236970,-0.007437170,0.008012360
1640785325549190144,-0.420120090,-0.094314020,9.188186650,-0.005121530,-0.012682380,0.008344650
1640785325559299840,-0.554513220,-0.098263120,10.105353360,-0.001789630,-0.030040740,0.029085580
1640785325559799808,-0.349358320,0.017737500,9.774138450,-0.046920780,0.069203970,0.015144050
1640785325560079872,-0.069986090,0.290006550,9.906367300,-0.030256810,-0.031130020,-0.008735060
1640785325560429824,-0.037085010,0.449101450,10.182899480,-0.021356340,0.000949200,-0.004127620
1640785325563559936,0.363323870,0.448571060,8.899208070,-0.029809770,0.024749340,0.000044700
1640785325564209920,0.040549760,0.074269330,10.161983490,0.048424300,-0.025805830,0.004172330
1640785325568689920,-0.176419350,0.016819350,9.741374970,0.070364780,0.027725100,0.004328790
1640785325569639936,-0.246958060,-0.090615680,9.445632930,0.014458600,-0.092203920,-0.000669060
1640785325574029824,-0.646220270,-0.142913880,10.242340090,-0.021454690,-0.025156140,-0.002947450
1640785325575609856,-0.290289880,0.154835850,9.270662310,-0.039127470,0.045685470,-0.014086070
1640785325578939904,-0.281469260,0.386574750,10.457184790,-0.003491340,-0.024443860,0.006708500
1640785325581059840,-0.124707380,0.603937750,10.154377940,0.004149970,0.078585740,0.005039570
1640785325583729920,0.250581950,0.606421290,9.550201420,0.000363590,-0.028184060,-0.020533800
1640785325585549824,-0.171114760,0.604161200,10.349920270,0.012567640,-0.050719090,-0.001844760
1640785325589309952,-0.047843560,0.563193500,8.892820360,-0.037986040,0.008390840,-0.006432830
1640785325591229952,-0.299023900,0.247330380,9.826307300,-0.045752540,-0.070977210,0.005666910
1640785325593469952,-0.519844770,0.213746800,10.135359760,-0.021949410,0.040361290,0.023293500
1640785325594060032,-0.028203450,0.146470830,9.337965010,-0.023369490,0.005385280,0.021749740
1640785325599360000,-0.169437510,0.019795070,10.570070270,-0.040097540,0.010880830,0.039856140
1640785325602779904,0.148354040,0.089364500,9.606362340,-0.038895010,0.074101980,0.006553530
1640785325604529920,0.259109500,0.011923680,9.697739600,-0.026017430,-0.050267580,-0.021106010
1640785325606819840,-0.065448310,0.157162800,9.735756870,-0.021371250,0.017865000,-0.006859000
1640785325608509952,0.100658390,0.070603940,8.973110200,-0.027199090,0.031301380,-0.017511840
1640785325609050112,-0.424771760,-0.109481370,10.339159970,0.017629560,-0.013841690,-0.002124910
1640785325613600000,-0.554067370,0.115155200,9.658084870,0.012576580,0.020203000,-0.004774330
1640785325614480128,-0.421046290,-0.018740010,9.619526860,-0.013992190,-0.044655800,0.002278390
1640785325620819712,-0.602631870,0.045404170,10.214731220,-0.007268790,0.030304490,-0.001198050
1640785325621600000,-0.178154930,0.391045390,9.368546490,0.012825430,0.022535030,-0.011505190
1640785325626070016,-0.033845970,0.315963420,10.073687550,-0.001479690,-0.004149970,0.007958710
1640785325627079936,0.096255380,0.319619860,9.770441060,0.001108650,0.077302760,0.005674360
1640785325628460032,0.210171890,0.219391750,9.994283680,0.044451660,-0.015875700,-0.016956030
1640785325630329856,-0.291641000,0.163310360,10.347764970,0.038731100,-0.037088990,-0.017669800
1640785325634199808,-0.226212130,0.350434600,9.088243480,-0.012199580,-0.047759720,-0.035035610
1640785325639369984,-0.416382880,0.330078810,9.822813990,-0.035525860,-0.038932260,-0.020585960
1640785325641539840,-0.526089430,0.527836200,9.625651360,-0.054723020,0.072160350,0.005257130
1640785325642999808,-0.152999030,0.613303300,9.861585620,-0.031748410,-0.004565720,0.008301440
1640785325644859904,-0.186232920,0.464208600,10.583938600,-0.011950730,0.026695430,0.029824680
1640785325645700096,0.078583260,0.412872700,9.561508180,-0.011752550,-0.004319850,0.010146200
1640785325651929856,-0.045275100,0.230124130,10.175357820,-0.026375060,-0.065647070,-0.000746550
1640785325656379904,-0.207503650,-0.003055400,9.502892490,-0.049383940,0.014886260,0.002567470
1640785325657899776,-0.048762840,-0.228434010,9.233750340,-0.007683040,-0.044271350,-0.005166230
1640785325661649920,-0.210763420,-0.152074340,9.912633900,0.011332330,0.032278900,0.000476840
1640785325664320000,0.008433740,-0.007900160,9.094633100,-0.042830410,0.076028700,0.012025240
1640785325668379904,-0.175303150,-0.036591510,10.546223640,-0.018368660,-0.027413670,0.016482180
1640785325669039872,-0.205823820,0.224122970,9.994610790,-0.012221930,0.009141860,-0.001981850
1640785325669609984,0.021403010,0.311937120,9.262910840,-0.008133050,-0.069838760,0.003783410
1640785325676270080,-0.297145810,0.172828170,10.290583610,0.018399960,0.050506010,0.002698600
1640785325677729792,-0.238320930,0.070826630,9.415303230,0.039762260,0.071139640,-0.022961200
1640785325678370048,-0.387138040,0.091543440,10.149890900,0.056788340,-0.081712020,0.004196170
1640785325678799872,-0.504631520,0.071395810,9.535004620,0.000320370,0.013355910,0.009205940
1640785325679089920,-0.166600320,0.019588130,8.880565640,-0.020049510,-0.050768260,0.000323360
1640785325679399936,-0.396112740,0.206562040,10.401324270,0.022229550,0.002385680,0.008310380
1640785325687089920,0.102120120,0.361193360,9.451063160,0.009296840,0.084739940,-0.007751590
1640785325691619840,0.187009360,0.350821910,10.550008770,0.024656950,-0.020799040,-0.000485780
1640785325692940032,-0.069534350,0.461608440,10.713174820,0.041873750,0.048334890,-0.003816190
1640785325693569792,0.048882590,0.454119650,9.250638010,0.004488230,-0.085845570,-0.010211760
1640785325694939904,-0.520762150,0.505904140,9.846144680,-0.019341710,-0.106108210,0.020657480
1640785325695559936,-0.379052910,0.451393340,8.674779890,-0.037153070,0.041458010,-0.003604590
1640785325698769920,-0.225892900,0.430539910,9.359123230,-0.023283070,-0.021287800,0.010499360
1640785325700859904,-0.339901090,0.463102940,10.357146260,-0.025565920,0.092813380,0.027056040
1640785325703800064,0.190840150,0.194369600,9.864584920,-0.030408810,0.051657860,0.017116970
1640785325704509952,-0.108806090,0.053314090,11.034509660,0.002653900,-0.077290830,0.029020010
1640785325710969856,-0.137732680,0.082850460,9.562834740,-0.013104080,-0.034892560,0.009688740
1640785325712729856,0.098391760,-0.180557060,8.912401200,-0.039190060,-0.053851310,-0.001226370
1640785325713519872,-0.282592270,-0.215751020,9.727180480,0.000494720,0.067192320,-0.000256300
1640785325714040064,0.006876340,-0.102789610,9.091588970,0.029027460,0.069324680,-0.023423140
1640785325718979840,-0.217703550,0.047990380,10.179721830,0.011616950,-0.024643540,0.009283420
1640785325721429760,-0.418903860,0.146684810,9.875281330,-0.011751050,-0.003074110,0.030152500
1640785325723379968,-0.283108230,0.035695540,9.581470490,0.002725420,-0.084130490,0.014808780
1640785325724089856,-0.712963940,0.174711000,10.145833970,0.042240310,-0.025330480,0.009651480
1640785325730779904,-0.329495610,0.131147760,9.265168190,0.048452620,0.036194920,-0.009767710
1640785325731590144,-0.196245570,0.079813050,10.270376210,0.064049660,0.008806590,-0.018247960
1640785325733499904,-0.324681310,0.362137110,10.072191240,0.037463010,0.029717390,-0.012777750
1640785325734099968,0.075764020,0.321623000,9.410577770,-0.003336370,-0.079852350,0.014159090
1640785325738870016,-0.268071470,0.249515100,9.968452450,0.015503170,-0.057262180,0.025400520
1640785325742119936,-0.092480030,0.439333740,8.934442520,0.042094290,-0.035865600,0.005570050
1640785325743429888,-0.048610640,0.445225750,9.785316470,0.030501180,-0.024810430,0.014252960
1640785325744289792,-0.214318980,0.518912910,10.193568230,-0.010161100,0.080963970,0.006455180
1640785325749939968,-0.120019350,0.621810080,10.344177250,-0.017397110,-0.049221520,-0.001761320
1640785325751859968,-0.400207100,0.681764960,10.560419080,-0.031854210,-0.098384920,0.019533930
1640785325753959936,-0.264980490,0.581189450,8.856092450,-0.054398190,-0.067688520,0.013196470
1640785325754459904,-0.151502090,0.285777150,9.340274810,-0.018672650,-0.041364140,0.009351970
1640785325758540032,-0.208089160,0.136515160,9.540924070,0.007335840,0.094279670,0.012531880
1640785325759160064,0.194367480,-0.078468160,9.533123020,0.001236800,-0.017043950,0.021094090
1640785325766170112,0.054381050,-0.290819940,10.568264960,-0.024035570,-0.020016730,0.041852900
1640785325767840000,0.091361880,-0.318616510,9.518891330,-0.036557020,-0.030447540,0.026847420
1640785325769769984,-0.014661430,-0.236481710,9.806995390,-0.000518560,-0.109268720,0.012506550
1640785325775429888,-0.257175330,0.006514840,9.491949080,-0.001470740,0.049935290,-0.019851330
1640785325777730048,-0.095316250,0.259793550,9.232523920,0.003975630,0.002051890,-0.031818450
1640785325779150080,-0.358434920,0.539035140,10.379777910,0.025543570,0.003038350,-0.014033910
1640785325779949824,-0.239197780,0.583284740,9.309358600,-0.014874340,0.025409460,0.010149180
1640785325780320000,-0.235548150,0.395694700,9.868299480,0.009347500,-0.094336270,0.048939880
1640785325785729792,-0.408282400,0.198764400,9.899089810,0.038127600,0.006927550,0.028212370
1640785325786500096,0.063137740,0.042246750,8.988523480,0.024385750,-0.023522970,0.004071000
1640785325788470016,-0.160391300,0.036951620,10.518449780,0.017504390,0.027255710,0.003379580
1640785325789120000,-0.002355280,0.100844480,9.911123280,-0.011086460,0.082217150,-0.032378730
1640785325793659904,0.004780090,0.337173040,10.220104220,-0.014410910,-0.104708970,-0.013299290
1640785325798019840,-0.340762380,0.558529910,10.036607740,-0.025931010,-0.037218630,-0.000512600
1640785325798769920,0.029488060,0.362483590,8.636612890,-0.021907690,-0.015877190,-0.001573560
1640785325799409920,-0.304317440,0.407004620,10.026204110,0.034241380,0.002709030,0.008179250
1640785325803579904,-0.206517670,0.318646640,9.655842780,0.028663880,0.077132880,0.010997060
1640785325805129984,0.140703650,0.070140660,9.751412390,-0.003270810,-0.026446580,0.033520160
1640785325808600064,-0.299785850,0.078544530,10.565191270,0.001142920,0.008553270,0.035977370
1640785325809609984,-0.017566800,0.072590300,9.280509000,-0.025044380,-0.028337540,0.015559790
1640785325813880064,-0.176926370,0.162677060,9.723700520,-0.022108850,-0.063480440,0.011415780
1640785325815119872,-0.277671690,0.229078250,9.438247680,-0.014840060,0.071492780,-0.037007030
1640785325822340096,0.010209080,0.223849680,9.478926660,0.010712450,0.011041760,-0.035183140
1640785325823779840,-0.370994030,0.219486370,10.313337330,0.050613290,0.015661120,-0.007955730
1640785325824460032,-0.154998530,0.068583830,9.442890170,0.021354850,-0.010254980,-0.001859660
1640785325825299968,-0.265615490,-0.071397180,9.833614350,0.019668040,-0.073714560,0.030599530
1640785325828640000,-0.397770910,0.025474580,9.537224770,0.025461610,0.018283730,0.024434920
1640785325829399808,-0.003395020,0.057557620,9.449207310,-0.003644820,0.015591080,0.008334220
1640785325836140032,-0.279886280,0.231316310,10.586449620,0.015506150,0.034447010,-0.012071430
1640785325836799744,-0.053269520,0.480136280,9.842628480,0.020159780,-0.001777710,-0.032204390
1640785325839000064,-0.045666820,0.510893640,9.872014050,0.009642540,-0.060249880,-0.009767710
1640785325839840000,-0.371431980,0.358806700,9.656641960,0.026480860,-0.005058940,-0.009550150
1640785325844009984,-0.107204890,0.293948020,9.211728100,0.038394330,-0.047069790,-0.023233890
1640785325845999872,-0.267775360,0.379807030,9.656281470,0.019504130,0.006355350,0.009357930
1640785325848839936,-0.092585240,0.350345280,9.528545380,-0.033617020,0.062118480,0.013837220
1640785325850739968,-0.044183180,0.422373590,10.449327470,-0.036250050,0.011780860,0.022135670
1640785325853639936,-0.340530480,0.529203410,10.346233370,-0.025112930,-0.045475360,0.032070280
1640785325854830080,-0.089313820,0.374033750,9.316548350,-0.027112660,-0.086495290,0.010420380
1640785325858719744,-0.243646520,0.221069340,9.520408630,-0.004050140,0.008939210,-0.015129150
1640785325859520000,-0.223035410,-0.000446680,9.262979510,0.015069550,0.063095990,-0.026685000
1640785325864120064,-0.110026020,-0.172729340,9.972164150,0.027650600,-0.010375680,-0.017909700
1640785325864770048,-0.181213420,-0.273032810,9.808932300,0.011228020,-0.006727870,-0.006572900
1640785325869199872,0.009105770,-0.314778890,9.449501040,0.002248590,-0.033652790,0.012759860
1640785325870089984,-0.233942930,-0.058136290,10.037178990,0.014665720,-0.010281800,0.016389790
1640785325877100032,-0.235916850,0.126683210,9.556377410,0.006823240,-0.003729760,-0.004397330
1640785325877639936,-0.105174720,0.387528480,9.895606040,0.018709900,-0.008003410,-0.003758070
1640785325878729728,-0.323379070,0.523879110,10.122859000,0.017580390,0.031764810,-0.009731950
1640785325880559872,-0.225092800,0.393903170,9.678466800,0.027742980,-0.040419390,0.003729760
1640785325883569920,-0.439889250,0.337484300,9.972177510,0.066758690,-0.060164940,0.001323220
1640785325886179840,-0.433384810,0.229887500,9.247783660,0.042149430,-0.047455740,-0.020703680
1640785325891109888,-0.140437260,0.429306360,9.162060740,-0.010956820,-0.030235950,0.013022120
1640785325892029952,-0.189742120,0.429136570,9.953263280,-0.043046470,0.080588450,0.011032820
1640785325893600000,0.104151900,0.527564700,10.030508040,-0.041617450,0.017201900,0.005239250
1640785325894589952,0.037607380,0.759277050,10.554592130,-0.005403160,-0.064083930,0.033839050
1640785325898809856,0.075125180,0.399333420,9.571244240,-0.025112930,-0.028666860,0.004962090
1640785325901850112,0.117984700,0.160664440,9.128147130,-0.017794960,-0.045120710,-0.002989170
1640785325903960064,-0.315365520,-0.156530450,9.759591100,0.018817190,0.019614400,-0.011196730
1640785325904509952,-0.191336300,-0.541113200,9.237628940,0.032973290,0.017623600,-0.006061790
1640785325908949760,-0.341677990,-0.432282870,9.851041790,0.047148770,-0.041548910,0.015015900
1640785325912359936,-0.541342140,-0.301346660,9.970767020,0.007031860,0.003376600,0.000068550
1640785325913379840,-0.244657290,0.074869680,9.476765630,-0.035609300,-0.060839950,0.015443560
1640785325914009856,-0.311932980,0.443061260,9.973337170,-0.011616950,-0.001634660,-0.008116660
1640785325918609920,0.082275480,0.617611110,9.461599350,0.016875570,0.065556170,-0.028216840
1640785325919639808,0.139895950,0.779193280,9.917979240,0.065858660,0.004448000,0.000458960
1640785325923650048,-0.048688700,0.439704690,10.061493870,0.068065530,-0.005409120,-0.002364810
1640785325925159936,0.027334420,0.186685590,9.336436270,0.027233360,-0.065103170,0.000149010
1640785325928839936,-0.405383590,0.138170720,9.633888240,0.009992720,-0.075306010,0.010676680
1640785325930439936,-0.279985430,-0.004197810,9.253443720,-0.033408400,0.023643680,-0.005209450
1640785325933670144,-0.210429360,0.291334270,9.912487980,-0.028739870,0.046463310,-0.008240340
1640785325934599936,-0.397990910,0.500726820,10.773237230,-0.005722050,0.036436320,-0.000762940
1640785325938759936,-0.072998470,0.538285730,10.007524490,-0.020900370,-0.038878620,0.003089010
1640785325940719872,-0.149853350,0.546946700,9.621426580,0.002823770,-0.067405410,0.016419590
1640785325944550144,-0.170962910,0.225549150,9.239706040,0.010049340,-0.007557870,-0.001131000
1640785325945159936,-0.079247600,0.134686200,9.133044240,0.003276760,0.008775290,0.001309810
1640785325956630016,-0.295848880,-0.136623290,9.871169090,0.012147430,0.002950430,0.017105040
1640785325961109760,-0.034879000,-0.298547300,9.825019840,0.008685890,0.018034880,0.019191210
1640785325962289920,-0.104836190,-0.107257030,10.111830710,0.005546210,-0.010646880,0.016650560
1640785325962659840,-0.108024780,0.029373500,9.961563110,-0.007486340,-0.020669400,0.007368620
1640785325962980096,0.147150530,0.381916400,9.240280150,-0.030489270,0.012739000,-0.017890330
1640785325963219968,-0.106265870,0.585165860,9.572505950,-0.015321370,0.014753640,-0.021260970
1640785325963689984,-0.062596590,0.472510040,9.604084010,0.007209180,0.023290520,-0.000731650
1640785325964009984,-0.281530290,0.105740150,9.902482030,0.064711280,-0.014024970,-0.004395840
1640785325969120000,-0.571713150,-0.183373600,10.029864310,0.091068450,-0.050812960,-0.008727610
1640785325970769920,-0.505999740,-0.256441300,9.661060330,0.056818120,-0.032046440,0.004979970
1640785325973559808,-0.613588390,-0.249129280,9.830306050,0.005865100,-0.019808110,-0.012187660
1640785325974520064,-0.252185260,0.189033480,9.721253400,-0.022979080,0.018602610,0.002372260
1640785325978950144,0.107909780,0.677213790,9.729544640,-0.020128490,0.046114630,0.005078320
1640785325984529920,0.213214990,0.783991100,10.129807470,-0.001178680,0.013314190,0.012506540
1640785325985570048,0.332046120,0.871307370,9.899330140,0.037792330,-0.015753510,0.012823940
1640785325985949952,-0.058426410,0.542315960,9.870717050,0.043641030,-0.056295100,-0.006121400
1640785325988910080,-0.350300490,0.163440840,9.544403080,0.023576620,-0.059349840,-0.003810230
1640785325992290048,-0.446712610,-0.078539940,9.357151030,0.016671420,-0.005099180,-0.001308320
1640785325993440000,-0.653695520,-0.346844170,9.892948150,0.003688040,0.018900630,0.003278260
1640785325994060032,-0.339099530,0.004788660,9.714105610,-0.005011260,0.004294520,0.019845370
1640785325999739904,-0.043926860,0.192081960,9.795743940,-0.041893120,0.015887620,0.007073580
1640785326000460032,0.202882160,0.380781020,9.789730070,-0.041669600,0.039690730,-0.006531180
1640785326003419904,0.279408630,0.632993520,9.854258540,0.003807250,-0.014798340,-0.008195640
1640785326004059904,0.134238270,0.243380490,9.870481490,0.042001900,-0.014853480,-0.010266900
1640785326008450048,0.051662210,0.033488950,9.369389530,0.069795550,-0.011356180,-0.010627510
1640785326011739904,-0.353280660,-0.153881100,9.777913090,0.059150160,-0.019074980,-0.017178060
1640785326013479936,-0.483452140,-0.282211930,9.542271610,-0.000202660,0.002668800,-0.007350740
1640785326014390016,-0.526821610,0.019266330,9.628429410,-0.015066560,-0.023804610,-0.017191470
1640785326018869760,-0.511746880,0.347677410,10.058982850,-0.020492080,0.003278260,-0.027757880
1640785326020789760,-0.151421250,0.712488060,9.648409840,-0.027027730,0.039143860,0.000469390
1640785326023449856,-0.089635310,0.652575970,10.310607910,0.017626580,0.006060300,-0.004027780
1640785326024829952,-0.035459520,0.370561900,10.170067790,0.054691740,0.012351570,-0.022129710
1640785326032290048,-0.092135070,0.347381560,9.550821300,0.074863440,-0.069600340,-0.024175650
1640785326034530048,-0.403443550,0.097897260,9.636563300,0.022551420,-0.083081430,-0.010092560
1640785326036109824,-0.258243920,0.043631590,8.988441470,-0.055225200,-0.002908710,-0.005839770
1640785326036699904,-0.269993510,0.206345830,9.739509580,-0.026601560,0.006604200,0.006711480
1640785326038509824,-0.093631750,0.293296550,10.209187510,-0.024923680,0.041586160,0.018456570
1640785326039189760,0.257353130,0.432679740,9.856615070,-0.008973480,0.017772620,0.011940300
1640785326043709952,0.066988160,0.441649410,10.443325040,0.010994080,-0.027823450,-0.011475390
1640785326044950016,0.050380550,0.400516960,9.519735340,-0.024232270,-0.021830200,-0.016126040
1640785326048640000,-0.103665120,0.025245210,9.086816790,0.002053380,-0.065325200,-0.008727610
1640785326050979840,-0.437599060,-0.324337720,9.558736800,0.030127170,0.011070070,-0.025221710
1640785326053380096,-0.432095860,-0.264199350,9.260294910,0.042955580,0.027182700,-0.017324090
1640785326054060032,-0.654237930,-0.323158060,10.200031280,0.033468010,-0.045946250,-0.011305510
1640785326058400000,-0.389242350,0.007902770,9.837078090,-0.024949010,0.013326110,-0.013460220
1640785326059059968,-0.046536260,0.224059310,9.567049030,-0.009796030,-0.024038560,0.011178850
1640785326063399936,0.064276550,0.074675000,10.106065750,0.040188430,0.026491290,0.035558640
1640785326065159936,0.544901490,-0.066029180,9.284869190,0.105837010,0.072783240,0.008840860
1640785326068440064,0.197123200,-0.507210080,10.307681080,0.191813690,-0.010834630,0.000253320
1640785326069059840,-0.099362460,-0.558095570,9.923687930,0.172662730,-0.026308000,-0.013795500
1640785326073390080,-0.295500190,-0.510320070,9.225674630,0.112622980,-0.115862490,-0.018465520
1640785326074009856,-0.650100710,-0.223765760,9.618504520,0.071872770,-0.024126470,0.001396240
1640785326078539776,-0.397410840,0.561144770,9.231728550,0.050374870,0.097739700,0.008468330
1640785326079219712,-0.348122210,0.904373350,10.372270580,0.081866980,0.045821070,0.024095180
1640785326083350016,-0.043602100,1.215661640,10.290939330,0.109301510,0.057058040,0.023692850
1640785326084179968,0.256043490,1.213607430,9.599177360,0.101313000,-0.032436840,0.012534860
1640785326088409856,0.012789740,0.611435830,9.742201810,0.092022130,-0.038196150,0.022210180
1640785326089030144,0.045620610,0.006717570,8.985681530,0.106176740,0.027368960,0.007556380
1640785326093849856,-0.250032190,-0.645150540,9.529246330,0.142385070,-0.007599590,-0.022788340
1640785326095419904,-0.344925490,-0.704900090,9.660575870,0.123402480,0.039061900,-0.011378530
1640785326098379776,-0.231432830,-0.482861130,9.563040730,0.059005610,0.020158290,-0.024013220
1640785326099089920,-0.391705190,-0.210035350,10.259206770,0.030516090,0.003372130,-0.014597180
1640785326103439872,-0.132173420,0.466971430,9.630827900,0.060486790,0.008206070,-0.009562080
1640785326104059904,-0.018873370,0.560418490,9.749169350,0.122679770,-0.005541740,-0.004638730
1640785326108470016,0.022226180,0.605712060,9.746272090,0.171668830,0.083316870,0.013935570
1640785326109439744,-0.046254630,0.603288710,9.909794810,0.172509250,0.034311420,0.001488630
1640785326113440000,-0.476050020,0.367954700,10.195611000,0.111992660,-0.064262740,0.008159880
1640785326114060032,-0.447918950,0.486922530,8.976507190,0.047971300,-0.068002950,0.012969970
1640785326118429952,-0.447492390,0.514244320,9.272336960,0.013138360,-0.004203620,0.004133580
1640785326119069696,-0.344127600,0.562553760,9.763066290,0.025324530,0.104574860,0.022014980
1640785326123329792,0.066000710,0.619026720,10.071281430,0.077354920,0.059607630,0.011108820
1640785326124009728,0.072975170,0.337956280,10.749890330,0.086140620,0.016766780,-0.008486210
1640785326128689920,0.127762630,0.278794260,9.742251400,0.070653860,-0.024829810,-0.003865360
1640785326129259776,-0.148761060,0.024035290,9.554362300,0.044932970,-0.088121000,-0.009730460
1640785326133369856,-0.288878230,-0.111272250,9.082984920,0.016221400,0.005298850,-0.009782610
1640785326134119936,-0.208604340,0.033492730,8.877966880,0.049738590,0.040549050,-0.000736120
1640785326138419968,-0.305199890,0.078931000,10.180124280,0.049825020,0.055910650,0.020968920
1640785326139059968,-0.074235970,0.205722290,9.952147480,0.038364530,0.079883640,0.043264040
1640785326143859968,-0.047060280,0.201257500,10.390096660,0.072732580,-0.055238600,0.022247440
1640785326145359872,-0.097957830,0.220793370,9.904848100,0.056877720,-0.002372260,0.016760830
1640785326148519936,0.142799360,0.166959700,8.779270170,0.064836440,0.010561940,0.009278950
1640785326149129984,-0.118797440,-0.129447520,9.827234270,0.102613890,0.063230100,-0.013135380
1640785326153329920,-0.266517430,-0.010445230,9.611909870,0.097535570,0.093345360,-0.023698810
1640785326154059776,-0.600758190,0.063251620,10.034899710,0.093652300,-0.101174410,-0.013114510
1640785326158449920,-0.878453080,0.103882790,9.845039370,0.050184120,-0.086186820,0.003843010
1640785326159099904,-0.580923620,0.396824870,8.867952350,0.041005020,-0.033622980,0.006759170
1640785326163480064,-0.509172560,0.442772870,10.282395360,0.075595100,0.029243530,0.027766830
1640785326164099840,0.125838770,0.565639260,10.063931470,0.074864930,0.140076890,0.027559700
1640785326169049856,0.542593420,0.621478500,10.394438740,0.091508020,0.026930870,0.009511410
1640785326169430016,0.321416880,0.691193460,10.588026050,0.047738850,-0.031003360,0.007303060
1640785326173549824,0.314790370,0.622391820,8.814743040,-0.019232930,-0.095018730,-0.008583070
1640785326174059776,-0.180440930,0.329218890,9.251234050,0.005768240,-0.094622370,-0.008116670
1640785326178540032,-0.462804470,0.239672270,9.067907330,0.033444170,0.074210760,-0.004485250
1640785326179100160,-0.378079440,0.050216830,9.567860600,0.063394000,0.044989580,0.016298890
1640785326183409920,-0.659350100,-0.152378230,11.094737050,0.062125920,0.043740870,0.047315650
1640785326184069888,-0.418153230,-0.034181050,10.001699450,0.025248530,-0.007845460,0.025388600
1640785326188429824,-0.432711660,0.103122100,9.963212970,0.005818900,-0.138644870,0.014847520
1640785326189189888,-0.242179810,0.234717460,8.993092540,-0.016513460,0.011496240,0.003370640
1640785326193729792,0.183658230,0.233479540,8.720723150,0.033348800,0.061035160,-0.030818580
1640785326194919936,-0.127222270,0.262557210,10.528667450,0.106912870,0.054255140,-0.025235120
1640785326198589952,0.050220840,0.411387210,9.841985700,0.066383190,-0.011876230,-0.013749300
1640785326201779968,-0.008013950,0.155973260,9.971304890,0.016714630,-0.131848450,0.016172230
1640785326203399936,-0.259563240,0.140983030,9.680689810,0.003892180,-0.014093520,0.038757920
1640785326204079872,-0.039000610,0.067870190,9.150835990,0.019574170,-0.000454490,0.036627050
1640785326208400128,-0.140641510,-0.069213930,10.233451840,0.066012150,0.046709170,0.042428070
1640785326209110016,-0.093714030,0.073997210,9.937908170,0.088538230,0.096225750,0.015988950
1640785326213600000,-0.394420240,0.162190440,10.503063200,0.071942810,-0.081047420,-0.011388960
1640785326214190080,-0.887645420,0.433544670,9.931162830,0.008980930,-0.122094150,-0.009849670
1640785326218349824,-0.700496670,0.586089970,8.616570470,-0.019888590,-0.125467780,-0.025606160
1640785326219099904,-0.752860960,0.673888740,9.500047680,0.015233460,-0.002743300,0.003372130
1640785326223439872,-0.232796190,0.792516650,9.560957910,0.038331750,0.119048360,0.026126210
1640785326224039936,0.401392070,0.435739070,10.535401340,0.052255390,0.044851010,0.041648750
1640785326228509952,0.543497200,0.344604850,10.721494670,0.043246150,0.010424850,0.045505160
1640785326231429888,0.739877400,0.295427860,9.449588780,-0.011686980,-0.101621460,0.032635040
1640785326233359872,0.320038620,-0.000506730,9.405853270,-0.056916480,-0.081257530,0.025956330
1640785326234069760,0.026238190,-0.061153850,8.581012730,-0.023341180,0.045615440,-0.008343160
1640785326238400000,-0.397407000,-0.186585160,9.724962230,0.051604220,0.012579560,-0.031735000
1640785326239059968,-0.904163360,-0.065252420,10.387267110,0.061185670,0.022234020,-0.016112630
1640785326243799808,-0.812273090,0.035629480,9.692441940,0.024975840,-0.070974240,-0.023160870
1640785326245309952,-0.989204290,0.091140400,10.377046590,0.005774200,-0.086079520,-0.015188750
1640785326248499968,-0.551417350,0.541684750,9.095657350,-0.016564130,0.007916990,0.020775200
1640785326249100032,0.049159390,0.432222250,9.430532460,0.007452070,0.000953670,0.029508770
1640785326256419840,0.178683130,0.546163920,10.321775440,0.043465200,0.113675000,0.013923650
1640785326256749824,0.483639720,0.788110850,9.743644710,0.042733550,-0.017540160,0.007848440
1640785326258409984,0.125284330,0.558933500,10.495064740,-0.017924610,-0.141179580,0.011767450
1640785326259069952,-0.074963350,0.474190440,9.122874260,-0.070068240,-0.074978180,0.001709160
1640785326263490048,-0.167183010,0.256500660,9.133784290,-0.018736720,-0.081227720,-0.007757540
1640785326264169984,-0.516940360,0.148035940,10.101654050,0.006940960,0.071153050,0.004158910
1640785326268499968,-0.055339630,0.212291000,9.387079240,-0.012351570,0.071635840,0.006692110
1640785326269189888,-0.192325230,0.074196360,10.894001960,-0.016762320,-0.033685560,0.008364020
1640785326273349888,-0.266772270,0.390649650,9.825165750,-0.062717500,-0.018243490,0.005234780
1640785326274070016,-0.065737400,0.320907800,8.899209980,-0.067546970,-0.132769360,0.018669660
1640785326278499840,-0.453169550,0.091607950,9.705064770,-0.018507240,0.010457640,0.008417670
1640785326279109888,-0.283832250,0.074051570,8.978833200,0.020889940,0.042395290,-0.015814600
1640785326283409920,-0.383733120,-0.156223800,10.369600300,0.041566790,-0.077010700,-0.004890560
1640785326284119808,-0.426986250,-0.169941050,10.146447180,-0.006352370,0.017468630,-0.013078750
1640785326288440064,-0.004578340,0.021898550,9.468666080,-0.030720240,-0.089387600,-0.012500590
1640785326289100032,-0.175887880,0.222992730,10.302845950,-0.043189530,-0.050187110,0.021693110
1640785326293799936,0.379331560,0.390768650,8.798575400,-0.055575370,0.074142230,0.017558040
1640785326295859712,0.306390080,0.493519280,10.143947600,0.014697020,0.015994910,0.013442340
1640785326299239936,-0.197573720,0.644218740,10.569126130,0.037670140,0.032150750,0.011681020
1640785326299640064,-0.212021200,0.556198720,9.353878020,-0.012528900,-0.151041150,0.009259580
1640785326303379968,-0.798465130,0.445977690,9.891872410,-0.047865510,-0.157757120,0.006666780
1640785326304119808,-0.680011390,0.218320710,8.784132000,-0.069575010,0.029894710,0.001655520
1640785326308339712,-0.420648220,0.094145790,9.788620000,-0.016762310,0.015220050,0.010564920
1640785326309100032,-0.308052840,0.178119230,10.685439110,0.006474550,0.079323340,0.011077520
1640785326313499904,0.500477670,0.285442350,9.685003280,-0.034588590,-0.011244420,-0.003759560
1640785326315160064,0.381151970,0.458868350,10.199381830,-0.078564870,-0.086112310,0.022338330
1640785326318469888,0.456666710,0.341901240,8.939006810,-0.119064760,0.008161370,0.031733520
1640785326319099904,0.347971890,-0.073617740,9.295346260,-0.028055900,-0.020660460,0.017997620
1640785326323360000,-0.366391630,-0.204561370,10.109858510,0.074842560,0.011506670,0.006097550
1640785326324069888,-0.351291950,-0.413428750,9.401884080,0.058558590,-0.041614480,-0.005130470
1640785326328519936,-0.708683490,-0.479549440,10.258365630,0.005641580,-0.029920040,-0.004488230
1640785326329099776,-0.796732130,-0.136848210,9.850879670,-0.050035120,-0.000500680,-0.025688110
1640785326333669888,-0.399065850,0.187499510,9.691201210,-0.037311020,-0.070457160,-0.006811320
1640785326334729984,-0.191374090,0.576426570,9.610457420,0.001901390,0.067035860,0.008156890
1640785326338419968,0.180960740,0.811031100,9.640328410,0.022001570,0.067563350,0.006952880
1640785326339059712,-0.030069790,0.873417970,10.726722720,0.042876600,-0.024256110,0.024570520
1640785326343849984,-0.158092810,0.731657390,9.648477550,-0.002655390,-0.094036770,0.022400920
1640785326345270016,-0.155560430,0.366400990,9.308459280,-0.040668250,-0.141741340,0.025318570
1640785326351830016,-0.436452780,0.099883400,9.587810520,-0.032301250,0.019066040,0.024878980
1640785326352519936,-0.127749150,-0.017923040,9.432746890,-0.016917290,0.047457220,-0.001047550
1640785326353400064,-0.084740840,-0.048273310,10.727160450,-0.008229910,0.025579340,0.003156070
1640785326354119936,-0.020493160,0.155346860,10.056437490,-0.021333990,0.015914440,-0.016173720
1640785326358389760,0.013206820,0.314912020,9.851703640,-0.056539480,-0.139285640,-0.021182000
1640785326359089920,-0.289152230,0.421456660,9.391484260,-0.058569020,-0.050333140,0.011506670
1640785326363430144,-0.171968060,0.237817230,8.603572850,-0.022371110,0.003772970,0.011622900
1640785326364199936,-0.326534660,0.128251170,10.215260510,0.031983850,-0.006543100,0.028727950
1640785326368489984,-0.309243110,0.050955980,9.891276360,0.026686490,0.051563980,0.025340910
1640785326369449728,-0.023907470,-0.121244620,10.029157640,-0.005109610,-0.061592460,0.001950560
1640785326373299712,-0.269666250,0.093464360,10.475842480,-0.028519330,-0.039792060,-0.008574130
1640785326374060032,0.175064890,0.373878360,8.719782830,-0.067429240,-0.036948930,-0.013476610
1640785326378540032,0.198785390,0.379797010,9.664162640,-0.038173800,0.003492830,-0.001175700
1640785326379129856,0.089804760,0.473749370,9.696977620,0.000169870,0.134444210,-0.007286670
1640785326383759872,0.019842750,0.442346420,10.054281230,0.022609530,-0.046628720,-0.008498130
1640785326384300032,-0.565162180,0.304949550,10.681423190,0.001439450,-0.113414220,0.010959800
1640785326388339968,-0.491178690,0.066107280,8.880620000,-0.044922530,-0.060975560,-0.008302930
1640785326389139968,-0.664276840,-0.008479220,9.892642970,-0.020064410,-0.053952640,0.006009640
1640785326393600000,-0.597103180,0.104356560,9.937216760,-0.010097030,0.089174510,0.008843840
1640785326394729728,0.215441270,0.286134150,9.436449050,-0.026141110,0.035172690,0.002147260
1640785326400689920,0.116803210,0.668137670,10.858157160,-0.048619510,0.035688280,0.013762710
1640785326401179904,0.319417720,0.846201900,9.574408530,-0.100062790,-0.002554060,0.000385940
1640785326403389952,0.301876370,0.826120850,9.494868280,-0.077447300,-0.136525940,0.019457940
1640785326404099840,-0.196707430,0.511279520,9.596397400,-0.035540760,0.004218520,0.018377600
1640785326408349952,0.023763430,0.062002120,8.921776770,-0.011119250,0.037297610,0.015832490
1640785326409099776,-0.383092110,-0.252868950,10.543647770,0.007694960,0.014130770,0.034852330
1640785326413750016,-0.387079780,-0.573218700,10.096285820,-0.028151280,0.058709080,0.006622080
1640785326414619904,-0.160194650,-0.410010100,9.773575780,-0.051489470,-0.069347020,-0.003035370
1640785326418429952,-0.448118630,-0.003006000,9.922429080,-0.076906380,-0.034162410,-0.001367930
1640785326419119872,0.128402530,0.101236360,8.583861350,-0.073246680,0.052037840,-0.006541610
1640785326423329792,-0.027029220,0.324830350,9.975992200,0.018084050,0.068941710,-0.016756360
1640785326424039936,-0.248509940,0.509673890,10.340134620,0.055734820,0.050887470,-0.015696880
1640785326429430016,-0.062922060,0.460841770,9.816137310,0.015883150,-0.097925960,0.001297890
1640785326430249984,-0.546309950,0.444333760,10.002268790,-0.034123660,-0.060535970,0.013028090
1640785326433949952,-0.287646950,0.332583580,9.214001660,-0.087633730,0.010928510,0.007767980
1640785326435889920,-0.193248180,0.322886020,9.786956790,-0.043453290,0.038114190,0.020571050
1640785326438429952,-0.069944140,0.277841240,10.164390560,0.005172190,0.093260410,-0.000730160
1640785326439169792,0.207541230,0.378825690,10.142641070,-0.000545380,0.020930170,-0.008307400
1640785326443719936,-0.193705860,0.579030040,10.230009080,-0.051383680,-0.050754850,-0.005039570
1640785326445009920,-0.211176250,0.357038170,9.286346440,-0.119289760,-0.074456640,-0.003388520
1640785326449509888,-0.339350850,0.287397150,9.295022010,-0.079746570,-0.029346350,0.007998950
1640785326450179840,-0.435465010,0.170710190,9.502866740,-0.008942190,0.050410630,0.000326340
1640785326453319936,-0.102003620,-0.021725390,9.869318960,-0.015747550,0.042350590,0.006368760
1640785326454030080,-0.104973470,-0.018112890,10.445497510,-0.020898870,0.069046010,0.016559660
1640785326458329856,-0.061747800,-0.083586730,10.242862700,-0.052769490,-0.034141540,0.006930530
1640785326459089920,0.051441920,0.151205580,9.602734570,-0.072126100,-0.092433390,0.019325320
1640785326463609856,0.082437430,0.192018700,8.806115150,-0.063118340,0.025290250,0.013801460
1640785326464199936,0.054401240,0.095901410,9.460250850,-0.014519690,0.089880810,-0.008624790
1640785326468349952,-0.344034760,0.294491380,10.468296050,0.018873810,0.049512080,-0.016716120
1640785326469110016,-0.446361390,0.128726150,9.946518900,-0.000141560,-0.085589270,-0.019958610
1640785326473340160,-0.555731890,0.127364430,9.853547100,-0.035791100,-0.103504960,-0.020857160
1640785326474079744,-0.692149460,0.291873570,9.472205160,-0.046615300,0.012017790,-0.005297360
1640785326478540032,-0.283371150,0.215889800,9.593105320,-0.044551490,0.017639990,0.013071300
1640785326479419904,-0.104019510,0.388796360,10.318304060,-0.007352230,0.071732700,0.023712220
1640785326483629824,0.257061570,0.495975290,9.955838200,-0.008092820,0.044985120,0.012570620
1640785326484259840,0.283172850,0.593516530,10.148544310,-0.045681000,-0.052931900,0.016881530
1640785326488329984,-0.003978130,0.609286430,9.692206380,-0.083322830,-0.037334860,0.007064640
1640785326489090048,-0.015558140,0.254701380,9.121999740,-0.076378870,-0.062561040,0.003892180
1640785326493459968,-0.298567300,0.191559810,9.654484750,-0.024119020,-0.006675720,0.008548800
1640785326494729984,-0.280086930,-0.072337630,9.533657070,-0.015372040,0.077644000,0.010481480
1640785326498449920,-0.158097510,-0.238139480,10.266514780,-0.021664790,0.036849080,0.016883010
1640785326499290112,-0.448133320,-0.084313910,10.664402960,-0.031802060,-0.010292230,0.009161230
1640785326503459840,-0.070978770,-0.005569100,9.280502320,-0.072912860,-0.069561600,0.015805660
1640785326504049920,-0.079459230,0.106625490,9.285042760,-0.060912970,-0.002719460,0.030308960
1640785326508430080,-0.155861440,0.040030830,9.476282120,-0.004604460,0.118327140,0.005561110
1640785326509680128,-0.053565450,0.158659370,9.963102340,0.038960570,0.009392200,-0.008197130
1640785326513429760,-0.378521200,0.270169730,10.388903620,0.026781860,-0.055193900,0.001604860
1640785326514109952,-0.192746220,0.141878920,9.398604390,-0.030772390,-0.029125810,-0.004477800
1640785326518419968,-0.307144910,0.343090300,9.861461640,-0.039227310,-0.031757350,0.001952050
1640785326519119872,-0.317978860,0.425242780,9.959356310,-0.040589270,0.048901140,0.018335880
1640785326523299840,0.221710860,0.424863640,9.634919170,-0.019656120,0.061970950,0.024370850
1640785326524089856,-0.104848550,0.548844400,10.650793080,0.022204220,0.034461920,0.014258920
1640785326528760064,-0.123337540,0.591810520,9.887923240,-0.038093330,-0.034222010,0.005894900
1640785326530149888,-0.199879290,0.446050850,9.448424340,-0.075127210,-0.101785380,0.007691980
1640785326535219968,-0.572790210,0.215763880,9.569199560,-0.066433850,-0.017240640,-0.004938250
1640785326536069888,-0.280938360,0.052622490,9.241045000,-0.019036240,0.045283150,-0.005334620
1640785326538339840,-0.303656430,0.008428190,10.078067780,0.013011690,0.036926570,0.000113250
1640785326539089920,-0.056530930,-0.029142960,10.202541350,-0.032369800,0.050298870,0.006036460
1640785326543360000,0.242499130,0.084766640,9.939378740,-0.055712470,-0.000756980,0.012393300
1640785326544090112,-0.009695900,0.250663130,10.037148480,-0.075240430,-0.041615970,0.010417400
1640785326548499712,0.194448230,0.142166150,9.179414750,-0.058347000,0.010219220,0.022459030
1640785326549100032,-0.009311900,0.082332240,9.429769520,0.029598180,0.035956510,-0.001892450
1640785326553439744,-0.362922190,0.094532560,10.081368450,0.032947960,0.024443860,-0.022277240
1640785326554070016,-0.308169660,0.069603440,9.733700750,-0.017039480,-0.003165010,-0.007072090
1640785326558459904,-0.706930340,-0.019143550,10.124360080,-0.029087060,-0.053821500,-0.027756390
1640785326559079936,-0.648711320,0.163175310,9.819094660,-0.038614870,-0.040790440,-0.009895860
1640785326563369984,-0.279181540,0.381571200,9.361965180,-0.014740230,0.010314580,0.016309320
1640785326564199936,-0.109629190,0.345168920,10.019642830,-0.008530920,0.091038650,0.012882050
1640785326568470016,0.118973580,0.530014810,10.355495450,0.005067890,0.080171230,0.025509300
1640785326569519872,-0.044948870,0.571654680,10.333951000,0.010260940,-0.090309980,0.014157590
1640785326573489920,-0.096975210,0.486354530,9.501085280,-0.060622400,-0.129623730,0.008332730
1640785326574529792,-0.048727830,0.468661070,8.732145310,-0.078594690,-0.019225480,0.007180870
1640785326578299904,-0.217543720,0.151994900,9.588440900,-0.040987130,0.068137060,0.003819170
1640785326579099904,-0.039053240,0.121056570,10.240556720,-0.010058280,0.080658500,0.007823110
1640785326583389952,0.080336300,0.068013290,10.375250820,0.011500720,0.013802950,0.009191040
1640785326584100096,-0.035228510,0.024811390,10.229110720,-0.037635870,-0.039283930,0.008845330
1640785326588359936,-0.105672470,0.189454480,9.314714430,-0.089532130,-0.041551880,0.022035840
1640785326589219840,-0.293134210,-0.046364010,9.189212800,-0.068506580,-0.011318920,0.019931800
1640785326593349888,-0.383196710,-0.119959500,9.478145600,0.014093520,0.047972790,0.000688430
1640785326594039808,-0.427969600,0.028750150,9.828920360,0.061431530,0.021864470,-0.021076200
1640785326598789888,-0.481578980,0.003656870,10.173694610,0.014254450,-0.018388030,-0.011405350
1640785326599830016,-0.398988010,0.194386300,10.067887310,-0.041188300,-0.040525200,-0.014680620
1640785326604189952,-0.347245690,0.322109460,9.980143550,-0.044216220,-0.049138080,-0.006255510
1640785326604709888,-0.003288070,0.498598550,9.461647030,-0.033529100,0.002533200,0.011499220
1640785326608379904,0.244450610,0.612997110,9.617211340,-0.000001490,0.069257610,0.020903350
1640785326609109760,0.112825800,0.484323560,10.356760030,0.019289550,0.060626860,0.016677380
1640785326613319936,-0.119328830,0.545471850,10.208642010,-0.000344220,-0.075636800,0.009092690
1640785326614119936,-0.437538390,0.325888480,9.701585770,-0.051344930,-0.153169050,-0.000283120
1640785326619699968,-0.515370010,0.116434510,9.038543700,-0.072039670,-0.044000150,-0.011225050
1640785326620079872,-0.544634100,0.143517940,9.466975210,-0.043959910,0.034269690,-0.022478400
1640785326623429888,-0.427852300,0.044152510,10.248877530,-0.022800270,0.062683220,-0.013549630
1640785326624069888,-0.032349800,0.154944290,10.156922340,-0.016386810,0.013639030,0.010886790
1640785326628409856,0.020979070,0.103602200,10.344905850,-0.016888980,-0.067967180,0.018292670
1640785326629120000,0.123174180,0.113391820,9.511638640,-0.050276530,-0.045336790,0.027811530
1640785326633410048,0.128776130,0.058028320,9.197566990,-0.028054420,-0.037194790,0.022962690
1640785326634529792,-0.093154120,-0.243317740,9.731931690,0.022113320,0.026755040,-0.005315240
1640785326638449920,-0.043736530,-0.009906160,9.477082250,0.042405720,0.032679740,-0.029642880
1640785326639249920,-0.323931400,0.050844540,10.220639230,0.002975760,-0.057120630,-0.025388600
1640785326643309824,-0.359829520,0.129464810,9.848488810,-0.036005680,-0.021380190,-0.030983990
1640785326644089856,-0.311117320,0.472331200,9.561894420,-0.025512280,-0.059278310,-0.028026100
1640785326648819968,-0.415709880,0.519803700,10.114915850,-0.022640820,-0.019189720,0.009393690
1640785326649509888,-0.003470300,0.509926860,9.380748750,-0.006990130,0.084337600,0.026237970
1640785326653379840,-0.027268940,0.353281680,10.422532080,0.029198820,0.002613660,0.016599890
1640785326654340096,-0.109695310,0.245912840,10.330492020,0.019478800,-0.001408160,0.020177660
1640785326658360064,0.045775170,0.236491350,9.270958900,-0.013710560,-0.086067620,0.001241270
1640785326659169792,-0.251073120,0.087609920,9.746111870,-0.038704280,-0.074212250,-0.012102720
1640785326663379968,-0.052222710,0.300794120,8.967430110,-0.066396590,0.061753400,-0.017791990
1640785326664160000,-0.016726310,0.309912170,9.787599560,-0.029796360,0.028340520,-0.006648900
1640785326668619776,-0.137298600,0.218968590,10.683483120,0.001877550,0.066404040,0.007331370
1640785326670949888,0.052962360,0.410664350,9.878278730,0.014984610,-0.016267600,0.001215930
1640785326674180096,-0.278805110,0.285656900,10.264407160,-0.021214780,-0.105591110,0.022269780
1640785326674520064,-0.210904790,0.120827310,9.059629440,-0.067318980,0.020594890,0.025630000
1640785326678350080,-0.218715940,-0.151733910,9.223466870,-0.009556120,0.026616450,-0.008243320
1640785326679129856,-0.589162170,-0.226843390,10.421809200,0.052693500,0.034560260,-0.021636490
1640785326683779840,-0.358727010,-0.006726210,9.559299470,0.031632190,-0.021073220,-0.035192080
1640785326684439808,-0.372649880,0.095101510,10.060554500,-0.011108820,-0.098629300,-0.036598740
1640785326688509952,-0.347227480,0.469451670,9.820137980,-0.067362170,0.010415910,-0.011169910
1640785326689149952,0.068520720,0.634320200,9.365495680,-0.050972410,0.000686940,0.017155710
1640785326693420032,0.028844750,0.479153480,10.443575860,0.005683300,0.038164850,0.022503730
1640785326694080000,0.189128490,0.699570890,9.960854530,0.033655770,0.074562440,0.013667350
1640785326698710016,-0.074065040,0.492959290,10.339456560,0.011171400,-0.101320450,0.012357530
1640785326699440128,-0.401700350,0.246563150,9.715127940,-0.062401590,-0.087314850,0.010170040
1640785326706039808,-0.260600510,0.151093360,8.644174580,-0.073710080,-0.047263500,-0.013655420
1640785326706499840,-0.466336400,-0.136793200,9.730954170,-0.015766920,0.019720200,-0.003771480
1640785326708329984,-0.246072610,-0.064488590,9.830694200,0.004121660,0.100769100,-0.013478100
1640785326709100032,0.007547910,0.034672720,10.445205690,0.015541910,-0.014483930,-0.008736550
1640785326713349888,-0.052097040,0.203677800,10.468268390,-0.022953750,-0.042499600,0.011253360
1640785326714079744,0.194348810,0.340250160,9.138135910,-0.078448660,-0.066822770,0.022381540
1640785326718880000,-0.025501090,0.066407270,9.566526410,-0.021928550,-0.013682250,0.026014450
1640785326719699968,-0.169023530,0.058007900,9.491729740,0.051635510,0.068645190,-0.006486480
1640785326723379968,-0.271454240,0.073633100,9.868886950,0.085712970,-0.043934590,-0.010587280
1640785326724129792,-0.485105070,0.071480050,10.083230020,0.028097640,-0.034779310,-0.007207690
1640785326728469760,-0.381660760,0.375325350,9.536799430,-0.063003610,-0.039936600,-0.017726420
1640785326729149696,-0.358811970,0.568125900,10.077208520,-0.087140500,-0.034336740,0.013443830
1640785326733909760,-0.024029700,0.622275890,9.548587800,-0.049613420,0.068116200,0.027899440
1640785326735169792,0.230230960,0.605597620,9.984113690,0.036181510,0.037138170,0.011302530
1640785326739869952,-0.001593230,0.562780140,10.482973100,0.055000190,0.025337940,0.013187530
1640785326740269824,0.031717650,0.509651120,9.430850980,-0.029972200,-0.091633200,0.013442340
1640785326743360000,-0.225532640,0.172853160,9.495163920,-0.094676030,-0.098519030,0.021050870
1640785326744079872,-0.236527060,0.069833530,8.843320850,-0.081606220,0.056050720,0.008231400
1640785326748809728,-0.121064920,0.004107610,9.713198660,-0.030267240,0.055056820,-0.010873380
1640785326750389760,-0.155383690,0.052885000,10.625871660,0.008158390,0.083053130,0.004169350
1640785326755679744,0.169230820,0.245346500,9.909445760,-0.013194980,0.012055040,-0.016249720
1640785326756069888,-0.063846070,0.286882160,10.359772680,-0.067760050,-0.079676510,0.009922680
1640785326758409984,-0.056040430,0.224913780,9.064884190,-0.071941310,0.022679560,0.033858410
1640785326759089920,-0.063507470,-0.085046490,9.135155680,-0.004330280,-0.000894070,0.005911290
1640785326763409920,-0.484270040,-0.056386550,10.170713420,0.057998310,0.063283740,0.002421440
1640785326764079872,-0.279025230,0.090272580,9.404370310,0.023379920,0.021889810,-0.008523470
1640785326768519936,-0.378729370,0.048987950,10.449669840,-0.039395690,-0.069350000,-0.009533760
1640785326769369856,-0.387653560,0.382363560,9.892585750,-0.081041460,0.052949790,-0.004816060
1640785326773459968,-0.035213400,0.570699870,9.516411780,-0.052969160,-0.022709370,-0.001966950
1640785326774169856,-0.123114760,0.619207320,10.387417790,-0.013794000,0.040507310,0.016357000
1640785326778369792,0.301873090,0.782024030,9.208755490,-0.005246700,0.103148810,0.007024410
1640785326779140096,0.051844470,0.609461430,10.477384570,-0.024580960,-0.032578410,0.015223030
1640785326783469824,-0.254733710,0.392656510,10.060908320,-0.073480610,-0.001144410,0.017827750
1640785326784389888,-0.110712890,0.065524430,8.891641620,-0.065185130,-0.067113340,0.005939600
1640785326788509952,-0.496543940,-0.194759250,10.026714320,-0.023983420,-0.006610160,0.012882050
1640785326789189888,-0.201416670,-0.136570050,9.092294690,-0.028888880,0.132621820,0.006169080
1640785326793349888,-0.045479270,-0.169562250,10.204871180,-0.030377510,0.026731190,0.010411440
1640785326794099712,-0.208498630,0.002845940,10.744566920,-0.040860470,0.056201230,0.007022920
1640785326798390016,0.196426320,0.253966390,9.196460720,-0.054094200,-0.045642250,-0.001762810
1640785326799219968,-0.139469730,0.225930040,9.973441120,-0.025761130,-0.039774180,0.026157500
1640785326803490048,-0.235981260,0.143993540,9.227177620,0.009129940,0.112383070,-0.002329050
1640785326807760128,-0.295445980,0.143648800,9.707346920,0.050365920,-0.004364550,-0.006437300
1640785326808430080,-0.799122990,0.150615440,10.620490070,0.022557370,-0.014750660,0.010719900
1640785326809159936,-0.332306980,0.212964250,9.028272630,-0.040702530,-0.022985050,-0.010009110
1640785326813639936,-0.438987200,0.469894230,10.268369670,-0.055909160,-0.029520690,0.005239250
1640785326814240000,-0.238573920,0.638967630,9.948502540,-0.072978440,0.095583500,0.025242570
1640785326818439936,0.346979680,0.532445610,9.673799510,-0.030113760,0.024633110,0.015550850
1640785326819160064,0.033323790,0.498525470,10.823069570,0.023561720,0.045602030,0.018261380
1640785326823379968,0.045035840,0.374785240,9.582460400,-0.007081030,-0.005142390,0.000585620
1640785326824179968,-0.275075550,0.110135080,9.757479670,-0.032171610,-0.138169540,0.010915100
1640785326828369920,-0.653417050,-0.029929510,9.337245940,-0.054749850,-0.020927190,0.011229520
1640785326829239808,-0.316014200,-0.173766670,8.863845830,-0.048446660,0.022149090,0.014381110
1640785326833769984,-0.498770530,-0.113627920,10.536107060,-0.002208350,0.069561600,0.029478970
1640785326836109824,-0.150512400,0.032422350,10.228201870,0.000202660,0.070382660,0.011125210
1640785326839399936,0.127528710,0.279747580,10.391024590,-0.020530820,-0.072340670,0.012616810
1640785326839969792,-0.062327940,0.512618840,9.901412010,-0.059340900,-0.020730500,0.023296480
1640785326843340032,0.208458720,0.257867570,8.904857640,-0.050947070,-0.015915930,0.019626320
1640785326844110080,-0.188052550,0.047092340,9.925656320,0.048795350,0.028377780,0.008162860
1640785326848369920,-0.420350850,0.021434790,9.704700470,0.085678720,0.026309490,-0.009025630
1640785326849459968,-0.444977160,-0.110108230,9.987708090,0.030885640,-0.084766750,-0.002554060
1640785326854109952,-0.721907790,0.041584560,10.052021030,-0.033999980,-0.018715860,0.003559890
1640785326854660096,-0.428089500,0.226330430,9.567241670,-0.075785820,-0.031019750,0.000318880
1640785326858359808,-0.288296940,0.421950700,10.295470240,-0.025828180,0.002954900,0.025729840
1640785326859160064,0.034520000,0.593432660,9.754690170,0.026056170,0.068859760,0.008963050
1640785326863379968,0.218590190,0.631585540,10.266043660,0.044564910,-0.021626050,0.004650650
1640785326864140032,-0.114791140,0.641114530,10.291194920,0.001829860,-0.028775630,0.026157500
1640785326868480000,-0.099422660,0.387375120,9.184107780,-0.060762470,-0.116419790,0.019566710
1640785326869479936,-0.293523280,0.189955130,9.629414560,-0.051572930,-0.086425260,0.036278370
1640785326874779904,-0.227197920,0.077793070,9.169740680,-0.014661250,0.077086690,0.030542910
1640785326875129856,0.072214940,0.001198630,10.051430700,-0.006261470,0.042779750,0.016593930
1640785326878429952,-0.018896680,0.103136230,10.880778310,-0.006958840,0.059857960,0.019378960
1640785326879439872,0.231426950,0.197431770,9.777901650,-0.041073560,-0.048522650,-0.000001490
1640785326883479808,0.038488160,0.278444980,9.971469880,-0.057502090,-0.096090150,0.011631840
1640785326884150016,-0.197003920,0.174329500,8.980174060,-0.032913690,0.040705510,0.007428230
1640785326888389888,-0.176812600,0.077131170,9.208622930,0.022092460,-0.004179780,-0.011706350
1640785326889139968,-0.621196990,0.107219590,10.432624820,0.038020310,0.039747350,0.008051100
1640785326893459968,-0.383341370,-0.034226400,9.613709450,0.009343030,0.002005700,-0.005663930
1640785326894680064,-0.400092270,0.057184010,10.526525500,-0.007255380,-0.080814960,-0.006420910
1640785326898380032,-0.358953180,0.384677500,9.824093820,-0.036467620,0.023292010,0.016239290
1640785326899669760,0.235830010,0.371921390,9.202240940,-0.044988090,-0.001312790,0.023317340
1640785326903470080,0.151658030,0.473548980,10.444468500,0.000920890,0.079700340,0.010786950
1640785326905390080,0.203065990,0.554630520,9.699529650,0.026638810,0.061619270,-0.002120440
1640785326908379904,-0.063292330,0.509634020,10.248768810,0.019134580,-0.124928360,0.006006660
1640785326909269760,-0.625509500,0.387139470,9.908960340,-0.040419400,-0.061549250,0.000791250
1640785326913299968,-0.444573340,0.163731770,8.801219940,-0.061297420,-0.066538160,0.004874170
1640785326914109952,-0.643362100,0.120654680,10.127234460,-0.025658310,0.027228890,0.027745970
1640785326918449920,-0.254047240,0.127055450,9.788000110,-0.010831650,0.126904260,0.017380720
1640785326919339776,0.277378920,0.289961280,10.242560390,-0.008963050,0.004352630,0.017742810
1640785326923359744,0.072564210,0.510527850,10.622115140,-0.047865510,0.000549850,0.012612340
1640785326927789824,0.484854550,0.405886200,8.858126640,-0.095348060,-0.054675340,0.011488790
1640785326928320000,0.153042780,0.162573100,9.557698250,-0.028152760,-0.034512580,0.014089050
1640785326929119744,-0.292378370,-0.117967150,9.675902370,0.038653620,0.081302230,-0.020250680
1640785326935109888,-0.293074220,-0.207289560,9.682637210,0.049214070,-0.038334730,-0.018569830
1640785326936189952,-0.765253780,-0.260700700,10.564775470,0.017040970,-0.035452840,-0.005684790
1640785326938339840,-0.461850230,-0.171761650,9.529915810,-0.048361720,0.015580650,-0.023305420
1640785326940140032,-0.426310480,0.319564040,10.027928350,-0.053094340,-0.039292870,0.012634700
1640785326943349760,-0.359266850,0.450626820,9.977720260,-0.030101840,0.060452520,0.010636450
1640785326944109824,0.244511290,0.577011350,9.488758090,0.006461140,0.028766690,0.002767150
1640785326948349952,-0.139645520,0.775664750,10.590173720,0.049141050,-0.004191700,0.011546910
1640785326949329920,-0.143481660,0.547551810,9.871110920,-0.008559230,-0.043787070,0.006461140
1640785326954319872,-0.167650770,0.431479930,9.545888900,-0.051918620,-0.114086260,0.017015630
1640785326954850048,-0.429451410,0.301880690,9.695805550,-0.053341690,-0.013384220,0.028291350
1640785326958409984,0.020422610,0.050660390,9.372369770,-0.060141090,0.058531770,0.020243230
1640785326959139840,0.063724200,0.129844520,10.300140380,-0.014656780,0.073289870,0.014196340
1640785326963320064,0.106639230,0.200140300,10.445284840,-0.015838450,0.039541710,-0.007995960
1640785326964099840,0.194495350,0.411112040,9.805191040,-0.066585840,-0.068305430,-0.000013410
1640785326968499968,-0.204960820,0.330147450,9.427133560,-0.081910190,-0.047287350,0.016582010
1640785326969499904,-0.277968880,-0.080931100,9.187653540,-0.043986740,0.008563700,0.013054910
1640785326973779968,-0.592513260,-0.172813190,9.882037160,0.049842890,0.023713710,0.012755400
1640785326975149824,-0.639588950,-0.240084770,10.173637390,0.066107510,-0.001476710,0.005130470
1640785326978299904,-0.307031900,-0.136555430,10.095824240,-0.012494620,-0.014883280,-0.010024010
1640785326979159808,-0.257678150,0.251981470,10.117676730,-0.068384420,0.007043780,-0.003068150
1640785326983490048,0.113595580,0.413555560,9.712054250,-0.080654030,0.004686420,0.007280710
1640785326984140032,0.362904010,0.600377380,9.648787500,-0.021068750,0.036820770,0.000804660
1640785326988410112,0.243424450,0.700924990,9.794590950,0.054116550,0.046543780,-0.013439360
1640785326989349888,0.138712760,0.698577400,10.004295350,0.012557210,-0.017862020,-0.002761190
1640785326993339904,-0.325941800,0.563590110,10.015666960,-0.046895440,-0.057855250,0.012680890
1640785326994139904,-0.476667700,0.100052320,9.657766340,-0.083129120,-0.053729120,0.018624960
1640785326998329856,-0.489475850,0.005532840,9.809569360,-0.038783240,0.031219420,0.013785060
1640785326999379968,-0.391344790,-0.089085130,9.938629150,0.013081730,0.062417990,0.015035270
1640785327003439872,0.056394570,-0.086274320,9.967537880,0.009641050,0.046394770,-0.011074540
1640785327004400128,0.148319810,0.310812560,9.937612530,-0.041265790,0.036111470,-0.027169290
1640785327008409856,0.213653770,0.380774350,9.604151730,-0.094591080,-0.018830600,-0.004275140
1640785327009149952,0.215100540,0.279218440,9.430842400,-0.062069300,-0.005906820,0.004398820
1640785327013360128,-0.125156300,0.149449970,9.662014960,0.026091940,0.041581690,-0.003711880
1640785327014159872,-0.253596370,0.024819060,9.937019350,0.066135820,0.010684130,0.012233860
1640785327018429952,-0.414935890,-0.013005550,10.139863010,0.025269390,0.008168820,-0.008270140
1640785327020689920,-0.361740020,-0.042217430,9.838211060,-0.049936770,0.028195980,-0.025384130
1640785327023439872,-0.156181530,0.301361470,9.763051990,-0.066483030,0.032863020,-0.010587280
1640785327024169984,-0.124027350,0.382966070,9.853808400,-0.037103890,0.062531230,-0.011777880
1640785327028369920,0.092864210,0.467142970,9.600657460,-0.000026820,0.050535810,-0.017723440
1640785327029120000,-0.089565430,0.678795040,10.100021360,0.027684870,0.021407010,-0.010190900
1640785327033459968,-0.292152820,0.409090610,10.044317250,-0.021953880,-0.007641320,0.004029270
1640785327034230016,-0.314130780,0.290582000,9.735790250,-0.049823520,-0.033728780,0.015333290
1640785327038959872,-0.425512520,0.121822790,9.995177270,-0.030377510,0.027899440,0.015838450
1640785327039789824,-0.161712440,-0.035478430,9.753700260,-0.022347270,0.079344220,0.016763810
1640785327043330048,0.043306950,0.129456830,9.952859880,-0.001569090,0.040695070,0.010737770
1640785327044149760,0.138779890,0.187895690,10.021007540,-0.035293400,0.056444110,-0.017181040
1640785327048739840,0.288652450,0.394344810,9.437877660,-0.068926810,0.029942400,-0.015862290
1640785327049540096,-0.110110160,0.359948460,9.896962170,-0.038123130,-0.021429360,-0.009071830
1640785327053419776,-0.214363070,0.098774090,9.471108440,-0.003677610,0.033286220,0.001679360
1640785327054499840,-0.452211440,0.052832190,9.704913140,0.036691120,0.026446580,0.007474420
1640785327058329856,-0.788125750,-0.149668190,10.466069220,0.026790800,0.014108420,0.009797510
1640785327059150080,-0.499599160,-0.145161940,9.637589450,-0.015303490,0.008709730,-0.006066260
1640785327063309824,-0.338919700,0.112614740,9.694874760,-0.023797150,-0.006291270,-0.018401440
1640785327064129792,-0.084474180,0.221357840,9.844817160,-0.042389330,0.099216400,-0.007872280
1640785327069179904,0.247287790,0.415382800,9.797999380,-0.001625720,0.060521070,-0.013048950
1640785327070780160,0.086038310,0.446458760,10.450208660,0.049446530,-0.019402800,-0.017181040
1640785327074640128,0.129503790,0.547332700,9.570031170,0.018659240,0.000903010,-0.005425510
1640785327075009792,-0.198851020,0.509558080,9.666172030,-0.013142830,-0.045259290,-0.000727180
1640785327078320128,-0.485538450,0.335503100,10.037949560,-0.047236680,-0.003992020,0.009581450
1640785327079129856,-0.313062490,0.341454420,9.434535980,-0.054188080,0.040745740,0.007423760
1640785327083420160,-0.384437470,0.195466770,10.392848970,-0.010100010,0.018779930,-0.000561770
1640785327084219904,-0.082609090,0.195483360,10.090274810,-0.002036990,0.060202190,-0.020971890
1640785327088450048,0.070405540,0.308573220,9.597520830,-0.016191600,-0.012485680,-0.039945550
1640785327089219840,-0.045400970,0.289062350,9.840689660,-0.046066940,-0.008603930,-0.012604890
1640785327093309952,0.179124390,0.176169800,9.012183190,-0.062382220,0.049398840,-0.002536180
1640785327094109952,-0.108222020,-0.001295070,9.914042470,0.011378530,-0.003454090,0.008997320
1640785327098680064,-0.307680580,-0.059028090,10.174187660,0.028350950,0.033251940,0.013542180
1640785327099249920,-0.223711040,-0.156151670,9.806648250,0.011605020,-0.008599460,-0.017425420
1640785327103699968,-0.412395860,-0.125780570,10.339066510,0.002253060,-0.019635260,-0.024530290
1640785327106200064,-0.081162070,0.121448710,9.453890800,-0.023233890,0.074391060,-0.034418690
1640785327108310016,-0.110987880,0.264846000,9.725064280,-0.003692510,0.032338500,-0.024902830
1640785327109159936,-0.177432000,0.456454990,10.137426380,0.017434350,0.037714840,-0.009340050
1640785327113339904,0.078433420,0.706805940,9.277734760,0.002086160,0.005377830,-0.007183850
1640785327114109952,-0.229730960,0.631045580,10.034951210,-0.017783050,-0.027517970,0.017826260
1640785327118449920,-0.241003010,0.484453200,9.878289220,-0.020818410,0.053255260,0.029778480
1640785327119219968,-0.270097140,0.272859070,10.179145810,-0.002832710,0.000475350,0.002174080
1640785327123309824,-0.438592670,0.151311490,10.635708810,0.015380980,0.011669100,0.006762150
1640785327124140032,-0.008607870,0.119562840,9.393596650,-0.019952650,0.036574890,-0.021038950
1640785327128419840,-0.049730370,0.074601840,9.743822100,-0.041076530,0.008523460,-0.048796830
1640785327129149952,0.021202900,0.315109370,9.424763680,-0.056594610,0.060579180,-0.032265490
1640785327133549824,0.177974300,0.290066690,9.284543990,-0.057496140,0.038671500,-0.026856370
1640785327134549760,-0.174335180,0.089838880,10.312173840,-0.013858080,0.023998320,0.005500020
1640785327139719936,-0.154093890,0.037671810,9.951993940,0.035893920,0.031147900,0.022543970
1640785327140239872,-0.334298010,-0.291843980,10.363385200,0.047610690,-0.019469860,0.012464820
1640785327143349760,-0.514607790,-0.184090320,10.117465020,0.015582150,0.019554800,-0.001654030
1640785327144150016,-0.215274010,-0.056083560,9.234889980,-0.016483660,0.011259320,-0.026731190
1640785327148759808,-0.271704440,0.042027310,9.684620860,-0.013050440,0.056578220,-0.034977500
1640785327149580032,-0.077131750,0.520213900,9.388039590,0.012528900,0.077034530,-0.028547650
1640785327153820160,-0.102249610,0.493940350,10.117703440,0.038558240,-0.021703540,-0.027731060
1640785327155069952,-0.245023520,0.668921230,10.093688960,0.016023220,-0.014460090,-0.004780290
1640785327158309888,-0.073712390,0.737966420,9.554694180,-0.014524160,-0.007694960,0.013810400
1640785327159200000,-0.245914650,0.324543390,10.519608500,-0.025907160,0.048916050,0.016093250
1640785327163300096,-0.221856400,0.416572660,10.080301280,-0.010475520,0.062546140,0.006391110
1640785327164189696,-0.156781730,0.317580640,10.043505670,0.000567730,-0.039835270,-0.003127750
1640785327171579904,-0.241747160,0.141797140,9.721080780,-0.033827130,0.003677610,-0.024318700
1640785327172590080,-0.025093070,0.312274520,8.879449840,-0.043676790,0.019142030,-0.035278500
1640785327173329920,-0.162051870,0.144985170,9.856082920,-0.036032500,0.029362740,-0.023131070
1640785327174119936,-0.030749700,0.127861600,9.714606290,-0.025646390,0.075700890,0.009451810
1640785327178370048,-0.019021780,0.103803810,10.250191690,0.005394220,0.007537010,0.024794040
1640785327179200000,-0.233217150,0.004625480,10.679096220,-0.002564490,0.019961600,0.035963950
1640785327183859712,-0.149583550,-0.027988730,9.519314770,-0.015503170,-0.019851330,0.018616020
1640785327184589824,-0.270401600,-0.119852600,9.700934410,-0.004994870,-0.026293100,-0.022953750
1640785327188429824,-0.315801020,0.048684150,9.151870730,-0.005331640,0.090329360,-0.043091180
1640785327189199872,-0.233657610,0.102871180,9.467005730,0.030946730,0.028081240,-0.040508810
1640785327193430016,-0.394195500,0.119063960,10.412213330,0.036257510,0.028370330,-0.022569300
1640785327194149888,-0.155685710,0.436461330,9.515086170,0.003345310,-0.015549360,-0.004275140
1640785327198579968,-0.169210700,0.421868120,10.226637840,-0.019223990,-0.037585200,0.016595420
1640785327199780096,-0.030017120,0.377050550,9.914822580,-0.035756820,0.120428190,0.023820990
1640785327203810048,0.017650320,0.301960050,10.111083030,0.031007830,0.026384000,0.000987950
1640785327204399872,-0.319115160,0.232784240,10.730316160,0.076037640,-0.026986000,-0.011211630
1640785327208449792,-0.206136290,0.229645270,9.073848720,0.023524460,-0.029110910,-0.028285390
1640785327209149952,-0.393262860,0.220613110,9.482026100,-0.016714640,-0.081248600,-0.028949980
1640785327213659904,-0.425442460,0.388893190,9.486752510,-0.058174140,0.086887190,-0.028505920
1640785327214279936,0.005100600,0.489085230,9.408574100,-0.051985690,0.056307030,-0.010032950
1640785327218449920,-0.071263970,0.504713300,11.014657970,0.002503400,0.049367550,0.009271500
1640785327219169792,0.185665990,0.555791200,10.094411850,0.001512470,0.070327520,0.014343860
1640785327223340032,0.039688850,0.267358870,10.239292140,-0.006608670,-0.102452930,0.014996530
1640785327224119808,-0.266981120,-0.026825130,9.717929840,-0.018393990,-0.020128490,0.004138050
1640785327228519936,0.008340870,-0.326546430,8.320829390,-0.019340220,0.037916000,-0.026975570
1640785327229679872,-0.381737020,-0.442477080,9.943202020,0.030718750,0.051276390,-0.021545590
1640785327235999744,-0.317932610,-0.280796290,9.805266380,0.028742850,0.116668650,-0.030276180
1640785327236860160,-0.169243430,-0.032487540,10.140230180,0.008714200,-0.060512130,-0.021974740
1640785327238669824,-0.336022200,0.412735340,10.490965840,-0.024777650,-0.018849970,0.010871890
1640785327239179776,0.130753870,0.526405100,9.151488300,-0.045408300,0.054578490,0.010648370
1640785327243379712,-0.142310720,0.337395340,10.439668660,0.035016240,0.038205090,0.003625450
1640785327244179968,-0.380168680,0.460675690,10.206567760,0.097012530,0.077220800,-0.011079010
1640785327248639744,-0.321784200,0.345210460,9.501571660,0.069962450,-0.107114020,-0.022919470
1640785327249899776,-0.719741460,0.224813480,9.797315600,-0.001169740,-0.085395580,-0.015726690
1640785327253899776,-0.374116420,0.371246040,8.709411620,-0.069622700,0.033235550,-0.012257700
1640785327254299904,-0.248240630,0.224165900,10.118927000,-0.041735170,0.035509470,0.008940700
1640785327258370048,0.019076250,0.427591380,10.539743420,0.014936920,0.123427810,0.011710820
1640785327259189760,0.497567390,0.491415800,10.159916880,0.027634210,0.023213030,-0.000575180
1640785327263340032,0.041935600,0.362170850,10.651089670,-0.002370770,-0.053873660,0.012841820
1640785327264349952,-0.081040310,0.304919510,8.953582760,-0.036233670,-0.062420970,0.002165140
1640785327268469760,-0.265011250,-0.168969990,8.947428700,-0.011345740,-0.072993350,-0.007900600
1640785327270710016,-0.630059900,-0.228710930,9.446726800,0.043976310,0.073899330,-0.013540690
1640785327273319936,-0.346538100,-0.090273640,9.634302140,0.039535760,0.072148450,-0.028738380
1640785327274179840,-0.381667970,-0.030346910,11.013038640,0.003387030,0.011365120,-0.018827620
1640785327278369792,-0.125730380,0.485842670,10.127580640,-0.036448240,-0.009408590,-0.024618210
1640785327279179776,0.177634690,0.599712490,9.579793930,-0.046083330,-0.064842410,0.010378660
1640785327283439872,0.028100300,0.360339610,9.504343030,0.002573430,0.050751870,0.024919220
1640785327284139776,0.124949660,0.314565360,9.145269390,0.084780160,0.051526730,-0.002107020
1640785327288369920,-0.282492100,0.107229410,10.434057240,0.095643100,-0.029358260,0.004538890
1640785327289169920,-0.492326740,0.104146120,9.830823900,0.001354520,-0.037162000,0.001123550
1640785327293759744,-0.387539570,0.160191790,9.688305850,-0.064618890,-0.102950640,-0.010378660
1640785327294479872,-0.532576740,0.222481040,10.125668530,-0.072792180,0.042772300,0.001230840
1640785327298749952,-0.088766810,0.427378450,9.693344120,0.001448390,0.070407990,-0.018650300
1640785327299389952,0.070563700,0.551267090,10.633309360,0.064644220,0.008046630,-0.032433870
1640785327303549952,0.207698720,0.782752040,9.589932440,0.011248890,0.027672950,-0.020186600
1640785327304930048,0.295346170,0.713400070,9.236470220,-0.068070000,-0.072255720,0.013160710
1640785327308460032,-0.088330200,0.293851580,9.776733400,-0.091023760,0.013642020,0.037124750
1640785327309489920,-0.160986360,-0.013587330,9.272467610,-0.013783570,0.016419590,0.030112270
1640785327313349888,-0.361140550,-0.325777140,10.533653260,0.083486740,-0.048238040,0.025127830
1640785327314169856,-0.308177950,-0.355233310,9.929188730,0.044059750,0.078889710,-0.005823370
1640785327319299840,-0.092072970,-0.216026100,9.772449490,-0.022362170,-0.001508000,-0.039094690
1640785327319759872,-0.244530110,0.022389020,10.306696890,-0.058481110,0.026616460,-0.028662390
1640785327323330048,0.091306040,0.242368580,8.782508850,-0.044792900,0.024034090,-0.018216680
1640785327324179968,-0.058013960,0.318910240,9.755699160,0.062657890,-0.044858460,-0.005109610
1640785327328379904,-0.233225930,0.453656170,9.745592120,0.080414120,0.079545390,0.001780690
1640785327329189888,-0.116888790,0.348875730,9.691854480,0.030221050,-0.037142630,0.015912950
1640785327333539840,-0.533879820,0.104474400,11.088013650,0.009562080,-0.010745230,0.019767880
1640785327334289920,-0.236222610,0.091565010,9.568826680,0.000076000,0.043876470,-0.012585520
1640785327339649792,-0.333355310,0.233834850,10.074707980,0.040149680,-0.060282640,-0.004862250
1640785327340260096,-0.384060030,0.420258520,9.793579100,0.016611820,0.055961310,-0.009655950
1640785327343360000,0.111697550,0.678439860,8.743241310,-0.035174200,-0.011909010,-0.027856240
1640785327344159744,-0.052030000,0.870873390,10.173073770,-0.055022540,-0.013153250,0.004626810
1640785327348480000,0.240949620,0.583270310,9.502817150,-0.047609210,0.114020710,0.016748910
1640785327350040064,0.131221320,0.265550850,10.485816960,0.027365980,-0.015833980,0.005792080
1640785327353819904,-0.448041800,0.157488120,11.108713150,0.075571230,-0.009368360,0.021329520
1640785327354240000,-0.152845230,-0.129306300,9.118656160,-0.001968440,-0.071711840,0.008226930
1640785327358369792,-0.427391200,-0.314967190,9.606159210,-0.052422290,-0.043936080,0.002735850
1640785327359180032,-0.331159000,-0.158076640,9.039733890,-0.056640810,0.139315430,-0.029698020
1640785327363449856,-0.011422520,-0.001838590,9.430937770,-0.007924440,0.043077770,-0.025819240
1640785327364120064,-0.275150030,0.269370820,10.667462350,0.046971450,0.013929610,-0.019396840
1640785327368450048,0.112408970,0.539391040,9.451506610,0.012034180,-0.010177490,-0.023221970
1640785327369279744,-0.067354500,0.520029070,10.195821760,-0.023433570,-0.069926680,0.021781030
1640785327373359872,-0.227834850,0.294014870,10.011628150,-0.016391280,0.078508260,0.035044550
1640785327374579968,-0.011775140,0.039719840,9.739370350,0.034973030,0.034910440,0.004132090
1640785327378340096,-0.506036520,0.077238910,10.610667230,0.073298820,0.000490250,0.010956820
1640785327379170048,-0.353912770,0.140251870,9.167657850,0.025336450,-0.014330450,-0.013886390
1640785327383440128,-0.410567130,0.194320930,9.554561610,-0.043928630,-0.074191390,-0.025014580
1640785327384150016,-0.553441230,0.584062810,9.598076820,-0.075081000,0.027464330,-0.014115870
1640785327388359936,0.086879320,0.648045180,9.371047020,-0.054034590,0.056418780,-0.008514520
1640785327389289728,0.031406570,0.557310340,10.959963800,0.009858610,0.071023400,0.011292100
1640785327393329920,0.056702580,0.564414320,10.521827700,0.035221870,0.044658780,0.017768140
1640785327394309888,0.039003630,0.231071190,10.244755740,0.000411270,-0.118216880,0.028388200
1640785327398360064,-0.396853600,-0.088754100,9.529970170,-0.045356150,-0.068628800,0.034946200
1640785327399350016,-0.104569850,-0.378782360,8.236022000,-0.031064450,-0.003691020,0.004155930
1640785327403990016,-0.346748590,-0.402462810,9.705981250,0.013355910,0.081448270,-0.016699730
1640785327405959936,-0.379378080,-0.067436310,9.983271600,0.021356340,0.102855270,-0.021210310
1640785327408349952,-0.103715760,0.201852860,10.534046170,0.002373750,-0.065566610,-0.027289990
1640785327409240064,-0.330765810,0.594676910,10.497079850,-0.045256310,-0.046974410,0.003533060
1640785327413289984,-0.040048350,0.644427000,9.188797000,-0.061133500,-0.039912760,0.030216570
1640785327414160128,-0.100481590,0.260501270,10.118418690,0.024648010,0.032107530,0.029775500
1640785327418479872,-0.335017200,0.142166200,9.911133770,0.106425600,0.080697260,0.015112760
1640785327419219968,-0.199378400,0.074183980,9.955101970,0.099217910,-0.084204980,0.008621810
1640785327423339776,-0.458579780,0.143023300,9.960587500,-0.019282100,-0.057323290,0.009769200
1640785327424219904,-0.180572990,0.389871900,8.738035200,-0.120633840,-0.043214860,-0.003053250
1640785327428329984,-0.086303990,0.551041900,9.929522510,-0.095814470,0.017485020,0.014737250
1640785327429219840,0.073290190,0.625009180,10.039256100,-0.018173460,0.131467000,0.010034440
1640785327433600000,0.308856280,0.531117920,10.425819400,0.065897410,-0.008197130,0.002877410
1640785327435999744,-0.084267930,0.358539790,10.862222670,0.058850650,-0.038300460,0.024600330
1640785327438889984,-0.141996060,-0.053430810,8.926297190,-0.035203990,-0.081093620,0.026695430
1640785327440699904,-0.389429510,-0.510328350,9.297150610,-0.032876420,-0.093035390,0.038471820
1640785327443320064,-0.498713310,-0.581470070,9.095029830,0.019176310,0.109568240,-0.003111360
1640785327444219904,-0.197347600,-0.214800540,9.325056080,0.044481450,0.040422370,-0.018484890
1640785327448379904,-0.331750270,0.312016310,10.956605910,0.020504000,0.027617810,-0.004135070
1640785327449609984,-0.001964300,0.652232410,9.845762250,-0.068420160,0.003872810,-0.023956590
1640785327454149888,-0.042899560,0.931311960,10.276479720,-0.056850920,-0.122684240,0.014962260
1640785327456079872,-0.211273950,0.699975910,9.871778490,0.011940300,0.032511350,0.022931400
1640785327458360064,0.030920970,0.253235040,9.047805790,0.086404380,0.006906690,0.008386370
1640785327459190016,-0.444084910,0.164915170,10.525548930,0.112928470,-0.011225040,0.019474330
1640785327463349760,-0.352379830,-0.024326150,9.502010350,0.002741810,0.015406310,0.012330710
1640785327464199936,-0.219472010,0.019941500,9.603513720,-0.088092680,-0.115580870,0.015822050
1640785327468529920,-0.445133810,0.422853800,10.086885450,-0.102707770,0.009575490,0.019443040
1640785327469969920,0.163408380,0.546834830,9.126318930,-0.067247460,0.039553640,-0.000955160
1640785327474530048,0.043728130,0.682305810,10.742648120,0.020635130,0.010773540,0.003170970
1640785327474979840,0.084444440,0.618479370,10.141015050,0.034610930,0.056824080,-0.011092420
1640785327478329856,0.173954900,0.335335310,9.619489670,-0.004719200,-0.099813950,0.000464920
1640785327479169792,-0.403151420,0.096152390,9.995100980,-0.036694120,-0.054463760,0.026707360
1640785327483729920,-0.177815970,-0.276789810,8.599331860,-0.052352250,0.006292760,0.016169250
1640785327484750080,-0.332286000,-0.243483720,9.718970300,-0.010989610,-0.012165310,0.028745830
1640785327490049792,-0.354449630,-0.067470350,9.994355200,-0.001904370,0.097647310,0.015766920
1640785327490559744,0.085811250,0.025583830,9.977501870,-0.022746620,-0.005465750,-0.012400750
1640785327493260032,-0.270454850,0.494542540,10.828582760,-0.032472600,-0.051988670,-0.009247660
1640785327494169856,0.017060380,0.431992110,9.243730550,-0.037837020,-0.029642880,0.007323920
1640785327498309888,0.035553520,0.193152870,9.456414220,0.009270010,-0.022785370,0.006379190
1640785327499189760,-0.427956700,0.198639690,9.953546520,0.068144500,0.068874660,0.004005430
1640785327503969792,-0.222244720,0.008498350,9.549011230,0.049518050,-0.015607480,0.004918870
1640785327505580032,-0.662955460,0.042689090,10.417391780,-0.003993510,-0.082936910,0.008936230
1640785327509449984,-0.473906160,0.356121150,9.369698520,-0.065681330,-0.039371840,0.006724890
1640785327509779968,-0.098058020,0.456358670,9.562386510,-0.071616470,-0.014501810,0.012670460
1640785327513309952,-0.128808010,0.650174680,10.340078350,-0.027792160,0.096438830,0.014109910
1640785327514159872,0.443080990,0.643666390,10.001550670,0.007970630,0.047937040,-0.004641710
1640785327519199744,0.201191340,0.531500280,10.590912820,0.009492040,-0.044208770,-0.009337070
1640785327520470016,-0.113096960,0.355781170,9.490974430,-0.022351740,-0.062048440,0.003196300
1640785327523399936,-0.145729450,-0.103697060,9.043370250,-0.038588050,-0.108164560,0.014324490
1640785327524509952,-0.641354200,-0.273920030,9.455042840,-0.008483230,0.018994510,0.035271050
1640785327528339968,-0.343022020,-0.250493470,9.368777280,0.002139810,0.035898390,0.033158060
1640785327529169920,-0.124780270,-0.042513070,10.472024920,-0.007592140,0.049261740,0.016057490
1640785327533479936,0.006910350,0.335397480,10.278676030,-0.053735080,0.058384240,-0.006599720
1640785327534249984,0.304803820,0.546838220,9.994848250,-0.061479210,-0.062049930,-0.015382470
1640785327538560000,0.018233950,0.537630200,9.640235900,-0.028616190,-0.016984350,-0.011193750
1640785327539279872,-0.029642000,0.256634890,8.872288700,0.040096040,-0.016155840,-0.002080200
1640785327543330048,-0.361546730,0.020365780,9.816090580,0.088097150,-0.010301170,0.013847650
1640785327544139776,-0.658724070,-0.196364340,9.778987880,0.037696960,0.029353800,0.014175480
1640785327548339968,-0.448281140,-0.209325420,10.023680690,-0.014911590,-0.067941850,0.019729140
1640785327549559808,-0.476605920,0.203906370,10.228643420,-0.055995580,0.005745890,0.005246700
1640785327554249984,0.018161430,0.461984810,9.437752720,-0.071436170,0.026226050,0.004111230
1640785327555719936,0.168309780,0.551019010,10.256276130,-0.003726780,0.025187430,0.004525480
1640785327558640128,0.077453780,0.578826070,9.991606710,0.061321260,0.039277960,-0.028072300
1640785327559510016,0.080086860,0.439136800,9.611744880,0.059619550,-0.109782820,-0.017605720
1640785327563309824,-0.375345530,0.351219770,9.759934430,-0.001981850,-0.062648950,0.000061090
1640785327564199936,-0.349597690,0.016763060,9.055674550,-0.074101980,0.002592800,0.012488660
1640785327568460032,-0.432854650,0.076329320,10.203009610,-0.039556620,-0.020042060,0.039720540
1640785327570119936,-0.249972030,0.262327880,10.181806560,-0.011171400,0.071780390,0.028999150
1640785327573339904,0.314035530,0.206558110,9.797144890,-0.018259880,0.011697410,0.017224250
1640785327575199744,0.162916420,0.500242950,10.399868010,-0.018292670,0.020681320,-0.009287890
1640785327578379776,0.264693050,0.379182670,9.200729370,-0.042781230,0.004115700,-0.012496110
1640785327579190016,0.065982490,-0.013355450,9.465477940,-0.004112720,-0.085160140,0.012634700
1640785327583369984,-0.410476600,-0.158055370,9.624660490,0.051681700,0.025491420,-0.005355480
1640785327584179968,-0.316990580,-0.348421250,9.389344220,0.041462480,-0.002837180,0.002482530
1640785327588509952,-0.650030550,-0.192302350,10.596546170,0.014747680,0.002408030,0.016410650
1640785327589239808,-0.388731000,-0.038293000,9.966670040,-0.024765730,0.041726240,-0.012093780
1640785327593329920,-0.072479470,0.256581250,9.821185110,-0.027635690,-0.045849380,0.000888110
1640785327594179840,-0.229770780,0.507950780,9.885271070,0.015971060,0.034646690,-0.002302230
1640785327598340096,0.154084410,0.445336850,9.135757450,0.042608380,0.011333820,-0.013363360
1640785327599200000,-0.146289510,0.490484120,10.246224400,0.059354310,-0.040808320,-0.008213520
1640785327603729920,-0.237703930,0.454016860,9.805643080,0.016321240,-0.000803170,-0.007396940
1640785327608229888,0.002194310,0.213132100,9.713315960,-0.022670630,-0.025036930,0.012761350
1640785327608630016,-0.393330690,0.246163370,10.639962200,0.005580480,0.030440090,0.008830430
1640785327609200128,-0.146425920,0.347972180,9.880306240,0.004354120,0.018237530,0.016343590
1640785327613600000,-0.085158930,0.380309550,9.958315850,-0.014457110,-0.051099060,0.020504000
1640785327614289920,-0.186202330,0.495251000,9.540502550,-0.027567150,0.024391710,-0.004622340
1640785327618350080,0.146035760,0.534767630,9.056585310,-0.052070620,0.018922980,-0.015079980
1640785327620139776,-0.138680060,0.359415680,10.012863160,-0.023111700,0.011350210,0.000096860
1640785327624259840,-0.061951530,0.232723400,9.881038670,-0.000801680,0.036939980,-0.006636980
1640785327624839936,0.017221290,0.154102820,10.174854280,-0.004836920,-0.004330280,0.027431540
1640785327628339968,-0.298050760,-0.083294440,10.419605260,-0.018011030,0.012457370,0.033816690
1640785327629289984,0.049495500,-0.113916490,9.519667630,-0.037509200,0.004124640,0.011852380
1640785327633369856,-0.020429150,-0.007661410,9.460256580,-0.024530300,0.029097500,-0.004385410
1640785327634269952,-0.138033850,0.036222910,9.343672750,-0.019301470,0.072447960,-0.020191080
1640785327638459904,-0.008737610,0.100625460,9.516315460,0.001807510,0.021837650,-0.018112360
1640785327639269888,-0.457455780,0.048817020,10.189058300,0.031928720,-0.010040400,-0.012053550
1640785327643280128,-0.369438770,0.102883720,9.872150420,0.016903880,-0.004522500,-0.006240610
1640785327644259840,-0.396698980,0.090866440,10.207048420,0.011594590,0.012741980,0.013345480
1640785327648320000,-0.518244680,-0.091209260,10.283730510,0.020936130,0.060695410,0.006081160
1640785327649189888,-0.225132700,0.189491570,9.948524480,0.042168800,0.024776170,0.004799660
1640785327653479936,-0.367770110,0.289365500,9.920121190,0.039750340,-0.031672410,0.013478100
1640785327654719744,-0.074345700,0.479189570,9.026585580,0.002050400,-0.040535630,-0.003023450
1640785327658370048,0.121519390,0.876972440,9.186017990,-0.038361560,0.020165750,-0.007431210
1640785327659229952,-0.001655470,0.800298330,10.017788890,-0.068831450,0.066329540,0.011774900
1640785327663360000,0.214089270,0.616945030,10.372116090,-0.026015940,0.051365800,0.018064680
1640785327664229888,-0.045891950,0.425307720,10.742267610,0.041255360,0.018350780,-0.003977120
1640785327668399872,-0.383463860,0.182412670,10.337030410,0.019523500,-0.064559290,0.006937980
1640785327669469952,-0.430410210,-0.008468540,9.247130390,-0.019975000,-0.088235720,0.020377330
1640785327673389824,-0.601288500,-0.326377480,8.867365840,-0.052337340,0.006759170,0.002396110
1640785327674700032,-0.335049540,-0.252701340,9.078541760,-0.037117310,0.089530650,0.000613930
1640785327678339840,-0.189771060,-0.080838410,10.089890480,0.006251040,0.093969710,-0.011245910
1640785327679190016,0.016785400,0.125006180,10.568196300,0.016097730,-0.006461140,-0.028976800
1640785327683339776,0.213246140,0.593228220,10.137651440,-0.014694040,-0.054940590,-0.007419290
1640785327684179968,0.127781840,0.524609630,9.724857330,-0.050950050,-0.016680360,0.005429980
1640785327688419840,0.070574880,0.250783830,9.635014530,-0.015981500,0.048640370,0.029128790
1640785327689230080,-0.259296330,0.189696700,9.986319540,0.083941220,0.044791400,0.011356180
1640785327693549824,-0.487700280,0.052699800,9.795783040,0.070615110,-0.040043890,-0.002802910
1640785327694209792,-0.548526350,0.243415500,9.425518040,-0.019443040,-0.071589660,0.005261600
1640785327698319872,-0.541863320,0.342352000,9.548487660,-0.101110340,0.018224120,-0.004087390
1640785327699200000,-0.249280120,0.373824300,10.003598210,-0.094382460,0.063811250,0.003018980
1640785327703990016,-0.021094040,0.528263510,10.516463280,0.003613530,0.059224670,-0.003413860
1640785327705070080,0.260941450,0.467383710,10.357483860,0.054520370,0.028884410,-0.019441550
1640785327708920064,0.262654190,0.513934790,9.824709890,0.009699170,-0.019912420,0.009301300
1640785327709649920,-0.148581940,0.271105970,9.581584930,-0.049133600,-0.057072930,0.023908910
1640785327713340160,-0.139860990,-0.042621100,8.846809390,-0.077733400,-0.042784210,0.030672560
1640785327714169856,-0.199798820,-0.127370910,9.192774770,-0.024393200,0.024358930,0.033004590
1640785327718400000,-0.193104920,-0.180652100,10.135677340,0.022639330,0.124752530,0.016903870
1640785327719699968,0.053072560,0.041539430,10.527347560,0.002963840,0.084440430,-0.003223120
1640785327724470016,-0.109349500,0.305941400,10.750617030,-0.034359100,-0.037686530,-0.013497470
1640785327724849920,0.032013940,0.389303000,9.406802180,-0.077278920,-0.017578900,-0.008003410
1640785327728379904,-0.172446120,0.224338980,9.003940580,-0.031714150,0.005678830,0.008347630
1640785327729219840,-0.607533870,-0.048895950,9.550413130,0.066316120,0.034998350,0.003832580
1640785327733339904,-0.461191920,-0.030598290,9.361510280,0.094082950,0.028511880,0.015735630
1640785327734339840,-0.558714570,-0.033841370,10.299458500,0.030520560,-0.016559660,0.019258260
1640785327738479872,-0.336416780,0.106446990,10.283580780,-0.063528120,0.037781900,0.013157730
1640785327739290112,0.039787830,0.443144650,9.892411230,-0.079648200,0.025275350,0.011602050
1640785327743840000,-0.021743200,0.481136980,10.422879220,-0.015941260,0.019343200,0.008213520
1640785327744480000,0.210937200,0.674330890,9.489129070,0.042341650,0.041711330,-0.016252700
1640785327748339968,0.079852600,0.718760550,9.418656350,0.029550490,-0.056329380,-0.008249280
1640785327749229824,-0.261488800,0.411954880,9.593601230,-0.030361120,0.017857550,0.024986270
1640785327756609792,-0.216684820,0.120015050,9.363757130,-0.049756470,0.031350560,0.028641520
1640785327757639936,-0.594439330,-0.216421930,10.714832310,-0.010214750,-0.018110870,0.041428210
1640785327758380032,-0.397545750,-0.196233020,10.056960110,0.007402900,0.046458850,0.038048630
1640785327759660032,-0.125901770,-0.145516960,9.710003850,-0.000108780,-0.004148480,-0.004807110
1640785327763409920,-0.105463590,0.004753860,9.990781780,-0.028091670,0.045298040,-0.016312300
1640785327764179968,0.184638770,0.291119010,9.020856860,-0.039374830,0.074842580,-0.021082160
1640785327768940032,-0.128505500,0.078193120,9.971584320,0.017781560,-0.050163280,-0.013673310
1640785327770210048,-0.250245960,0.032384260,9.676159860,0.061446430,-0.010001660,0.007601080
1640785327774839808,-0.109898400,0.130628870,9.290804860,0.067134200,-0.022783880,0.005923210
1640785327776300032,-0.442161890,-0.087448500,10.612699510,0.024579470,0.029748680,0.027881560
1640785327778299904,-0.172641290,0.167854560,9.916171070,-0.008323790,0.085432820,0.013120470
1640785327779199744,-0.114706460,0.279709760,10.232956890,0.001710650,-0.029833610,0.003427270
1640785327783340032,-0.227345150,0.342914940,10.018733020,0.017061830,0.020590430,0.009284910
1640785327784229888,0.004843790,0.535964610,8.941311840,0.034631790,-0.012688340,-0.030857330
1640785327788470016,-0.288333740,0.535869000,9.799142840,0.021333990,-0.050519410,-0.031240280
1640785327791919872,-0.106135150,0.616997120,9.233615880,-0.030164420,0.067169960,-0.005337600
1640785327793339904,-0.124448140,0.329107200,10.228946690,-0.031585990,0.035597380,-0.008761880
1640785327794179840,-0.365491270,0.185709400,11.140528680,0.002437830,0.027184190,0.022704900
1640785327798339840,-0.049517050,0.213119550,9.742812160,0.023245810,-0.030620400,0.025625530
1640785327799209728,-0.092106630,0.012818030,9.704777720,0.005894900,-0.065594910,0.013174120
1640785327803830016,-0.000794720,0.177526400,8.885940550,-0.048299140,0.077661890,0.001555680
1640785327804909824,0.113658250,0.191499740,9.122677800,-0.041873760,0.062565510,-0.011387470
1640785327810439936,-0.121123320,-0.020071820,10.359073640,0.009606780,0.037781890,-0.004614890
1640785327810860032,-0.098610300,0.116574670,9.935268400,0.044819720,0.006033480,-0.018972160
1640785327813339904,-0.301745210,0.059450050,10.302875520,0.043463710,-0.069123510,-0.005969410
1640785327814279936,-0.437194290,-0.003122330,9.837240220,-0.002428890,0.026665630,0.000987950
1640785327818589952,-0.210503070,0.028937150,9.310444830,-0.001728540,0.029540070,-0.015904010
1640785327819269888,-0.308815720,0.071016580,9.977817540,0.021719930,0.056059660,-0.002269450
1640785327824090112,-0.121708820,0.247180600,9.478118900,0.035190580,0.056751080,0.002476570
1640785327824620032,-0.168524800,0.264226560,9.988986970,0.052669650,-0.051778560,0.002653900
1640785327828379904,-0.306654480,0.387223540,9.755535130,0.010699030,-0.030604000,0.004245340
1640785327829210112,-0.124240690,0.423132450,9.496782300,-0.018514690,-0.010102990,-0.007715820
1640785327833669888,-0.242904480,0.277888690,10.520824430,0.015330320,0.066588830,-0.006558000
1640785327834929920,-0.162607250,0.463106070,10.290824890,0.038626790,0.065086780,-0.020807980
1640785327838459904,-0.172989250,0.505663160,10.376143460,0.026762490,-0.065261130,-0.003783410
1640785327841440000,-0.184401740,0.467213330,9.459504130,-0.018382070,-0.023867200,0.004217030
1640785327843319808,-0.039635770,0.524255750,8.753167150,-0.057020790,-0.017738340,-0.008642670
1640785327844209920,-0.214065750,0.321653930,9.682421680,-0.046202540,0.050753360,0.035814940
1640785327848379904,-0.053590120,0.050034690,9.679574010,0.011351710,0.079128170,0.015471880
1640785327849289984,-0.085541970,-0.067485910,10.704803470,0.059430310,-0.035271060,-0.002615150
1640785327853509888,-0.275795070,-0.066432000,10.454455380,0.030700870,-0.005814430,0.008122620
1640785327854400000,-0.153441590,-0.197883740,9.404460910,-0.027047100,-0.063024460,-0.026220090
1640785327858319872,-0.337547060,-0.115507200,9.701215740,-0.034311410,-0.011684000,-0.030200180
1640785327859239936,-0.213223610,0.151940120,8.832272530,-0.002124910,0.097903610,-0.020317730
1640785327863299840,-0.198234620,0.130564900,9.902230260,0.043956940,-0.012683870,-0.016979880
1640785327864209920,-0.302047940,0.246414960,10.181977270,0.065128510,0.007396940,0.003387030
1640785327868969984,-0.070211460,0.256938250,9.497489930,0.037717820,-0.047965350,-0.005589430
1640785327869779712,-0.247797620,0.069963430,10.497991560,0.016063450,-0.030624870,0.020998710
1640785327875219712,-0.096276890,0.043041730,9.654630660,0.027284020,0.102843330,-0.007024410
1640785327875879936,-0.123732920,0.163247270,10.107103350,0.056891140,-0.026056170,-0.035151840
1640785327878369792,-0.422991010,0.379678400,10.226136210,0.040273370,-0.019799170,-0.012834370
1640785327879269888,-0.252628420,0.525224920,8.788889880,-0.009803470,-0.054168710,-0.025831170
1640785327883620096,-0.527063310,0.609401110,9.953884120,-0.028182570,-0.092142840,-0.012642150
1640785327884579840,-0.330746410,0.622556090,9.452138900,-0.018018490,0.057470810,0.014564400
1640785327890159872,-0.018947650,0.384100440,10.034740450,0.024802980,0.007916990,-0.003516670
1640785327890679808,-0.186266720,0.369802470,11.207267760,0.034460430,0.028191510,0.007426740
1640785327893319936,0.108108580,0.376446990,9.628252980,-0.015376510,-0.016112630,-0.009237230
1640785327894189824,-0.027863710,0.113387660,9.951753620,-0.036807360,-0.136198120,-0.005358460
1640785327898299904,-0.209177320,0.078260950,8.959044460,-0.045166910,0.003632900,-0.014461580
1640785327899289856,0.076258260,0.049304840,8.342554090,-0.013536220,0.002218780,-0.010748210
1640785327903450112,-0.377141740,-0.183516850,10.536834720,0.029940910,0.049906970,0.004167860
1640785327904669952,-0.132432950,-0.121450180,9.937519070,0.034445520,0.049436090,-0.009626150
1640785327908339968,-0.175149660,-0.053901750,10.618761060,0.026562810,-0.124591570,0.006461140
1640785327909220096,-0.403359170,-0.002371090,10.156620030,-0.010813780,-0.024309760,0.001555680
1640785327913359872,0.034732670,-0.000680310,8.729017260,-0.001227860,-0.000318880,-0.024628640
1640785327914219776,-0.398123680,0.220857800,10.305089950,0.061087320,0.007571280,-0.025455660
1640785327918469888,-0.328972880,0.357409090,9.486222270,0.061662500,0.034978990,-0.022147600
1640785327919430144,-0.177600680,0.385155350,9.608546260,0.046662990,-0.136524450,-0.022697450
1640785327923290112,-0.471840050,0.598740460,10.187930110,-0.009983780,-0.032490500,-0.001797080
1640785327924179968,0.108111280,0.477553250,9.113780020,-0.047697120,0.019955630,0.011689960
1640785327928329984,0.028906870,0.239497660,10.767954830,0.022190810,0.017659370,0.015202160
1640785327929240064,0.118129160,0.289600970,10.271093370,0.067816680,0.075259800,-0.016497080
1640785327933929984,0.262397410,0.305330960,9.772480960,0.046852230,-0.087906410,-0.018237530
1640785327935429888,-0.313390200,0.318525520,10.003735540,-0.018425290,-0.073844200,-0.007379060
1640785327938479872,-0.185038390,0.280677650,8.408462520,-0.082772980,-0.042392310,-0.015221540
1640785327940029952,-0.354524430,0.225256830,9.420460700,-0.036709010,-0.030331320,0.019294030
1640785327943290112,-0.355678770,0.006129520,9.956883430,0.032050910,0.113987950,0.016899410
1640785327944209920,0.043618090,-0.113616910,10.397228240,0.083056100,0.029401480,-0.002461670
1640785327948379904,-0.211245610,0.011059270,11.110131260,0.067719820,-0.034287580,0.021035970
1640785327949369856,0.139091820,-0.113491200,9.269566540,-0.019842390,-0.048910090,0.008942190
1640785327953339904,0.112032960,-0.171390710,9.149542810,-0.015704330,-0.048981610,-0.014480950
1640785327954269952,-0.190969350,0.124942970,9.066505430,0.035581000,0.089879340,-0.029599670
1640785327958299904,-0.123577580,0.216511310,9.483612060,0.071391460,0.007645790,-0.027203560
1640785327959269888,-0.483286020,0.426891860,10.575296400,0.066228210,-0.034691400,-0.015760960
1640785327963279872,-0.328037620,0.575795050,9.743595120,-0.005659460,-0.041428210,-0.003649290
1640785327964289792,-0.265521620,0.351974160,10.306338310,-0.019225480,-0.025708980,0.032022600
1640785327968920064,-0.373939160,0.115883910,10.297675130,0.054563590,0.078794360,0.015492740
1640785327970759936,-0.012757720,0.111939920,9.792590140,0.109924400,-0.017386670,-0.017306210
1640785327973929984,-0.209986930,0.312610030,9.975340840,0.077044970,-0.040674210,-0.001098220
1640785327974459904,-0.093043190,0.445353810,8.825699810,-0.039808460,-0.033532090,-0.017033520
1640785327978319872,-0.040963920,0.527218100,9.466115950,-0.084446380,-0.055667770,-0.011852380
1640785327979259904,-0.272290500,0.565254390,9.807499890,-0.034864250,0.058734420,0.011970100
1640785327983919872,0.054048430,0.281809210,9.919747350,0.057893990,0.009103120,0.005915760
1640785327985189888,-0.143672320,0.142083020,11.025078770,0.096927580,0.001202520,0.005868080
1640785327988940032,-0.126999320,0.015274420,9.774652480,0.038084390,-0.012195110,0.009082260
1640785327989260032,-0.064181220,-0.331263870,9.629732130,-0.023525950,-0.084932140,0.006207820
1640785327993280000,-0.325010210,-0.287787650,9.233284000,-0.015409290,0.038602950,-0.015249850
1640785327994220032,-0.098666030,-0.061015990,8.727993010,0.028060380,0.010202830,-0.036469110
1640785327998400000,-0.311371270,0.213806820,10.186116220,0.055366760,0.025178490,-0.020825860
1640785327999239936,-0.258319440,0.429430010,9.886551860,0.031210480,0.039897860,-0.018705430
1640785328003849984,-0.197774040,0.470017700,10.487766270,0.025109950,-0.097838050,-0.006864960
1640785328004599808,-0.340859380,0.336008760,10.260525700,0.037710370,-0.005507470,0.018370150
1640785328008359936,0.044851160,0.097735670,9.072456360,0.062604250,0.008413200,-0.005152820
1640785328009250048,-0.187725280,0.197607280,10.253925320,0.087118140,0.019614400,-0.008678440
1640785328013440000,-0.192948880,0.421593670,9.488677980,0.019517540,0.043492030,-0.024650990
1640785328014789888,-0.073130820,0.541795070,9.545808790,-0.042825940,-0.101810710,-0.012941660
1640785328018429952,-0.409427760,0.856913810,10.075445180,-0.064399840,-0.017680230,-0.009158250
1640785328019300096,-0.087241220,0.738884150,9.106935500,-0.051096080,0.013799960,0.009875000
1640785328023299840,-0.153044400,0.548908000,10.498923300,0.025832650,0.000858310,0.026915970
1640785328024240128,-0.168379560,0.220297440,10.312498090,0.052116820,0.085975240,0.005123020
1640785328028349952,0.082448970,-0.069300120,9.776362420,0.022551420,-0.063584750,0.003030900
1640785328029409792,-0.301182750,-0.082408200,10.043003080,-0.029847030,-0.058375300,-0.000602010
1640785328033779968,-0.022422300,-0.284626600,8.473112110,-0.073780130,0.008861720,-0.022311510
1640785328035939840,-0.176802160,-0.071036990,9.374230380,-0.023280080,-0.021344420,-0.020134450
1640785328038429952,-0.388083700,0.163415800,9.964450840,0.016918780,0.082767030,-0.025187440
1640785328039970048,0.035370420,0.164026650,9.736754420,0.023239850,-0.008834900,-0.013229250
1640785328043309824,-0.366341800,0.390305370,10.894219400,0.029096010,-0.042383370,-0.003772970
1640785328044219904,-0.163584770,0.180985200,9.628786090,-0.013370810,-0.002628570,0.018601120
1640785328048430080,-0.060624890,-0.112888940,9.513160710,0.025786460,-0.052814190,0.018998980
1640785328049249792,-0.441197220,-0.053083430,9.745044710,0.078082070,0.045745080,-0.016625220
1640785328053370112,-0.137394260,0.043036060,9.091170310,0.053943690,-0.004068020,-0.024974350
1640785328054439936,-0.469855130,0.319402660,10.230407710,0.019910930,-0.062260040,-0.028178100
1640785328058310144,-0.280297880,0.633035060,9.573375700,-0.049360100,-0.014175480,-0.026723740
1640785328059229952,0.010617820,0.782103480,9.787509920,-0.060118750,-0.015585130,0.010342900
1640785328063289856,-0.113981510,0.637061360,10.450171470,0.008286540,0.061284010,0.017568470
1640785328064199936,0.277609770,0.338133600,9.877144810,0.060912960,0.021369760,-0.009059910
1640785328068429824,0.015483840,0.249787510,10.076063160,0.075095900,-0.051358350,-0.002816320
1640785328069280000,-0.143050400,0.016551320,9.152509690,-0.001595910,-0.039108100,-0.000375510
1640785328073319936,-0.108910520,-0.212723730,8.956398960,-0.063689060,-0.045813630,0.002866980
1640785328074259968,-0.542315720,-0.078192260,9.699335100,-0.025539110,0.025632980,0.006221230
1640785328078339840,-0.213204000,0.033631090,9.631344800,0.002574920,0.039491060,-0.011679530
1640785328079190016,-0.187265310,0.220623700,10.484186170,0.040571400,0.021758680,-0.024104120
1640785328083699968,-0.218019800,0.567778650,10.183959010,0.015431640,0.006376210,-0.026966630
1640785328084879872,0.113368690,0.489679460,9.650889400,-0.030690430,-0.056155030,0.003898140
1640785328089339904,-0.179499970,0.120503920,9.554736140,0.002029540,0.003279750,0.000913440
1640785328089659904,-0.119087700,0.033912740,9.148262020,0.061117110,-0.009551650,-0.017936530
1640785328093369856,-0.335113670,0.128300770,9.855344770,0.082056230,-0.012724100,-0.006358330
1640785328094220032,-0.515739920,0.330839750,9.761799810,-0.004872680,-0.011546910,-0.029343370
1640785328098320128,-0.235718890,0.630240440,9.917857170,-0.104370710,-0.047923620,-0.020474200
1640785328099289856,-0.274063080,0.718235310,10.260029790,-0.099636640,0.022977590,0.005728010
1640785328103459840,-0.046337070,0.490683050,9.936102870,0.001226370,0.014738740,-0.007998940
1640785328107820032,0.074197670,0.394939540,10.115278240,0.078810760,-0.034862760,-0.015784800
1640785328108389888,-0.082732160,0.185878440,9.302009580,0.044219190,-0.019097330,-0.008539850
1640785328109279744,0.049918140,-0.111761880,9.184844970,-0.038006910,-0.045719740,0.005482140
1640785328113279744,-0.255688370,-0.235356670,9.754918100,-0.069476660,0.004297500,0.018365680
1640785328114209792,-0.215917450,-0.207058950,9.595802310,-0.036895280,-0.008147950,0.008451940
1640785328118399744,-0.104279410,0.129168240,10.119482990,0.017321120,-0.010231140,0.007259850
1640785328119279872,-0.136528630,0.323469190,9.998770710,0.008434060,0.060267750,-0.021778050
1640785328123279872,0.002831200,0.505595030,9.852274890,-0.021359320,-0.011728700,-0.025781990
1640785328124199936,-0.268622400,0.420556220,9.961966510,-0.015005470,-0.043486070,-0.006005170
1640785328128339968,-0.179643850,-0.070139300,8.816189770,0.019714240,-0.035057960,-0.004257260
1640785328129249792,-0.348756460,-0.210533130,9.420587540,0.091579540,-0.028525290,0.003762540
1640785328133430016,-0.542868440,-0.271850350,9.795076370,0.064529480,0.032430890,-0.008931760
1640785328135059712,-0.181998800,-0.181853120,9.856629370,-0.007978080,-0.020502510,0.001224880
1640785328138379776,-0.186158370,0.223412390,10.651624680,-0.026132170,0.006970760,-0.011162460
1640785328140460032,0.134658890,0.353216560,9.824797630,-0.036080180,0.038452440,-0.010323520
1640785328143450112,0.194608580,0.564862910,9.978549960,0.048935420,-0.019428130,0.006724890
1640785328144519936,-0.107931760,0.518527980,9.815004350,0.102378440,-0.014184420,-0.020004810
1640785328148300032,-0.012176930,0.459229110,8.865806580,0.056451560,-0.045558810,-0.012294950
1640785328149279744,-0.454432040,0.416442390,9.795297620,0.002115970,-0.018805270,0.003907080
1640785328155799808,-0.437084110,0.185762790,9.723379140,-0.045318900,0.034810610,-0.007382040
1640785328156209920,-0.200544480,0.371046190,9.983847620,-0.016744440,-0.012594460,0.015883150
1640785328158520064,-0.313121410,0.505189300,10.516202930,0.008827450,0.038291520,0.013411050
1640785328159299840,0.180964100,0.411067550,9.561100960,-0.027468800,0.022096930,0.002029540
1640785328163290112,0.106311730,0.422007110,9.797191620,-0.005041060,-0.020731980,0.005406140
1640785328164209920,0.042961460,0.070643540,9.393264770,0.005349520,0.024963920,0.003069640
1640785328168449792,0.053026440,-0.299835560,9.203837390,0.028291340,-0.032104540,0.012512500
1640785328169319936,-0.368207540,-0.391915620,9.907059670,0.059744720,-0.006301700,-0.005084280
1640785328173349888,-0.184926060,-0.388209790,9.508667950,0.014750660,0.034040210,-0.008080900
1640785328175399936,-0.256985490,-0.060670660,10.219996450,-0.001072880,0.019611420,-0.002300740
1640785328178319872,-0.309848640,0.328946950,10.240852360,-0.012470780,0.028061870,-0.017689170
1640785328179289856,0.087717670,0.695280080,9.456256870,-0.022746620,-0.000609460,0.003996490
1640785328183429888,-0.236562480,0.661854330,9.905251500,0.033536560,0.011391940,0.024256110
1640785328184219904,-0.154990580,0.368714120,9.506479260,0.067706410,0.015072530,-0.000059600
1640785328188459776,-0.245060490,0.329521240,9.626735690,0.077715500,-0.037580730,0.006757680
1640785328189570048,-0.426418720,0.162148510,9.774893760,0.032190980,-0.007177890,0.005720560
1640785328193329920,-0.100402140,0.117604990,9.646492000,-0.043749810,0.035716590,-0.003457070
1640785328194239744,-0.234762490,0.373284640,10.391350750,-0.042398280,0.044396520,0.005678830
1640785328198449920,0.029098060,0.532518740,10.064290050,-0.019916890,0.029137730,0.008241830
1640785328203140096,0.219619450,0.656911550,9.716481210,-0.003610550,-0.010202820,-0.001989300
1640785328204339968,0.010306950,0.685036480,9.494203570,-0.014068190,-0.008285050,-0.013126430
1640785328205260032,0.102427500,0.423620160,9.144327160,-0.035251670,0.029468540,0.002843140
1640785328208389888,-0.256982920,0.016251940,9.810050960,-0.007426740,0.032223760,0.001685320
1640785328209270016,-0.365583930,-0.230525570,9.981410030,0.025862460,-0.001622740,0.006191430
1640785328213329920,-0.211895630,-0.212750990,9.852478980,0.014151630,0.005169210,0.009274480
1640785328214439936,-0.362391530,-0.189524680,9.984266280,-0.030651690,0.029851500,0.002604720
1640785328218459904,-0.026983150,0.035954650,9.633399960,-0.053124140,0.037568810,-0.014504790
1640785328219549952,0.039416780,0.335494130,9.558651920,-0.028625130,0.046920780,-0.020216410
1640785328223330048,-0.022383250,0.352941450,9.526855470,0.003455580,0.040884320,-0.006206330
1640785328224229888,0.003449610,0.339948480,9.652238850,0.056782360,0.005833800,-0.004449490
1640785328228329984,-0.403582360,0.151591760,9.901733400,0.054827330,-0.028364360,-0.010782480
1640785328229260032,-0.314028290,0.059548640,9.615102770,0.016114120,-0.015991930,0.012278560
1640785328233449984,-0.283205990,0.048081950,9.942762370,-0.000634790,0.062102080,-0.004552300
1640785328234249728,-0.332238350,0.201458250,10.338215830,-0.015752020,0.076328220,-0.004383920
1640785328238540032,-0.117623750,0.642694890,10.133561130,-0.017444790,0.004117190,0.009304290
1640785328239820032,-0.146424110,0.612803760,9.716447830,-0.015331810,-0.022719800,-0.001864140
1640785328243289856,-0.066148800,0.644878920,9.127482410,-0.013849140,-0.024698670,-0.009174640
1640785328244279808,-0.078423810,0.684829350,9.318754200,-0.004757940,0.026707350,-0.003290180
1640785328248430080,-0.156392080,0.185728400,9.867326740,-0.016058980,0.069552670,0.007894630
1640785328249260032,-0.103543470,0.094473180,10.311913490,-0.005215410,0.026401880,0.012144450
1640785328253469952,-0.276726900,0.062536150,10.524576190,-0.011092420,-0.013710560,0.015412270
1640785328254999808,-0.170366630,-0.086873750,9.609922410,-0.049911430,-0.016826390,0.016516450
1640785328258279936,-0.164853440,0.194833710,9.328901290,-0.044141710,-0.005087260,-0.008833410
1640785328259239936,-0.142823460,0.293968590,9.189571380,-0.062547620,0.076632210,-0.019632280
1640785328263799808,-0.074106000,0.245513440,9.433297160,-0.035654010,0.068299470,0.012704730
1640785328265440000,-0.282603230,0.108491640,10.244313240,0.032953920,-0.001005830,-0.006052850
1640785328270249728,-0.192181420,-0.105639990,9.849905970,0.029714410,-0.022073090,-0.002631550
1640785328271999744,-0.241367190,-0.131918640,9.801208500,0.018875300,-0.028441850,0.011157990
1640785328273319936,-0.298323990,-0.346005770,9.908248900,-0.002603230,0.050769760,-0.010527670
1640785328274220032,-0.073075500,-0.103902900,9.514600750,-0.001616780,0.060099370,-0.018459560
1640785328278249984,-0.312218670,0.234250490,10.031344410,0.037591160,0.000537930,-0.003440680
1640785328279300096,-0.199521330,0.320438860,9.442384720,0.010332470,-0.020504000,-0.002467630
1640785328283409920,-0.314278190,0.574556290,9.326428410,0.010210280,-0.070790950,0.012248750
1640785328288100096,-0.421851130,0.496987640,9.731170650,0.009484590,0.007931890,0.016763810
1640785328288669952,-0.080122940,0.295040490,9.801753040,0.018125770,0.079208610,0.001952050
1640785328289289984,-0.257089910,0.291968260,10.919931410,0.064794720,0.024385760,-0.015109780
1640785328293259776,-0.166286690,0.338238630,10.430030820,0.020867580,-0.012180210,-0.018070640
1640785328294279936,-0.084896170,0.408636540,9.419898990,-0.030848380,-0.095464290,-0.008109210
1640785328298459904,-0.318286750,0.475972560,9.146211620,-0.047892330,-0.054441400,-0.002513830
1640785328299259904,-0.053848510,0.568024640,8.570584300,-0.057750940,0.056082010,0.013925140
1640785328303449856,-0.070816400,0.345055490,9.718153950,-0.000816580,0.047367810,0.034938750
1640785328304889856,0.000844470,0.063079090,10.629468920,0.041927400,0.048843030,0.016649070
1640785328308379904,0.198417770,0.034199020,10.380256650,0.025783480,-0.006403030,0.007367130
1640785328309249792,-0.232971000,-0.246325810,10.589109420,0.000368060,-0.067940350,0.007700920
1640785328313629952,-0.145975380,-0.228174240,9.220184330,-0.030949710,-0.019112230,-0.026014450
1640785328315409920,-0.257223810,-0.026674750,8.753846170,-0.010889770,-0.005872550,-0.039814410
1640785328318569984,-0.462818980,0.130743880,9.331293110,0.024613740,0.053790220,-0.011113280
1640785328320819968,-0.226262030,0.316387890,9.456401820,0.037837030,0.041721760,0.000101330
1640785328323279872,-0.399598120,0.335901770,10.460313800,0.033110370,-0.054770700,0.016081330
1640785328324260096,-0.167491060,0.297227440,10.116030690,0.013537700,-0.014853480,0.029197340
1640785328328300032,0.090043410,0.032167570,9.846375470,0.025211270,0.026230510,0.007829070
1640785328329280000,-0.175946580,-0.132122710,10.437118530,0.076788660,0.044645370,-0.009053950
1640785328334829824,-0.042661920,0.098492970,9.515044210,0.084097700,0.001482670,-0.013834240
1640785328335719936,-0.316445710,0.068590700,9.433833120,0.050041080,-0.105625390,-0.025446710
1640785328338429952,-0.386453840,0.372126700,9.034545900,-0.001366440,-0.036449730,-0.001987820
1640785328339289856,-0.212536080,0.601419510,9.182349210,-0.020916760,0.019352140,0.011466440
1640785328343289856,-0.279726450,0.436573950,10.600946430,0.012543800,0.059856470,0.010019540
1640785328344280064,0.027080370,0.701852860,10.667383190,0.067582730,0.062397120,0.001743440
1640785328348480000,0.005851010,0.654040580,10.696664810,0.052556400,-0.046324730,0.002914670
1640785328349560064,-0.139450860,0.463851960,9.838787080,-0.011193750,-0.074139220,0.010684130
1640785328353430016,-0.093311140,0.524493930,8.555275920,-0.039333110,-0.060230500,-0.009705130
1640785328354220032,-0.293535560,0.269177350,8.870651250,-0.052273270,-0.010466580,-0.000350180
1640785328358309888,-0.144343320,0.176825080,9.231082920,-0.018940860,0.090099860,0.027672950
1640785328359299840,-0.035333540,0.008944440,10.473198890,0.028130420,0.053496670,0.003956260
1640785328363339776,-0.100368980,-0.105631900,11.006075860,0.013817850,-0.013010200,0.026616450
1640785328365100032,0.055362670,-0.081544620,10.091718670,-0.007463990,-0.059014560,0.014068190
1640785328368559872,-0.151045530,-0.290121820,9.712509160,-0.013223290,-0.035057960,-0.007812680
1640785328372509952,-0.178182750,-0.084087330,8.894268990,0.012291970,0.023791190,-0.018356740
1640785328373849856,-0.265248510,0.107858690,9.096052170,0.043195490,0.024390220,-0.027996300
1640785328374539776,-0.474574270,0.155093910,9.720657350,0.023534890,0.014354290,-0.012648110
1640785328378279936,-0.397205830,0.485617010,9.899882320,0.004257260,-0.044193860,0.002057850
1640785328379249920,-0.399194840,0.339985940,10.351481440,-0.006139280,-0.032202900,0.016900900
1640785328383589888,-0.151966170,0.130346240,10.031767850,0.015227500,0.029444690,0.021991130
1640785328384719872,-0.093139850,0.090910200,10.205799100,0.093097990,0.030362610,-0.008079410
1640785328388339968,-0.146517440,0.083840730,10.067896840,0.083802630,0.007371600,-0.012053550
1640785328389269760,-0.222399320,0.302822680,9.322476390,0.021314630,-0.091750930,-0.001373890
1640785328393339904,-0.394447420,0.403645040,9.239791870,-0.024661420,-0.108054280,-0.012131040
1640785328394269952,-0.308460560,0.594982030,9.058605190,-0.064912440,-0.004166360,0.000321870
1640785328398840064,-0.263607410,0.663180830,10.110454560,-0.006729360,0.035499030,0.016379350
1640785328400399872,-0.128427000,0.476347800,11.105460170,0.053517520,0.060278180,0.011540950
1640785328404029952,0.022499450,0.528821170,10.567905430,0.042311850,-0.029106440,0.007970630
1640785328404559872,-0.077288100,0.358449070,10.147954940,0.005640090,-0.134082150,0.023326280
1640785328408289792,-0.075112320,0.140659210,8.717325210,-0.068102780,-0.048390020,0.022187830
1640785328409260032,-0.056642880,0.171282490,8.439709660,-0.065536800,-0.027011330,0.017811360
1640785328414129920,-0.139557900,0.065186060,9.615799900,-0.020454830,0.069630150,0.032721460
1640785328415200000,0.030644840,-0.008318050,9.994375230,0.003278260,0.068601970,0.021174550
1640785328418380032,-0.192609920,0.000989380,11.204905510,0.026471910,-0.075837980,0.019459430
1640785328419879936,-0.235441740,-0.009391500,10.330299380,-0.010368230,-0.046971440,0.023151930
1640785328423280128,-0.163592650,-0.145524080,9.097744940,-0.010657310,-0.070860990,0.011275710
1640785328424239872,-0.377414850,-0.250419910,9.394086840,0.036333510,0.003078580,-0.004084410
1640785328428459776,-0.151779960,0.074013150,8.596044540,0.046581040,0.086857390,-0.009471180
1640785328429869824,-0.353526830,0.182552250,10.009089470,0.044280280,-0.059287250,0.001955030
1640785328433799936,-0.382235320,0.490487640,10.117481230,-0.009265540,-0.036206840,0.009274480
1640785328434759936,-0.091108510,0.621323590,9.573995590,-0.046785180,-0.067962710,0.017704070
1640785328439219968,-0.289497440,0.248291580,10.802778240,0.012400750,-0.006601220,0.043028600
1640785328439569920,0.036493760,0.152737710,9.825986860,0.094220040,0.076206040,0.011114780
1640785328443300096,-0.086306000,0.045647850,10.115009310,0.125475240,-0.070759650,0.002886350
1640785328444329984,-0.354668320,0.117489400,9.591754910,0.039082770,-0.055962810,0.028306250
1640785328448719872,-0.185813520,0.237845930,8.320459370,-0.061671440,-0.093264880,0.001879040
1640785328449619968,-0.518582110,0.415520430,9.678457260,-0.068315850,-0.081513830,0.014126300
1640785328453319936,-0.207976670,0.710986140,9.616518970,-0.023254750,0.079280150,0.017017130
1640785328454239744,-0.004397810,0.641644060,10.735736850,0.042200090,0.005419550,-0.005306300
1640785328458299904,-0.261116360,0.667987940,11.479070660,0.046631700,-0.022904570,0.002361830
1640785328459290112,0.054098450,0.589765310,9.447702410,-0.010018050,-0.086827580,0.004625320
1640785328463359744,-0.230001900,0.126273020,9.476930620,-0.041235990,-0.144514490,0.030975050
1640785328464569856,-0.203501390,0.055712320,8.391158100,-0.040009620,0.001963970,0.044417380
1640785328468420096,0.192613970,0.005121130,8.604243280,-0.019976500,0.030143560,0.021298240
1640785328470599936,-0.014803410,-0.032401330,10.651579860,-0.008338690,0.080154840,0.036911670
1640785328473329920,0.277452740,0.186951470,10.406896590,-0.016352530,0.026896600,0.003167990
1640785328474239744,0.050520520,0.194165500,10.804047580,-0.027312340,-0.130477560,-0.016276540
1640785328478409984,-0.241472650,0.232621950,9.574874880,-0.043943540,-0.051963340,0.009505450
1640785328479310080,-0.202972020,-0.056317310,8.581942560,0.012616810,-0.019362570,-0.010468070
1640785328483409920,-0.731654880,-0.170411650,9.620351790,0.075066100,0.019977990,-0.004005430
1640785328484289792,-0.597028080,0.078754100,9.153111460,0.055617100,0.007775430,0.004902480
1640785328488289792,-0.353065070,0.100957480,9.946071620,-0.016170740,-0.069205490,-0.004617870
1640785328489309952,-0.185828540,0.459032180,10.143120770,-0.084702670,0.014515220,0.015026330
1640785328493659904,0.244758190,0.542384330,10.059275630,-0.045448540,0.030244890,0.031696260
1640785328494289920,0.101585600,0.305310400,10.843164440,0.050404680,-0.009512900,0.015412270
1640785328498669824,0.140746830,0.394691470,9.491373060,0.090132680,-0.047940020,0.009426480
1640785328499369984,0.000344060,0.161383700,9.244404790,0.060270730,-0.096812840,0.005078320
1640785328503660032,-0.480633970,0.044941800,9.303255080,-0.025741760,-0.014035410,0.012049080
1640785328504599808,-0.431453260,0.155927110,9.212702750,-0.056815160,-0.056716810,0.015261770
1640785328508399872,-0.481093290,0.317085710,10.378266330,-0.037360190,-0.000709300,0.013795500
1640785328509590016,-0.127471580,0.625402690,10.016350750,-0.028364360,0.068721160,0.005808470
1640785328513309952,-0.000964340,0.798555490,10.750187870,-0.018765030,-0.022216140,-0.017790490
1640785328514269952,-0.130539610,0.765333950,10.133995060,-0.033219150,-0.028334560,-0.001084800
1640785328518449920,0.031314200,0.396979330,8.790159230,-0.028140850,-0.115707540,0.012330710
1640785328519779840,-0.130041020,-0.024816240,9.123055460,0.013503430,-0.047586860,0.033850970
1640785328523320064,0.016201600,-0.245211450,8.760495190,-0.002810360,0.072702770,0.045529010
1640785328524269824,0.074318800,-0.424908340,10.338992120,-0.006845590,0.010629000,0.035259130
1640785328528349952,0.067412680,-0.152136980,10.659276960,-0.038290030,0.049804150,0.005698200
1640785328529339904,0.330550730,0.218279870,9.724556920,-0.083212580,-0.042168800,-0.019423660
1640785328533389824,-0.073002090,0.356725010,10.142344470,-0.048717850,-0.025014580,-0.007547440
1640785328536779776,-0.171947520,0.333546070,8.821464540,0.019027300,0.029943890,-0.022988020
1640785328538369792,-0.489922940,0.199431510,9.499076840,0.084890410,-0.087004890,-0.025048850
1640785328539310080,-0.742499170,0.204466100,9.575386050,0.058534750,0.025182960,0.005242230
1640785328543369984,-0.302678440,0.057373420,9.280201910,-0.029559440,0.010523200,-0.002221760
1640785328544229888,-0.456769760,0.105660610,11.031874660,-0.063861910,0.023300950,0.012564660
1640785328548780032,-0.038260610,0.306463330,9.953716280,-0.050124540,0.065477190,0.017817320
1640785328549819904,0.109812180,0.151799470,10.132635120,0.035153330,-0.082233550,0.014764070
1640785328553309952,-0.119076580,0.400647700,9.768719670,0.074490900,-0.014702980,0.006112460
1640785328554329856,0.256558780,0.476571650,8.239810940,-0.000724200,-0.031100220,0.009693210
1640785328558319872,-0.117304300,0.178118560,10.054122920,-0.054848190,0.006847080,0.033086540
1640785328559330048,-0.106626170,0.265332610,9.946902280,-0.048670180,0.112561880,-0.011596080
1640785328563299840,-0.064602040,0.360302270,10.509222030,-0.000874700,-0.063312060,-0.016517940
1640785328564289792,-0.461907770,0.446121900,10.774792670,0.007079540,-0.033818190,-0.011165440
1640785328568499968,-0.074586020,0.551075700,8.717116360,-0.048881780,-0.009803470,-0.035876040
1640785328569389824,-0.302074310,0.499064950,9.490816120,-0.069504970,-0.025345380,0.006909670
1640785328573560064,-0.335070040,0.238347260,9.197166440,-0.048381090,0.100450230,0.040535630
1640785328574479872,0.142922550,-0.143766550,9.213678360,0.021435320,-0.026212640,0.014424330
1640785328578289920,-0.136233690,-0.128865210,10.626703260,0.034536420,0.016647580,0.018799300
1640785328579389696,0.251383010,-0.225722180,9.652491570,-0.032705070,0.060144070,0.004643200
1640785328583399936,0.164685850,-0.337090490,10.463017460,-0.048762560,-0.016508990,-0.023034210
1640785328584260096,-0.242490250,-0.084272820,10.084561350,-0.019259750,0.056082020,-0.031252210
1640785328588349696,-0.070937920,-0.054418070,8.972056390,0.045965620,-0.037725270,-0.027135020
1640785328589479936,-0.683068510,0.094197640,9.823263170,0.092899800,-0.047525770,-0.017511850
1640785328593269760,-0.539257470,0.549745920,8.766377450,0.020354980,-0.003644820,-0.003483890
1640785328594249984,-0.271054210,0.598766740,9.726726530,-0.042396790,-0.003238020,0.029596690
1640785328598649856,-0.296821060,0.593242290,10.694952010,-0.055134300,0.140461340,0.007079540
1640785328599399936,0.166927080,0.720423340,10.478594780,-0.002628570,0.039750340,-0.021775070
1640785328604489984,-0.112309580,0.738723220,10.870403290,0.046586990,-0.072155890,-0.004544850
1640785328604940032,-0.173835950,0.607631980,9.034345630,-0.009529290,-0.072360030,-0.015786290
1640785328608339968,-0.102258090,0.458028410,8.458913800,-0.075456500,-0.092537710,0.003224610
1640785328609299968,-0.388536510,0.025908290,9.019578930,-0.093632950,0.085121420,0.036376720
1640785328613299968,0.089624340,-0.399505670,9.595431330,-0.021742280,0.107231740,0.011727210
1640785328614310144,0.021109520,-0.301313250,11.228262900,0.067514180,0.039361420,-0.007575750
1640785328618389760,0.017340290,-0.076466900,10.589944840,0.001764300,-0.005529820,-0.020426510
1640785328620199936,0.051320150,0.007009920,9.877146720,-0.085963300,-0.091755390,-0.009314720
1640785328623329792,-0.476711060,0.047520670,9.271146770,-0.066773600,-0.019939240,-0.018495320
1640785328624280064,-0.520822170,0.032184580,8.668573380,0.017650430,-0.007134680,-0.029741230
