timestamp,accel_x,accel_y,accel_z,gyro_x,gyro_y,gyro_z
1640836141723160064,0.356072070,0.684243620,9.979188920,-0.034727160,0.059740250,0.017502900
1640836141729689856,0.991174220,0.863891180,8.715720180,0.062629580,0.002478060,0.028982760
1640836141731040000,0.317149880,0.677807990,10.344738960,0.113505130,0.042535360,0.008745490
1640836141732549888,0.434937890,0.848082180,9.249624250,0.033733250,0.095623740,0.012545290
1640836141733149952,-0.069080960,0.500888820,10.099005700,-0.053775320,-0.025084620,-0.000543890
1640836141736499968,-0.674544630,-0.096378240,10.275517460,-0.056087970,0.053150950,-0.006556510
1640836141738370048,-0.548099040,-0.178295170,9.077596660,0.053249300,0.004884600,-0.037874280
1640836141743789824,-1.251897450,-0.264203280,10.002640720,0.104373690,-0.015130640,-0.035880510
1640836141749139968,-0.831690970,-0.076334660,9.007806780,0.011593100,0.063188370,-0.004680460
1640836141751539968,-0.544340790,0.084470960,9.775993350,-0.031915310,0.002843140,0.011992460
1640836141752039936,-0.380591150,0.114425580,10.418623920,-0.019887090,0.056663170,0.020931660
1640836141752589824,0.515603840,0.406815470,9.620508190,0.041571260,0.016042590,0.015901030
1640836141753120000,0.484019250,0.580234650,10.469402310,0.088256600,0.037489830,0.006516280
1640836141762959872,0.700559200,0.749772910,9.595680240,0.015869740,0.061303380,0.009730460
1640836141763650048,0.530949120,0.862763640,9.831061360,-0.036758190,-0.026601550,0.007739660
1640836141764099840,0.003437070,0.730216980,9.569139480,-0.063015520,0.033980610,0.003352760
1640836141764420096,-0.016298850,0.492279410,9.223885540,-0.034914910,0.006799400,-0.020270050
1640836141766929920,-0.620742560,0.430736690,10.067443850,0.036472090,0.071875760,-0.032274430
1640836141768979968,-0.704167960,0.121846960,9.507384300,-0.009721520,0.051267450,-0.026120250
1640836141771869952,-0.834341700,-0.182878050,10.236915590,-0.020340090,-0.016848740,-0.004313890
1640836141775030016,-0.880309580,-0.400741340,9.530365940,-0.007176400,0.026145580,0.017467140
1640836141776140032,-0.498074020,-0.557409230,9.423789020,0.004570190,-0.055055330,0.015228990
1640836141779350016,-0.457516310,-0.289665940,10.038282390,0.046624250,0.054794550,0.014714900
1640836141781519872,0.150674540,-0.098113460,9.333145140,0.026971100,0.046779210,-0.026975570
1640836141783879936,0.371523290,0.342518270,10.635264400,0.014656780,0.001652540,-0.023417180
1640836141786269952,0.608458520,0.857767820,9.766578670,0.001563130,0.084358460,-0.008447470
1640836141788559872,0.731049000,0.749488290,9.718259810,-0.014531610,-0.042973460,-0.001607840
1640836141792819968,0.356776860,0.941186610,10.025871280,0.037387020,0.052191320,0.022052230
1640836141794449920,0.219814940,0.666544140,8.800644870,0.014403460,0.068286070,-0.003968180
1640836141796619776,-0.543029730,0.337968620,10.396273610,-0.008425110,-0.022460520,-0.015532970
1640836141799369728,-0.944660780,0.305546430,9.584252360,-0.012570620,0.057478250,-0.013351440
1640836141801280000,-1.070534470,-0.181685840,9.471863750,-0.033746660,-0.076939170,-0.019487740
1640836141803129856,-1.278528810,-0.095381650,10.304524420,-0.005926190,0.032870470,0.011616950
1640836141806799872,-0.657493170,-0.198224900,8.962078090,0.017228720,0.073413560,0.013118980
1640836141808159744,-0.323081760,-0.401797210,10.524440770,0.040461130,-0.031855700,0.022171440
1640836141811889920,0.287366480,0.108804970,9.707117080,0.057186190,0.096811350,0.027950110
1640836141816300032,0.993797900,0.170433120,9.211892130,-0.008624790,-0.025406480,0.006578860
1640836141816789760,0.855207800,0.308211740,10.543931960,-0.011512640,0.063110870,0.024323160
1640836141818589952,0.944167020,0.591905240,9.139472010,0.022940340,0.102360550,-0.010788440
1640836141821569792,0.133618880,0.565518140,10.361986160,0.038301940,-0.076533850,-0.013080240
1640836141823369984,-0.693588790,0.820589070,9.753593440,0.017929080,0.007891650,-0.004667040
1640836141826799872,-0.852826420,0.736488820,8.651738170,-0.055330990,-0.055271390,-0.016474730
1640836141828809984,-1.587344290,0.545551240,10.504434590,-0.057725610,0.015701360,0.012977420
1640836141831490048,-1.154375550,0.544559660,9.278707500,-0.027573100,0.089815250,0.010862950
1640836141833760000,-0.732806980,0.046598620,10.231566430,-0.010313090,-0.041493780,0.016938150
1640836141836179968,-0.433833420,-0.144855570,10.425095560,0.034917890,0.067763030,0.047281390
1640836141838349824,0.525561810,-0.213674960,8.937829970,0.017429880,-0.020195540,0.022935870
1640836141841379840,0.578064680,-0.348495100,10.215239520,-0.023315850,-0.044836110,0.040765110
1640836141843479808,1.027914640,-0.136770460,9.085460660,-0.032545630,0.114628690,0.012180210
1640836141846909952,1.121152400,-0.046978510,9.738204000,-0.013761220,0.022682540,-0.041501220
1640836141850980096,0.266921250,0.244876610,10.654960630,0.046870120,0.049518050,-0.026860840
1640836141851849984,0.223061770,0.682911630,8.764359470,0.028683240,-0.002188980,-0.022682540
1640836141855510016,-0.741432850,0.700032770,9.918220520,-0.046131010,-0.063332920,0.009356440
1640836141856449792,-1.214942100,0.559609060,9.372608180,-0.053763390,0.066630550,0.031764810
1640836141858619904,-1.093332890,0.229173990,9.479988100,0.007109340,-0.001710650,0.003823640
1640836141861420032,-1.526049020,0.075464780,10.964601520,0.069460280,0.028052930,0.014762580
1640836141863209984,-0.652217330,0.165822650,9.554747580,0.034290560,0.033228100,0.003664200
1640836141866769920,-0.192523700,0.188726320,10.194889070,-0.064747040,-0.041864810,0.010907650
1640836141868219904,0.342963310,0.072709850,9.758434300,-0.076107690,0.070063770,0.047196450
1640836141871899904,1.321745990,-0.092475600,9.024329190,0.017835200,0.049656640,0.022245940
1640836141874039808,0.989576040,0.002713090,10.308125500,0.102767360,0.058908760,-0.011713800
1640836141876169984,1.021756530,0.344335530,9.510907170,0.034025320,0.047533220,-0.014412400
1640836141878919936,0.423469870,0.520825270,9.831942560,-0.092642010,-0.038363040,-0.017073750
1640836141881809920,-0.570023540,0.260157410,9.946842190,-0.088860100,0.023277100,-0.008784230
1640836141883169792,-0.946050350,0.259460330,9.409717560,0.028115520,0.008374450,-0.016993290
1640836141886530048,-1.709293960,0.413029250,9.932369230,0.100073210,-0.007453560,-0.005714590
1640836141888219904,-1.542131780,0.334201250,9.341200830,0.012457370,0.005841260,0.029160090
1640836141895859968,-1.016200540,0.110963370,9.625859260,-0.066401060,0.028204920,0.036732860
1640836141900829952,-0.608770010,-0.212221850,10.117212300,-0.016772750,0.050789120,0.012764330
1640836141904419840,0.366289850,-0.128728730,10.059099200,0.060752030,-0.009641050,-0.010317560
1640836141906249984,0.824185670,0.108278790,9.982585910,0.088429470,0.026023390,-0.014199320
1640836141907059968,1.058464410,0.231747090,9.768530850,0.005194540,0.022496280,-0.009974840
1640836141907399936,0.875520530,0.498470310,9.990477560,-0.050243740,0.017599760,0.008244810
1640836141907719936,0.324268820,0.574638250,9.524070740,-0.023384390,-0.043244660,0.002205370
1640836141908130048,-0.116258470,0.629783390,9.549761770,-0.003410880,-0.064727660,-0.004535910
1640836141911650048,-0.621243180,0.833079100,9.422559740,0.016689300,0.073109550,-0.021103020
1640836141915419904,-1.015642050,0.621912060,9.942679410,-0.042183700,0.012177230,-0.029447680
1640836141916339968,-1.025160550,0.317966460,10.388398170,-0.054472680,0.024057920,0.002965330
1640836141918269952,-0.913221360,-0.040907530,9.655717850,0.008215010,-0.003653770,-0.003691020
1640836141921309952,-0.862799580,-0.382956950,10.035598750,0.021897260,-0.078415860,0.017422440
1640836141923280128,-0.321265910,-0.397843930,9.087218280,0.036595750,0.013127920,0.032532210
1640836141927889920,0.140924920,-0.597793520,9.267573360,0.002376740,0.003731250,-0.011092430
1640836141930189824,0.401756440,-0.270650860,10.431121830,0.007997450,0.070625550,0.003968180
1640836141934340096,0.822995960,0.236732540,9.759737970,0.041081010,0.023780770,-0.028848650
1640836141935760128,0.652493060,0.453189520,10.263232230,0.007237500,-0.073090200,-0.023530430
1640836141936280064,0.469686930,0.867797080,9.509001730,0.011077520,0.039193030,0.010177490
1640836141939539968,-0.126622950,0.745014550,9.470565800,0.020816920,-0.032211840,-0.018428270
1640836141941239808,-0.763258460,0.724466920,10.049452780,0.003503260,-0.032465160,-0.001205500
1640836141943339776,-0.728210930,0.730485680,9.072490690,0.011843440,0.019603970,-0.006262960
1640836141948000000,-1.008082390,0.349760710,10.300498010,-0.035375350,-0.008182230,-0.023780760
1640836141951830016,-0.735830720,0.373122570,10.144558910,-0.030028820,0.046449900,0.023840370
1640836141952809728,-0.192786960,-0.120674120,9.386081700,0.010947880,-0.007633870,0.026449560
1640836141953209856,0.070103440,-0.531324090,9.962915420,0.032024090,0.024513910,0.041060150
1640836141959709952,0.543222900,-0.432092310,9.147890090,0.089503830,0.065152350,0.045883660
1640836141961829888,0.446564790,-0.571788790,9.842666630,0.037033860,-0.035335130,0.011405350
1640836141964949760,0.459119770,-0.082714320,9.874686240,-0.021366780,0.022058190,0.003446640
1640836141966889984,0.337733330,0.106602720,9.607839580,0.010009110,0.038209560,-0.039708620
1640836141967559936,-0.208068880,0.407318950,10.365715980,0.052347790,0.007081030,-0.066694630
1640836141968229888,-0.352845430,1.065598130,9.550452230,0.087039170,0.028380750,-0.033491850
1640836141971360000,-0.665709910,0.978788200,9.370173450,0.021389130,-0.014345350,-0.002375250
1640836141973149952,-0.747756840,0.902287190,9.550372120,-0.048747660,0.018671150,0.031740970
1640836141976499968,-0.603092010,0.471298460,9.554023740,0.004912910,0.046698750,0.035862630
1640836141978249984,-0.519696830,-0.002983670,10.216534610,0.048862400,0.017887360,-0.004397330
1640836141981900032,-0.221664670,-0.013593100,10.151114460,0.066071750,0.022128230,-0.009229780
1640836141984519936,-0.003583420,-0.173218290,9.937690730,0.012189150,0.015048680,-0.007261340
1640836141986309888,0.061186380,-0.102948360,9.810659410,-0.053629280,-0.011102860,0.007392470
1640836141992450048,0.258535500,0.092466500,9.423921590,-0.009068850,-0.006334480,0.026296080
1640836141995699968,0.473264040,0.127265680,9.110628130,0.037124760,0.054049500,0.001135470
1640836141996179712,0.357065950,0.448008060,9.801265720,0.058606270,0.070561480,-0.022366640
1640836141996549888,0.145904840,0.708989560,10.183757780,0.019432610,0.061337650,-0.027699760
1640836141998809856,-0.092659990,0.608458520,9.739410400,-0.059290240,-0.019684430,-0.035919250
1640836142001699840,-0.541870240,0.497420820,9.842792510,-0.027497110,-0.037997960,-0.026896600
1640836142003399936,-0.792958200,0.384193210,9.162457470,0.006093080,0.050531320,-0.025546550
1640836142008149760,-0.978688360,0.080166450,9.572654720,0.028479100,-0.022061170,-0.006446240
1640836142008920064,-0.897395430,-0.040417990,10.053340910,0.036230690,0.029103460,0.013856590
1640836142014279936,-0.298153670,-0.056251290,9.397810940,-0.024113060,0.051695110,0.005178150
1640836142014809856,-0.124445390,-0.105698590,10.708601950,-0.024311250,-0.006523730,0.017483530
1640836142016699904,0.428758470,-0.018772100,9.865270610,0.008106230,0.092132390,0.005416570
1640836142018159872,0.688862440,0.079467770,9.561668400,0.046598920,-0.033584240,-0.022842000
1640836142021420032,0.283341680,0.479851810,10.176950450,0.052511700,0.004851820,-0.022105870
1640836142023259904,0.401113000,0.851599040,8.648416520,-0.042995810,0.024658440,-0.039048490
1640836142026579968,-0.202336860,0.723437010,10.066741940,-0.078658770,-0.046721100,-0.038686400
1640836142028299776,-0.528966670,0.764755250,9.970405580,-0.025887790,0.089228160,-0.036586820
1640836142036389888,-0.428112600,0.662622570,9.291579250,0.007514660,-0.013603270,-0.048172480
1640836142037570048,-0.846598090,0.259303450,10.584260940,0.017362830,-0.000418720,0.005120040
1640836142038099968,-0.416095730,-0.108670420,8.982332230,-0.015749040,0.095851730,0.025619570
1640836142039269888,-0.451852860,-0.629060450,10.001069070,-0.013272460,-0.065271560,0.030781330
1640836142043099904,-0.372756510,-0.808630880,10.036498070,0.023487220,0.038318340,0.040847060
1640836142048470016,0.375820220,-0.724298830,8.715201380,0.050111110,0.018289680,-0.023132560
1640836142049079808,0.104027330,-0.379180790,10.747369770,0.058618190,0.023874640,-0.040847060
1640836142049509888,0.553108750,0.438343320,9.475472450,0.017920140,0.141900780,-0.036936990
1640836142051450112,0.538620230,0.795491520,9.924307820,-0.018784410,-0.034497680,-0.033271310
1640836142053599744,-0.042743780,1.015560510,10.432375910,0.006990140,0.050005320,0.010776520
1640836142059709952,0.101118000,1.133430240,8.555400850,0.047445300,0.012692810,-0.018242000
1640836142068849920,-0.873203930,0.849773940,10.385156630,0.043872010,-0.061795120,-0.020970410
1640836142070380032,-0.889077600,0.758818090,9.341135980,-0.018259880,0.086845460,0.005628170
1640836142071589888,-0.837904870,0.302767460,9.745742800,-0.054569540,-0.032059850,-0.017029050
1640836142072000000,-1.071119310,-0.039912160,10.881499290,-0.039739910,0.030413270,0.011636320
1640836142072349952,-0.003865650,-0.202507760,8.873015400,0.011499230,0.066947940,0.028167670
1640836142072929792,0.071135030,-0.559064810,10.339598660,0.055596230,-0.006073710,0.020708150
1640836142073400064,0.477581530,-0.368544370,9.608775140,0.035835800,0.107879940,0.034423170
1640836142079959808,1.018006680,-0.276978160,9.058445930,-0.003740190,-0.017780070,0.011742120
1640836142082389760,0.401902560,-0.339600380,10.511841770,0.002989170,0.040841110,-0.007857380
1640836142084819968,0.471472320,0.155504290,9.169380190,0.058609240,0.084452320,-0.034761430
1640836142085270016,-0.482410370,0.564015980,10.282241820,0.065498050,-0.076356550,-0.060620910
1640836142086550016,-1.020750160,0.975562630,9.530738830,-0.016912820,0.017224250,-0.028425460
1640836142089560064,-0.869185690,1.043959620,8.761499400,-0.038528450,-0.021150710,-0.011098390
1640836142093869824,-1.404850600,0.689080360,10.431406020,0.008128580,0.034341210,0.004988910
1640836142096889856,-0.637183250,0.653729560,9.465326310,0.047262010,0.066705060,0.033651290
1640836142098149888,-0.255399940,0.271174070,10.459039690,0.032374260,-0.012391810,0.032053890
1640836142098609920,0.041494160,-0.243460220,10.452191350,-0.013749300,0.067779430,0.032271440
1640836142101760000,0.696014230,-0.259763270,9.525784490,0.005236270,-0.020848210,0.013594330
1640836142107129856,0.355738040,-0.381842370,10.069590570,0.015959150,-0.024317200,-0.013922160
1640836142109580032,0.607809130,-0.050775280,8.797065730,-0.003463030,0.034140050,-0.019989900
1640836142113760000,0.296337400,0.255527230,9.715851780,0.008563700,0.018404430,-0.035834310
1640836142117789952,-0.214835970,0.386090460,9.938751220,-0.008420650,0.073568540,-0.029729310
1640836142118199808,-0.197464470,0.615576030,9.569571500,0.019389390,-0.020161270,-0.003734230
1640836142118649856,-0.914482950,0.497416590,10.354947090,0.046361980,-0.009432440,0.005969410
1640836142119419904,-0.877116980,0.529920400,9.230227470,-0.002324580,-0.002171100,0.021453200
1640836142122739968,-0.990299520,0.347451300,9.872118950,-0.004754960,-0.036312640,0.027300420
1640836142123429888,-0.784653780,-0.089482300,9.627123830,0.005210940,0.045083470,0.000974540
1640836142128890112,-0.032106770,-0.068213950,9.593471530,0.051657860,-0.007161500,-0.019454960
1640836142131049984,0.213852760,-0.000197580,10.334963800,0.061587990,0.069084770,-0.009767710
1640836142132169984,0.894959090,-0.143064360,9.521213530,0.001931190,0.044196840,0.021107490
1640836142133159936,0.839249010,-0.163071870,10.361213680,0.045807660,-0.016978380,0.031228370
1640836142136250112,0.540328860,-0.114085240,9.394330980,0.077240180,0.028295820,0.007386510
1640836142139930112,0.052251810,-0.008650040,9.395154950,0.066615630,-0.083070990,-0.011990960
1640836142142429952,-0.881354690,0.425974850,9.952778820,0.058689720,-0.007349250,-0.025092070
1640836142143679744,-0.995892290,0.687182490,9.046961780,-0.012466310,-0.018569830,-0.039780140
1640836142147019776,-1.281098840,1.001319650,10.493317600,-0.007636850,-0.023074450,0.004068020
1640836142148419840,-0.979761420,1.031188250,9.865384100,0.016115610,0.093346830,0.026769940
1640836142151609856,-0.345099750,0.500309530,9.897727970,0.053069000,-0.035697230,0.046174230
1640836142153159936,-0.050028350,0.331021850,10.322970390,0.096499920,0.036454200,0.068487230
1640836142158989824,0.677417520,-0.160500600,8.829951290,0.025826700,0.011424720,0.042866170
1640836142160120064,0.710915210,-0.555749360,10.096894260,0.004297490,-0.054539740,0.035142900
1640836142161999872,0.725468990,-0.493336890,9.373049740,0.033061210,0.085334490,-0.019149480
1640836142163820032,0.621621670,-0.526849990,9.429105760,0.046075880,-0.033354760,-0.053849820
1640836142166240000,-0.355676890,0.000366410,10.598236080,0.082951780,0.020851190,-0.028617680
1640836142168779776,-0.609646860,0.368025210,8.998456950,0.054277480,-0.030502680,-0.025299190
1640836142174139904,-1.129355070,0.475680890,9.997359280,0.037480890,-0.125019250,0.027118620
1640836142175239936,-1.264017580,0.895869080,9.536888120,0.044207270,0.077463690,0.039725010
1640836142176120064,-0.792652670,0.602083270,9.602595330,0.045812130,-0.017040970,0.036978730
1640836142181720064,-0.778807400,0.471472680,11.181677820,0.110608350,0.011391940,0.046718120
1640836142182870016,0.099832130,0.654982570,9.322871210,0.075441600,0.024296350,0.003851950
1640836142184720128,0.455194060,0.389302910,9.993252750,-0.013549630,-0.103001290,0.031591940
1640836142186970112,0.586331250,0.340586990,9.638200760,-0.022758550,0.062690680,0.024317200
1640836142191139840,1.040345790,0.075378950,8.809630390,0.009362400,0.002206860,-0.024971360
1640836142192499968,0.374263260,-0.086501160,10.502867700,0.088313220,-0.015628340,-0.003030900
1640836142193959936,0.206896920,0.101966840,9.113042830,0.085057320,0.050213940,-0.012440980
1640836142197549824,-0.340824220,-0.089010530,9.931007390,0.010474030,-0.104595740,0.013127930
1640836142198999808,-1.166408180,0.038350190,10.213804240,-0.005461280,0.002196430,0.037796800
1640836142201139968,-0.955686930,0.029917610,8.901226040,0.022096930,-0.035697220,0.004601480
1640836142203539968,-1.233311770,0.038262470,10.413662910,0.086051230,-0.048437710,0.004878640
1640836142207089920,-0.711671890,0.555148480,9.413699150,0.098471370,0.084736950,-0.017902260
1640836142208189952,-0.074301940,0.676368470,9.918092730,0.012813510,-0.048476460,-0.015711780
1640836142211629824,0.156663520,0.679477100,10.454353330,-0.016751890,0.011664630,0.048843030
1640836142213639936,0.989510120,0.452399940,8.992281910,0.022676590,0.019055600,0.032320610
1640836142217280000,0.701418880,0.127692220,10.421177860,0.093671680,-0.042341650,0.028021640
1640836142218769920,0.372666750,0.239829670,9.648496630,0.101500730,0.034953660,0.025625530
1640836142226009856,0.221946510,0.117816460,9.414361000,0.006435810,-0.086981070,-0.020587450
1640836142228519936,-0.667283650,0.111321550,10.284519200,-0.041706860,-0.024792560,-0.012275580
1640836142229289984,-0.658110740,0.387068570,9.007067680,-0.013045970,0.017710030,-0.023117660
1640836142229889792,-0.948933060,0.436765310,10.102430340,0.025324530,-0.050836800,-0.010670720
1640836142232479744,-0.998401520,0.471308980,9.776070590,0.061365970,0.036813330,0.040362780
1640836142233149952,-0.353740750,0.342090670,9.482921600,0.049576160,-0.036031010,0.047785040
1640836142236709888,-0.371992020,0.111686480,10.524670600,0.021435320,-0.023633240,0.059279800
1640836142239579904,0.380720290,-0.057133190,9.347677230,0.006738310,0.017194450,0.054927170
1640836142241629952,0.687754930,-0.266143170,10.074167250,0.043381750,0.000268220,-0.011375540
1640836142243180032,0.549950600,-0.109152850,10.002635000,0.075586150,0.052632390,-0.026310980
1640836142246619904,0.733924570,0.206465680,9.175305370,0.051310660,-0.044880810,-0.018608570
1640836142248859904,-0.018663410,0.303245430,9.838650700,0.004395840,-0.034123670,-0.000135600
1640836142251719936,-0.340722890,0.370780470,9.174587250,-0.005657970,-0.009974840,0.030861800
1640836142253419776,-0.692456190,0.437218930,9.981327060,0.043722990,-0.047123430,0.021031500
1640836142258609920,-1.129292850,0.355501530,10.261816980,0.073400130,0.037686520,0.015498700
1640836142259640064,-0.946972730,0.493557810,10.138781550,0.053717200,-0.043568020,0.019679960
1640836142261519872,-0.980378150,0.610458310,10.443531040,-0.000017880,-0.047938530,0.026725230
1640836142263219712,-0.327905650,0.479812410,9.165136340,-0.048337880,-0.043016670,0.050643100
1640836142267010048,0.255647900,0.345958950,9.600440980,0.009976330,-0.006452200,0.045627350
1640836142269469952,0.649403690,0.231837730,9.608345990,0.073273490,0.088931620,0.023341180
1640836142272969984,0.972490970,0.266950730,10.018646240,0.046007340,-0.024048980,0.025559960
1640836142273609984,0.752262590,0.226949600,10.220381740,-0.020654500,0.001771750,0.024202470
1640836142276429824,0.489362420,-0.037899380,9.369583130,-0.056982050,-0.043892860,0.007450580
1640836142278739968,-0.211565430,-0.020117110,9.947376250,0.007508700,-0.063578790,0.006520750
1640836142282990080,-0.827628730,0.092646930,9.213442800,0.057256220,0.007638340,-0.013500450
1640836142284469760,-1.225434300,0.196173760,9.567091940,0.005224350,-0.074221200,-0.006741290
1640836142286099968,-1.401294350,0.456142250,10.049888610,-0.014477970,-0.002989170,0.022120770
1640836142292599808,-0.981847170,0.320828170,9.740759850,-0.027589500,-0.032833210,0.009110570
1640836142293999872,-0.477495430,0.453081070,10.586090090,-0.000630320,-0.045698880,0.050798060
1640836142295529728,0.309411350,0.412622600,9.787396430,0.053291030,0.060394410,0.055201360
1640836142297339904,0.764473320,0.186230350,10.133711810,0.028784570,-0.025209780,0.040812790
1640836142299959808,0.831787110,0.456419740,10.089528080,0.004363060,-0.012452900,0.062920150
1640836142301400064,0.931181370,0.228242710,8.966670990,-0.049401810,-0.068928310,0.021608170
1640836142303219968,0.517062540,0.211577940,9.536203380,-0.047020610,-0.050261620,0.018665190
1640836142306639872,0.016916420,0.492642070,9.396739010,0.010810790,0.063000630,-0.002865490
1640836142308780032,-0.554032740,0.283362980,10.119843480,-0.024029610,-0.022518630,-0.015442070
1640836142311909888,-1.007163050,0.367147860,10.346682550,-0.026774400,-0.042718650,0.043492020
1640836142315169792,-1.004154560,0.033345640,9.306109430,-0.005240740,-0.040593750,0.025931000
1640836142316189952,-1.178755760,-0.189166130,9.952318190,-0.008338690,-0.052091490,0.048512220
1640836142318289920,-0.737797680,-0.024897470,9.410894390,0.030896070,0.001078840,0.061221420
1640836142321209856,-0.117128430,-0.323111330,9.587534900,0.005128980,-0.014898180,0.005917250
1640836142323629824,0.397972670,0.134859860,10.135076520,0.000709300,0.028163200,0.025653840
1640836142327009792,0.971108850,0.349753950,9.791551590,0.012105700,0.035755340,0.026369100
1640836142329039872,1.001710770,0.342774180,10.268521310,-0.025403500,-0.020709630,0.027666990
1640836142331699968,0.851383630,0.749496340,9.695425990,0.010177490,-0.014820700,0.061003870
1640836142334039808,0.410255610,0.448226450,9.297328000,0.003162030,-0.015319880,0.019833450
1640836142336359936,-0.317652170,0.531035130,9.710779190,-0.021883850,-0.003214180,0.007726250
1640836142338269952,-0.868837000,0.512338880,9.731090550,-0.010040400,0.003212690,0.011472400
1640836142341600000,-1.263339640,0.182040080,10.024814610,-0.039872530,-0.025773050,-0.007714330
1640836142343909888,-1.261669160,0.335067120,9.800639150,-0.032995640,-0.033320490,0.021855530
1640836142347919872,-0.856707630,-0.006320350,9.527209280,-0.005280970,0.015404820,0.046554210
1640836142349099776,-0.319659230,-0.261000370,9.790813450,0.003983080,0.034572180,0.045154990
1640836142351199744,0.218788330,-0.085699240,9.931460380,0.045962630,0.007750090,0.058877470
1640836142353410048,0.898524400,-0.128451050,9.583964350,-0.003045800,0.017379230,0.069679320
1640836142356429824,1.153647180,-0.101340500,9.803465840,-0.027120120,0.022307040,0.057023760
1640836142358340096,0.875341360,0.101139970,10.099579810,0.026753550,0.050182650,0.034992400
1640836142361519872,0.373216450,0.402194080,9.722902300,0.021205840,-0.021012130,0.009718540
1640836142366099712,-0.422271730,0.710920630,9.741056440,-0.005488100,-0.080208480,0.006224220
1640836142368339968,-0.907694580,0.902929370,9.280322070,-0.055216260,0.006225710,-0.004342200
1640836142369259776,-1.197941180,0.856038930,9.482269290,-0.066697600,0.002188980,0.001467760
1640836142371239936,-1.326555610,0.695986090,10.488355640,-0.016786160,0.023300950,0.032232700
1640836142373400064,-0.763451520,0.424875470,9.705207820,0.013710560,0.040328510,0.057676430
1640836142376219904,-0.389199700,-0.108822150,10.169720650,0.020928680,-0.060859320,0.075826060
1640836142378530048,0.031002860,-0.361877440,9.857485770,-0.004315380,0.021204350,0.085093090
1640836142381779968,0.716413440,-0.571493630,8.940198900,-0.035347050,-0.006967780,0.053815540
1640836142383429888,0.648813310,-0.730768500,10.287833210,0.004789230,-0.012981890,0.026740140
1640836142387140096,0.901572410,-0.128279120,9.252002720,0.034259260,0.094288590,-0.011600550
1640836142388279808,0.581547140,0.296955020,9.819440840,0.002612170,-0.048793850,-0.012417140
1640836142391520000,-0.172364410,0.578009610,10.361935620,-0.021672250,0.013118980,0.029133260
1640836142399819776,-0.260448870,0.781543200,8.823812480,-0.013884900,-0.014124810,0.023350120
1640836142401019904,-1.137511490,0.610917150,10.357724190,0.022399430,-0.084663930,0.036798430
1640836142401690112,-1.143620730,0.695880590,9.438200000,0.024671850,0.074094560,0.043211880
1640836142402309888,-0.905579510,0.455567090,9.622267720,-0.012537840,-0.039990250,0.029139230
1640836142403159808,-0.985660430,0.213628220,10.863776210,-0.017064810,0.003398960,0.057148940
1640836142406720000,0.160166920,0.259000120,8.829026220,-0.030967590,0.023709230,0.049199160
1640836142409390080,0.457947610,-0.193529780,10.100403790,-0.000543890,-0.038892030,0.060480840
1640836142412639744,0.826443550,-0.316720010,9.744302750,0.042895970,0.124362110,0.063697990
1640836142413740032,1.201036210,-0.167182650,9.246399880,0.042295450,-0.013059380,0.017127390
1640836142416579840,0.437826930,-0.068779380,10.639394760,-0.010810790,-0.030240420,0.027373440
1640836142418919936,0.455466180,0.140336170,8.827538490,-0.039032110,0.036294760,0.015597050
1640836142421190144,-0.427180350,0.178903340,9.972567560,0.007924440,-0.059950360,-0.023098290
1640836142427179776,-1.236894130,0.493707900,9.996212960,0.035154820,0.051285330,0.007815660
1640836142430439936,-1.056327340,0.702159880,8.932868000,0.027036670,-0.041717290,0.021612640
1640836142432979712,-1.569553140,0.485639690,10.541921620,-0.008317830,-0.038513540,0.031290950
1640836142434789888,-0.781923710,0.514750060,9.185117720,-0.019700830,0.055794420,0.069038560
1640836142435340032,-0.186574760,0.267587810,9.936925890,0.000616910,-0.032131370,0.053735090
1640836142438959872,0.168601100,-0.055440270,10.499650000,0.024436410,0.075191260,0.055523220
1640836142439749888,1.060749530,-0.019277480,9.398050310,0.041283660,-0.004473330,0.044861430
1640836142441139968,0.650489630,-0.076437060,10.419422150,0.014862420,-0.064268720,0.025554000
1640836142447119872,0.742381270,0.070773450,9.082867620,-0.044308610,0.006221240,0.020512940
1640836142451559936,0.428419950,0.205976890,9.378904340,-0.028499960,-0.036625560,-0.001673400
1640836142452689920,-0.414979820,0.258506690,10.057797430,0.008574130,0.044237070,-0.022701920
1640836142453379840,-0.381919830,0.475514590,9.345267300,0.029900670,-0.016798080,-0.006808340
1640836142454149888,-1.042409780,0.373578430,10.201669690,0.040505830,-0.026115780,0.031413140
1640836142456569856,-1.086475850,0.149188520,9.564865110,-0.000871720,0.002139810,0.050860640
1640836142458240000,-0.932804290,-0.035234240,9.870834350,0.005921720,-0.077140340,0.064237420
1640836142461629952,-0.848897580,-0.245170010,9.745622630,0.046788160,-0.000900030,0.039446350
1640836142465420032,0.084164810,-0.314683380,9.349540710,0.049769880,-0.026410820,0.008006390
1640836142466909952,0.299949590,0.054538740,10.348716740,0.068505110,0.040137770,0.018002090
1640836142468219904,0.739170610,0.265158180,9.740612030,0.001807510,0.024786590,0.013616680
1640836142471670016,0.948559880,0.326549980,10.109575270,-0.009778140,-0.068117690,0.051690650
1640836142474030080,0.644295390,0.505936030,9.493270870,0.059881810,0.023451450,0.038678940
1640836142476679936,0.307483790,0.441921410,9.462330820,0.058279940,-0.041954230,0.009261070
1640836142478269696,-0.412602250,0.604357780,9.956924440,0.047349930,-0.010524690,0.015322870
1640836142484019968,-0.839917360,0.471892600,9.414100650,-0.003837050,-0.017909710,-0.012491640
1640836142487619840,-1.073042150,0.301001430,10.140278820,-0.023834410,-0.065328190,0.004498660
1640836142489840128,-0.976588960,0.315361200,9.467192650,0.016516440,0.027795130,0.029906630
1640836142490880000,-0.544400990,-0.150129180,9.603696820,0.030493740,0.004519520,0.033596160
1640836142492709888,-0.242843200,-0.327966810,10.176846500,0.087422130,0.034585600,0.070302200
1640836142494540032,0.270801600,-0.297844470,9.493968960,0.096626570,-0.021184980,0.050941110
1640836142496199936,0.602957730,-0.386132480,9.956914900,0.008967520,-0.056913500,0.050400200
1640836142499619840,0.689463200,-0.205613210,9.530190470,0.028289860,0.045333800,0.035406650
1640836142504219904,0.516033410,-0.080066760,9.767042160,0.082112850,-0.004920360,-0.026080010
1640836142505929984,0.046346820,0.541140320,10.252014160,0.084629640,-0.010728840,-0.019553300
1640836142507750144,-0.395801840,0.981533170,9.398386960,0.049220030,-0.047859540,-0.012609360
1640836142508389888,-0.764591630,0.992326800,9.705633160,-0.038334730,-0.077591840,-0.009721520
1640836142511139840,-0.922795180,1.019965890,9.496966360,-0.012370940,0.004361570,0.021108990
1640836142517019904,-0.787542760,0.641418160,9.581748010,0.046841800,-0.000551340,0.029860440
1640836142518419968,-0.595726430,0.268655060,10.283179280,0.056713830,0.022368140,0.036957860
1640836142520579840,-0.306632940,-0.022145330,9.964494710,0.049537420,-0.032103070,0.066730370
1640836142527609856,0.036826980,-0.349415270,9.750073430,-0.013010200,-0.081138320,0.063294180
1640836142528699904,0.402934580,-0.571648960,9.396323200,-0.016956030,-0.009509920,0.047092140
1640836142529419776,0.586206910,-0.518034880,9.603718760,0.064721700,0.038841360,0.006200370
1640836142529979904,0.606255770,-0.043309770,9.858866690,0.076346100,0.027284030,-0.035877530
1640836142531129856,0.523548780,0.415594400,9.725129130,0.023719670,-0.013393170,-0.015604500
1640836142533200128,0.124466720,0.624809980,9.667373660,-0.023409730,-0.001785160,0.006909670
1640836142536559872,-0.344997700,0.626276850,9.560436250,0.001904370,-0.038617850,0.008140500
1640836142539670016,-0.911570790,0.555661380,9.845834730,0.059317060,-0.059473520,0.022356210
1640836142541619968,-1.004471060,0.602009770,9.352284430,0.054116540,0.014787910,0.026609000
1640836142543180032,-0.943235520,0.331211540,10.085288050,0.005654990,-0.018467010,0.023131070
1640836142546200064,-0.847004000,0.246765720,10.557680130,-0.023671990,0.010326510,0.048549470
1640836142548169728,0.062364010,0.194546860,9.335710530,-0.029219690,-0.005795060,0.039801010
1640836142551190016,0.344029130,-0.236554190,10.247257230,0.028498470,-0.022363660,0.046406690
1640836142553309952,0.806632940,-0.100753630,9.383543970,0.085796420,0.068029770,0.039349500
1640836142560600064,1.106598730,-0.100621540,9.277616500,0.055643920,-0.035862620,0.002199410
1640836142561969920,0.522496880,0.051959380,10.167815210,-0.028769680,0.016407670,0.018107890
1640836142562889728,0.419173000,0.243185920,9.130723000,-0.031143430,0.016704200,0.005126000
1640836142563239936,-0.469306470,0.079314090,10.333849910,0.033953790,-0.067605090,-0.017599770
1640836142566269952,-1.045886750,0.505167900,9.608935360,0.079801690,0.016750400,-0.010299680
1640836142568249856,-1.075074670,0.568949880,9.227031710,0.035794080,-0.063383560,-0.007937850
1640836142571409920,-1.338191150,0.401958730,10.278296470,-0.025309620,0.005659460,0.018879770
1640836142573639936,-0.501624520,0.559062720,9.246918680,-0.030584640,0.041656200,0.046581030
1640836142576160000,-0.116272290,0.092871460,10.538898470,0.020335610,-0.011509660,0.048214190
1640836142578249984,0.395589470,-0.086757240,10.133084300,0.075979540,0.058123480,0.056377060
1640836142581169920,0.973706780,0.044696660,9.549236300,0.080598890,-0.030463940,0.046451390
1640836142583190016,0.574887810,-0.073037330,10.253730770,-0.012783710,-0.000266730,0.031737990
1640836142586210048,0.674019870,0.210423770,9.065403940,-0.050589440,-0.011049210,0.008465350
1640836142588569856,0.154970240,0.411670240,9.774063110,-0.018912550,-0.040473050,-0.036063790
1640836142592150016,-0.361082760,0.595159050,9.528306010,0.006875400,0.058831270,-0.042128560
1640836142593439744,-0.514403880,0.820384140,9.549108510,0.020590420,0.001478200,-0.022464990
1640836142596160000,-1.163085700,0.483596240,10.411747930,0.016148390,-0.005665420,0.009164210
1640836142598209792,-0.947486640,0.169601840,9.408131600,-0.015017390,-0.043827300,0.044579800
1640836142601479936,-0.832068920,-0.110147190,9.965046880,-0.004345180,-0.041770940,0.055922580
1640836142603229952,-0.399471640,-0.516147080,9.636904720,0.017842650,0.087444490,0.040467080
1640836142606459904,0.161393180,-0.475909740,10.315720560,0.054965910,0.011110310,0.018236040
1640836142608259840,0.347799930,-0.124822330,10.466621400,0.065800560,0.009405610,0.010803340
1640836142611470080,0.795869530,0.042768350,9.252750400,-0.015939770,-0.051948430,0.008396800
1640836142613270016,0.602429270,0.452076260,9.878380780,-0.013005730,-0.021089620,0.028897820
1640836142616139776,0.300942000,0.655151780,9.348605160,0.025253000,0.052961710,-0.009639560
1640836142618639872,-0.157225860,0.857452930,10.030560490,0.007608530,-0.066353380,-0.034148990
1640836142621349888,-0.706911440,1.058366660,10.082194330,0.008346140,0.012616820,-0.006094580
1640836142623249920,-1.001264570,0.599031450,9.630030630,-0.022976100,-0.052763520,-0.017605720
1640836142627329792,-1.332843300,0.442188920,10.379019740,-0.022438170,-0.072085850,0.022630390
1640836142628249856,-0.951870740,0.153257180,9.103882790,0.002926590,-0.005899370,0.047865520
1640836142631150080,-0.427736160,-0.487385600,9.736247060,-0.005698210,-0.035458800,0.019645690
1640836142633169920,0.184405370,-0.365804610,10.039663310,0.043301290,0.081375240,0.040659310
1640836142636260096,0.844924690,-0.487873320,9.710184100,0.027894980,0.016319750,0.003305080
1640836142639049984,0.910940950,-0.439264300,10.703335760,0.005652010,-0.040158630,0.014923510
1640836142641139968,0.959263380,0.035094130,9.411146160,0.039048490,-0.005206470,0.008247790
1640836142643200000,0.445261660,0.257693860,9.515687940,0.013640520,-0.065054000,-0.029015540
1640836142646200064,-0.296210770,0.908966540,9.822005270,-0.014431780,0.012628740,-0.018082560
1640836142648259840,-0.752958360,1.147225380,9.495237350,-0.013543670,-0.034433600,-0.030331320
1640836142651119872,-1.197300430,1.188759920,10.310778620,-0.037780400,-0.071230530,-0.023481250
1640836142653499904,-1.028555040,1.254228710,9.672490120,-0.038474800,0.020134450,0.010989610
1640836142656829952,-0.711208280,0.560381470,9.967771530,-0.034371020,0.012040140,0.027202070
1640836142658449920,-0.337774780,0.102554330,10.397498130,-0.017201900,0.027807060,0.047922140
1640836142661089792,0.320128410,-0.283435610,9.842586520,0.000342730,-0.007957220,0.052301590
1640836142663219968,0.622803630,-0.703244570,9.870825770,-0.032171610,-0.018024440,0.025519730
1640836142666119936,0.884218160,-0.693393290,9.664679530,-0.030398370,0.005106630,-0.003021960
1640836142668300032,0.880199310,-0.493077990,9.627671240,-0.003132220,0.040514770,-0.026763980
1640836142671330048,0.513663770,-0.015335140,9.777008060,-0.011023880,0.040681670,-0.048214200
1640836142673179904,-0.002684240,0.434835200,10.065007210,-0.005617740,-0.028637050,-0.028692190
1640836142676100096,-0.551415030,0.738678340,9.593699460,-0.008966030,-0.013236700,-0.001159310
1640836142678159872,-0.876389980,0.765338240,9.491857530,-0.014773010,-0.031916800,0.003434720
1640836142681099776,-1.282015090,0.604918300,10.450237270,0.004579130,0.010943410,0.009997190
1640836142683159808,-0.968373780,0.498479430,9.674132350,0.017347930,0.050026190,0.008814040
1640836142686739968,-0.682619330,0.208325510,10.477385520,0.001631680,-0.030757490,0.003662710
1640836142691219712,-0.290872660,0.231594640,10.198152540,-0.030454990,0.040455170,0.027899440
1640836142692369920,0.572607220,-0.005380180,9.228448870,-0.035493070,-0.000679490,0.034402310
1640836142693199872,0.636347590,-0.378950210,10.467499730,0.012339650,0.003579260,0.005489590
1640836142696100096,0.909457980,-0.024456610,9.340126040,0.042209020,0.064465390,-0.024902820
1640836142698159872,0.784805240,-0.023669560,9.893026350,0.011201200,-0.044828650,-0.046902900
1640836142701309952,-0.016537110,0.160671950,10.442421910,-0.030240420,0.034196680,-0.039818890
1640836142703480064,-0.212643410,0.548649550,9.131340980,-0.033642360,-0.033730270,-0.034014880
1640836142707559936,-0.918928150,0.380967170,10.185911180,-0.013436380,-0.060170900,-0.010129810
1640836142708199936,-1.073092820,0.506739850,9.249001500,0.019867720,0.075344740,0.015023350
1640836142711109888,-0.915028270,0.394870340,9.843942640,0.046567620,-0.013703110,0.012980400
1640836142713149952,-0.958115580,0.111713990,10.796342850,0.009253620,0.024436410,0.011436640
1640836142716739840,-0.003419200,0.045531550,9.322996140,-0.012302400,-0.001256170,0.023034210
1640836142718200064,0.275574800,-0.418669070,10.485629080,0.029820210,-0.005349520,-0.007154050
1640836142721309952,0.530182240,-0.328905670,9.812392230,0.067631890,0.085565430,-0.028862060
1640836142723239936,0.835686560,0.160684900,9.458005910,0.050285460,-0.050629680,-0.028461220
1640836142726119936,0.312123090,0.168988230,10.160634990,-0.021260980,0.001218910,-0.031520430
1640836142728240128,0.285030570,0.493224800,9.041275020,-0.023597480,0.002326070,-0.024074320
1640836142731079936,-0.314326730,0.808281000,10.268264770,0.024451320,-0.039164710,-0.032311670
1640836142733209856,-0.601506890,0.829302430,9.894079210,0.009456280,0.082182880,-0.017453730
1640836142736499968,-0.682043020,0.817828710,10.207006450,-0.002539160,-0.016503040,0.013160710
1640836142738309888,-1.008770590,0.456043510,10.623122220,0.006221240,0.011014940,0.018170480
1640836142741109760,-0.603280010,0.121014770,9.208452220,-0.013525790,-0.044165550,0.016400220
1640836142743189760,-0.335374530,-0.111186610,9.717417720,0.013592840,-0.031819940,0.004121660
1640836142746109952,0.251133050,-0.300698610,9.174529080,0.010663270,0.136367980,-0.038731110
1640836142748260096,0.689292490,-0.217018570,10.078502660,-0.003983080,0.049690910,-0.045481320
1640836142751119872,0.645024480,-0.060295940,10.538175580,0.029215220,0.076295460,-0.014352800
1640836142753399808,0.676266370,-0.182484450,9.533066750,0.035896900,-0.044097010,-0.030553340
1640836142756249856,-0.048186610,0.156838740,10.078344350,0.047314170,-0.078323480,0.008279090
1640836142758970112,-0.452512150,0.245522920,8.817459110,0.023792690,0.039130450,-0.021514300
1640836142761080064,-0.839201150,0.184531300,9.803984640,0.001448390,-0.016070900,-0.047551100
1640836142763289856,-1.114986660,0.701260920,10.559929850,0.052449110,0.077554580,-0.034782290
1640836142766189824,-0.837867500,0.780888020,9.991188050,0.020505480,-0.000134110,-0.053125620
1640836142768229888,-0.515903410,0.855702160,10.590225220,-0.033038860,-0.028865040,0.012664500
1640836142771229952,0.094094090,0.556973460,9.437049870,0.018168990,0.086940830,0.032107540
1640836142773870080,0.522524420,-0.080234540,9.715381620,0.059798360,0.007034840,0.008192660
1640836142776079872,0.591886700,0.001366000,10.097626690,0.073729460,0.058768700,0.020457810
1640836142778240000,0.709014770,-0.296724080,9.367985730,0.017575920,0.003403430,-0.026547910
1640836142781159936,0.337019060,-0.404413130,10.072355270,-0.034362080,-0.052578750,-0.048924980
1640836142783200000,-0.035085850,-0.011432760,9.455515860,0.020627680,0.047084690,-0.062593830
1640836142786129920,-0.487430660,0.060952850,9.626379970,0.038465850,-0.002095100,-0.069060910
1640836142788290048,-0.956991430,0.433719310,10.258635520,0.057783730,0.007557870,-0.016447900
1640836142792709888,-0.891557870,0.510527970,9.623667720,0.055621570,0.017681720,-0.005713110
1640836142793639936,-0.810901820,0.416044740,10.146399500,0.001250210,-0.025263430,0.009985270
1640836142797240064,-0.444748490,0.308569730,9.978494640,0.039793550,0.043672320,0.026099390
1640836142798189824,0.135132550,0.004149030,9.704632760,0.099615760,0.059086080,-0.010772050
1640836142801090048,0.344647320,0.190176140,10.294487950,0.072899460,0.036790970,-0.024144350
1640836142803979776,0.589300990,0.326763450,9.886470790,0.024200980,0.011523070,-0.013987720
1640836142806249984,0.616306250,0.164772500,9.477088930,-0.012336670,-0.008112190,-0.032024090
1640836142808249856,0.210763010,0.377480120,9.748622890,0.019732120,-0.005693730,-0.044962770
1640836142811089920,-0.123890970,0.495083270,9.623321530,0.044322010,0.025911630,-0.033101440
1640836142813279744,-0.523952600,0.362201240,9.821299550,0.033982100,0.018960240,-0.016847250
1640836142816119808,-0.978236680,0.362686160,10.442749980,0.042709710,-0.027605890,0.001379850
1640836142818209792,-0.903406920,0.415040190,9.723975180,0.007155540,-0.012078880,0.018471480
1640836142822779904,-0.625753280,0.175132470,9.535184860,-0.013236700,-0.017274920,0.012533370
1640836142824280064,-0.404846400,-0.092750160,10.334415440,0.044628980,0.062121460,-0.007918480
1640836142826190080,0.340403110,0.101315230,9.373410220,0.087958570,0.070290270,-0.035403670
1640836142828349952,0.636740510,0.086840070,10.054416660,0.049877170,-0.026212630,-0.033743680
1640836142831079936,0.817847070,0.073884670,9.827719690,-0.003519650,0.089477000,-0.006690620
1640836142833159936,0.723752680,0.013951700,9.363224980,0.018398470,-0.005005300,-0.017963350
1640836142836439808,-0.170103510,-0.058178800,10.454998020,0.066770620,-0.067995500,-0.008104740
1640836142838240000,-0.345535430,0.267002020,8.884066580,0.068834430,0.015276670,-0.020629170
1640836142841090048,-0.886529510,0.343438950,9.880012510,0.034853820,-0.042945150,-0.048205250
1640836142843319808,-1.200706240,0.624170540,10.487569810,-0.013123450,0.077928600,-0.035423040
1640836142846109952,-0.603788730,0.854720530,9.369564060,-0.019696360,0.012116140,-0.028809910
1640836142848199936,-0.627824190,0.437851340,10.943813320,0.038108230,-0.005103650,-0.010074680
1640836142851089920,-0.005535850,0.460491840,9.543190000,0.094608960,0.077812380,0.008827450
1640836142853319936,0.417913820,0.419558940,9.545578000,0.052526590,-0.071012980,0.005650520
1640836142856459776,0.392409980,-0.016682350,10.137486460,-0.038158900,0.068773340,0.015659630
1640836142858299904,0.968225660,-0.104333180,8.942047120,-0.017589330,0.061942650,-0.014187400
1640836142861469952,0.415501090,-0.194707480,10.653114320,0.051625080,-0.013180080,-0.056435170
1640836142863180032,0.203703250,0.031609470,9.495182040,0.049379480,0.081999610,-0.052808230
1640836142866089728,-0.127598510,0.253892090,9.339456560,0.029005110,-0.053015360,-0.029635430
1640836142868649984,-1.094727990,0.087157820,10.453611370,0.001889470,0.017277900,-0.003550950
1640836142871119872,-0.813365940,0.252326730,8.894266130,0.009347500,0.010876360,0.013269480
1640836142873209856,-1.166083460,0.138613120,10.487543110,0.073230270,-0.018557910,0.000607970
1640836142876379904,-0.807339430,0.128645260,10.010100360,0.085338960,0.091928250,-0.021317600
1640836142878219776,-0.037546010,0.491214040,9.829497340,0.061239310,-0.036273900,-0.027833880
1640836142881120000,0.064246920,0.530597450,10.402661320,0.002107020,0.052434220,-0.010673700
1640836142883190016,0.975734710,0.438063500,9.021666530,-0.021603700,0.050252680,-0.003919010
1640836142886189824,0.776688520,0.359553370,10.187136650,0.065581500,0.017313660,-0.008684400
1640836142888239872,0.490691780,0.297577590,9.681722640,0.073091710,0.070260470,-0.026281180
1640836142892989952,0.223864450,0.260742280,9.548696520,0.035482660,-0.072601450,-0.023353100
1640836142894349824,-0.652447640,0.266660240,10.071375850,0.002525750,0.007933380,-0.009159740
1640836142896139776,-0.710386400,0.045681460,9.123504640,-0.039957460,0.012736020,-0.016848740
1640836142898200064,-1.127842070,0.140159000,10.245976450,0.022421780,0.002254550,0.003005560
1640836142901369856,-1.055518150,0.095922370,9.789159770,0.076620280,0.073367360,-0.007896130
1640836142903259904,-0.483611880,0.063403750,9.728261950,0.067283240,-0.045682500,-0.000759960
1640836142906220032,-0.265504420,0.455910470,9.957269670,0.034385910,0.043834740,0.004282590
1640836142908499968,0.520122290,0.162688940,9.317072870,-0.034710770,0.055414450,-0.006040930
1640836142911099904,0.657904680,0.041327060,10.453245160,0.032486020,0.018438700,-0.003977120
1640836142913159936,0.742008330,0.296832320,9.590003970,0.115683700,0.064966080,-0.034931310
1640836142916110080,0.531492830,0.172044460,9.656008720,0.056120750,-0.047640500,-0.031334170
1640836142918210048,-0.107055530,0.542700110,9.684838290,-0.005300340,0.001075860,-0.011280180
1640836142921209856,-0.390715540,0.425340150,9.186111450,-0.045429170,0.002861020,-0.028911230
1640836142923259904,-0.831095100,0.385884280,10.171510700,-0.006110970,-0.001028180,-0.012297930
1640836142926269952,-1.024582620,0.618145880,9.870002750,0.070431840,0.058521340,-0.004445020
1640836142928249856,-0.817674400,0.270479590,10.222704890,0.039674350,-0.004754960,-0.003390010
1640836142931069952,-0.696220340,0.474751470,10.234011650,0.010208780,0.006292760,0.028268990
1640836142933179904,-0.183782820,0.221768890,9.371659280,-0.028461220,-0.009545680,0.019709770
1640836142936399872,0.338553370,-0.157279100,9.669848440,-0.020840770,0.011684000,-0.003321470
1640836142938919936,0.701334120,0.128906940,9.363677020,0.063861890,0.084276490,-0.031191110
1640836142941219840,0.920874830,0.097423990,9.685019490,0.026737160,0.061081350,-0.042481720
1640836142943200000,0.606951650,0.134220900,10.081216810,-0.012186170,0.038672980,-0.015933810
1640836142946129920,0.129219520,0.166245800,9.666032790,-0.000748040,-0.031822920,-0.008305910
1640836142948240128,-0.465909960,0.059135620,9.622147560,-0.007845460,-0.067467990,-0.000135600
1640836142951579904,-1.043053510,0.124497150,9.429280280,0.032718480,0.008171800,-0.000555810
1640836142953250048,-1.223378540,0.089650440,9.796821590,0.041468450,0.041829050,-0.026419760
1640836142958589952,-1.174606200,0.205530360,10.373304370,0.035355980,0.006750230,-0.021430850
1640836142959499776,-0.651643400,0.503334220,9.940860750,0.017532710,-0.001941620,0.001311300
1640836142961139968,0.094073680,0.447598580,9.706060410,-0.025786460,0.047199430,0.011149050
1640836142963239936,0.462672020,0.292981180,10.030611990,0.028792020,0.041286650,0.025983150
1640836142966119936,0.823929730,0.339753600,9.780875210,0.078713900,0.016330180,-0.003702940
1640836142968379904,0.859253110,0.325594040,9.401204110,0.030830500,-0.006666780,-0.011232500
1640836142971190016,0.350110980,0.135727690,9.741783140,0.005608800,-0.018118320,-0.002783540
1640836142973579776,-0.055480030,0.164960150,9.457498550,-0.002703070,0.009918210,-0.024001300
1640836142976089856,-0.473513630,0.281996580,9.497202870,-0.012834370,-0.029172010,-0.013580920
1640836142978259968,-0.949342550,0.107261580,10.111163140,0.013232230,0.032241650,0.011023880
1640836142981089792,-0.845894220,0.122614740,9.558199880,0.065851210,0.036089130,-0.015963620
1640836142983219968,-0.947587190,0.113805840,10.273149490,0.053122650,-0.060367600,-0.018717350
1640836142986209792,-0.413580150,0.201254640,9.669738770,0.000266730,0.040097540,0.016447900
1640836142991869952,0.210054730,-0.023400810,9.303806300,0.015033780,0.049865240,0.007596610
1640836142993469952,0.168990600,-0.075514970,10.637710570,0.071327410,0.019113720,-0.006265940
1640836142994109952,0.698720460,0.380224910,9.233204840,0.069156300,0.036261970,-0.004555290
1640836142996229888,0.421099690,0.220452990,9.748702050,0.031352050,-0.080512470,-0.015212600
1640836142998569984,0.020853670,0.515491250,9.794467930,-0.008016820,0.017552070,-0.001059470
1640836143001819904,0.073138330,0.830330490,8.877059940,-0.025816260,-0.014214220,-0.015348200
1640836143003259904,-0.635139700,0.533934410,10.532520290,-0.019323830,0.005617740,-0.008679930
1640836143006149888,-0.588379320,0.673775670,9.687071800,0.039878490,0.075732170,0.007203220
1640836143008229888,-0.773809310,0.391140220,10.232756610,0.048677620,-0.091007360,-0.001493100
1640836143011459840,-0.879362400,0.182690500,10.178148270,-0.020119550,-0.012069940,0.025130810
1640836143013179904,-0.033948810,0.073734100,8.723234180,-0.034916400,0.010463590,0.019912420
1640836143016099840,-0.073266970,-0.281675880,10.308814050,-0.005972380,0.042389330,-0.018021460
1640836143018460160,0.543663440,0.088487340,9.530274390,0.020845230,0.103700170,-0.023581090
1640836143021829888,0.753065290,0.208704870,9.751507760,0.017689170,-0.034739080,-0.007976590
1640836143023340032,0.269369360,0.020466390,10.080850600,-0.012068450,0.001046060,0.011341270
1640836143026299904,0.337769660,0.291617720,8.967905040,0.000043210,-0.030511620,0.012914840
1640836143028219904,-0.608585950,0.188783940,10.093338970,-0.000834470,-0.047916170,0.004777310
1640836143031069952,-0.782450680,0.358394270,9.580961230,-0.012719630,0.037899610,-0.000925360
1640836143033229824,-0.880607600,0.561199250,10.138741490,0.013209880,-0.036540630,-0.020466740
1640836143036470016,-1.117735150,0.596682670,10.464913370,-0.025209780,0.002469120,-0.011949240
1640836143038249984,-0.268100230,0.689159990,9.281293870,-0.046677890,-0.018918510,0.022810700
1640836143041240064,-0.120209460,0.350378750,10.033132550,-0.001838800,0.022405390,0.030505660
1640836143043209984,0.408988920,0.149445530,9.470958710,0.008976460,0.061857700,0.010797380
1640836143046139904,0.686861400,0.104561400,9.956572530,0.007818640,-0.035065410,0.017918650
1640836143048239872,0.453206540,-0.188985720,9.873017310,-0.012369450,0.024151800,0.006940960
1640836143051379968,0.446790190,-0.232696070,9.419399260,-0.034037240,-0.063052770,-0.018997490
1640836143053489920,-0.238776070,0.017207590,9.933628080,-0.006268920,-0.002679230,-0.019235910
1640836143056349952,-0.552910450,0.071756820,9.167607310,-0.012920800,0.005236270,-0.028115510
1640836143058349824,-0.925459500,0.231045310,10.216194150,0.007082520,-0.066162650,0.001578030
1640836143061120000,-1.103362920,0.526883480,9.677609440,0.023709240,0.015525520,0.011113290
1640836143063209984,-0.705487910,0.358469490,9.731420520,-0.030517580,-0.056807700,0.012698770
1640836143066059776,-0.593374550,0.437430890,10.527857780,0.009065870,0.035360450,0.034941730
1640836143068379904,-0.004729640,0.389960970,9.473254200,0.028592350,0.003643330,-0.006279350
1640836143071179776,0.315824900,0.489830050,10.266181950,-0.009952490,-0.072030730,0.002253060
1640836143073859840,0.565682650,0.597555100,9.318130490,-0.037182870,0.048650800,0.027659540
1640836143076199936,0.759607430,0.205052150,9.398455620,-0.050535800,-0.054070350,-0.013370810
1640836143078240000,0.362031670,0.370633040,10.114949230,-0.016790630,0.002115960,-0.014078620
1640836143081080064,0.225697370,0.349946800,8.935053830,-0.019918380,0.002719460,-0.020907820
1640836143083229952,-0.382416960,0.020558170,10.405862810,-0.048096470,-0.047229230,-0.006178020
1640836143086200064,-0.867978870,0.202854930,9.830668450,-0.020717090,0.008927290,0.013275450
1640836143092960000,-0.934600530,-0.004131780,9.259778020,-0.033918020,-0.117930790,-0.006286800
1640836143093649920,-1.129750370,-0.051478700,9.966421130,-0.035139920,-0.012305380,0.004640220
1640836143094169856,-0.644883220,0.056312540,9.172084810,0.014947350,0.048966710,-0.003060700
1640836143096140032,-0.287933500,0.151820530,10.386337280,0.000917910,-0.060638790,-0.006128850
1640836143098229760,0.384497140,0.534625470,9.887950900,-0.031647080,0.036148720,0.021533660
1640836143101199872,0.885043860,0.382652040,9.563176160,-0.048001120,0.002934040,0.021833180
1640836143103419904,0.661688090,0.360114160,10.613178250,-0.017209350,-0.024051960,0.011760000
1640836143106149888,0.579681870,0.548673150,9.165775300,0.009354950,-0.015543400,0.011870270
1640836143108300032,0.066988830,0.472147700,9.421616550,-0.037923460,-0.091750930,-0.003598630
1640836143111079936,-0.538503290,0.595720590,9.692398070,-0.082287200,-0.004094840,-0.013975800
1640836143113189888,-0.725628550,0.618037820,9.260673520,-0.101725760,-0.032114980,-0.007700920
1640836143116420096,-0.946115490,0.263953030,10.168870930,-0.077201430,-0.009936100,-0.001907350
1640836143118240000,-0.957563520,-0.038527800,10.096831320,0.014925000,0.017282370,0.019679960
1640836143121260032,-0.680507660,-0.113214700,9.841638570,0.034703310,-0.088424990,0.047133870
1640836143123329792,-0.381396950,-0.265007700,9.760406490,-0.038589540,-0.061336160,0.044059750
1640836143126269696,0.312711030,-0.382561710,9.271634100,-0.083987410,0.004678960,0.034984940
1640836143128249856,0.715169010,-0.217151520,9.758892060,-0.020466750,0.050666930,-0.009301310
1640836143131109888,0.750298500,0.140135010,10.274561880,0.041554860,0.012488660,-0.033907600
1640836143133289728,0.646825910,0.692731620,9.940262790,0.006638470,-0.046794110,-0.016261640
1640836143136119808,0.301553340,0.880721570,9.319993970,-0.062271960,-0.075033310,0.007951260
1640836143138479872,-0.280860990,0.673011840,9.553438190,-0.089876350,-0.055925560,0.015048680
1640836143141440000,-0.545765160,0.790519830,9.314760210,-0.035847720,0.041738160,0.005592410
1640836143143239936,-0.904089750,0.544756530,10.145719530,-0.002433360,-0.004731120,-0.009654460
1640836143146109696,-1.090445160,0.279341910,10.528150560,-0.030115250,-0.035078830,0.014822190
1640836143148539904,-0.692023870,0.196256030,9.278851510,-0.054468220,-0.080539290,0.014705960
1640836143151089920,-0.448745070,-0.355711010,9.569252010,-0.076113630,-0.039140880,0.027003890
1640836143153489920,0.122270350,-0.420098100,9.269552230,-0.019074980,0.079722710,0.031127040
1640836143159440128,0.610354960,-0.316288230,9.812034610,0.032827260,-0.003947320,-0.009928640
1640836143160280064,0.748706880,-0.114633390,10.257111550,-0.019231440,0.014941400,0.011318920
1640836143161069824,0.985998450,0.229985090,9.438135150,-0.041122740,-0.001917780,0.005118550
1640836143163229952,0.303223370,0.238440900,10.343625070,-0.042258200,-0.047039980,-0.016401700
1640836143166999808,-0.080319850,0.664357540,9.279039380,-0.018522150,-0.010602180,-0.006085630
1640836143168300032,-0.609691620,0.908699330,9.367042540,-0.013412540,-0.061967980,-0.015059120
1640836143171209728,-1.171882270,0.838691530,9.946825980,-0.074130290,0.013501940,-0.005336110
1640836143173250048,-0.877590480,0.932249780,9.327795980,-0.079894070,-0.030258300,0.011186300
1640836143176120064,-0.969132960,0.402093830,10.444271090,-0.069044530,-0.018122790,0.006400050
1640836143178589696,-0.400908020,-0.039154380,9.632711410,-0.042431060,0.050932160,0.026312470
1640836143181110016,0.025805190,-0.265981910,10.000124930,0.035528840,-0.042296950,0.035934150
1640836143183239936,0.077658540,-0.538710710,9.985156060,-0.013971330,-0.018356740,0.035144380
1640836143186129920,0.857017760,-0.333853160,8.647234920,-0.090321910,-0.061996290,0.029706950
1640836143188519936,0.659151490,-0.355041380,9.962384220,-0.056251890,0.043639540,-0.010809300
1640836143191670016,0.605892120,0.088475410,9.669552800,-0.022785360,0.081889320,-0.055474050
1640836143193430016,0.231255340,0.733502570,10.293715480,0.007607040,-0.070703030,-0.035934150
1640836143196679936,-0.464353950,0.890380320,10.064037320,-0.038611890,-0.003816190,-0.010097030
1640836143198269952,-0.606019910,0.837012770,9.117147450,-0.084014240,-0.095345080,0.014579300
1640836143201229824,-1.226473210,0.636051830,9.989748950,-0.035674870,-0.023642180,0.025786460
1640836143203249920,-1.046361570,0.317613690,9.304179190,-0.019213560,0.050599880,0.008474290
1640836143206140160,-0.819078450,0.078734380,10.439970970,-0.003694000,-0.065314790,0.013414030
1640836143208639744,-0.374122440,0.177069080,10.097871780,-0.033490360,0.023451450,0.013446810
1640836143211119872,0.506456380,-0.151720140,9.293853760,-0.113409780,-0.047165160,0.025105480
1640836143213250048,0.534057200,-0.293968680,10.412335400,-0.028538700,0.020289420,0.036273890
1640836143216100096,0.939954460,-0.169087160,9.123331070,0.043462210,0.045546880,-0.006520750
1640836143218210048,0.658504550,-0.022995090,10.120928760,0.023715200,-0.109490770,0.005833800
1640836143221439744,0.251162380,0.366598550,9.661972050,-0.040671230,0.036561500,0.001429020
1640836143225179904,0.127845930,0.304094490,9.226944920,-0.091128060,-0.023098290,-0.042231380
1640836143226959872,-0.778243780,0.613889930,10.696662900,-0.037106880,-0.008188190,-0.036376710
1640836143228459776,-0.766796050,0.907978770,9.147097590,-0.012007350,0.038267680,-0.047822300
1640836143231099904,-0.960946620,0.538845840,9.987042430,-0.017534200,-0.095872590,-0.003014510
1640836143233219840,-1.006336930,0.493239790,9.791614530,-0.005914270,0.021262460,0.028923150
1640836143236059904,-0.268537160,0.155287310,9.002071380,-0.071284180,-0.020439920,0.026930870
1640836143239499776,-0.250294540,-0.330382110,10.853573800,-0.054006270,0.018371640,0.056590130
1640836143241089792,0.256430800,-0.386323420,9.952831270,0.028207900,0.068975990,0.019183750
1640836143243859968,0.538778010,-0.253365250,10.118016240,0.022195280,-0.114157790,-0.014051790
1640836143246109952,0.397125720,0.117990890,9.788991930,-0.023099780,-0.011244420,0.009436900
1640836143248270080,0.642448310,0.406731070,8.686619760,-0.084543210,0.020103150,-0.034041700
1640836143251059968,0.095078990,0.679132700,10.146286960,-0.073769700,-0.012531880,-0.037597120
1640836143253219840,-0.098257790,0.906324510,9.613284110,-0.017948450,0.058496000,-0.039608770
1640836143257759744,-0.302290530,0.853695090,9.859526630,-0.013643500,-0.032952430,-0.034083430
1640836143258540032,-1.051807400,0.563248220,10.577641490,-0.012885040,-0.035528840,0.005753340
1640836143261179904,-0.843008820,0.278674540,9.163864140,-0.067965690,-0.040045380,0.014291700
1640836143263249920,-0.817811130,-0.219339300,9.645112990,-0.085763640,-0.038535890,0.020174680
1640836143266080000,-0.658675670,-0.613112210,9.990721700,0.000068550,0.061346590,0.009262560
1640836143268229888,0.145461650,-0.398821650,9.693700790,0.041070580,-0.014047330,-0.013747810
1640836143271559936,0.330928300,-0.175300360,10.246081350,-0.002737340,-0.018714370,-0.001774730
1640836143273249792,0.728390570,-0.121779140,9.806531910,-0.047352910,0.030660630,0.004515050
1640836143276379904,0.669434010,0.267928270,9.905503270,-0.010827180,-0.008797640,-0.010308620
1640836143278269952,0.169563260,0.568213940,10.001852040,0.028140840,-0.043581420,-0.020284950
1640836143281049856,-0.138859170,0.926487620,9.501871110,-0.007931890,-0.042048100,-0.026455520
1640836143283219712,-0.636444870,1.141351940,9.448780060,-0.036676230,-0.051183990,-0.028346480
1640836143286099968,-0.921064140,1.018320920,9.760807040,-0.087110700,-0.034821030,-0.024513900
1640836143288499712,-0.716118750,0.810576200,9.519269940,-0.085200360,0.051978230,0.010997060
1640836143291929856,-0.694694760,0.130986440,10.226001740,-0.004670030,0.013320150,0.030581660
1640836143294449920,-0.465911480,-0.347936510,10.497258190,0.027412180,-0.044389070,0.037056210
1640836143296130048,0.099265810,-0.513318960,9.195409770,-0.002069770,-0.041130180,0.039921690
1640836143298269952,0.216371740,-0.971941290,9.853558540,-0.048822160,-0.015066570,0.010094050
1640836143301080064,0.523911300,-0.767289820,9.783184050,-0.019587580,0.051632520,-0.020509960
1640836143303569920,0.624820470,-0.061808150,9.615943910,0.033335390,-0.024048990,-0.056745110
1640836143306149888,0.317701460,0.412057340,10.158509250,-0.013379750,0.012522940,-0.035740440
1640836143309440000,0.238507330,1.062707660,9.336115840,-0.023736060,0.007408860,-0.006933510
1640836143311079936,-0.578254580,1.135760430,10.287105560,-0.031349070,-0.081667320,-0.015488270
1640836143313230080,-0.767061950,1.183152080,9.481510160,-0.041879710,-0.011330840,-0.001417100
1640836143316069888,-0.857264340,1.022260790,9.440893170,-0.006285310,-0.036722430,0.010471050
1640836143318219776,-1.090197680,0.471011550,10.564891820,-0.042621800,0.034473840,0.009833280
1640836143321270016,-0.297037690,0.326333340,9.447805400,-0.061066460,0.014044350,0.029158600
1640836143325749760,-0.179624170,-0.357476830,10.300689700,-0.046817950,-0.039409100,0.021378690
1640836143327040000,0.417895260,-0.691968200,9.529906270,-0.027820470,0.051073730,-0.001133980
1640836143328960000,0.871254500,-0.525655210,9.275976180,0.034689900,-0.024877490,-0.015668570
1640836143331069952,0.531118810,-0.442984130,10.192890170,-0.015130640,0.049071020,-0.014698510
1640836143333220096,0.730809690,-0.057075380,9.321160320,-0.050415110,0.021126870,-0.004705790
1640836143337199872,-0.048620880,0.266547440,10.296341900,-0.002619620,-0.059548020,-0.021411470
1640836143338320128,-0.531584200,0.705426100,9.473525050,-0.016827880,0.015021860,-0.028167670
1640836143341329920,-0.882762850,0.992673280,9.658664700,-0.016495590,-0.067818170,-0.011457500
1640836143343340032,-1.388858200,1.051209450,10.186858180,-0.022463500,0.006529690,-0.017748770
1640836143346119936,-0.739213710,1.070599790,9.181059840,-0.066061330,0.001479690,0.007155540
1640836143348290048,-0.566242640,0.804260850,10.368426320,-0.067931410,0.019499660,0.050483640
1640836143351109888,0.137571330,0.188242570,9.889359470,-0.053910900,0.124588600,0.043177600
1640836143353489920,0.476210300,-0.336068420,10.413840290,0.007064640,-0.062187020,0.034032770
1640836143357799936,0.480305490,-0.402780890,9.801117900,0.028896330,-0.016199050,0.015999380
1640836143358719744,0.843157410,-0.653353210,8.615698810,-0.066484520,-0.026591120,-0.019167360
1640836143361149952,0.208138330,-0.379557820,10.188762660,-0.067745160,0.016731020,-0.014570360
1640836143363219968,0.063239870,-0.004907530,9.259814260,-0.038339200,0.077299780,-0.057896970
1640836143366109952,-0.301360040,0.250828120,10.141064640,-0.006341940,-0.051964820,-0.055633490
1640836143368259840,-0.990854380,0.827426080,10.255708690,0.038611890,0.010171530,-0.000087920
1640836143371160064,-0.837314490,0.807255330,9.115118030,-0.018520650,-0.070106990,-0.009141860
1640836143373339904,-1.136915450,0.881104650,10.245569230,-0.071971130,-0.059783450,0.044211740
1640836143376219904,-0.569077370,0.662465100,9.190249440,-0.056502220,0.098374470,0.046166770
1640836143378299904,-0.040117140,0.020766830,10.442106250,0.010721390,0.010642410,0.008317830
1640836143381079808,-0.008149280,0.258853640,10.926791190,0.051781540,0.028800970,0.034855310
1640836143383209984,0.736131730,-0.062831980,9.085245130,-0.034438080,-0.067926940,0.016941130
1640836143386119936,0.585663860,-0.338457970,9.824533460,-0.079725670,-0.059480970,-0.006951390
1640836143388640000,0.467734310,0.043112010,8.924874310,-0.040696560,0.075206180,-0.037325920
1640836143391689984,0.349754930,0.013512280,9.483326910,-0.021581350,-0.013184550,-0.053372980
1640836143393379840,-0.468883510,0.311670090,10.524220470,0.009511410,0.023108720,-0.027562680
1640836143396100096,-0.699459490,0.625453000,9.520040510,-0.001922250,-0.062011190,-0.009275970
1640836143398279936,-1.180369380,0.459977920,10.191529270,-0.055366770,-0.119841110,0.018493840
1640836143401059840,-1.246123430,0.557844460,9.368562700,-0.056548430,0.021681190,0.022897130
1640836143403549952,-0.674415950,0.355832640,9.456364630,-0.020818420,-0.013004240,0.001363460
1640836143406249984,-0.411663470,0.303091850,10.475115780,0.020344560,0.020636620,-0.000031290
1640836143409519872,0.581344780,0.412670430,9.415203090,-0.015258790,0.042153890,0.016956030
1640836143411049728,0.987292470,-0.003508700,10.278771400,-0.061410670,-0.007936360,0.023926800
1640836143413250048,0.862705890,-0.147854280,10.022155760,-0.026644770,0.020688770,0.016100700
1640836143416079872,0.899941090,0.053505610,9.210458760,-0.011891130,-0.063185390,-0.001826880
1640836143418299904,0.015496240,-0.007158550,9.839033130,-0.018213690,-0.016905370,-0.024832790
1640836143421749760,-0.596751630,0.280809850,9.443298340,-0.024057930,-0.026966640,-0.026512150
1640836143425179904,-0.965135990,0.600181160,9.599322320,-0.054579970,-0.077116500,-0.033462050
1640836143426089984,-1.194665790,0.553371370,9.590184210,-0.072494150,0.032043460,-0.016151370
1640836143428310016,-1.005573390,0.534066620,10.114024160,-0.032390660,0.017756220,0.009280440
1640836143431079936,-0.751820030,0.357255850,10.298090930,0.037127730,-0.036349900,0.010204320
1640836143433240064,-0.007424660,0.208392290,9.499295230,-0.000916420,-0.053074960,0.021529200
1640836143436359936,0.642432930,-0.011470190,9.568617820,-0.052924460,0.066633530,0.048089030
1640836143438269952,0.892648820,-0.485359880,9.810474400,-0.008696320,0.080455840,0.016249720
1640836143441179904,0.783057510,-0.278508010,10.316425320,0.020729000,-0.047002730,-0.007364150
1640836143443619840,0.654982860,0.179393680,9.213234900,0.013937060,-0.038889050,-0.005128980
1640836143446089984,-0.023739120,0.207742810,9.484002110,-0.055624540,-0.058722500,-0.026921930
1640836143448249856,-0.679944810,0.749267460,9.884561540,-0.061616310,0.000655650,-0.025707490
1640836143451239936,-0.877629220,0.931773720,9.316526410,-0.031159820,-0.036685170,-0.023263690
1640836143453309952,-1.299240230,0.715084200,10.461838720,-0.022816660,-0.011844930,-0.017720460
1640836143456359936,-1.019413950,1.032078980,9.682925220,0.001554190,0.016541780,0.018297140
1640836143459409920,-0.872744080,0.512288210,10.031281470,-0.054325170,-0.109867750,0.044383110
1640836143461380096,-0.126919840,0.138377760,9.581935880,-0.096173570,-0.007885690,0.046029680
1640836143463259904,0.698692620,-0.231772170,9.207795140,-0.011073050,0.050437460,0.020982330
1640836143466089984,0.753184200,-0.585601210,10.523682590,0.026285650,0.033375620,-0.010792910
1640836143468299776,1.271901850,-0.106853600,9.335563660,-0.010314580,0.024914740,-0.006234650
1640836143471680000,0.828862550,-0.266465400,9.677240370,-0.070038440,-0.056938840,0.000542400
1640836143473270016,0.125645120,-0.143742110,9.698657040,-0.063438710,-0.010962780,-0.002588330
1640836143476099840,-0.308654130,0.339101310,9.111593250,0.012715160,-0.064770880,-0.021831690
1640836143478259968,-1.263579490,0.518425580,10.091332440,-0.001801550,-0.013576450,-0.022645290
1640836143481040128,-1.272208930,0.911247370,9.814791680,-0.031371410,0.019375980,-0.009180610
1640836143483209728,-1.362912060,1.093164920,10.421463970,-0.070790950,-0.057843340,0.005342070
1640836143486209792,-0.876318040,0.945391060,9.906892780,-0.108678640,-0.001284480,0.035007300
1640836143488809728,0.059690920,0.522324680,9.393885610,-0.026567280,-0.010542570,0.031633680
1640836143492579840,0.497928260,0.087530520,9.852697370,0.035282970,0.059559950,0.017315150
1640836143493409792,1.252229690,-0.086735000,9.324576380,-0.015784800,0.041757520,0.011387470
1640836143496130048,1.128884910,-0.471148730,10.027055740,-0.058168170,0.002427400,0.016888980
1640836143498249984,0.776436570,-0.665901960,9.528457640,-0.069342550,0.003498790,0.002095100
1640836143501119744,0.140175090,-0.517331180,9.792394640,-0.011613970,-0.091308360,-0.015924870
1640836143503239936,-0.801712630,-0.166162510,9.515402790,0.027202070,0.015921890,-0.020849710
1640836143506199808,-1.147535800,0.173169060,9.381031990,-0.002628570,-0.028473140,-0.049245360
1640836143508369920,-1.571491720,0.743166090,10.474255560,-0.017780070,-0.015173850,-0.023227930
1640836143511099904,-1.109364870,1.112208370,9.439353940,-0.071835500,0.027656550,-0.017225740
1640836143513209856,-0.561854060,0.930195690,10.289265630,-0.060255830,-0.045090910,0.012625750
1640836143516630016,-0.175028920,0.723007860,10.031558990,0.044578320,0.072613370,0.041399900
1640836143518309888,0.654618260,0.375440360,9.283566470,0.047121940,-0.049191710,0.007459520
1640836143521420032,0.628722730,0.049975100,10.255252840,-0.022427740,-0.013551120,0.042101740
1640836143523379968,0.840613540,-0.132064690,8.984250070,-0.078122330,0.037355720,0.012452900
1640836143526229760,0.572439490,-0.442565170,9.938693050,-0.068353120,-0.089162590,-0.020122530
1640836143528309760,0.034388360,-0.255847990,9.676403050,0.004360080,0.038091840,-0.009390710
1640836143531069952,-0.214823130,-0.210563260,9.169643400,0.032693140,-0.010745230,-0.037667150
1640836143533280000,-1.078706260,-0.060436470,10.732287410,0.037656730,-0.050871070,-0.004559760
1640836143536089856,-1.055687070,0.464766000,9.161038400,-0.016373400,-0.026977060,-0.002917650
1640836143538359808,-0.835173190,0.519835530,9.732503890,-0.080515440,-0.078986590,-0.001163780
1640836143541529856,-0.715995370,0.554360570,10.206325530,-0.022968650,0.093826650,0.015325840
1640836143543259904,0.019830720,0.594188810,9.618802070,0.072185700,0.017270450,-0.013180080
1640836143546089984,0.072707570,0.623828890,10.585644720,0.059436270,-0.064921390,-0.007428230
1640836143548679936,0.557085390,0.594520030,8.853528020,-0.044780970,-0.007510190,0.046208500
1640836143551079936,0.708108310,0.158153920,9.334353450,-0.095663960,-0.063435740,0.022375590
1640836143553259776,0.292238770,-0.041276900,9.971764560,-0.034117700,0.040984160,0.003415350
1640836143556879872,0.327470390,-0.102727370,9.237530710,0.042052570,-0.002408030,-0.001983340
1640836143558329856,-0.454160060,-0.171319600,10.700046540,0.049883140,-0.048688050,-0.029002140
1640836143561159936,-0.871188160,0.052067890,9.675375940,-0.007997450,-0.023393330,-0.002743300
1640836143563279872,-0.888327120,0.275828360,9.459969520,-0.076153860,-0.117623800,0.014704460
1640836143566149888,-0.975632670,0.236824860,9.765592580,-0.057289000,0.029739730,-0.001774730
1640836143568259840,-0.295888330,0.413261710,9.327964780,0.039975350,0.034046180,-0.020907820
1640836143571209984,0.021069700,0.706782820,10.273523330,0.071291630,0.023482740,-0.030069050
1640836143573299968,0.526725410,0.647762890,9.601670270,-0.018501280,0.040790440,0.004112720
1640836143576079872,0.754839720,0.386871870,9.818984030,-0.068487250,-0.060254350,0.030396880
1640836143578269952,0.517238970,0.108343920,9.475922580,-0.021415950,-0.008681420,0.017473100
1640836143581110016,0.372639980,-0.109226190,9.131254200,0.002138320,-0.030994420,0.001950560
1640836143583229952,-0.343967650,-0.090731400,10.152788160,0.030374530,0.042413170,-0.010755660
1640836143586390016,-0.803955260,-0.057248010,10.058508870,0.010037420,-0.034162400,-0.023619830
1640836143588290048,-1.026476380,0.245408430,10.206968310,-0.050175190,-0.110998760,-0.003466010
1640836143591189760,-0.818308650,0.378864740,9.250481610,-0.054843720,0.027498600,0.008001920
1640836143593339904,-0.505469200,0.136678000,9.799662590,-0.012117620,0.019462410,-0.011454520
1640836143596349952,-0.096712480,0.511652950,10.192505840,0.088532290,0.058420010,-0.008919840
1640836143598279936,0.475693730,0.609635060,9.329617500,0.036370750,-0.013145810,-0.032383200
1640836143601039872,0.632038180,0.452768620,9.847654340,-0.086244940,-0.012373930,0.006841120
1640836143603469824,0.690785170,0.277412800,9.347395900,-0.049881640,0.037904080,0.018249450
1640836143606700032,0.290928270,-0.219443230,9.761951450,0.014394520,-0.044804820,-0.013107060
1640836143608249856,-0.123430130,-0.022068560,9.686062810,0.069154810,0.000500680,0.010801850
1640836143611069952,-0.467136140,-0.144920100,9.395519260,0.035423040,-0.022301080,-0.010979180
1640836143613499904,-0.890537800,-0.081133580,10.167657850,-0.056385990,-0.026209650,-0.022722780
1640836143616079872,-0.695438860,0.336990770,9.648944850,-0.050704180,0.016729540,0.002993640
1640836143618259968,-0.575407330,0.053226120,10.099726680,0.014199320,0.002817810,-0.017775600
1640836143621189888,-0.348475520,0.482552890,10.070672990,0.091280050,0.014026460,-0.011092420
1640836143623360000,0.048703310,0.788429380,9.582988740,0.059568890,-0.026673080,-0.003483890
1640836143626159872,0.068093580,0.694648740,9.754384990,-0.086870770,-0.007683040,-0.004205110
1640836143628569856,0.330582500,0.697114590,9.411459920,-0.073082730,-0.018045310,0.007867810
1640836143631099904,0.330636980,0.336176750,9.556863780,0.005121530,-0.010801850,-0.018556420
1640836143633280000,0.255983470,0.300483260,9.470571520,0.024314220,0.040428340,-0.019922850
1640836143636569856,0.020017820,0.099590090,9.942563060,0.019304450,0.010515750,0.006848570
1640836143638319872,-0.383643900,-0.281454980,9.943133350,-0.034511090,-0.018498300,0.016252700
1640836143641110016,-0.489614220,-0.316898170,9.621170040,-0.041115280,-0.077763210,0.010822710
1640836143643259904,-0.719471160,-0.444436250,9.832413670,0.011235480,0.015966600,0.002101060
1640836143646129920,-0.561993660,-0.361899140,9.571065900,0.057367970,0.027003880,-0.016531350
1640836143648320000,-0.453583540,0.044776850,10.261091230,0.078956790,-0.005264580,-0.018429760
1640836143651140096,-0.160114820,0.636088130,9.519252780,0.000181790,0.035183120,-0.012499090
1640836143653649920,0.116546150,0.757966640,9.572971340,-0.067751120,-0.074830650,0.005470220
1640836143656260096,0.035590130,0.788216650,9.933283810,0.001411140,-0.006687640,0.003534560
1640836143658429952,0.355398390,0.984087410,8.766053200,0.034224990,0.005565580,-0.037766990
1640836143661100032,-0.026476340,0.801196340,10.364729880,0.024487080,-0.031954050,0.000275670
1640836143663280128,-0.224723290,0.638539140,9.767911910,-0.024397670,0.050066410,0.021657350
1640836143666240000,-0.373686250,0.234430420,9.713010790,-0.066256520,-0.124068560,0.024326150
1640836143668320000,-0.716624260,-0.189481880,10.135984420,-0.037838520,-0.042897460,0.050129000
1640836143671219712,-0.229158120,-0.464143040,8.608078960,0.031083820,0.020323690,0.005003810
1640836143673359872,-0.324589160,-0.587373730,10.410919190,0.072391340,-0.025059280,-0.022515660
1640836143676399872,-0.039456350,-0.019260720,9.733193400,0.018869340,0.085709990,-0.027611850
1640836143678329856,0.450149540,0.240497800,9.383108140,-0.087565190,-0.071297590,-0.039567060
1640836143681059840,0.091952440,0.238529590,10.499401090,-0.048063700,-0.013354420,-0.007483360
1640836143683269888,0.278321740,0.603155430,8.733193400,0.062584880,0.004391370,-0.020864610
1640836143687299840,-0.386836530,0.750368120,10.173546790,0.077492010,-0.125153380,-0.010961290
1640836143690879744,-0.548121450,0.881738780,9.493669510,-0.016485150,0.024501980,0.029864910
1640836143693479936,-0.315664800,0.796145860,9.239999770,-0.100110490,-0.047598780,0.023217500
1640836143695219968,-0.722551820,0.432926270,10.861936570,-0.072816010,0.009156760,0.041951240
1640836143696280064,-0.109151960,0.127821070,9.184123040,0.021675230,0.036658350,0.028991700
1640836143698309888,-0.043336010,-0.207998070,10.063413620,0.090223540,-0.098529460,-0.006172060
1640836143701059840,-0.008035030,-0.297918590,9.612272260,0.030401350,0.049525510,-0.004921850
1640836143703619840,0.521884680,-0.176776740,8.783042910,-0.081288810,-0.022698940,-0.014823680
1640836143706199808,0.058814950,-0.320721920,10.489545820,-0.060817600,0.000339750,-0.014941400
1640836143708299776,0.226562980,-0.140085320,9.264357570,0.050725050,0.024339560,-0.026039780
1640836143711079936,-0.116577950,0.479912610,9.891193390,0.085295730,-0.104865430,-0.037790830
1640836143713270016,-0.617396950,0.557971120,9.760898590,-0.000436600,0.019499660,-0.000786780
1640836143716159744,-0.412299660,0.661576090,9.001366620,-0.046940150,-0.061494110,0.001515450
1640836143718339840,-0.786371890,0.788339610,10.201841350,-0.024724010,-0.032591820,0.003647800
1640836143721240064,-0.284556720,0.659462210,9.369131090,-0.029711430,0.040890280,0.018030410
1640836143725250048,-0.141246330,0.429200380,10.316694260,0.025731330,-0.011830030,0.008927290
1640836143726709760,-0.148739200,0.139508530,10.223819730,0.045859810,0.016391280,-0.000147520
1640836143728389888,0.312988100,0.042720170,9.402610780,-0.022488830,-0.092180090,0.008066000
1640836143731159808,0.081643170,0.021776740,9.704901700,-0.049938270,-0.008450450,0.005668400
1640836143733280000,0.255264760,-0.075448920,9.046730040,-0.048966710,-0.000071530,-0.033386050
1640836143736199936,0.143119650,0.171494290,9.691122060,-0.000676510,-0.026755040,-0.045371060
1640836143738609920,-0.048789630,0.416359990,9.483280180,0.020989780,0.045011950,-0.042983900
1640836143741079808,-0.254366280,0.238165800,9.985944750,-0.015500190,-0.036245590,-0.013934080
1640836143743289856,-0.765753450,0.525411610,10.201020240,-0.003717840,-0.056993970,0.022839010
1640836143746139904,-0.704951290,0.373393150,9.201272010,-0.058047470,-0.095772740,0.020250670
1640836143748359936,-0.508238080,0.100191970,9.590331080,-0.038595500,-0.008724630,0.040689110
1640836143751109888,-0.259496870,0.191334140,9.737399100,0.056362160,0.102004410,0.003217160
1640836143753520128,0.076263110,0.010156440,10.346714970,0.029005110,-0.005032120,-0.002925100
1640836143758189824,0.412434820,0.269083350,9.889831540,-0.010330980,-0.016194580,0.025755170
1640836143760399872,0.524276320,0.155732710,9.319747920,-0.056137150,-0.033916530,-0.009347500
1640836143761090048,0.286447940,0.148465510,9.559308050,-0.050362950,-0.036703050,-0.002565980
1640836143763239936,-0.004613540,0.451255020,9.213915820,0.023835900,-0.011359160,-0.041885670
1640836143766119936,-0.486932690,0.438964040,9.870247840,-0.003817680,-0.015336280,-0.050127510
1640836143768299776,-0.780755760,0.748283680,9.953336720,-0.026866790,-0.028203430,0.010162590
1640836143771589888,-0.940576550,0.709224940,9.793478010,-0.070358810,-0.078572340,0.025811790
1640836143773360128,-0.647244040,0.409065430,9.477419850,-0.100699050,-0.017613170,0.066550060
1640836143777169920,-0.263013780,0.097032350,9.493001940,0.023028250,0.031763320,0.051152710
1640836143778299904,0.077187760,0.014127330,10.021623610,0.046731530,0.023573640,0.007924440
1640836143781049856,0.717537580,0.072753000,9.599222180,-0.040142230,0.000153480,0.014789400
1640836143783279872,0.691664760,-0.188797710,9.876193050,-0.073392690,0.000217560,-0.000068550
1640836143786109952,0.477115990,-0.177647070,9.632924080,-0.055968770,-0.021120910,-0.019498170
1640836143788659712,0.030114220,0.048618280,9.444257740,0.027421110,-0.084725020,-0.014138220
1640836143791159808,-0.567873360,0.266886440,9.411050800,0.016063450,-0.025130810,-0.013811890
1640836143794710016,-0.799731550,0.564624670,9.383577350,-0.057442500,-0.030681490,-0.001867120
1640836143796099840,-1.104686620,0.796301540,10.324624060,-0.070378170,-0.034537900,0.017251070
1640836143798329856,-0.716559050,0.793018220,9.636406900,-0.075972070,0.021469590,0.021411470
1640836143801019904,-0.483137460,0.548493800,10.213837620,-0.011648240,-0.053553280,0.024156270
1640836143803459840,-0.175700680,0.490229490,10.097943310,0.023676460,0.005218390,0.021503870
1640836143806399744,0.480285380,0.244067030,8.918383600,-0.043269990,-0.044445690,0.012363490
1640836143810190080,0.300490620,-0.077961510,10.247861860,-0.077509880,-0.035044550,0.020758810
1640836143811079936,0.629962210,-0.169556980,9.201270100,-0.064286600,0.051404540,0.006952880
1640836143813220096,0.588953670,-0.385378450,9.587238310,-0.015623870,-0.084730990,-0.020499530
1640836143816179968,-0.026478290,-0.084974530,10.101305010,0.006073710,0.037674600,-0.008367000
1640836143818249984,-0.042058890,0.012675620,8.859822270,-0.024534770,-0.014734270,-0.011889640
1640836143823289856,-1.007031080,-0.039992080,10.654034610,-0.019955640,-0.129602860,-0.003272300
1640836143824270080,-0.974813460,0.542702440,9.052114490,-0.037668650,-0.020371380,-0.003980100
1640836143826279936,-0.801507770,0.482644050,9.310843470,-0.053633750,-0.081504890,0.005020200
1640836143828349952,-0.994866550,0.505376040,10.879887580,0.001025200,0.070919100,0.012853740
1640836143831040000,-0.083265560,0.838385520,9.460892680,0.014501810,0.015316900,0.006085630
1640836143833319936,-0.032651800,0.627935830,10.693664550,-0.035968420,-0.130215300,0.033727290
1640836143836089856,0.580158350,0.576358080,9.080841060,-0.079590100,0.020618740,0.049363080
1640836143838609920,0.999693930,0.139922650,8.886662480,-0.059854990,-0.045412780,0.009004770
1640836143841359872,0.316315050,-0.069412150,10.514333720,-0.009900330,0.021182000,-0.009296830
1640836143843259904,0.550787030,0.091385520,8.863256450,-0.020051000,0.003996490,-0.010757150
1640836143846069760,-0.299833740,-0.181346190,10.451038360,-0.052227090,-0.121523460,-0.007182360
1640836143848280064,-0.839168790,-0.075474310,9.839537620,-0.069883470,0.006315110,0.002619620
1640836143851059968,-0.801636640,0.134992060,9.104725840,-0.054620210,-0.099141900,0.001458820
1640836143853289728,-1.320903060,0.080513600,10.503446580,-0.010843580,-0.031676890,-0.009544190
1640836143856119808,-0.426810230,0.446280420,8.910028460,-0.002934040,0.032418970,-0.014534590
1640836143858340096,-0.147966790,0.616533580,10.096859930,-0.030706820,-0.031262630,0.003470480
1640836143861090048,0.137846720,0.404502960,10.136943820,-0.061629720,0.058548150,0.028066340
1640836143863249920,0.814710920,0.335425850,9.394404410,-0.021950900,-0.077944990,0.033363700
1640836143866220032,0.323746740,0.048185320,10.154637340,0.023204090,-0.067453090,0.019747020
1640836143869479936,0.499203440,-0.063075480,8.899290080,-0.021238620,0.003197790,-0.014160570
1640836143871199744,-0.020883880,-0.244371710,10.001746180,-0.027547770,-0.028581920,-0.023092330
1640836143873849856,-0.490070790,-0.616231680,9.945446010,0.035329160,0.010836120,-0.057901430
1640836143876250112,-0.374920930,-0.856734160,9.532743450,0.068351630,-0.099121030,-0.078921010
1640836143878389760,-0.824703280,-1.222653750,9.861593250,0.165401430,0.006133320,-0.093641890
1640836143881959936,-0.467562410,-1.756210800,9.119362830,0.223799020,-0.016921760,-0.144128490
1640836143883309824,-0.557951570,-1.431194780,10.345687870,0.249548300,-0.052247940,-0.155486180
1640836143886070016,-0.087551570,-0.906851590,9.209278110,0.202384590,0.044275810,-0.168626000
1640836143888599808,0.326428980,-0.638064030,9.653332710,0.177451980,-0.065749880,-0.176809740
1640836143891849984,0.147102370,0.274352310,9.910367970,0.281120870,0.015321370,-0.163960430
1640836143894230016,0.614998160,0.682631430,8.568615910,0.308059100,-0.031329700,-0.172053250
1640836143896309760,0.176228180,0.879851700,9.781923290,0.301070510,-0.023806100,-0.140117120
1640836143899030016,0.018714420,1.051877740,9.418869020,0.293290620,0.027254230,-0.135459010
1640836143901219840,-0.069897640,0.570639370,9.731995580,0.239299240,-0.065307330,-0.148907320
1640836143903319808,-0.318702040,0.174772590,9.990077020,0.267221030,0.027833880,-0.162717700
1640836143906800128,-0.474743630,-0.241282540,9.931142810,0.334253940,0.010415910,-0.219929220
1640836143909539840,-0.841820600,-0.159215990,10.018054010,0.328642130,-0.071376570,-0.248691440
1640836143911429888,-0.525588510,0.138052850,9.043551450,0.230908440,-0.078468040,-0.242041080
1640836143913280000,-0.474070610,0.314541730,9.227921490,0.175449270,0.013437870,-0.235155240
1640836143916290048,0.018498690,0.758535330,9.395874020,0.223888500,0.027100750,-0.222772390
1640836143918350080,0.230546800,1.022967460,10.369543080,0.268614320,-0.002466140,-0.166961570
1640836143921099776,0.603170990,1.062269090,9.666356090,0.268246230,0.070495910,-0.116774450
1640836143923769856,0.519518020,0.815382300,10.136240010,0.219871090,-0.064596520,-0.099691740
1640836143927009792,0.084237780,0.518448710,9.805198670,0.191772000,-0.030572720,-0.101536510
1640836143928400128,0.290296670,0.274432720,8.478239060,0.169950720,-0.024540720,-0.171135370
1640836143931139840,-0.248233900,0.024987150,9.838763240,0.182490070,0.043748320,-0.230343670
1640836143933459968,-0.376650270,0.231195660,9.620755200,0.209321130,0.100843620,-0.276148410
1640836143936120064,-0.474868210,0.464544060,10.066957470,0.159429010,-0.051501400,-0.278900590
1640836143940829952,-0.806580840,0.509336470,10.078204150,0.132422150,-0.027935210,-0.234274570
1640836143941390080,-0.596802060,0.732675850,9.193321230,0.120572750,-0.058108570,-0.204823930
1640836143943389952,-0.645561810,0.693443720,9.552002910,0.134554480,-0.023369490,-0.175476070
1640836143946209792,-0.313446520,0.561809120,9.705078120,0.159360480,0.056548420,-0.150805710
1640836143948329984,0.040418810,0.566815380,10.133438110,0.162650660,0.033861400,-0.147451510
1640836143951149824,0.337940310,0.626945730,10.207791330,0.114348530,-0.039447850,-0.144553200
1640836143953379840,0.629887700,0.478867950,9.830892560,0.036127870,0.005501510,-0.142891720
1640836143956440064,0.876999260,0.216834370,9.113476750,0.074884300,0.066661840,-0.177988410
1640836143958419968,0.393632560,-0.015456470,10.242085460,0.160573440,0.004214050,-0.230351110
1640836143961239808,0.256627650,0.141949680,9.264995570,0.156837750,0.050324210,-0.229184360
1640836143963359744,-0.075310720,0.077723690,9.088974000,0.095438960,-0.034889580,-0.219249740
1640836143966299904,-1.042732720,-0.099436220,10.359391210,0.047920660,0.021782520,-0.194056330
1640836143968400128,-0.953857900,0.179793040,9.043940540,0.093784930,-0.016817450,-0.181145970
1640836143971379968,-1.403253080,0.164351340,10.287770270,0.137399140,-0.074514770,-0.180472450
1640836143973349888,-0.977860690,0.433350290,9.613904000,0.137491540,0.091359020,-0.178936110
1640836143977890048,-0.267732920,0.915909110,9.841341020,0.094796720,-0.022189320,-0.171300800
1640836143978700032,0.084883200,0.808986900,10.506573680,0.037306550,0.068283080,-0.141705590
1640836143981529856,1.232178450,0.672222140,9.091012000,0.048895190,0.053435570,-0.134858520
1640836143983629824,1.070380810,0.399322450,10.462262150,0.135983530,0.011189280,-0.154723230
1640836143986339840,1.060010430,0.172342850,9.464214320,0.137002770,0.062248120,-0.162933780
1640836143990720000,0.676471350,0.201208470,9.462961200,0.073097650,-0.039660930,-0.158897070
1640836143992120064,-0.457059980,0.034933720,10.187116620,0.020371380,0.037112830,-0.162592530
1640836143993329920,-0.677435040,0.118988950,9.203143120,0.000122190,-0.022217630,-0.170408190
1640836143996460032,-1.344695930,0.336444740,9.945997240,0.075049710,0.003078580,-0.154303010
1640836143998439936,-1.448948620,0.229095700,9.623626710,0.122691710,0.073263060,-0.152081250
1640836144001129984,-1.180512910,0.537842630,9.979428290,0.103744870,-0.049787760,-0.131627920
1640836144003909888,-0.761955260,0.794299900,9.795601840,0.035734480,0.005601350,-0.107690710
1640836144006099968,0.255718680,0.434659990,9.517039300,-0.049178310,0.051072250,-0.113129620
1640836144008319744,0.701723930,0.340766010,10.430208210,0.069774690,0.087061530,-0.107902290
1640836144011139840,1.148689990,0.240130650,9.842147830,0.155080850,0.053936250,-0.151532900
1640836144013329920,1.268439410,0.308993370,9.685495380,0.071318460,0.001285970,-0.123591740
1640836144016150016,0.758334820,0.398274420,9.435364720,-0.009164210,0.049895050,-0.096203390
1640836144018449920,0.311482820,-0.016745580,9.463852880,-0.055472560,0.003455580,-0.128206630
1640836144021250048,-0.478519500,0.251618530,9.907325740,0.037153070,0.032328070,-0.103718050
1640836144023409920,-1.071260210,0.240231380,9.912410740,0.118191560,0.045405340,-0.118581970
1640836144026099968,-1.484379170,0.363830000,10.610779760,0.064522010,0.015342240,-0.119854520
1640836144028349952,-1.514777780,0.943444310,10.005676270,-0.011309980,-0.010277330,-0.080010300
1640836144031109888,-1.023856880,0.516985950,9.678730010,-0.080873060,-0.004179780,-0.085799380
1640836144036739840,-0.266458810,0.656853560,9.470862390,-0.001862650,0.084830810,-0.088524820
1640836144037449728,0.410087230,0.722746850,9.490612030,0.091934200,0.078488890,-0.080385800
1640836144038349824,0.970676660,0.347801920,10.018990520,0.018940870,0.074523690,-0.070881840
1640836144041139968,1.159773590,0.198671790,9.754112240,-0.011444090,0.050394240,-0.025509300
1640836144043309824,0.800203320,-0.383032350,10.091468810,-0.007635350,-0.033321980,-0.036235150
1640836144046129920,0.324487420,-0.453276840,9.815569880,0.004562740,0.004422670,-0.058706100
1640836144048379904,-0.242820840,-0.226198390,9.408302310,0.055420410,0.048787900,-0.083501640
1640836144051219968,-0.867993000,-0.054480540,10.298710820,0.019769370,0.060991940,-0.103686750
1640836144053349888,-1.023359540,0.657256960,9.885569570,-0.002896790,0.045257820,-0.078250480
1640836144059830016,-1.051977040,0.870927450,9.696557040,-0.025409460,0.004546340,-0.043685740
1640836144060459776,-0.950890600,0.792608380,10.089388850,-0.017693640,0.043569510,-0.013811890
1640836144061049856,-0.662364360,0.855683570,9.625086780,0.061477720,0.019222500,-0.004725160
1640836144063729920,-0.254788490,0.641288040,9.868476870,0.022454560,-0.034607950,-0.006181000
1640836144066210048,0.256507960,0.470215680,9.754352570,-0.036630040,0.088036050,0.000374020
1640836144068499968,0.543626610,0.310753610,9.885265350,-0.051175070,0.042387850,0.008831920
1640836144071209984,0.674986420,0.074451480,10.327704430,-0.060170900,-0.002714990,0.005191570
1640836144073279744,0.799498980,-0.137755130,9.256487850,0.007951260,0.049465900,0.021886830
1640836144076209920,0.548307300,-0.314418730,9.550014500,0.058414050,0.038635730,0.011672080
1640836144078400000,-0.072796890,-0.212663650,10.267168050,0.030837950,0.057776280,0.005434450
1640836144081619968,-0.148575620,0.120925090,9.216357230,-0.040192900,0.030231480,0.019866230
1640836144083439872,-0.666795130,0.096286850,10.281600950,-0.076901920,0.035032630,0.010326510
1640836144086180096,-1.062465070,0.373555570,10.056484220,0.012536350,0.094701360,-0.003732740
1640836144089700096,-0.987946030,0.844910920,9.418572430,0.049002480,-0.061601410,0.002281370
1640836144091099904,-1.128319980,0.919311290,9.981734280,-0.007954240,-0.000230970,0.032041970
1640836144093560064,-0.419563230,0.976632830,8.746914860,-0.064702340,0.082644820,0.063800820
1640836144096240128,-0.032165790,0.694967630,10.271046640,-0.082124780,0.011907520,0.074584780
1640836144099200000,0.433904110,0.267942520,10.446532250,-0.025770070,0.133897380,0.086386500
1640836144102119936,1.112791420,-0.117808310,9.693466190,0.051499900,0.052009530,0.062821810
1640836144103770112,0.423639830,-0.222109170,11.050629620,0.037828080,-0.026048720,0.051093090
1640836144106109952,0.663435160,0.050569550,8.611567500,-0.078868870,0.023359060,0.060956190
1640836144108349952,0.224663600,-0.061318710,9.235241890,-0.127795350,-0.000581150,0.037711860
1640836144111140096,-0.505709890,0.209883390,10.024536130,-0.042630740,0.134395060,0.022919480
1640836144113449728,-0.270085010,0.788148400,8.948019030,0.017023090,0.043392190,0.039657950
1640836144116299776,-0.962819930,0.772022190,10.608488080,-0.013218820,0.030374530,0.085790460
1640836144118639872,-0.907676940,0.802091600,9.595307350,-0.062075250,0.108465540,0.135421750
1640836144122710016,-0.770540600,0.598589600,9.869252200,-0.076746950,-0.094552340,0.152529780
1640836144123600128,-0.577114400,0.163778390,9.756801610,-0.063262890,0.060315430,0.146210210
1640836144126089728,0.480991130,0.069215540,8.862149240,-0.018544500,0.140982880,0.101916490
1640836144128379904,0.364509460,-0.046960620,10.923025130,0.012907390,0.100553030,0.090052170
1640836144131140096,0.812065420,0.187711280,9.770902630,-0.063298640,0.090116270,0.105138120
1640836144133539840,0.907529350,0.236026730,9.502630230,-0.121594970,-0.034734610,0.127845990
1640836144136229888,0.194765700,-0.029951360,9.760129930,-0.078991060,0.087490690,0.129534320
1640836144138550016,-0.004487710,0.386755820,8.993288990,-0.003799800,0.044451660,0.115643460
1640836144141100032,-0.924426850,0.595339000,10.250618930,-0.016543270,0.021940470,0.124987970
1640836144143369984,-1.086687680,0.741929110,9.505185130,-0.109946740,0.089246030,0.156761720
1640836144146309888,-1.204289440,0.997356890,10.207105640,-0.148601870,-0.041466960,0.170004400
1640836144148699904,-1.108011360,0.698443000,9.985189440,-0.147292030,0.069746380,0.196294500
1640836144151140096,-0.055677260,0.526445810,8.932503700,-0.044882290,0.060723730,0.178308800
1640836144153339904,0.169395460,0.307701890,10.322057720,-0.006227200,0.114884990,0.156632080
1640836144156109824,1.046453240,0.300737770,9.067196850,-0.109906490,0.130522250,0.190217810
1640836144158479872,1.137191180,-0.064412460,9.851063730,-0.159431990,0.032544140,0.211410220
1640836144161179904,0.716775950,-0.604914670,9.951721190,-0.120058660,0.107239190,0.194925040
1640836144163579904,0.440367910,-0.401465650,9.042258260,-0.003886220,-0.011280180,0.168077650
1640836144166230016,-0.701181350,-0.184717880,10.109359740,-0.000032780,0.009012220,0.148351510
1640836144168419840,-0.949621020,0.375470940,9.154699330,-0.133334100,0.111477070,0.152203410
1640836144171099904,-1.326672320,0.848656240,10.212657930,-0.174085800,0.004114210,0.173580660
1640836144173339904,-1.212215190,1.019023900,10.325611110,-0.154499720,0.090651210,0.204680870
1640836144177009920,-0.293682460,1.151033640,9.150128360,-0.053450460,0.095646070,0.224284840
1640836144179909888,-0.288041320,0.959909980,10.558782580,-0.015814600,0.070589770,0.234180690
1640836144181700096,0.395757620,0.849132060,9.496888160,-0.124180340,0.078970190,0.262513760
1640836144184179968,0.820672040,0.285690130,9.019072530,-0.186607290,0.007861850,0.262175530
1640836144186259968,0.616786180,-0.344476040,9.874716760,-0.169426170,0.103667380,0.230544820
1640836144188379904,0.711319920,-0.321883650,9.206128120,-0.076840820,0.115184490,0.212122500
1640836144191099904,0.209823550,-0.305080380,9.688069340,-0.066415970,0.022092460,0.216886420
1640836144193369856,-0.259947000,-0.196617720,9.951210020,-0.141461190,0.114145880,0.225633350
1640836144197479936,-0.572498320,0.054453670,9.441074370,-0.139495750,0.057499120,0.230135050
1640836144198339840,-1.029209970,0.211777080,10.075600620,-0.127266360,-0.022913520,0.250382750
1640836144201099776,-0.808985650,0.412002150,9.440251350,-0.077487540,0.130164640,0.260713730
1640836144203369728,-0.639871300,0.597488160,9.486101150,-0.051398580,0.112545510,0.244048270
1640836144206560000,-0.641356290,0.799549640,10.664553640,-0.102458890,0.060828040,0.266028970
1640836144208329984,0.097620000,0.857040640,9.019505500,-0.154459460,0.080360470,0.294049050
1640836144211239936,0.295855850,0.541315260,9.568870540,-0.164264440,-0.001418590,0.275039700
1640836144213459968,0.311997030,0.568603520,9.764238360,-0.101779410,0.123880820,0.291790100
1640836144217100032,0.784211220,0.428811730,8.769929890,-0.113359090,0.081139790,0.289611490
1640836144218360064,0.245098310,0.020808630,10.626539230,-0.133468210,0.082382570,0.300337370
1640836144221149952,0.084710530,0.128023460,9.568529130,-0.128614930,0.138670250,0.305347230
1640836144223419904,-0.327405180,-0.003041700,9.858610150,-0.170065510,-0.069320200,0.282584220
1640836144226349824,-0.746919270,0.170514910,9.697562220,-0.169122190,0.066973270,0.292544040
1640836144228449792,-0.302899930,0.276299180,8.385783200,-0.148744900,0.129412110,0.248844970
1640836144231109888,-0.669505540,0.406969990,10.472241400,-0.116619480,0.121279080,0.258657340
1640836144233719808,-0.141003440,0.844666660,9.295283320,-0.138056320,0.158362120,0.304141730
1640836144236179712,0.175722050,0.395081100,9.681941990,-0.181134020,0.015482300,0.336867600
1640836144238380032,-0.126057480,0.174613710,10.009010310,-0.133262560,0.107634050,0.377707210
1640836144241139968,0.413689170,0.085454430,8.653129580,-0.117282580,0.063413390,0.347909360
1640836144243769856,0.046593420,-0.321020480,10.242597580,-0.110451890,0.087179270,0.338640870
1640836144246059776,0.186647070,0.008343260,9.330596920,-0.115023560,0.200104730,0.316503640
1640836144248479744,0.176074860,0.221266360,10.051119800,-0.164110940,0.039885930,0.294703220
1640836144251079936,-0.155419040,0.455746140,10.000240330,-0.190211850,0.147224960,0.330661240
1640836144253369856,0.089072590,0.617413760,8.849946980,-0.146341320,0.100319110,0.316858290
1640836144256559872,-0.633437810,0.549705740,10.418148040,-0.092636050,0.071272250,0.316959590
1640836144258800128,-0.420462100,0.911277710,8.707764630,-0.130553530,0.128461390,0.345770980
1640836144261099776,-0.488306580,0.568175260,9.700470920,-0.187908110,0.052554910,0.349457530
1640836144263569920,-0.669635530,0.308960470,10.095273020,-0.192856820,0.180167000,0.380657670
1640836144266180096,-0.001245120,0.342849280,9.093663220,-0.163479160,0.070476540,0.393621620
1640836144268469760,-0.118341630,-0.274627180,10.462446210,-0.128930820,0.097556410,0.387127670
1640836144271169792,0.552584110,-0.110351790,8.671684270,-0.104717920,0.206886230,0.378501420
1640836144274700032,0.439335170,0.062639060,9.876569750,-0.137321650,0.059053310,0.363303720
1640836144276599808,0.339005200,-0.030635890,9.816864010,-0.215099800,0.194990650,0.385372340
1640836144278390016,0.529772820,0.126201210,8.792352680,-0.153122840,0.102695850,0.369516020
1640836144281179904,-0.474687840,0.054367730,10.591866490,-0.075712820,0.076675420,0.356101990
1640836144283469824,-0.504604520,0.531629920,8.669267650,-0.092531730,0.132347640,0.370107560
1640836144286180096,-0.975468040,0.692474540,9.532614710,-0.166183720,0.014384090,0.357729200
1640836144292130048,-1.084041830,0.800259710,9.951949120,-0.246585940,0.193524410,0.391300080
1640836144293110016,-0.361053170,1.000476960,9.074764250,-0.205384240,0.115725410,0.396633210
1640836144293789952,-0.392911970,0.512954890,10.726802830,-0.141263020,0.118294370,0.414791790
1640836144296890112,0.548304440,0.444179830,9.170086860,-0.102746490,0.221088530,0.414873750
1640836144298650112,0.567506250,0.148005520,9.693557740,-0.141532720,0.059935450,0.404347420
1640836144301169920,0.412449510,-0.224453460,9.722435000,-0.241155950,0.121916850,0.412516390
1640836144306880000,0.670197070,-0.335855190,8.338344570,-0.194196450,0.114929690,0.390459690
1640836144307760128,-0.236708340,-0.434790370,9.988063810,-0.120361150,0.082319970,0.369679960
1640836144308509952,-0.304651650,0.028157680,9.190218930,-0.123582780,0.161823650,0.381456320
1640836144311049984,-0.599453390,0.184124570,9.290843010,-0.157512740,0.084662420,0.389504430
1640836144313329920,-0.971039950,0.341841880,10.264025690,-0.201581450,0.141315210,0.394433800
1640836144316219904,-0.488919380,0.808144150,9.064871790,-0.159706190,0.112752620,0.387559830
1640836144318699776,-0.416066590,0.666907550,9.604163170,-0.160647910,0.078919520,0.394035850
1640836144321100032,0.066162480,0.631715830,9.399902340,-0.136871640,0.234617340,0.418654170
1640836144325549824,0.168623160,0.359784840,9.586947440,-0.111582900,0.140568640,0.412580460
1640836144326370048,-0.011982540,0.225945650,10.082667350,-0.178918290,0.045287620,0.419837300
1640836144328539904,0.258487110,0.137060240,8.626033780,-0.199891660,0.097487890,0.421783390
1640836144331099904,-0.096587560,-0.161271740,9.343644140,-0.204274100,0.099162770,0.391268790
1640836144335289856,-0.288030450,0.068147890,9.836290360,-0.141276460,0.153727830,0.401380690
1640836144336109824,-0.008879730,0.062650400,9.081665990,-0.117674480,0.134263950,0.397117440
1640836144338559744,-0.278827760,0.135706440,10.169906620,-0.160895300,0.129269060,0.396201040
1640836144341410048,-0.218286280,0.518694280,9.577847480,-0.170618330,0.134731870,0.416196970
1640836144343409920,-0.220949660,0.400943960,9.163115500,-0.199270290,0.031986830,0.400550750
1640836144346540032,-0.380051200,0.498868050,9.426344870,-0.164331510,0.141260040,0.402347800
1640836144348429824,-0.110378500,0.538866460,8.844881060,-0.125963970,0.163955960,0.396330680
1640836144351369984,-0.246183600,0.450117080,9.802390100,-0.170937180,0.100743790,0.397855130
1640836144353449728,-0.005181830,0.466178510,9.209950450,-0.201879470,0.181025310,0.432121810
1640836144358889728,0.007994840,0.009209110,9.518178940,-0.205494510,0.096116980,0.415273070
1640836144361009920,-0.341463360,-0.117876870,10.102447510,-0.127035360,0.072591010,0.418931280
1640836144363489792,0.198041950,-0.075484530,8.523756030,-0.116261840,0.114741930,0.413364200
1640836144365989888,-0.053863800,-0.198346940,9.752173420,-0.164292780,0.156480120,0.410185810
1640836144367139840,-0.231081320,0.103080730,9.978489880,-0.163121520,0.213436780,0.415208970
1640836144368379904,-0.109145830,0.372305810,9.618811610,-0.186452280,0.033895670,0.389073820
1640836144371089920,-0.480896000,0.556291700,9.706025120,-0.171907250,0.051748760,0.387454060
1640836144373519872,-0.170948180,0.814892350,8.324169160,-0.154773880,0.126937030,0.387923450
1640836144376189952,-0.372465850,0.821498510,9.356108670,-0.178591920,0.115573430,0.394158120
1640836144378659840,-0.194145230,0.759282590,9.479490280,-0.196321350,0.199443100,0.447113900
1640836144382729984,0.139168410,0.288453550,9.558992390,-0.197786140,0.132024320,0.450031520
1640836144383790080,-0.318937630,-0.161775690,10.413381580,-0.126959380,0.060118750,0.450265470
1640836144386400000,0.121445640,-0.339050290,8.759078030,-0.132267180,0.080212950,0.452850850
1640836144388710144,-0.043253130,-0.698609890,9.214809420,-0.161562890,0.129188610,0.411817490
1640836144391160064,-0.164011080,-0.556000770,9.521363260,-0.142420830,0.212332620,0.389279450
1640836144393339904,0.180735570,-0.111331150,9.076200490,-0.139054660,0.108273320,0.378708480
1640836144396169984,-0.199974660,0.063138230,9.604266170,-0.128008440,0.118270540,0.378158690
1640836144398429952,-0.168783720,0.446895090,9.178360940,-0.112880790,0.124007480,0.399969550
1640836144401209856,-0.654256050,0.683843260,9.716806410,-0.097054230,0.026117270,0.395098360
1640836144403990016,-0.592560770,0.707303940,9.137573240,-0.136736080,0.097711400,0.414799240
1640836144406529792,-0.294879200,0.728563550,9.263390540,-0.144785660,0.173860830,0.424499870
1640836144408379904,-0.625696540,0.586246910,10.353979110,-0.117160400,0.143620370,0.419095250
1640836144411199744,-0.108336610,0.551353040,9.488229750,-0.144052520,0.033882260,0.439629020
1640836144413420032,0.141055290,0.131959750,8.871989250,-0.136783720,0.069920730,0.434495510
1640836144416219904,0.296352680,-0.294433150,8.962261200,-0.116685050,0.163102180,0.400054540
1640836144421270016,0.505160270,-0.201735570,9.307717320,-0.095188630,0.164389610,0.385543730
1640836144423219968,0.314039290,-0.315920770,9.414159770,-0.109469890,0.124518580,0.381149380
1640836144423640064,0.087564220,-0.212439430,9.598158840,-0.138874350,0.085464130,0.385819380
1640836144426169856,-0.507942380,0.029116530,9.330556870,-0.089390580,0.040477520,0.384186150
1640836144428369920,-0.818901900,0.179724190,8.966676710,-0.101473930,0.029098990,0.376699810
1640836144431139840,-0.889127430,0.506520390,9.168745040,-0.087124110,0.145728900,0.397726920
1640836144433399808,-0.868064050,0.714534160,9.705041890,-0.085552040,0.120206180,0.391066070
1640836144436249856,-0.322917820,0.936779920,9.879527090,-0.150488350,0.100436820,0.423157300
1640836144438829824,0.209261030,0.869560060,9.309288020,-0.139665630,0.138331960,0.438636600
1640836144441149952,0.340421500,0.276053990,9.719990730,-0.120627880,0.102715220,0.412176640
1640836144443339776,0.496322100,0.187792180,9.147023200,-0.055675210,0.083899500,0.403291080
1640836144446169856,0.405401560,-0.063706280,8.511760710,-0.081066790,0.044146180,0.391921400
1640836144448549888,0.118097290,-0.298562590,9.056425090,-0.161667210,0.142714410,0.405471120
1640836144451289856,-0.256922840,-0.180749100,9.277251240,-0.131146620,0.126914680,0.407497580
1640836144453549824,-0.706258650,-0.235350310,9.937543870,-0.124809150,0.029125810,0.388421150
1640836144456329728,-0.693650250,0.026474360,9.255905150,-0.063256920,0.101380050,0.386431840
1640836144458419968,-0.834507700,0.201135050,9.255574230,-0.035984820,0.055237120,0.358948140
1640836144461199872,-0.598698560,0.617611290,9.336852070,-0.112415840,0.093583750,0.379714310
1640836144463460096,0.060769390,0.775316060,8.688705440,-0.157129760,0.145608200,0.420478050
1640836144466369792,0.119093370,0.409857600,9.844043730,-0.134737800,0.143140600,0.414539930
1640836144468989952,0.284296270,0.430331290,9.681560520,-0.025473540,0.098854310,0.417402390
1640836144472189952,0.207112640,0.347514510,9.145799640,-0.027731060,-0.026202210,0.419537780
1640836144473340160,0.063705210,0.225097120,8.899134640,-0.156091180,0.080898430,0.419512450
1640836144476399872,-0.045802540,0.199583830,8.969231610,-0.177092890,0.131820190,0.420047400
1640836144478710016,-0.240090910,-0.036962730,9.591579440,-0.140422580,0.108301650,0.395457450
1640836144481179904,-0.094210440,-0.113679820,9.384287830,-0.037367650,0.125464800,0.379925970
1640836144483820032,-0.405378280,0.003260680,9.639810560,0.001062450,0.076337160,0.364032420
1640836144486629888,-0.490720840,0.201910320,9.236131670,-0.103828330,0.030665100,0.370165800
1640836144491419904,-0.356711120,0.244354960,8.818531990,-0.171935590,0.064049680,0.394377170
1640836144492940032,-0.372021200,0.135024560,9.060979840,-0.130259990,0.156211870,0.382512840
1640836144494870016,-0.231086600,0.202028860,9.597805980,-0.012071430,0.086878240,0.387540490
1640836144496140032,-0.103939700,0.387486250,9.335524560,0.001016260,0.082406410,0.402963160
1640836144498720000,0.088382450,0.216628360,8.935244560,-0.093501810,0.075630840,0.411264630
1640836144501279744,-0.165493070,-0.048951470,9.789424900,-0.110924260,0.052733730,0.430476750
1640836144503439872,0.053460190,-0.042223120,8.848120690,-0.079715260,0.078412890,0.396019250
1640836144508239872,0.127346400,-0.211275530,9.401262280,-0.025020540,0.080941620,0.380405810
1640836144509209856,-0.310340460,0.054271940,10.058166500,0.014871360,0.173510610,0.375850530
1640836144511119872,-0.280428890,0.340396850,9.405898090,-0.053161390,-0.004619360,0.346994430
1640836144514780160,-0.709837080,0.421355250,9.635452270,-0.115868450,-0.047397620,0.375604630
1640836144517050112,-0.391375040,0.676855500,7.943646430,-0.104239580,0.097337350,0.371076140
1640836144518380032,-0.418649140,0.542116220,9.331660270,-0.049951680,0.065356490,0.356505840
1640836144523389696,-0.311661630,0.730039300,9.616396900,-0.021858510,0.160978700,0.395595970
1640836144524410112,0.233130130,0.377149370,9.137444500,-0.058342530,0.038819020,0.400732490
1640836144526789888,-0.172007960,-0.185161130,10.341595650,-0.069367890,0.024630130,0.430801510
1640836144528450048,0.160180170,-0.177765120,8.492894170,-0.058397660,0.036872920,0.415769250
1640836144531459840,0.081029060,-0.631137190,9.214658740,-0.040960320,-0.002810360,0.379732250
1640836144533619968,0.064908480,-0.397001800,9.006185530,-0.007861850,0.199413330,0.359758820
1640836144536189952,0.314775650,0.077314440,9.133449550,-0.025603180,0.080507990,0.337660340
1640836144538609920,-0.182200660,0.187374930,10.270149230,-0.076071930,0.088049470,0.368315010
1640836144541119744,0.011225150,0.585680900,8.688268660,-0.054118040,0.070056310,0.372348700
1640836144547329792,-0.687559190,0.600713010,9.779522900,-0.019449000,-0.048504770,0.352269410
1640836144548199936,-0.758904870,0.809905590,8.488248830,-0.030867760,0.071248420,0.372517110
1640836144548589824,-0.508396390,0.760085580,8.771731380,-0.057303910,0.060766940,0.366197530
1640836144551169792,-0.914637390,0.516379650,10.380042080,-0.076508520,0.144778210,0.376634270
1640836144553419776,-0.053581800,0.607843940,9.080691340,-0.081627060,0.023587040,0.408498910
1640836144556169984,0.118492220,0.019392580,9.739620210,-0.070635970,0.009721520,0.400242240
1640836144558640128,0.574787560,-0.364350590,8.684785840,-0.021298230,0.167402640,0.385715070
1640836144561209856,0.786415580,-0.231389030,9.229743960,-0.001852210,0.076507030,0.352649390
1640836144563500032,0.406913730,-0.490108400,9.481673240,-0.051885840,0.102761400,0.363141300
1640836144566180096,0.490541930,-0.413078990,8.779726980,-0.057090820,0.056312980,0.349003080
1640836144568419840,-0.573103850,-0.178485930,9.831163410,-0.007812680,0.044322020,0.321680310
1640836144572000000,-0.912606180,0.223126350,8.865326880,-0.015465920,0.009047990,0.328923790
1640836144573359872,-1.139133210,0.622325960,9.156252860,-0.018467010,0.009265540,0.332538780
1640836144576199936,-1.231632110,0.915072860,9.331665990,-0.046688320,0.142195820,0.351686810
1640836144578480128,-0.619123220,1.147163510,9.755679130,-0.081814830,0.046120590,0.388565660
1640836144581120000,-0.234293980,0.912524460,9.754745480,-0.048458580,0.099070380,0.402995970
1640836144583379968,0.582403240,0.377298300,8.999311450,-0.027234850,0.067882240,0.392819970
1640836144586159872,0.604160900,0.116342270,9.750487330,0.012795630,0.075200200,0.387504730
1640836144588669952,0.703189850,-0.257847100,8.645395280,-0.033740710,0.054918240,0.363157750
1640836144591339776,0.567433540,-0.581386390,9.207216260,-0.085063280,0.021687150,0.343994830
1640836144593449728,0.158467900,-0.425749090,8.963837620,-0.028578940,0.139117260,0.333252610
1640836144597059840,-0.127033930,-0.306070210,9.090858460,-0.034773350,0.028547640,0.311219720
1640836144598379776,-0.686232210,0.070465510,9.699724200,0.004349650,0.114724060,0.342738630
1640836144601069824,-0.925047870,0.271531970,9.071954730,0.012673440,0.052084020,0.333367230
1640836144603389952,-1.241951940,0.562384670,9.901753430,-0.020882490,-0.051213810,0.353373680
1640836144606249728,-0.774607960,0.826206680,8.471548080,-0.032095620,0.083941240,0.371156720
1640836144608359936,-0.405237560,0.513997380,9.355196000,-0.042355060,0.098745520,0.351809000
1640836144611169792,-0.137438010,0.657701970,10.145675660,0.019118190,0.153826190,0.363844660
1640836144613529856,0.444284890,0.549925450,9.187266350,0.004030760,0.002416970,0.350871680
1640836144616329984,0.580366080,0.171968030,9.330749510,-0.050781670,0.004900990,0.364859400
1640836144618350080,0.676769440,0.109479540,8.474972720,-0.037878760,0.100798930,0.354349670
1640836144621139968,0.333639060,-0.084826170,9.137073520,-0.060240930,0.033447150,0.325493510
1640836144624369920,-0.059758770,-0.048797530,9.435974120,-0.032347440,0.093518210,0.331607490
1640836144626309888,-0.487962100,0.085402000,9.378056530,-0.018160050,0.042696300,0.320386920
1640836144628429824,-1.198475120,0.173666890,9.992488860,-0.031541290,-0.038503110,0.327429210
1640836144631099904,-1.090334650,0.364408790,8.834383960,-0.037744640,-0.008705260,0.339974490
1640836144633359872,-0.836430370,0.454499840,8.823750500,-0.059498850,0.070159140,0.329804420
1640836144636119808,-0.435939760,0.521092890,9.564633370,-0.031639640,0.146347310,0.350140120
1640836144639190016,0.224025640,0.571163890,9.417058940,-0.019705300,0.103685280,0.357945260
1640836144641039872,0.638793890,0.212005900,9.404581070,-0.017614670,0.017164650,0.376255900
1640836144643520000,0.660761240,-0.138269420,9.261172290,-0.000780820,0.017452240,0.377728040
1640836144646189824,0.539942090,-0.191667200,8.609943390,-0.015780330,0.031109160,0.341655370
1640836144648559872,0.146028500,-0.405573700,9.339226720,-0.038681920,0.044101470,0.316224960
1640836144651160064,-0.273985000,-0.115564850,9.514769550,-0.018282240,0.125300900,0.309748980
1640836144653359872,-0.498230010,0.299219070,9.611733440,-0.012271110,0.019106270,0.302057000
1640836144657629952,-0.846912980,0.482435290,9.870482440,-0.035978860,0.013910240,0.346700910
1640836144659239936,-0.603742300,0.701071200,8.473312380,-0.015845890,0.074017070,0.349985120
1640836144661129984,-0.690454540,0.528536080,9.590838430,-0.000205640,0.038126100,0.326342820
1640836144663419904,-0.345674190,0.674533670,9.164289470,0.000642240,0.105445100,0.349320560
1640836144666159872,0.215013410,0.348284900,8.975551610,-0.021158160,0.028175120,0.330589740
1640836144668470016,0.144149290,0.022161710,9.862324710,-0.030624870,0.104169560,0.331172440
1640836144671239936,0.654856090,0.185862750,8.614793780,-0.031550220,0.076447410,0.343318220
1640836144673339904,0.381979850,-0.412020680,9.680099490,-0.020490590,0.030960150,0.351639090
1640836144676079872,0.228644240,-0.347423610,8.891275410,0.037828100,0.134447220,0.352907210
1640836144678390016,0.055271080,-0.126963690,9.170187950,0.036351380,0.007839500,0.335082410
1640836144681149952,-0.505225000,-0.265344140,9.663177490,-0.017422440,0.088720030,0.351266590
1640836144683419904,-0.284781720,0.026118410,8.693371770,0.011014940,0.094038260,0.317402180
1640836144686129920,-1.037815090,0.299473350,10.310188290,0.032433870,0.056079030,0.287410620
1640836144689539840,-0.812426570,0.774670360,8.944609640,0.006181000,0.045485790,0.305126640
1640836144692219904,-0.593968810,0.936044450,9.000060080,-0.003337860,-0.025004150,0.295965370
1640836144694619904,-0.555576380,0.998987620,9.157686230,-0.029024480,0.121889990,0.317248670
1640836144696039936,0.304554130,1.055036070,8.862865450,-0.041715810,0.073283920,0.361655710
1640836144698669824,0.344093890,0.315597740,10.039555550,-0.017602740,0.135676580,0.374914650
1640836144701149952,0.676926730,-0.171956140,9.452283860,0.034318860,0.107961900,0.381423560
1640836144703379968,0.398656250,-0.433234070,9.830678940,0.055797400,-0.022421780,0.362983380
1640836144706119936,0.126569540,-0.750504970,8.623936650,-0.028683250,0.044941910,0.338791310
1640836144708559872,0.049220150,-0.567640720,8.552188870,-0.046303860,0.059327480,0.296029450
1640836144711129856,-0.609097480,-0.242123340,9.360817910,-0.000378490,0.173930790,0.262884800
1640836144713430016,-0.683583560,0.209737240,9.305252080,0.025643400,0.036482510,0.286102240
1640836144716120064,-1.004087570,0.554272830,9.744290350,0.076873610,0.012728570,0.323772430
1640836144718550016,-0.852814500,0.744097770,8.786937710,0.025732820,0.046344110,0.344087120
1640836144721159936,-0.696180760,0.801615300,9.693587300,-0.030285120,0.010061260,0.369234410
1640836144723939840,-0.209658380,0.455372210,9.019352910,0.012573600,0.153872370,0.357577290
1640836144726969856,0.376568320,0.246940580,9.408527370,0.056298080,0.051254030,0.318741770
1640836144728580096,0.510210990,0.468197820,9.751865390,0.059737280,0.104732830,0.339405330
1640836144731079936,0.862029080,0.124451540,8.583079340,-0.039805460,0.046336650,0.329498920
1640836144733369856,0.362878320,-0.190356700,9.789638520,-0.041882700,0.034512580,0.331887630
1640836144736079872,-0.005891870,-0.081450120,8.686417580,0.039337580,0.093895200,0.302822890
1640836144738749952,-0.601748940,-0.136728610,9.463097570,0.043480100,-0.043439860,0.297589630
1640836144741779968,-0.913137910,0.257422360,9.267208100,0.035639110,0.106354060,0.318346920
1640836144746739968,-0.885706840,0.460001590,9.101647380,-0.046417120,0.045576700,0.300712880
1640836144747249920,-1.024843570,0.509304340,10.225696560,-0.045587130,0.047244140,0.343520940
1640836144748389888,-0.248138560,0.444499580,8.574368480,0.042504080,0.084635620,0.325663420
1640836144751059968,-0.074005340,0.427401900,9.533613200,0.078953800,0.025866920,0.304134130
1640836144753489920,0.370366810,0.662799480,9.023317340,0.018070640,0.131644320,0.347024200
1640836144756209920,0.826341630,0.134981570,8.880450250,-0.082016010,0.059209780,0.344149770
1640836144760560128,0.408889710,-0.288254380,9.925963400,-0.010380150,0.091195110,0.347876580
1640836144761580032,0.396095070,-0.254419890,8.786202430,0.079998380,0.051715970,0.314755740
1640836144763459840,-0.329202410,-0.294790860,9.513158800,0.055618590,-0.032354900,0.299355390
1640836144766099968,-0.659767810,-0.040674530,9.001650810,0.012175740,0.090171400,0.303933050
1640836144768450048,-0.747085930,0.277697440,9.115918160,-0.045858320,0.054289400,0.294566150
1640836144771200000,-1.043309810,0.346469880,10.191704750,-0.011187790,0.078001620,0.317528780
1640836144773440000,-0.551947950,0.519671740,9.252484320,0.081977260,0.086425230,0.321435960
1640836144776919808,-0.547233460,0.793793500,9.669124600,0.087095800,0.003972650,0.314578350
1640836144778380032,-0.257935520,0.756134870,9.206061360,-0.003525620,0.039571520,0.351296400
1640836144781159936,0.306185600,0.409755710,8.461930270,-0.046484160,0.055791440,0.345343320
1640836144783369984,0.193324490,0.017888510,9.514667510,0.028122960,0.070911650,0.332008300
1640836144786319872,0.476119520,-0.026867730,9.121368410,0.062078240,0.089535120,0.335548850
1640836144788480000,0.313726990,-0.140852210,9.183049200,0.035630170,0.029969220,0.336328180
1640836144791219968,-0.149347570,-0.619434830,9.773797040,0.024953490,0.051391120,0.333483520
1640836144793710080,-0.372222630,-0.333483370,9.190874100,0.049078480,0.014282760,0.317752450
1640836144796140032,-0.657137040,-0.237389610,9.230002400,0.062982750,-0.019183760,0.325754280
1640836144798729984,-0.615514870,-0.056072370,9.150696750,0.068458920,0.122579930,0.325602320
1640836144801070080,-0.573185380,0.517507140,9.431157110,0.084610280,0.095263130,0.310766730
1640836144803449856,-0.743423280,0.565951820,10.175813670,0.040811290,0.005945560,0.335942150
1640836144806409728,-0.194802540,0.814198970,8.737090110,0.057652590,-0.014033910,0.337415930
1640836144808440064,-0.049774480,0.905591730,8.965561870,0.058279920,0.009000300,0.329533160
1640836144811139840,0.213982910,0.895842250,9.136214260,0.002966820,0.136445480,0.354559810
1640836144813439744,0.551960590,0.649363340,9.213667870,0.006534160,0.088873510,0.367325570
1640836144816150016,0.217155780,0.007567880,10.420086860,0.040633980,0.061865160,0.360007580
1640836144818820096,0.258337860,-0.049187870,9.175159450,0.084979850,0.013896830,0.363242690
1640836144821080064,-0.334343220,-0.395402370,9.320365910,0.049680480,-0.067941850,0.343628320
1640836144823479808,-0.455599100,-0.462813260,8.568480490,-0.007413330,0.116083030,0.322668280
1640836144826759936,-0.468493670,-0.117583450,8.833198550,0.022730230,0.077779600,0.303660330
1640836144828399872,-0.855925800,-0.001895390,10.069974900,0.022000070,0.095936660,0.298704210
1640836144831019776,-0.289538060,0.385437910,8.836703300,0.085023050,0.038063530,0.326594710
1640836144833429760,-0.628743170,0.467266050,9.908576010,0.090803200,-0.019264220,0.329168110
1640836144836189952,-0.295729730,0.682274280,8.986917500,0.012482710,0.065499570,0.351925250
1640836144838479872,0.073537860,0.630356010,9.069003110,-0.002492960,0.014872850,0.367535680
1640836144841559808,0.044004790,0.235688730,9.799139020,0.029864910,0.149858000,0.351575020
1640836144843399936,0.514726160,0.405607760,9.167032240,0.088307260,0.054381800,0.346343220
1640836144846109952,0.050922580,0.215382100,9.917628290,0.063353780,-0.007218120,0.348435370
1640836144848649984,0.142720430,-0.064156560,8.508663180,-0.007340310,0.048567350,0.341004160
1640836144851219968,-0.272141550,-0.038631680,9.171768190,0.011220580,-0.001376870,0.311131780
1640836144853400064,-0.653973820,-0.082752970,9.284760480,0.023473800,0.097297120,0.306563080
1640836144856559872,-0.562774000,0.000818340,9.251158710,0.063908110,0.021594760,0.310744350
1640836144858449920,-1.100439550,0.203105640,10.088353160,0.093819190,0.022122260,0.336943510
1640836144861120000,-0.574718950,0.309420940,8.723272320,0.018034880,-0.018283720,0.349269810
