timestamp,accel_x,accel_y,accel_z,gyro_x,gyro_y,gyro_z
1640791895882149888,0.318963470,0.689988140,9.514346120,-0.063118350,0.038057570,-0.027397270
1640791895883659776,-0.031546300,0.513730170,10.278431890,-0.108349330,-0.022049250,-0.021502380
1640791895887929856,0.053263320,0.381984260,9.560566900,-0.104340910,0.009149310,-0.032405560
1640791895889089792,0.067801770,0.398291320,9.271715160,-0.054013740,0.026607520,-0.043496490
1640791895892230144,-0.355326380,0.307660010,10.150741580,-0.068847840,0.054186580,-0.047673290
1640791895893929984,-0.317908760,0.278633150,9.867312430,-0.104719410,0.020775200,-0.027818980
1640791895897309952,-0.348622440,0.043342990,9.936518670,-0.103983290,-0.037305060,-0.033351780
1640791895898659840,-0.214393020,-0.123817940,9.515500070,-0.090272750,0.026522580,-0.032459200
1640791895903030016,0.075643090,-0.040207550,9.285770420,-0.042301420,0.087486210,-0.032503900
1640791895904339968,-0.100474800,-0.075820650,10.274158480,-0.038190190,0.048592690,-0.048267840
1640791895908189952,0.053107150,-0.003093100,9.813343050,-0.060163440,-0.012844800,-0.031429530
1640791895908819968,0.164082240,0.034567300,9.369319920,-0.049129140,-0.012151900,-0.021760170
1640791895912259840,-0.068402020,-0.027869140,9.665865900,-0.044782460,0.044004620,-0.038979950
1640791895913719808,0.054004180,0.115459580,9.616951940,-0.020304320,0.075095890,-0.034874680
1640791895917179904,-0.146471890,0.181427870,10.015574460,-0.000497700,0.024929640,-0.054895880
1640791895919089920,-0.201345530,0.182911680,9.664227490,-0.021497900,0.005453820,-0.039929150
1640791895922299904,-0.198300880,0.170151990,9.456289290,-0.017288320,0.015868250,-0.020013750
1640791895923650048,-0.585449460,-0.102105240,9.983080860,0.002121930,0.004519520,-0.041960190
1640791895929070080,-0.375863280,-0.058168750,9.526123050,0.021846590,-0.017385180,-0.046832860
1640791895930129920,-0.201853290,0.053485290,9.356893540,0.029100480,0.024548170,-0.045718250
1640791895932229888,-0.151416420,-0.099342860,9.977121350,-0.003463030,0.073063380,-0.055019560
1640791895933849856,0.017108950,0.170646210,10.193458560,0.023941690,0.037072600,-0.043289360
1640791895937189888,-0.268537040,0.178906400,10.211439130,0.044432280,-0.086648750,-0.042328240
1640791895940249856,-0.050093340,0.224335580,9.173987390,0.039541730,-0.069029630,-0.041349240
1640791895942240000,0.009842590,0.473381250,9.082369800,0.028090180,0.050905350,-0.044184920
1640791895943800064,-0.363222090,0.423594470,10.478949550,0.001226370,0.058284390,-0.052803750
1640791895947140096,-0.141230600,0.546464260,10.292847630,0.006245080,-0.028969350,-0.024567550
1640791895948679936,-0.178991720,0.445268030,9.821149830,0.030462440,-0.083355610,-0.038555260
1640791895952459776,-0.203339620,0.396530990,9.703903200,0.016964970,0.006525220,-0.049138070
1640791895954049792,-0.222957800,0.628347520,9.586061480,-0.013244150,0.033818180,-0.027096270
1640791895957309952,-0.474646930,0.409277350,10.231114390,-0.029818720,-0.074826180,-0.038580600
1640791895958720000,0.024774030,0.477256240,9.428378110,-0.038155910,-0.029951330,-0.020216410
1640791895962210048,0.120194800,0.579416330,9.489653590,-0.020243230,0.035022200,-0.029861930
1640791895963660032,-0.160555360,0.472718480,10.768514630,-0.046335160,0.016967950,-0.025598700
1640791895967239936,0.055711340,0.531025290,9.972546580,-0.052575770,-0.038822000,-0.007042290
1640791895969009920,-0.156562950,0.298846900,9.809525490,-0.037108370,-0.116690980,-0.032059850
1640791895974069760,-0.084080700,0.386998150,9.399268150,-0.051674250,-0.001810490,-0.021764640
1640791895974599936,0.059710870,0.565427720,9.155068400,-0.089119380,0.056780870,-0.009034570
1640791895977169920,-0.108318860,0.165873320,10.480001450,-0.088775170,0.014007090,-0.018817190
1640791895978659840,0.200755120,0.133551790,9.889884950,-0.037032370,0.027874110,-0.022360680
1640791895982519808,0.037941250,0.172921170,9.798565860,-0.004376470,-0.051116940,-0.021983680
1640791895983660032,-0.217220430,0.086626050,10.032369610,-0.062763700,-0.021542610,-0.005024670
1640791895987299840,-0.021094820,0.146440850,9.025815010,-0.108115380,0.018763540,-0.001469250
1640791895988699904,-0.162152170,-0.134427500,9.776158330,-0.056195260,0.009043520,-0.026015940
1640791895992189952,0.036638960,-0.022158790,9.669656750,0.005972390,0.080895420,-0.009438400
1640791895993719808,0.031508310,0.153105740,9.723180770,0.019052630,0.012239810,-0.013507900
1640791895997149952,-0.282664540,0.024278440,10.491483690,-0.036546590,-0.029279300,-0.007855890
1640791895999159808,-0.010655440,0.054814780,9.219421390,-0.056265290,-0.009694700,-0.007537010
1640791896002709760,-0.109472060,-0.115964360,9.393723490,0.001460310,-0.003352760,-0.029301640
1640791896004459776,-0.074726190,-0.085276500,9.759216310,0.034235420,0.103420040,-0.037653740
1640791896007299840,0.016915330,0.195067940,9.709394450,0.041183830,0.052371620,-0.034309920
1640791896008630016,-0.268153490,0.051074000,10.340832710,0.002881880,-0.060828030,-0.023972990
1640791896012339712,-0.023679080,0.070478100,9.086969380,-0.007805230,-0.015027820,0.001122060
1640791896013929728,-0.196367960,-0.077166330,9.392796520,0.044049330,0.021687150,-0.010937450
1640791896017179904,-0.436704520,-0.103311200,10.300573350,0.079238410,0.065408650,-0.016860670
1640791896018919936,-0.197128240,0.251808760,9.555551530,0.074322520,-0.004088880,-0.028707090
1640791896022259968,-0.245323660,0.251219900,9.917135240,0.028680260,-0.042112160,-0.025109940
1640791896025120000,-0.088106160,0.369669470,9.541508670,0.003744660,0.054883960,-0.020094220
1640791896027219968,-0.234459390,0.454298970,9.833926200,0.045539430,-0.018000600,-0.031554700
1640791896028679936,-0.345452400,0.445802750,10.188746450,0.067904600,-0.052584710,-0.026884680
1640791896032199936,0.020268120,0.594880520,9.135691640,0.041566790,0.004038220,-0.012436510
1640791896033619968,-0.099571070,0.582523940,10.075129510,-0.000004470,0.018502770,-0.016635660
1640791896041250048,-0.167666780,0.618176940,10.450848580,-0.036334990,0.015588110,0.001977380
1640791896042019840,0.049809890,0.459640650,9.687712670,0.000992420,-0.065112120,0.005912780
1640791896042500096,-0.099062630,0.347498830,9.798210140,0.020770730,-0.044921040,-0.017569960
1640791896043649792,-0.118713290,0.485581250,9.405241970,-0.008089840,0.058934090,-0.001475220
1640791896047269888,-0.293504120,0.509614110,10.120411870,-0.047658390,-0.033584230,0.002905730
1640791896048659968,-0.355569870,0.407089290,10.272477150,-0.080022220,-0.066900250,0.000196700
1640791896052549888,0.035118460,0.553220750,9.259751320,-0.054357960,-0.010107460,-0.010137260
1640791896053880064,-0.019145250,0.553427520,9.995210650,-0.039857620,0.029252470,-0.023268160
1640791896058140160,-0.005775850,0.576769950,10.263134960,-0.059017540,0.045703350,-0.005324180
1640791896058640128,0.165323900,0.479635270,9.846381190,-0.067506730,-0.057981920,-0.003519650
1640791896062709760,0.065262570,0.320985320,9.738906860,-0.082871300,-0.063842540,0.003403420
1640791896063680000,0.175746370,0.225211190,9.164770130,-0.080928200,0.033532080,0.023621320
1640791896067149824,0.103556280,0.040715940,9.749080660,-0.072492640,0.046800070,0.013089180
1640791896068689920,-0.032622560,-0.130837490,10.308619500,-0.060583650,0.026807190,0.004571680
1640791896072339968,0.095394480,-0.057329340,9.718145370,-0.028981270,0.001074370,0.003436210
1640791896073679872,-0.195808250,0.002615560,9.824138640,-0.053028760,-0.023981930,0.003948810
1640791896077420032,-0.304470270,-0.025336090,9.680793760,-0.077702110,0.004820530,0.006358330
1640791896078779904,-0.152530390,0.069350500,9.363727570,-0.048862400,0.008882580,-0.015841430
1640791896082190080,-0.221024800,0.194970970,9.636430740,-0.025886300,0.023585550,-0.018057230
1640791896083649792,0.094109450,0.327885150,9.567182540,-0.019015370,0.082737210,-0.007632380
1640791896087259904,0.038856710,0.295752380,10.171418190,-0.033295150,0.034558770,-0.003950300
1640791896088679936,-0.135540520,-0.008594390,10.317764280,-0.023673470,-0.028678770,0.009651480
1640791896092179968,0.029590680,-0.094955530,9.228586200,0.033670660,-0.038035210,0.018303100
1640791896093920000,-0.168621940,-0.187474150,9.223537450,0.020767750,0.013798480,-0.004030760
1640791896097209856,-0.090953920,-0.169450180,9.671141620,-0.003160540,0.117573140,-0.005435940
1640791896098649856,-0.182506730,0.022648270,10.216173170,0.004836920,0.033938880,-0.012791160
1640791896102599936,-0.348897870,0.057348670,10.350937840,0.024206940,-0.073647500,-0.003983080
1640791896103940096,-0.073015960,0.302090500,9.267787930,0.036410990,-0.013799970,-0.005427000
1640791896107499776,-0.334683780,0.509853600,9.754952430,0.019280610,0.032763190,-0.026041270
1640791896108709888,-0.459476470,0.607870460,10.358492850,0.000217560,0.032319130,0.004182760
1640791896112160000,-0.085342390,0.756895540,9.580278400,-0.002546610,-0.032323600,0.006417930
1640791896113629696,-0.083080690,0.653598550,9.857600210,-0.000314410,-0.023187700,-0.001817940
1640791896117129984,0.106325090,0.705489100,9.748195650,-0.009773670,0.086970630,0.013464690
1640791896119089920,-0.062394040,0.592097160,10.077810290,-0.022627410,-0.015494230,0.002115960
1640791896122429952,-0.246150170,0.293841330,10.289809230,-0.037913030,-0.065720090,0.009870530
1640791896124329984,0.078034570,0.401709230,9.069376950,-0.047382710,-0.001128020,0.004373490
1640791896127909888,-0.186043020,0.402905700,9.961974140,-0.075034800,0.023591520,-0.001564620
1640791896128699904,-0.190235180,0.324876790,10.349673270,-0.075504180,0.053598000,0.025607650
1640791896132150016,0.042989000,0.367522980,9.628890040,-0.039811440,-0.023902950,0.005334620
1640791896133600000,-0.137795270,0.369714530,10.084465980,-0.039407620,-0.025886300,0.008364020
1640791896137309952,-0.029571370,0.651273550,9.480775830,-0.092476610,0.058199470,0.026224560
1640791896138690048,-0.202091460,0.534576590,9.875993730,-0.129504550,-0.033713880,0.017899280
1640791896142279936,-0.093600780,0.260605990,9.976572040,-0.097092990,-0.005832310,0.018133220
1640791896143759872,0.250730040,0.426537070,9.033884050,-0.048710410,0.052109360,-0.005775690
1640791896147189760,0.080370750,0.210794150,10.111024860,-0.066825750,0.047297780,0.006268920
1640791896148699904,0.060996310,0.127322410,10.208567620,-0.118695210,0.080759850,0.023679440
1640791896152539904,-0.029083980,-0.086697710,9.817616460,-0.103843230,-0.055837640,0.011482840
1640791896157090048,-0.173109640,-0.371832430,9.709959030,-0.045344230,-0.039611750,0.021190940
1640791896157760000,0.008406250,-0.120324290,8.796100620,-0.030358140,0.095361480,0.016756360
1640791896159739904,-0.181021540,-0.170388520,9.964452740,-0.051084160,0.075925890,0.000700350
1640791896162519808,-0.197615100,-0.075673860,10.294095040,-0.054921210,0.068756950,0.014118850
1640791896163640064,0.043803580,0.175262210,9.400908470,-0.029355290,-0.021174550,0.007174910
1640791896167140096,-0.174547790,0.063979690,9.868862150,-0.017574440,0.002788010,0.010351840
1640791896168759808,-0.146964940,0.197594940,9.498007770,-0.010129810,0.073550650,0.004607440
1640791896172269824,-0.165595350,0.144489510,9.686275480,0.006444750,0.016868110,-0.012485680
1640791896173989888,-0.183550300,0.116578420,9.873239520,-0.004385410,0.046481190,-0.002956390
1640791896177149952,0.038289530,0.190452130,9.335396770,-0.007800760,0.061693780,-0.006487970
1640791896178659840,-0.312827020,0.027796370,10.331137660,0.002440810,0.004997850,-0.000910460
1640791896182139904,-0.354667900,-0.014058270,9.761957170,0.021210310,-0.003337860,0.010544060
1640791896183640064,-0.198212180,0.036811150,9.111297610,0.036178530,-0.030982500,0.007537010
1640791896187259904,-0.258123870,-0.037546830,9.806110380,0.015902520,0.073173650,0.002600250
1640791896188709888,-0.184067830,0.295788140,10.000698090,0.004294510,0.087693320,-0.013050440
1640791896196100096,-0.258099110,0.442512810,10.421423910,0.009122490,-0.067739190,-0.005064910
1640791896196899840,-0.129820000,0.475542250,9.664762500,0.005145370,-0.038789220,-0.002107020
1640791896197659904,0.097087520,0.654964800,9.095105170,0.014334920,0.036500390,-0.004291530
1640791896198929920,-0.233027670,0.596798000,10.314263340,-0.000861290,0.060583660,-0.001853700
1640791896202159872,-0.198425680,0.662193240,10.061849590,-0.024132430,-0.005510450,0.005182620
1640791896203670016,0.091612900,0.670928240,9.453771590,-0.031898920,-0.057722630,0.011409820
1640791896207399936,-0.062873650,0.457432030,9.829108240,-0.057254730,0.045938790,0.015294550
1640791896208950016,-0.026664810,0.545401990,9.873865130,-0.053338700,0.053121140,0.014765560
1640791896212189952,-0.119704940,0.379005940,10.196040150,-0.046579540,-0.026702880,0.016632680
1640791896213729792,-0.143100320,0.237766610,9.879019740,-0.054389240,-0.018528100,-0.000239910
1640791896217219840,0.021483510,0.495348780,9.523327830,-0.072406220,0.031447400,0.004546340
1640791896219599872,-0.273877230,0.415673940,10.212143900,-0.113567700,0.028356910,0.008434060
1640791896222990080,-0.046722130,0.421828120,9.863843920,-0.103992220,0.006279350,0.012998280
1640791896224679936,0.250278890,0.522306860,9.399702070,-0.082187360,0.040347870,0.004105270
1640791896227859968,0.050630520,0.423760440,10.061565400,-0.079782310,0.059609110,0.005322690
1640791896229059840,0.110836010,0.559147120,10.008728030,-0.106623780,0.043402600,0.022976100
1640791896232129792,-0.038135470,0.295736910,9.933202740,-0.132730630,-0.028973820,0.025787960
1640791896233659904,0.006362740,0.042254760,9.607183460,-0.122538220,0.008158390,0.019907950
1640791896237599744,0.213399990,0.162280490,9.123981480,-0.093591210,0.121431080,0.018745660
1640791896239059968,-0.098715290,-0.216553820,10.245823860,-0.078000140,0.096468630,0.012284520
1640791896244119808,-0.078024720,-0.115280850,10.280943870,-0.071075560,0.044880810,0.017583370
1640791896244689920,-0.121469800,-0.079874520,9.498500820,-0.096276400,-0.024169690,0.016498570
1640791896247139840,-0.275852590,-0.231390770,9.554503440,-0.096622110,0.018085540,0.019742550
1640791896248659968,-0.040653180,0.028764690,9.225032810,-0.072948640,0.131188330,0.010430810
1640791896252149760,-0.064014970,0.026445720,10.052451130,-0.039526820,0.110931690,-0.018529600
1640791896254739968,0.015222520,0.254594270,10.276057240,-0.036701560,0.061677400,-0.002339480
1640791896257499904,0.148777290,0.306913520,9.446913720,-0.045669080,0.035434960,0.023972990
1640791896259160064,-0.203908700,-0.127178610,9.935400960,-0.042979420,0.011257830,0.024265050
1640791896262329856,-0.231228980,-0.094786090,9.529609680,-0.006555020,0.058208410,0.028286880
1640791896263670016,-0.304774340,-0.226994370,9.336977960,0.012372430,0.033387550,0.009469690
1640791896267119872,-0.200057820,-0.261423080,9.789894100,-0.013121960,0.094892080,0.004403290
1640791896268709888,-0.033635590,0.003488090,9.812295910,-0.009678310,0.133910780,0.002764170
1640791896272829952,-0.414487450,-0.132012110,10.667375560,0.011156500,-0.023303930,-0.005023180
1640791896273659904,-0.198696270,0.180030140,9.496780400,0.031124060,-0.044016540,0.012837350
1640791896277139968,-0.126728590,0.278699190,8.741930960,0.026804210,0.041192770,0.012937190
1640791896278640128,-0.388917090,0.182800230,10.151868820,0.010192400,0.112064180,-0.003737210
1640791896282139904,-0.144051760,0.536816720,9.976095200,0.023292010,0.079712260,0.007396940
1640791896283680000,-0.155215800,0.395911460,10.154364590,0.030843920,-0.056980550,0.008593500
1640791896287289856,-0.030614550,0.556889890,9.813879010,-0.004278120,0.016660990,0.018461050
1640791896289479936,0.025614740,0.642246900,9.360467910,-0.023066990,0.066162650,0.026710330
1640791896292219904,-0.358265580,0.307266560,10.533032420,-0.019001960,0.005538760,0.011427700
1640791896295579904,-0.133199360,0.479606540,9.631298070,0.001336630,0.001122060,0.021804870
1640791896297129984,-0.051708300,0.389191240,9.428411480,0.004102290,0.011114780,0.010658800
1640791896298640128,-0.302133410,0.435781960,10.381118770,-0.059509270,0.065290910,0.009387730
1640791896302299904,-0.126757350,0.572708250,9.818549160,-0.071802740,0.020101660,0.022558870
1640791896303660032,-0.110073480,0.316222160,10.020030980,-0.045128170,-0.049474840,-0.001442430
1640791896307159808,-0.005204680,0.495179270,9.664338110,-0.033234060,0.052697960,0.006793440
1640791896309020160,0.079294200,0.755853830,9.682919500,-0.074872380,0.072918820,0.020487600
1640791896312140032,-0.179782750,0.573071540,10.614092830,-0.130324050,-0.001570580,0.035107130
1640791896313639936,0.183986810,0.542552410,9.472619060,-0.120699430,0.005236270,0.029242040
1640791896317260032,0.237389420,0.438590530,9.385560040,-0.075000530,0.038963560,0.014746190
1640791896318739968,-0.005920440,0.288211200,10.061399460,-0.084410610,0.100174550,0.020246210
1640791896322479872,-0.027875420,0.197327970,10.047266960,-0.100885330,0.051212310,0.025139750
1640791896323670016,-0.223543030,-0.041295440,10.156194690,-0.120048240,-0.042936220,0.012305380
1640791896327709952,-0.104203190,-0.018744920,9.329806330,-0.119534140,0.028173630,0.020328160
1640791896329649920,0.028729050,-0.014474920,9.346006390,-0.099053990,0.120912490,0.015644730
1640791896332120064,-0.137108590,-0.057757580,10.250617980,-0.087919840,0.099094220,-0.001886490
1640791896334129920,0.023652050,0.049068790,9.897332190,-0.056232520,0.047029560,0.018490850
1640791896337529856,0.044543330,0.140765280,9.522192000,-0.063146660,0.003716350,0.016395740
1640791896338820096,-0.131867480,0.144861220,9.656864170,-0.100226720,0.053457920,0.029821700
1640791896342500096,-0.084077530,0.023928530,9.748399730,-0.083935270,0.085866460,0.021053850
1640791896343689984,-0.188371610,-0.101106360,9.918658260,-0.034089390,0.047366320,-0.012844800
1640791896347119872,-0.023912180,-0.002714080,9.616931920,-0.011238450,0.059202310,-0.001558660
1640791896348719872,0.082496200,0.066964820,9.563679700,-0.042402750,0.109814090,0.002212820
1640791896352199936,-0.262321110,-0.068279900,10.238565440,-0.071464490,0.053109240,0.003908570
1640791896354109952,-0.172218930,-0.098958890,9.706561090,-0.027208040,0.002522770,0.030797730
1640791896357219840,-0.196756840,-0.126788240,9.186151500,0.022156530,0.009502470,0.013282900
1640791896359419904,-0.221122130,-0.140871780,9.678702350,0.013707580,0.097425280,0.010716920
1640791896362190080,-0.131985620,0.077762140,9.969162940,0.004450980,0.137500480,0.013037030
1640791896363659776,-0.367906420,0.138689250,10.450269700,-0.011378530,-0.010927020,-0.006012620
1640791896367149824,-0.142138110,0.195850880,9.690531730,-0.000533460,-0.022418800,0.025087600
1640791896368729856,-0.069598520,0.221450700,9.155915260,0.025951860,0.061352550,0.020675360
1640791896372239872,-0.313756050,0.221684200,10.144701960,0.035184620,0.070281330,0.005544720
1640791896373679872,-0.069585870,0.463463460,9.857006070,0.017338990,0.055260960,0.020040570
1640791896377209856,0.025385250,0.513041200,9.697731020,-0.020371380,-0.013661390,0.011007490
1640791896378729728,0.061497460,0.416462690,10.062872890,-0.033693020,0.071749090,0.036548080
1640791896382499840,-0.039404340,0.469965490,10.000616070,-0.006748740,0.081600250,0.027008360
1640791896383859968,-0.446128490,0.375930760,10.430377960,0.015066560,-0.071026390,0.014920530
1640791896387709952,-0.232228550,0.291403380,9.419102670,-0.009122490,-0.002588330,0.035057970
1640791896391749888,-0.209942300,0.467077170,9.245100980,-0.052410360,0.066076230,0.008893010
1640791896393819904,-0.488142340,0.443760720,10.642811780,-0.085344910,0.051064800,0.022837520
1640791896394559744,-0.042288010,0.520835640,9.889205930,-0.066478560,0.008036200,0.025507810
1640791896397449984,0.061301050,0.558719340,9.859574320,-0.032666330,-0.022825600,0.013719500
1640791896398819840,0.018402370,0.586499930,10.244945530,-0.060608990,0.075350710,0.025124850
1640791896402149888,0.001206520,0.636847200,9.832191470,-0.105662630,0.018694990,0.031818450
1640791896404509952,-0.132003440,0.346845690,10.260219570,-0.106383860,-0.071562830,0.051543120
1640791896407179776,0.177163110,0.432247400,9.364912990,-0.107182580,0.059947380,0.052291170
1640791896408749824,0.138329210,0.433743360,9.624540330,-0.104588270,0.066569450,0.046713650
1640791896412160000,-0.133605960,0.191590310,10.749454500,-0.102874650,0.052292640,0.042109200
1640791896413789952,0.083630760,0.299123080,9.789011960,-0.100345900,0.025664270,0.041958690
1640791896417169920,-0.075759940,0.226839290,9.894072530,-0.113655630,-0.038473310,0.030617420
1640791896418799872,-0.232703850,0.335871490,9.815528870,-0.151769790,0.060260290,0.048394490
1640791896422259712,-0.024830600,0.352854130,9.344546320,-0.150901060,0.056849420,0.053313370
1640791896423759872,-0.046552480,-0.024806420,10.297796250,-0.108732290,0.063158570,0.042283540
1640791896427269888,0.036867740,0.051780440,9.923809050,-0.062936540,0.091202560,0.045219060
1640791896428669952,0.117104220,0.117404480,9.786929130,-0.079396370,0.003430250,0.058618190
1640791896432169984,-0.166705500,-0.106899510,10.066461560,-0.142461060,0.034947690,0.067865860
1640791896433659904,-0.021863740,-0.166632580,9.404357910,-0.129759310,0.040078170,0.058336560
1640791896437260032,-0.063014670,-0.154841230,9.721274380,-0.052523620,0.052815680,0.042599440
1640791896438739968,-0.089452480,-0.113549770,9.821968080,-0.038614860,0.113748020,0.042910870
1640791896442169856,0.043766210,0.031732170,9.906949040,-0.048969690,0.081050400,0.039586420
1640791896443660032,-0.333966140,-0.124815760,10.475895880,-0.060181310,0.015260280,0.041611490
1640791896447279872,-0.331694480,-0.221749020,9.551979060,-0.039377800,-0.020268560,0.046348560
1640791896448769792,-0.266269360,-0.160079750,9.169593810,0.004708770,0.015598540,0.053445990
1640791896452169984,-0.363887910,-0.214119490,9.782278060,0.000420210,0.124233970,0.039322670
1640791896454079744,-0.176724490,0.001323440,10.061221120,-0.003482400,0.086128710,0.023519990
1640791896457209856,-0.133901790,0.136575730,10.168878560,-0.000835960,-0.013315680,0.038634240
1640791896459669760,-0.065630840,0.002501340,9.631079670,0.000108780,-0.002457200,0.044146180
1640791896463249920,-0.008996690,0.139972550,9.539127350,0.032323600,0.029525160,0.046731540
1640791896463959808,-0.273069410,0.093143150,9.999093060,0.046278540,0.033395000,0.041434170
1640791896467150080,-0.134659380,0.080250730,9.674818990,0.035105650,0.009736420,0.042220950
1640791896468709888,-0.028047770,0.206883760,9.694264410,0.035867090,0.023941700,0.042875100
1640791896472219904,-0.342739970,0.100647470,10.341222760,0.026705860,0.039815910,0.034889580
1640791896474659840,-0.199010400,0.310751470,10.042665480,0.033399470,-0.023679440,0.044952340
1640791896477269760,-0.341656450,0.360191550,9.781091690,0.039087240,-0.033502280,0.047151740
1640791896478969856,-0.288310860,0.252742950,9.691270830,0.020958480,0.019206110,0.033415850
1640791896482159872,-0.179261310,0.592116530,9.820143700,0.021231170,0.052858900,0.042943660
1640791896483670016,-0.446880220,0.556399350,10.455992700,-0.007313490,-0.030267240,0.039443380
1640791896487589888,-0.043511950,0.540404560,9.804131510,-0.023628780,-0.048519680,0.054618720
1640791896488729856,0.113221650,0.617301880,9.478614810,-0.007426740,0.015497210,0.050388280
1640791896492169984,-0.143617810,0.409188360,10.578477860,-0.011190770,0.050002340,0.051173580
1640791896495640064,0.034662940,0.554559710,10.234983440,-0.032025570,-0.013972820,0.057968490
1640791896497129984,0.003353190,0.458022390,9.877676010,-0.042851270,-0.094322870,0.056123740
1640791896498720000,0.114517200,0.386821060,9.546376230,-0.083941220,0.028540200,0.043481590
1640791896502149888,0.112123710,0.564829590,9.563662530,-0.084406140,0.075384970,0.057432060
1640791896503990016,-0.240564640,0.266918720,10.730581280,-0.050300370,-0.001241270,0.038862240
1640791896508750080,-0.045949530,0.397917780,9.923742290,-0.054833290,-0.027738510,0.038833920
1640791896509430016,-0.092599980,0.496404800,9.592175480,-0.088073320,-0.014728310,0.057730080
1640791896512199936,-0.330335290,0.252631570,10.369548800,-0.127252950,0.042080890,0.065171720
1640791896513690112,-0.070576540,0.244990410,9.749019620,-0.116252910,0.023859740,0.065612800
1640791896517120000,0.030927350,0.181715760,9.862796780,-0.048479440,-0.005839770,0.046953560
1640791896518699776,0.170147820,0.184612500,9.725538250,-0.065234300,0.077304250,0.056608020
1640791896522279936,0.165422770,0.203866750,9.851178170,-0.092668850,0.039333120,0.056491800
1640791896524539904,-0.043694520,0.004415690,10.455550190,-0.103104120,-0.004138050,0.053377450
1640791896528899840,0.039013270,-0.128156950,9.549346920,-0.085444760,0.003397470,0.057226430
1640791896529569792,0.050021970,-0.138415960,9.581361770,-0.032950940,0.029405950,0.043736400
1640791896532160000,-0.093322640,-0.174761340,10.072937010,-0.024548170,0.119969260,0.042140480
1640791896533639936,-0.167810470,-0.120896120,10.157118800,-0.044521690,0.041379030,0.052280730
1640791896537390080,-0.243018520,-0.068401570,10.041785240,-0.034427640,-0.028958910,0.060006970
1640791896538709760,-0.232088700,-0.202569950,9.386978150,-0.031527880,0.016812980,0.056929890
1640791896542150144,-0.172222580,-0.108953070,9.560016630,0.013732910,0.056481370,0.036734340
1640791896544029952,-0.211628600,0.061073480,10.032222750,0.032597770,0.084781640,0.014306600
1640791896547159808,-0.111342740,0.189892490,9.963840480,-0.000789760,0.022223590,0.020867580
1640791896548719872,-0.007814180,0.265161750,9.973396300,-0.003196300,0.015856320,0.038908410
1640791896552189952,-0.160949810,0.064357030,9.955304150,0.014293190,0.024560100,0.024272500
1640791896554099968,-0.254761520,-0.069593090,9.924620630,0.067655760,-0.009153780,0.033567850
1640791896557179904,-0.200818200,0.025539430,9.471227650,0.086447580,0.009563570,0.028394160
1640791896562599936,-0.192192520,-0.110516270,9.684268000,0.041529550,0.042969000,0.021900240
1640791896563819776,-0.122011520,0.085453380,10.178444860,0.015781820,0.071927910,0.026075540
1640791896564309760,-0.227297960,0.206020440,10.285238270,0.034086410,-0.006377700,0.025674700
1640791896567099904,-0.307002900,0.131655380,10.180737500,0.068530440,-0.054192550,0.019174820
1640791896568679936,-0.238067690,0.463740440,9.433515550,0.076250730,-0.000219050,0.010335450
1640791896572300032,-0.439510410,0.570675610,9.886706350,0.034263730,0.003550950,0.013019140
1640791896576809984,-0.344209460,0.659273860,10.183795930,-0.009375810,0.007507200,0.033609570
1640791896577359872,0.011350170,0.671236220,9.673115730,-0.001747910,-0.012719630,0.034229460
1640791896578709760,0.035677170,0.456778230,10.344862940,0.032493480,0.016224380,0.021068750
1640791896582139904,0.089255210,0.614162680,10.193022730,0.036279860,0.048023470,0.018857420
1640791896583659776,-0.004477990,0.501076520,10.085686680,0.002981720,-0.079874690,0.032493480
1640791896587239936,-0.058557720,0.327528300,9.920803070,-0.059737280,-0.048488390,0.028190020
1640791896588739840,0.146143060,0.418084350,9.200328830,-0.063098960,0.064221010,0.025951860
1640791896594139904,-0.062390060,0.233744080,10.320931430,-0.030015410,0.040638450,0.026534500
1640791896595439872,-0.103641900,0.213056520,10.411737440,-0.004807120,0.016297400,0.021760170
1640791896597119744,0.086976120,0.375982970,9.677557950,-0.017437340,-0.028315190,0.020517410
1640791896598680064,-0.273992270,0.333862990,10.170053480,-0.081278380,-0.012028220,0.031468280
1640791896602419968,-0.188862610,0.276638780,9.674241070,-0.099103170,0.026105350,0.043220820
1640791896603869952,-0.092046370,0.074452960,9.726243970,-0.037421290,0.005751850,0.020584470
1640791896608539904,-0.075222820,0.090793660,9.921552660,0.008739530,0.048212700,0.008907910
1640791896609329920,0.233646770,0.242455510,9.671028140,-0.016744430,0.066185010,0.028397150
1640791896612199936,-0.011254530,0.071742470,10.311894420,-0.058212870,0.019951160,0.035978860
1640791896613689856,-0.157759170,-0.186912270,10.177821160,-0.059013070,-0.038428600,0.033843510
1640791896617169920,-0.016308850,-0.247096720,9.369258880,0.014474990,-0.026288630,0.023894010
1640791896618919936,-0.232598800,-0.233261240,9.548749920,0.047716490,0.044307110,0.001530350
1640791896622449920,-0.165742800,-0.107373820,9.899024960,0.000497700,0.103636090,-0.005856160
1640791896625730048,-0.202827660,0.078572990,10.308506970,-0.012905900,0.022178890,0.001896920
1640791896628960000,-0.351139840,0.014644560,10.123409270,0.008600950,-0.070063790,0.002913180
1640791896629539840,-0.163348560,0.027434230,9.250632290,0.047717990,-0.014279780,0.022675100
1640791896632140032,-0.401518880,0.047190200,9.689725880,0.079713770,0.042772300,0.007323920
1640791896633679872,-0.444400130,0.017838950,10.286987300,0.059270850,0.018320980,0.011506670
1640791896637319936,-0.129346490,0.208100440,9.816075330,0.038124620,-0.026443600,0.027434530
1640791896638789888,-0.134836970,0.109496200,9.926035880,0.042133030,-0.025533140,0.017713010
1640791896642489856,-0.096064520,0.082699750,10.079269410,0.060802690,0.028745830,0.016672910
1640791896643719936,-0.238177930,0.272037740,10.021777150,0.095449390,-0.042361020,0.011475380
1640791896647150080,-0.326950850,0.292682650,9.984561920,0.075194240,-0.084926200,0.000751020
1640791896648699904,-0.024076230,0.576254900,9.243268010,0.008638200,0.003255900,0.005391240
1640791896652480000,-0.223408640,0.648771880,10.089767460,-0.002194940,0.025561450,0.001555680
1640791896653719808,-0.276710090,0.505012450,10.788566590,0.022041800,-0.015994910,0.011211630
1640791896657409792,-0.115502930,0.572893800,9.885388370,0.064668060,-0.090281660,0.010408460
1640791896659719936,-0.165982370,0.520861920,9.868735310,0.043250630,-0.065068920,0.015789280
1640791896662249984,-0.165557060,0.479379150,9.850506780,-0.043684250,0.043217840,0.028285380
1640791896663679744,-0.099153490,0.475151990,10.070679660,-0.059807300,-0.039894880,0.021514300
1640791896667169792,0.013366710,0.239214640,10.193679810,-0.010138750,-0.044892730,0.016155840
1640791896668910080,0.309455480,0.404988050,9.418615340,0.009763240,0.000782310,0.006516280
1640791896672339968,0.230240320,0.547713400,10.030463220,-0.023001430,0.022226570,0.001840290
1640791896673679872,-0.080241990,0.369878590,10.490262030,-0.090625890,0.009943540,0.002425910
1640791896677139968,-0.113822690,0.328022840,9.960111620,-0.076478730,-0.106731080,-0.008369980
1640791896678729984,-0.133304880,0.346050980,9.524899480,-0.024646520,-0.045226510,0.003242490
1640791896682129920,-0.182785350,0.302419780,9.379875180,-0.049352650,0.055563460,0.010269880
1640791896683709952,-0.124111150,0.300565690,10.137235640,-0.059412430,0.050385300,0.022433700
1640791896687350016,-0.152826650,0.059703860,10.347324370,-0.051638480,-0.010977680,0.011783840
1640791896688760064,-0.045543860,-0.088482990,9.749325750,-0.027425590,-0.075155500,0.008529430
1640791896694550016,0.051693740,-0.011233950,9.524517060,-0.019131600,-0.003714860,0.014601650
1640791896695259904,-0.127539710,-0.199094280,9.849768640,-0.046317280,0.040861970,-0.002391640
1640791896697120000,-0.016850840,-0.115047040,10.104900360,-0.040484970,-0.005710120,-0.014519690
1640791896698679808,0.109957780,0.062241340,9.608195300,-0.006280840,0.011603540,-0.014673180
1640791896702560000,-0.054050670,-0.079222190,9.898668290,-0.003346800,-0.000539420,-0.016961990
1640791896707239936,-0.182045130,0.098610420,10.060138700,0.004802640,0.006636980,-0.002422930
1640791896708070144,-0.428823140,-0.071261760,9.762126920,0.030557810,-0.067269800,0.000779330
1640791896708740096,-0.406537120,-0.184018950,9.611022950,0.036565960,-0.054463750,0.001981850
1640791896712160000,-0.150141240,-0.013332150,9.302077290,0.030770900,0.073689230,0.002902750
1640791896713669888,-0.379289930,-0.125417110,10.513742450,0.040693580,0.031203040,-0.024855140
1640791896717179904,-0.327444290,0.022424970,10.497234340,0.059504820,-0.053164370,-0.012382870
1640791896719049984,-0.071299410,0.137761950,9.334312440,0.077870500,-0.115554030,-0.008079410
1640791896722179840,-0.187418610,0.071986120,9.707094190,0.061458360,-0.024005770,-0.012154880
1640791896723759872,-0.127200390,0.278776760,9.752058980,0.051647410,0.054782620,-0.005209450
1640791896728039936,-0.226880610,0.387292590,10.239744190,0.064328310,-0.077085200,-0.014297670
1640791896728719872,-0.126118170,0.467110570,10.024654390,0.056435160,-0.075495230,-0.002793970
1640791896732129792,0.057618420,0.586453740,9.445238110,0.051338980,-0.016905370,-0.008977950
1640791896733979904,-0.331197410,0.498747260,10.477643010,0.045210130,-0.038447970,-0.012780730
1640791896737409792,-0.371109040,0.489686340,10.092723850,0.022970140,-0.056506700,-0.009608270
1640791896738739968,-0.189530160,0.449727620,9.564508440,0.023680920,-0.112417340,-0.015193220
1640791896742129920,-0.255244370,0.407381000,9.984567640,0.014862420,-0.009496510,-0.009803470
1640791896743719936,-0.069036840,0.449534120,9.891868590,-0.013375280,0.013563040,-0.006300210
1640791896747099904,0.015303090,0.283640330,10.285902020,0.012497600,-0.084392730,-0.005519390
1640791896748879872,0.085792640,0.212763650,9.845897670,0.016562640,-0.053431090,-0.011613970
1640791896752529920,0.221698730,0.369851890,9.498402600,-0.008051100,-0.030227010,-0.009955470
1640791896753860096,-0.093102910,0.358935830,10.240522380,-0.037145620,-0.027932230,-0.000335280
1640791896757439744,-0.134044420,0.123203130,9.995845790,-0.035849210,-0.067421800,-0.011406840
1640791896759680000,0.032194060,0.215754360,9.493157390,0.007076560,-0.065544250,-0.029966240
1640791896762129920,-0.115126990,0.286805420,9.651599880,0.010600690,0.020436950,-0.019718710
1640791896763680000,-0.115910080,0.164876430,10.069828030,-0.034250320,0.015279650,-0.013688210
1640791896767239936,-0.210058600,0.057136610,10.209459300,-0.020827350,-0.072920320,-0.009973350
1640791896768920064,-0.222191960,-0.203994450,9.688350680,0.024448340,-0.101517140,-0.009950990
1640791896772199936,0.018448760,-0.151619900,9.154522900,0.033926970,-0.008355080,-0.017356870
1640791896773730048,-0.112465020,-0.060691790,9.829176900,0.006844100,0.042296950,-0.034280120
1640791896777129984,-0.171539430,-0.188501210,10.441568370,-0.002166630,-0.024528800,-0.038383900
1640791896778720000,0.006229380,-0.027755860,9.771609310,0.043742360,-0.090956700,-0.027857720
1640791896782589952,-0.126663430,0.013695910,9.596482280,0.075329840,-0.074917080,-0.026430190
1640791896783719936,-0.210890310,0.080821630,9.725348470,0.043104600,-0.003662710,-0.013665860
1640791896787239936,-0.293569620,0.267069760,9.904817580,0.039611760,-0.033129760,-0.021804870
1640791896788819968,-0.347225820,0.152931050,10.049831390,0.040692080,-0.078028430,-0.027057520
1640791896792120064,-0.071141680,0.373240980,9.459111210,0.050257160,-0.041921440,-0.031439960
1640791896794579968,-0.175904180,0.559733270,9.960950850,0.050579010,-0.028151280,-0.035972890
1640791896797240064,-0.233143820,0.439128520,10.277573590,0.011481350,-0.038427110,-0.020053980
1640791896799129856,-0.142079380,0.314878140,9.774580960,0.039783120,-0.100715470,-0.021837650
1640791896802510080,-0.169727560,0.189497230,9.798048020,0.071355700,-0.074343380,-0.026318430
1640791896803729920,-0.124737830,0.358024920,9.736948970,0.022690000,-0.008197130,-0.020065910
1640791896807159808,-0.123455620,0.381914790,10.191881180,-0.015002490,-0.047297780,-0.003765520
1640791896808739840,-0.058808520,0.078112940,10.148883820,-0.003953280,-0.074367210,0.000184770
1640791896812280064,0.118591440,0.182049480,9.457802770,0.041192770,-0.078032900,-0.028973820
1640791896813939712,-0.009205150,0.410370050,9.864972110,0.044412910,-0.032086670,-0.024040040
1640791896817169920,-0.211997330,0.387966600,10.054138180,-0.039973860,-0.034709270,-0.016064940
1640791896818980096,-0.157887580,0.229545770,9.961387630,-0.034862760,-0.110390770,-0.014175470
1640791896822520064,-0.003603900,0.226436150,9.521229740,0.019209080,-0.044809280,-0.016644600
1640791896824159744,0.042117540,0.245551390,9.551787380,0.021563470,0.012263660,-0.016696750
1640791896827219968,0.004251100,0.182091100,10.275873180,0.005990270,0.004830960,0.000500680
1640791896828739840,-0.082253150,-0.075919220,10.089942930,-0.002856550,-0.074000660,-0.001202520
1640791896832199936,-0.138126020,-0.389263960,9.635861400,0.036865470,-0.128036740,-0.011181830
1640791896833999872,-0.090041970,-0.215849250,9.143632890,0.053323810,-0.033397970,-0.026211140
1640791896837240064,-0.239049230,-0.208237840,9.615816120,0.019131600,0.014632940,-0.036691130
1640791896839040000,-0.278933170,-0.127183240,10.400341030,0.018450620,-0.024029620,-0.036643460
1640791896842099968,-0.178756360,0.008549960,9.785040860,0.068081920,-0.093744700,-0.026127700
1640791896843649792,-0.238085880,0.007158210,9.666684150,0.092488530,-0.099115080,-0.020380310
1640791896847129856,-0.161637650,0.181753700,9.643112180,0.072877120,-0.003045800,-0.008144970
1640791896848739840,-0.305858550,0.149790700,9.933837890,0.063245010,-0.049759450,-0.014016030
1640791896852109824,-0.202976290,0.130177860,10.068697930,0.060421230,-0.090885170,-0.010982160
1640791896853740032,0.126195910,0.251903530,9.294727330,0.081422920,-0.038757920,-0.018402930
1640791896857129728,-0.113625760,0.274260730,10.082666400,0.076554720,-0.032678250,-0.029952830
1640791896858700032,-0.161083440,0.337737920,10.242092130,0.047104060,-0.040611620,-0.019636750
1640791896862370048,-0.176374570,0.181286530,9.738076210,0.060443580,-0.118085740,-0.013993680
1640791896863729920,-0.312694940,0.163675010,9.825086590,0.069324680,-0.090470900,-0.019507110
1640791896867429888,-0.131050840,0.430640760,9.435804370,0.043994190,-0.004850330,-0.010399520
1640791896868759808,-0.292766030,0.405022680,10.265180590,0.031405680,-0.063541520,0.002540650
1640791896872289792,-0.142351720,0.258218710,10.194378850,0.022916500,-0.074015560,-0.001241270
1640791896873730048,0.189946440,0.284242330,9.459196090,0.062926110,-0.071497280,-0.016313790
1640791896877289984,0.021296380,0.315936270,10.037590980,0.057302420,-0.032043460,-0.007312000
1640791896878749952,0.056568310,0.396893560,9.891192440,-0.003185870,-0.030602520,0.003778930
1640791896882169856,0.066333250,0.169133140,9.810986520,-0.005152820,-0.109346220,-0.001268090
1640791896883919872,0.097333470,0.102157930,9.461866380,0.026711820,-0.049918890,-0.006128850
1640791896887229952,0.125763000,0.176730080,9.445221900,0.042484710,0.008925800,-0.001499060
1640791896889609728,-0.159688760,0.098231720,10.382335660,0.031454850,-0.016838310,0.008499620
1640791896892160000,-0.298588250,-0.123928960,10.185583110,0.021947920,-0.088100140,0.003224610
1640791896894619904,-0.121943670,-0.210340950,9.449341770,0.044274330,-0.111654420,0.003151600
1640791896897139968,-0.158109950,-0.080619060,9.313102720,0.053256760,0.006346410,-0.010034440
1640791896898759936,-0.194720940,-0.039333030,9.798892970,0.037832560,0.029017030,-0.030390920
1640791896902139904,-0.156262810,0.120808790,10.166138650,0.057137010,-0.058206910,-0.034649660
1640791896905439744,-0.064568710,0.255908670,9.543876650,0.065195570,-0.106814500,-0.022527570
1640791896907089920,0.034299110,0.108448720,9.488639830,0.058701650,-0.045381490,-0.003881750
1640791896908809984,-0.154732730,0.072961440,10.025066380,0.080735990,0.008332730,0.006434320
1640791896912169984,-0.249281600,-0.044172210,10.178616520,0.098748510,-0.053501130,-0.004236400
1640791896913760000,-0.062329860,-0.057371490,9.688095090,0.095678870,-0.084328660,-0.004811580
1640791896917440000,-0.104000870,0.091252750,9.455675130,0.083814550,-0.027783210,-0.016857680
1640791896918789888,-0.277341720,0.188882740,10.000790600,0.050710140,-0.027281050,-0.020992760
1640791896922179840,-0.336960170,0.344864670,10.011249540,0.057800120,-0.081330540,-0.014193360
1640791896923699968,-0.298664810,0.367950860,9.764205930,0.077645480,-0.097155580,-0.016501550
1640791896927619840,-0.108361920,0.495418160,9.675845150,0.075615940,-0.028133390,-0.011040270
1640791896929129728,-0.134565400,0.739022250,10.149623870,0.049613420,-0.012882050,0.002692640
1640791896932139776,-0.150561240,0.636478540,10.404768940,-0.000017880,-0.071237970,0.022962690
1640791896933910016,0.183995040,0.399655250,9.486050610,0.016096240,-0.104305160,0.013390180
1640791896937260032,0.201400610,0.322340400,9.432737350,0.066414480,-0.026132170,0.000193720
1640791896938769920,0.063397850,0.347339120,9.925888060,0.027370460,0.030319390,0.004275140
1640791896942499840,-0.057352970,0.295704660,10.276479720,-0.024405120,-0.091342640,0.008513030
1640791896943749888,-0.019810910,0.078808110,9.936651230,-0.021420420,-0.103406620,0.009340050
1640791896947160064,0.128628730,0.038248570,9.158803940,0.006397070,-0.014176970,-0.008738040
1640791896948819968,-0.050256850,0.242163490,9.976290700,0.033359230,0.034241380,-0.014017530
1640791896952119808,-0.198862240,0.218106810,10.227971080,-0.000004470,0.004389880,0.003160540
1640791896953779968,-0.149249490,0.092917670,9.747500420,-0.005091730,-0.125527400,-0.002920630
1640791896957190144,-0.102636520,0.123058280,9.413914680,0.016973910,-0.061436000,0.016932190
1640791896959190016,-0.111182160,0.055839880,9.223993300,-0.000442560,0.037561360,0.001937150
1640791896962240000,-0.084679220,-0.002069190,10.224077220,0.014097990,0.015817580,-0.017166140
1640791896963769856,-0.013292340,0.060271920,10.076075550,0.038331750,-0.000031290,-0.008648630
1640791896967480064,0.077832490,-0.029464490,9.619227410,0.035671890,-0.089433800,-0.023525960
1640791896968750080,-0.006171590,0.015324890,9.685270310,0.031532350,-0.026237970,-0.001248720
1640791896972849920,-0.115820020,-0.048357260,9.426018710,0.026325880,0.021350390,-0.001700220
1640791896973779968,-0.302059680,-0.116739280,10.113060950,0.051929060,-0.051882870,-0.014735760
1640791896977129984,-0.211338700,0.097771260,9.601225850,0.071114300,-0.024655470,-0.000974540
1640791896978759936,-0.182833120,0.050921480,9.514480590,0.060725220,-0.030571230,-0.014665720
1640791896982129920,-0.327657160,0.192661610,10.384681700,0.052422290,0.001499060,-0.015126170
1640791896984059904,-0.348078160,0.262758490,9.906423570,0.054210420,-0.054799030,-0.004735590
1640791896988699904,-0.273292840,0.209880290,9.826467510,0.070302190,-0.113390390,-0.014534590
1640791896991680000,-0.074162240,0.389379020,9.528917310,0.065113600,0.014479460,-0.009123980
1640791896992389888,0.009061630,0.516014990,9.798215870,0.037685040,0.017233190,-0.017981230
1640791896994119936,-0.088591780,0.512727920,10.522748950,0.013820830,-0.056432200,0.012552740
1640791896997139968,0.141276460,0.355933960,9.661890980,0.045265260,-0.085051340,0.010648370
1640791896998729984,0.128804920,0.392637730,9.533691410,0.052081050,-0.045551360,-0.007717310
1640791897002099968,-0.081253190,0.526099860,10.056758880,0.009192530,0.025565920,0.003704430
1640791897003799808,-0.173469310,0.419384090,10.134983060,-0.019626320,-0.048157580,0.005477670
1640791897008280064,-0.067846020,0.336049500,9.961305620,-0.018970670,-0.072352600,0.000239910
1640791897009049856,0.036514250,0.414007900,9.573220250,0.007915500,0.008568170,-0.014525650
1640791897012100096,-0.099246740,0.488322050,9.935350420,-0.010070200,0.017496940,-0.004526970
1640791897013749760,-0.141199720,0.437235680,10.066552160,-0.039151310,-0.032387670,0.004746020
1640791897017419776,-0.060787440,0.210887910,9.793489460,-0.027269130,-0.056257850,0.005301830
1640791897018749952,0.045897840,0.185814430,9.582297330,-0.011527540,-0.008122620,0.009414550
1640791897022329856,0.107506120,0.171065360,9.674098010,-0.021474070,0.035941600,0.019060080
1640791897025719808,0.238430320,-0.041999330,10.031532290,-0.032109020,0.054146360,0.012156370
1640791897027239936,0.175319760,-0.011126780,9.956519130,-0.015801190,0.009635090,-0.003026430
1640791897028739840,0.034675260,-0.029362650,9.804960250,0.009687240,-0.045132640,0.005225840
1640791897032140032,-0.112089060,0.049572890,9.433267590,-0.015251340,-0.006936490,0.006252530
1640791897033979904,-0.340880810,0.000793870,9.590315820,-0.034822520,0.000326340,-0.005163250
1640791897037380096,-0.358111230,-0.156423630,9.975020410,0.011838970,0.026051700,-0.013725460
1640791897039019776,-0.255043450,0.158962790,9.626677510,0.037306550,0.027957560,-0.019696360
1640791897042230016,-0.210454820,0.139093410,10.011535640,0.018766520,0.022369630,-0.009116530
1640791897043749888,-0.209450160,0.110155320,10.118884090,-0.008535390,0.016498570,0.002554060
1640791897047099904,-0.212798400,0.040237590,9.718279840,0.022044780,-0.047148770,0.009934610
1640791897048859904,-0.126997080,-0.168483850,9.530382160,0.064486270,-0.024731460,0.006118420
1640791897052160000,-0.033815460,0.053986660,9.381330490,0.057829930,0.047306720,-0.006663800
1640791897058699776,-0.166526850,0.211721000,10.223633770,0.012511020,0.040018550,-0.010880830
1640791897059279872,-0.176347330,0.266310210,10.348008160,-0.017315150,-0.038349630,-0.005537270
1640791897059919872,-0.141810880,0.338040230,9.710449220,0.034220520,-0.062510370,-0.010690090
1640791897062149888,-0.258667200,0.366640930,9.786331180,0.059397510,0.000581150,-0.024607780
1640791897063719936,-0.397844610,0.574539480,10.030270580,0.028666860,0.011302530,-0.011205680
1640791897067379968,-0.472167130,0.606783030,10.132575040,-0.016547740,-0.034454470,0.008177760
1640791897068739840,-0.186810940,0.431364180,9.673264500,-0.031450390,-0.047853590,0.006462630
1640791897072269824,-0.089318610,0.478578270,9.674366000,0.004260240,-0.001421570,-0.004702810
1640791897073740032,0.007346730,0.512162150,10.020084380,-0.008909400,0.042916830,0.004394350
1640791897077100032,0.032747390,0.298409370,10.151925090,-0.030371550,-0.027962030,-0.007674100
1640791897078749952,0.071724240,0.253314410,10.065128330,-0.020112100,-0.067123780,-0.000382960
1640791897082159872,0.197689190,0.350620210,9.384059910,-0.054776670,-0.000402330,0.001062450
1640791897084579840,0.066844720,0.253168670,9.861474040,-0.071124740,0.012549760,0.005553660
1640791897087319808,0.036155830,0.108616360,10.023012160,-0.040416420,0.037802760,0.018832090
1640791897088860160,0.105982020,0.067600240,9.616598130,-0.004005430,-0.012448430,-0.013396150
1640791897092219904,-0.029782710,0.160845160,9.962038040,-0.008776780,-0.007952750,0.000900030
1640791897094149888,-0.116730710,0.278981920,9.665573120,-0.072015840,0.051803890,0.007249420
1640791897097110016,-0.240686490,-0.031294930,10.062811850,-0.084966440,-0.036317120,-0.017842660
1640791897098749952,-0.165659640,-0.085121020,9.696809770,-0.014688070,0.012217460,-0.017273430
1640791897102210048,0.046418500,0.073007170,9.083892820,0.032044950,0.056569280,-0.024133920
1640791897106560000,-0.115756110,0.086124750,10.287248610,-0.010712450,0.052452090,-0.009176140
1640791897107470080,-0.187998920,0.126021060,10.074208260,-0.063402960,0.022122260,0.009283420
1640791897108759808,-0.198019530,-0.308279370,9.715854640,-0.017572940,-0.085814280,-0.001040100
1640791897112130048,-0.221183450,-0.367727040,9.516270640,0.064292560,0.008282070,-0.010555980
1640791897113709824,-0.158183440,-0.095035900,9.177710530,0.066249070,0.078098470,-0.021220740
1640791897117289984,-0.317503870,-0.030736200,10.399350170,0.004740060,0.018510220,-0.032718480
1640791897119239680,-0.159017710,0.101440260,10.018203740,-0.019912430,0.000342730,-0.007158520
1640791897122180096,-0.006349900,0.037835670,9.464898110,0.040759160,-0.038757930,-0.012773280
1640791897124239872,-0.332712740,0.172180790,10.160017010,0.087413200,0.005444890,-0.024113060
1640791897127179776,-0.342303570,0.460566400,9.650194170,0.063452110,-0.002016130,-0.011253360
1640791897128749824,-0.230717240,0.499784110,9.747591970,0.000320370,-0.056271260,-0.004719200
1640791897132129792,-0.158905420,0.380108030,9.834823610,-0.013846160,0.024363400,0.009983780
1640791897133959936,-0.023145440,0.328084740,9.857813840,0.043430930,0.032153730,-0.008849800
1640791897137280000,-0.256232920,0.419944850,10.516190530,0.062282380,-0.046469270,-0.015464430
1640791897138799872,-0.194441570,0.379859890,9.881012920,0.020952530,-0.075516100,0.000941750
1640791897142099968,0.009429940,0.307388540,9.341442110,-0.022396440,-0.028301780,0.001494590
1640791897143729920,-0.100946610,0.358425440,9.975441930,-0.030823060,0.052393980,-0.005418060
1640791897147119872,-0.063716000,0.387865990,10.282315250,-0.010448700,0.018288200,0.006751720
1640791897148779776,0.063749980,0.407891900,9.935840610,0.007653240,-0.049561270,-0.000405310
1640791897152480000,-0.016027840,0.345428140,9.732298850,0.003013010,-0.045196710,-0.010493400
1640791897153979904,-0.015638810,0.396963300,9.520394330,-0.032213330,0.026106830,0.002950430
1640791897157619968,-0.208907710,0.391999810,9.943916320,-0.068010370,-0.000600520,0.003595650
1640791897159040000,-0.130821570,0.051371940,10.065386770,-0.045086440,-0.015096370,0.002230700
1640791897162179840,0.096025440,0.116795290,9.438191410,0.008510050,0.029107930,-0.007672610
1640791897163739904,-0.112323250,0.176423180,9.976363180,0.005507470,0.012063980,-0.003181400
1640791897167179776,-0.173024700,0.008941470,10.062649730,-0.048609070,0.010851030,0.017766660
1640791897169049856,-0.144257900,-0.031279130,9.615960120,-0.049175320,-0.048016020,0.009357930
1640791897172289792,-0.172937940,-0.363219920,9.797914510,0.013448300,-0.030411790,0.007529560
1640791897173760000,-0.065601530,-0.220317720,9.337436680,0.039385250,0.061681870,-0.015778840
1640791897177120000,-0.223221840,0.039245650,9.966663360,0.022256370,0.010989610,-0.028982760
1640791897178729984,-0.286115560,-0.127553160,10.358509060,-0.015117230,-0.019750000,-0.018230080
1640791897182359808,-0.154593960,0.100765410,9.414075850,0.003093480,-0.061495600,-0.008960070
1640791897183970048,-0.245988940,0.032364790,9.669560430,0.054223840,-0.027099250,-0.000049170
1640791897187789824,-0.221767930,0.175020610,9.835862160,0.051942470,0.068287560,0.003179910
1640791897188769792,-0.321456430,0.426689150,10.149532320,0.037793820,-0.021064280,0.004997850
1640791897192189952,-0.289525690,0.232224330,10.229810710,0.012762840,-0.081762660,0.008411700
1640791897193799936,-0.062966080,0.281785490,9.283036230,0.025288770,-0.038452450,0.011233990
1640791897197270016,-0.082587230,0.411235450,9.812256810,0.042018290,0.008140510,-0.001944600
1640791897198829824,-0.152512010,0.388427910,10.360796930,0.016167760,0.032354900,0.002035500
1640791897202179840,-0.153442920,0.390201630,10.166899680,0.012299420,-0.073219820,0.008073450
1640791897203749888,0.008264910,0.280028050,9.712478640,0.028704100,-0.083647680,0.007382040
1640791897207119872,-0.018086210,0.330000460,9.432290080,-0.004585090,0.007560850,0.003975630
1640791897208750080,-0.040190780,0.476515110,9.943461420,-0.026215610,0.018332900,0.017823280
1640791897212149760,-0.017065560,0.167556230,10.088962550,-0.014603140,-0.011640790,0.008738040
1640791897213850112,0.015478040,0.128500060,9.866875650,0.033517190,-0.044937430,-0.003489850
1640791897217519872,-0.009707830,0.378000560,9.778393750,0.023145970,-0.005324180,0.009219350
1640791897218979840,-0.287727330,0.205228310,9.904628750,-0.049145520,-0.022961200,0.022859870
1640791897222810112,-0.185367230,0.059665720,9.748947140,-0.055643920,-0.043523310,0.022749600
1640791897224059904,0.046897170,0.019913880,9.246977810,0.015215580,0.021649900,0.000938770
1640791897227190016,-0.014874040,0.058253410,9.868195530,0.055886810,0.037300590,-0.002558530
1640791897228780032,-0.004498990,0.287597690,10.159008030,0.010056790,0.026495760,0.017362830
1640791897232199936,-0.146148980,-0.038903010,10.006597520,-0.029338900,-0.065366930,0.004798170
1640791897234040064,-0.203463110,-0.298590150,9.720091820,0.011762980,-0.073809930,0.010846560
1640791897237249792,-0.074514220,-0.034093720,8.972458840,0.067569320,0.041595110,-0.008448960
1640791897239409920,-0.366499570,0.053895790,10.120738980,0.043627620,0.031530860,-0.025948890
1640791897242139904,-0.283925180,0.308599410,10.316485400,-0.003805760,-0.004486740,-0.001183150
1640791897243749888,-0.106123550,0.150643860,9.637242320,0.003132220,-0.071290140,0.004090370
1640791897247139840,-0.277890260,-0.007950870,10.028153420,0.064371530,-0.032751260,0.002665820
1640791897248790016,-0.217054250,0.312457140,9.575321200,0.083515060,0.031109150,0.002126400
1640791897252189952,-0.299948100,0.439147080,10.029517170,0.022056700,-0.053307420,-0.001002850
1640791897253799936,-0.196998890,0.278889540,10.066321370,-0.030626360,-0.035138430,0.014604630
1640791897257120000,0.139720480,0.234944330,9.374178890,0.014552480,0.013215840,0.001700220
1640791897258819840,-0.156863810,0.271318580,10.498608590,0.068219010,-0.015853350,-0.010482970
1640791897262240000,-0.214010390,0.423278390,10.276044850,0.038802620,-0.022934380,0.000923870
1640791897263719936,-0.133219930,0.442774420,9.625657080,-0.019516050,-0.097675620,0.000335280
1640791897267139840,-0.135277360,0.242753040,9.735300060,-0.032624610,-0.050809990,0.007382040
1640791897268999936,0.082051500,0.379673990,9.437618260,-0.001147390,0.068168350,-0.007559360
1640791897273219840,0.038731770,0.530765300,10.273924830,0.003647800,0.016920270,0.004611910
1640791897273769728,-0.073390920,0.336905840,10.550098420,-0.017400090,-0.041396920,0.013193490
1640791897277299968,0.083814970,0.287260000,9.572667120,-0.018788870,-0.064922880,0.009532270
1640791897279019776,-0.137387510,0.256517740,9.655806540,-0.021469600,-0.038096310,0.008453430
1640791897282169856,-0.207872030,0.150169980,9.721360210,-0.034366550,0.029726330,0.016893450
1640791897284009984,0.055218790,0.062626350,9.661444660,-0.026869780,0.032821310,0.006707010
1640791897287239936,-0.043761350,-0.082066710,10.049289700,0.007025900,0.009292370,-0.006699560
1640791897289120000,0.070887310,-0.033025790,9.811793330,0.016602880,0.017257030,0.004519520
1640791897292099840,-0.023424880,0.106023100,9.783267970,-0.017142300,-0.014784930,0.006474550
1640791897293939712,-0.252533530,-0.194000380,10.100068090,-0.023646650,-0.030484800,0.002904240
1640791897297159936,-0.052800040,-0.182458480,9.373785970,0.032459200,0.010077660,-0.003175440
1640791897298799872,-0.160532770,0.086417700,9.476813320,0.070318590,0.016197560,-0.015233460
1640791897302199808,-0.225385410,0.054728930,10.203887940,0.019647180,0.055173050,-0.011619930
1640791897303799808,-0.141294090,0.199145030,9.937486650,-0.002333520,-0.006762150,-0.004763900
1640791897307159808,-0.338606420,-0.041044160,10.022756580,0.052875270,-0.080485650,0.004580620
1640791897308770048,-0.132824440,-0.096397760,9.385505680,0.082735730,-0.001800060,0.008006390
1640791897312169984,-0.082146870,0.109108520,9.409580230,0.086069110,0.046758350,-0.009235740
1640791897313750016,-0.302714050,-0.074761170,10.551255230,0.050333150,0.029236080,-0.012566150
1640791897317499904,-0.066249420,0.068515000,9.816807750,0.041519100,-0.040130310,-0.001536310
1640791897318769920,-0.117664720,0.074718370,9.578487400,0.087293980,-0.082927950,-0.000846390
1640791897323340032,-0.257156700,0.065931660,9.842683790,0.097154070,0.037202240,-0.005450840
1640791897324209920,-0.281035570,0.437728550,9.843817710,0.071753570,0.003394480,-0.005085770
1640791897329030144,-0.364187270,0.351846720,10.342052460,0.054204470,-0.069057950,-0.000271200
1640791897329589760,-0.078436600,0.417508180,9.540184020,0.045286120,-0.005058940,0.001600380
1640791897332130048,-0.032419930,0.723545790,9.811523440,0.050756340,0.008372960,-0.002326070
1640791897334080000,-0.266467210,0.600233380,10.559964180,0.030460960,-0.006720420,0.013740360
1640791897337189888,-0.069180560,0.468209860,9.679834370,0.023497640,-0.077900310,0.005863610
1640791897339799808,0.006157500,0.409946110,9.658420560,0.051969290,-0.037842990,-0.007264320
1640791897342670080,-0.155670000,0.358391580,9.989606860,0.016313790,0.052882730,-0.003431740
1640791897344039936,-0.028168230,0.500213980,10.145791050,-0.028686230,-0.018845500,0.004564230
1640791897347110144,0.076540890,0.281650960,10.111231800,-0.026077030,-0.024902820,0.006935000
1640791897348839936,0.115254630,0.088121170,9.648703580,0.016191600,0.008378920,-0.015519560
1640791897352189952,0.096922540,0.417991820,9.870145800,0.033178930,0.010128320,-0.000950690
1640791897353769984,-0.149735350,0.430436100,10.104215620,-0.025177010,0.007081030,0.014314060
1640791897357139712,-0.101260070,0.281150430,9.834345820,-0.084401680,-0.035490100,0.008365510
1640791897359340032,-0.010284870,0.281035160,9.529788020,-0.035320230,0.020264090,0.012551250
1640791897362139904,-0.124854420,0.039685530,9.768128400,0.024165210,0.047793990,-0.016874070
1640791897363719936,-0.077916470,0.181946680,10.085055350,0.015355650,0.040036450,-0.011298060
1640791897367450112,-0.136208000,0.124601440,9.970739360,-0.018693510,-0.007949770,-0.002992150
1640791897368800000,-0.139770020,-0.285197910,9.761699680,-0.038069490,-0.035822400,-0.006826220
1640791897373039872,-0.058446180,-0.201749460,9.410007480,0.018557910,0.052772460,-0.007590650
1640791897373819904,-0.332029850,-0.216393830,9.952424050,0.053109240,0.043922660,-0.032764680
1640791897377159936,-0.361183880,-0.092210650,10.216598510,0.035268060,-0.008864700,-0.036352870
1640791897378799872,-0.126378190,0.189236980,9.320715900,0.024037070,-0.010527670,-0.023946170
1640791897382139904,-0.266272460,0.004471940,9.807674410,0.029352310,0.020436940,-0.022204220
1640791897383780096,-0.324691740,0.150222080,10.217090610,0.065767770,0.055402530,-0.012928250
1640791897387229952,-0.279667710,0.271837500,9.975905420,0.096079710,-0.036495920,-0.019086900
1640791897388809984,-0.313575000,0.240175400,9.913187980,0.061605880,-0.046820950,-0.018255410
1640791897394520064,-0.113410230,0.351238040,9.364357950,0.028170650,0.048615030,-0.014516710
1640791897395269888,-0.262958320,0.276317810,10.162813190,0.048090520,0.012271110,-0.041346260
1640791897397120000,-0.344195490,0.358666630,10.357316020,0.053013870,-0.029879810,-0.034809110
1640791897398759936,-0.082187730,0.401456150,9.502490040,0.059531630,-0.039270520,-0.031724570
1640791897402449920,-0.165470930,0.287332450,9.965706830,0.055092570,0.004816060,-0.027319790
1640791897403800064,-0.208310990,0.383087370,10.189388280,0.032512850,0.058008730,-0.017897780
1640791897408039936,-0.156852100,0.458887160,10.250804900,0.022716820,-0.044429300,-0.017867980
1640791897409499904,-0.056306190,0.346371260,9.871978760,0.020484620,-0.055931510,-0.015157460
1640791897412169984,0.101316330,0.360362560,9.337006570,0.038431590,0.035585470,-0.030361120
1640791897413740032,0.046966450,0.543095770,9.837217330,0.026082990,0.056254870,-0.036139790
1640791897417489920,-0.266669150,0.420393140,10.481357570,-0.005808470,0.001050530,-0.028593840
1640791897418789888,-0.105892910,0.304921120,9.930679320,0.004921850,-0.070972750,-0.027363000
1640791897422429952,-0.068729270,0.236727090,9.455938340,0.023472310,-0.020717090,-0.030483310
1640791897425139968,-0.112421870,0.148776890,9.778152470,0.010535120,0.074403000,-0.033932930
1640791897427759872,0.063183780,0.094187920,10.054941180,-0.005616250,0.074537080,-0.029650330
1640791897428789760,-0.050119640,-0.126953710,10.276617050,0.035142900,-0.015860800,-0.036591290
1640791897432149760,0.034602390,-0.218866930,9.734679220,0.058721010,-0.025804340,-0.032119450
1640791897433750016,-0.027876140,-0.014659760,9.265316010,0.041417780,0.015977030,-0.039230290
1640791897437139968,-0.369814930,-0.110602190,9.947277070,0.014580790,0.036190450,-0.050361450
1640791897439119872,-0.214463400,0.031920880,9.832656860,0.037166480,0.040037920,-0.065131480
1640791897442210048,-0.279105990,0.239775580,9.826514240,0.086070600,-0.008937720,-0.060404840
1640791897446400000,-0.324764670,0.268069860,10.101620670,0.074890260,0.028516350,-0.041489310
1640791897447129856,-0.239644900,0.369117800,9.847636220,0.053027280,0.024601820,-0.033164020
1640791897448789760,-0.382639680,0.135005190,10.192212100,0.070600220,-0.027535860,-0.035464770
1640791897452859904,-0.190707300,0.057615550,9.627528190,0.084750350,0.008469820,-0.049324340
1640791897454399744,0.041067100,0.252164100,9.385763170,0.092479590,0.022280220,-0.060525540
1640791897457409792,-0.152646240,0.294085320,10.449816700,0.051762160,0.054514420,-0.055672230
1640791897458849792,-0.056417820,0.430562410,10.121946330,0.019426650,-0.014583770,-0.045733160
1640791897462619904,-0.144063470,0.320106270,9.995039940,0.070004170,-0.076329710,-0.058485570
1640791897463800064,-0.203057290,0.398428140,9.794548030,0.078809250,0.017610190,-0.066097090
1640791897467150080,-0.168917750,0.745075820,9.735408780,0.038667020,0.035370880,-0.055275850
1640791897468930048,-0.445587750,0.589858000,10.570470810,0.000023840,-0.004403290,-0.039345030
1640791897473529856,-0.170921880,0.403191890,9.840504650,0.003427270,-0.032120950,-0.038495660
1640791897474380032,-0.012944390,0.373419310,9.694660190,0.070001190,-0.012579560,-0.050303350
1640791897477880064,-0.269086000,0.360852630,10.271884920,0.043949490,0.052604080,-0.056238470
1640791897478759936,-0.180545990,0.374902900,10.090223310,-0.013509390,-0.017435840,-0.046898420
1640791897482099968,-0.154000190,0.277972130,10.101037030,-0.019499660,-0.070422900,-0.036901230
1640791897483769856,0.095215630,0.191092400,9.418873790,-0.000005960,0.018338860,-0.050161790
1640791897487229952,0.212482500,0.322326000,9.720146180,0.024679310,0.068736080,-0.052674110
1640791897489039872,-0.021377140,0.315253910,10.480041500,0.024378300,0.056773420,-0.037340820
1640791897494679808,-0.062144770,0.078136590,10.093077660,0.002199410,-0.056760020,-0.044205790
1640791897495869952,-0.062270580,0.140429450,9.584012990,0.019411740,-0.069078810,-0.033251940
1640791897497129984,-0.257441070,0.155080930,9.418788910,0.002411010,0.039203470,-0.039540230
1640791897498800128,-0.201838180,-0.056221730,9.836525920,-0.006702540,0.067596120,-0.044949350
1640791897502589952,-0.234727030,-0.026012130,10.358555790,0.067986540,0.057147440,-0.055962800
1640791897503949824,-0.273854490,0.023148800,10.074271200,0.085331510,-0.045056640,-0.059413920
1640791897507219968,-0.054472130,0.115170790,9.523904800,0.041630860,-0.044023990,-0.036704540
1640791897508909824,-0.212856250,-0.001390180,9.553511620,0.004814570,0.041021400,-0.039578980
1640791897512169728,-0.202307450,-0.305247870,9.941894530,0.061154370,0.019972030,-0.060199210
1640791897513789952,-0.049234190,-0.003153230,9.883510590,0.142623480,0.007057190,-0.061197580
1640791897517249792,-0.075628020,0.227123660,9.778223990,0.104068220,0.012664500,-0.056310000
1640791897519119872,-0.157151610,0.257680090,10.204195980,0.012177230,0.011084970,-0.039076810
1640791897522269952,-0.341958790,0.268619300,10.161713600,0.030218070,-0.007158520,-0.041531030
1640791897523809792,-0.507443900,0.075886230,9.910754200,0.118321200,-0.067591680,-0.062136360
1640791897528159744,-0.346107960,0.485060450,9.424207690,0.148573520,-0.020685790,-0.059457130
1640791897528829696,-0.364235100,0.698977050,9.720687870,0.064858800,0.054208930,-0.049461430
1640791897532130048,-0.372599990,0.525414290,10.599297520,-0.023639200,0.007967650,-0.038492680
1640791897533870080,-0.158480360,0.360758540,10.263079640,0.044530630,-0.055275860,-0.036637490
1640791897537220096,-0.141498030,0.279189800,9.916755680,0.123026980,-0.068105760,-0.057621310
1640791897539059968,-0.093147140,0.505818840,9.797199250,0.073823330,0.003270810,-0.052212180
1640791897542219776,-0.139133140,0.548395630,9.970575330,-0.008675450,-0.001680850,-0.037790830
1640791897543799808,-0.117328930,0.298462600,10.158124920,-0.031122570,-0.052982570,-0.034038720
1640791897547139840,0.129427840,0.365012170,9.670358660,0.025554000,-0.019890070,-0.041116780
1640791897548889856,-0.097761660,0.551021460,10.088948250,0.069241230,0.009863080,-0.047448280
1640791897552130048,-0.303085240,0.483772400,10.411918640,0.008884070,-0.015096370,-0.025627020
1640791897553809920,-0.296299310,0.375197860,9.994483950,-0.026269260,-0.087592010,-0.025117400
1640791897557289728,-0.186442810,0.238816860,9.612713810,-0.013558570,-0.057367980,-0.032058360
1640791897562789888,0.016903360,0.312869940,9.376291280,-0.017899270,0.048948840,-0.034925340
1640791897563239936,0.042609870,0.177614330,10.166877750,0.013592840,0.059348340,-0.042606890
1640791897563779840,-0.066749650,0.008631200,10.461233140,0.029984110,-0.023804600,-0.052922960
1640791897567219968,0.012237580,0.040862840,9.720151900,0.022929910,-0.105896590,-0.035673380
1640791897568839936,-0.111320470,0.049376260,9.550471310,-0.002509360,-0.024814910,-0.042404230
1640791897572279808,-0.227451280,-0.001133000,9.690289500,-0.042068950,0.043548640,-0.043079260
1640791897573779712,-0.234949410,-0.065185010,10.154756550,0.021694600,0.021426380,-0.047062340
1640791897577129728,-0.209206250,0.083436740,10.044861790,0.090599070,-0.012989340,-0.049459930
1640791897578809856,-0.190729920,0.183685200,9.747879030,0.064410270,-0.059634460,-0.025950380
1640791897582429952,-0.305987980,0.126134530,9.876568790,0.002008680,-0.025528670,-0.019131600
1640791897583770112,-0.356015240,-0.041007160,9.721417430,-0.001902880,-0.022035840,-0.040823210
1640791897587149824,-0.250107380,-0.128583970,9.877015110,0.084871050,-0.034917890,-0.041976570
1640791897589049856,-0.105223890,0.191979480,9.806132320,0.122652960,0.024269520,-0.060357150
1640791897595170048,-0.203400880,0.353602590,10.140455250,0.043369830,-0.018176440,-0.056098410
1640791897595629824,-0.304207150,0.265084590,10.408546450,0.007011000,-0.061771280,-0.037448110
1640791897597110016,-0.287214930,0.217121930,9.576794620,0.047314170,-0.097617510,-0.041647260
1640791897598899968,-0.306911620,0.233431830,9.615947720,0.097408880,-0.051803890,-0.042733550
1640791897602149888,-0.313818310,0.615167020,10.013239860,0.077386200,0.046890970,-0.038959090
1640791897604140032,-0.405515370,0.666074690,10.479849820,0.002679230,-0.051186990,-0.029291210
1640791897607219968,-0.162959050,0.377307180,10.351072310,-0.000564750,-0.098143520,-0.013169640
1640791897609400064,0.037466490,0.383721440,9.610765460,0.066033010,-0.037199260,-0.038097800
1640791897612079872,-0.141639260,0.458704020,10.062355040,0.062607230,-0.032895800,-0.041441630
1640791897613849856,-0.098551620,0.615805750,10.170123100,-0.003761050,-0.034308430,-0.021542610
1640791897617159936,-0.051010060,0.449978410,9.704865460,-0.043566520,-0.092837220,-0.036852070
1640791897618819840,0.059774600,0.236466740,9.873983380,-0.010034440,-0.057677920,-0.043900310
1640791897622220032,0.106228080,0.469965990,9.719573970,0.036717950,0.029723350,-0.034095350
1640791897625479936,-0.155685010,0.355842110,10.343986510,0.006957350,-0.030761950,-0.027298930
1640791897627960064,-0.185627280,0.286129470,10.353713040,-0.036695590,-0.068753950,-0.013841690
1640791897629259776,-0.129041580,0.089607850,9.540898320,-0.017896290,-0.081436340,-0.012481210
1640791897632199936,-0.219014110,-0.058296650,9.646877290,0.011712310,-0.046961010,-0.021131340
1640791897633760000,-0.112861110,0.153170240,9.610756870,0.005824860,0.048348320,-0.016503040
1640791897637149696,-0.090820090,-0.011143870,10.073405270,0.002454220,-0.002081690,-0.026261810
1640791897638939904,-0.081012450,-0.042974810,10.426271440,0.016018750,-0.053468350,-0.030024350
1640791897642759936,0.026590210,0.114594440,9.591939930,0.041647270,-0.053933270,-0.018481910
1640791897643780096,-0.146451960,0.094650780,9.720956800,0.010615590,-0.038607430,-0.024634600
1640791897647179776,-0.180924760,0.146332530,9.864937780,-0.004194680,0.018227100,-0.027975440
1640791897648800000,-0.151834980,0.093652140,9.748866080,0.041681530,-0.030000510,-0.034654140
1640791897652079872,-0.176400450,0.170347380,9.858007430,0.069667410,-0.043126940,-0.033862890
1640791897653789952,-0.151749610,0.301481310,9.671312330,0.044409930,-0.008769330,-0.015318400
1640791897659059968,-0.285982400,0.116591400,10.081547740,0.015544890,-0.022917990,-0.016140940
1640791897660610048,-0.391726260,0.011586420,10.214246750,0.037483870,-0.057034200,-0.022529070
1640791897662309888,-0.205315690,0.174952880,9.555393220,0.079205620,-0.056006010,-0.037257370
1640791897665479936,-0.180497170,0.334945170,9.764996530,0.055007640,-0.003619490,-0.037261840
1640791897667089920,-0.178351700,0.474716070,10.203504560,0.004108250,0.002560020,-0.032609700
1640791897668839936,-0.157690330,0.407801900,10.201830860,0.017927590,-0.064940760,-0.028817360
1640791897672590080,-0.142557320,0.367620890,9.834703450,0.055494900,-0.082020450,-0.022622940
1640791897673789952,-0.087698300,0.477781890,9.675722120,0.056234010,-0.024291870,-0.019577150
1640791897677159936,-0.161028250,0.603402320,10.113106730,0.002585350,0.007034840,-0.012713670
1640791897678870016,-0.188097800,0.484600840,10.327782630,-0.040109460,-0.052794820,0.003594160
1640791897682109952,0.019768970,0.264718980,9.874222760,0.017006700,-0.053648650,-0.004555280
1640791897683769856,-0.028396760,0.418764620,9.708802220,0.035442400,-0.007577240,-0.023031230
1640791897687140096,-0.244227620,0.525078060,10.208119390,-0.010308620,-0.018341840,-0.023259220
1640791897689100032,-0.333648860,0.359174940,10.202471730,-0.053690370,-0.062339000,-0.004950160
1640791897692389888,-0.181417990,0.155091450,9.558060650,-0.032232700,-0.095725060,-0.009852650
1640791897693819904,-0.019650080,0.202657000,9.655167580,0.007988510,0.003513690,-0.017741320
1640791897697419776,0.036877980,0.327894240,9.900842670,-0.004678970,0.064371530,0.003017490
1640791897698889984,-0.086849590,0.062257630,10.624708180,-0.034123660,-0.036339470,0.004474820
1640791897702139904,0.032744560,-0.068017790,10.083895680,0.000874700,-0.080868610,0.014303620
1640791897703769856,0.021200850,-0.072202340,9.211939810,0.018735230,-0.068499140,-0.008112190
1640791897707129856,-0.126692850,0.105510610,9.659509660,-0.002984700,0.007297100,-0.021925570
1640791897709339904,-0.133314550,0.167243970,9.723884580,-0.026933850,0.068439550,-0.004810090
1640791897712149760,-0.312018570,0.003669270,10.303192140,0.007531050,-0.051839650,-0.037695470
1640791897713779968,-0.189330500,0.216737360,10.032594680,0.058996680,-0.068080430,-0.009556110
1640791897717089792,-0.228164930,0.266632410,9.340874670,0.039382280,-0.033661730,0.012512510
1640791897718809856,-0.418172960,0.095881130,10.135059360,-0.005638600,-0.013870000,0.006574390
1640791897722199808,-0.313371510,0.015614410,9.930683140,0.013004240,0.013718010,0.019010900
1640791897723840000,-0.194770840,-0.125986380,9.642433170,0.082872810,-0.078076130,-0.002099570
1640791897728369920,-0.023093680,0.123311270,9.837711330,0.083929300,-0.018933420,-0.011697410
1640791897729469952,-0.014609900,0.379165680,9.728198050,0.006240610,0.026874250,-0.003011520
1640791897732090112,-0.253607600,0.196187360,10.550456050,-0.016020240,-0.070670240,-0.012452900
1640791897733769984,-0.175879390,0.238503070,10.033995630,0.049254300,-0.068072980,-0.001525880
1640791897737519872,-0.141623560,0.436701890,9.414932250,0.094456970,-0.063629460,-0.009626150
1640791897740109824,-0.233128710,0.751031760,10.194740300,0.019341710,0.013600290,0.005230310
1640791897743589888,-0.157406320,0.786292080,10.098330500,-0.058010220,0.007453560,0.039908290
1640791897744279808,-0.087721790,0.358407350,10.102367400,-0.024800000,-0.086432700,0.023196640
1640791897747139840,-0.036850770,0.322663040,9.917837140,0.062206390,-0.032344460,0.006803870
1640791897748809728,-0.121833970,0.433029920,9.624128340,0.061619290,-0.018185380,0.012372440
1640791897752089856,-0.330066230,0.450702940,10.250171660,-0.050230340,-0.064630810,0.016990300
1640791897754099968,-0.064431530,0.203674690,9.665156360,-0.097142170,-0.033009050,0.027541820
1640791897759709952,0.038477720,-0.000694950,9.697604180,-0.011712310,0.001600390,-0.002825260
1640791897760789760,-0.017862280,0.313407660,10.274923320,0.043888390,0.025224690,-0.008261200
1640791897762279936,-0.072501140,0.392326470,10.050775530,-0.001296400,-0.035901370,0.030282140
1640791897764219904,-0.138165550,0.149938550,9.924815180,-0.057297960,-0.105811670,0.034765900
1640791897767109888,-0.051663490,-0.010558420,9.356112480,-0.045433640,-0.014901160,0.040668250
1640791897768780032,-0.055469570,-0.057321520,9.475980760,0.029033430,0.042663510,0.028246650
1640791897772219904,-0.168715130,0.066142480,10.258111000,0.031161310,0.024639070,0.011207170
1640791897773999872,-0.200385090,0.075272670,10.097826960,0.001084800,-0.038382410,0.012643640
1640791897779680000,-0.195045860,-0.034187500,9.731967930,-0.000844900,-0.087714190,0.021131330
1640791897780219904,-0.281703000,-0.050334290,9.507614140,0.018224120,-0.013634560,0.013814870
1640791897782089984,-0.317906710,-0.057846510,9.725385670,0.043453270,0.015830990,0.012868640
1640791897783769856,-0.343572740,0.033760960,10.180600170,0.042177740,-0.005634130,0.000321870
1640791897787439872,-0.290302040,0.111811030,9.925302510,0.037531560,-0.058990720,-0.003804270
1640791897788879872,-0.129541710,0.146749590,9.605232240,0.037026410,-0.048655280,0.024275480
1640791897795899904,-0.199596840,0.190204290,9.770265580,0.038996340,0.003883240,0.014106930
1640791897796409856,-0.344711960,0.077113600,10.230969430,0.066092620,-0.041082500,0.020024180
1640791897797089792,-0.236556260,0.214406610,9.855608940,0.083124640,-0.082440680,0.018477440
1640791897798810112,-0.082661140,0.300309660,9.470124240,0.058260560,-0.044335420,0.005240740
1640791897802179840,-0.057138510,0.403899610,9.993516920,0.021184980,0.022298100,0.013075770
1640791897804339968,-0.149950790,0.580336510,10.304125790,0.017441810,-0.012215970,0.014951820
1640791897809849856,-0.182984050,0.398576680,10.178205490,0.050887470,-0.118653460,0.010949370
1640791897810469888,-0.054044400,0.469559580,9.423032760,0.065876540,-0.068865700,0.028866530
1640791897812089856,-0.138701920,0.604908820,9.687470440,0.012329220,0.016736980,0.030314920
1640791897813789952,-0.350894120,0.490142320,10.674473760,-0.034731630,-0.015929340,0.045733160
1640791897817099776,-0.201173310,0.468190370,10.040374760,-0.017733870,-0.092482560,0.047118960
1640791897818859776,-0.049799220,0.321242810,9.687724110,0.019264220,-0.087124110,0.015331810
1640791897822389760,-0.009650050,0.446751620,9.752087590,0.011344260,0.034947700,0.021025540
1640791897824920064,-0.193073260,0.581975460,10.203899380,-0.041539970,-0.000110270,0.025413930
1640791897827249920,-0.199020940,0.402476220,10.514595030,-0.075472910,-0.114843270,0.037522620
1640791897830579968,0.027585370,0.485356990,9.350272180,-0.060480840,-0.083734100,0.037626930
1640791897832140032,0.025145810,0.608976540,9.583614350,-0.046114630,0.002828240,0.031818450
1640791897833789952,-0.034628390,0.480394720,10.348079680,-0.061716140,0.055286290,0.050921740
1640791897837440000,-0.061439910,0.366903870,10.293437000,-0.058835740,-0.041595110,0.048719350
1640791897839479808,-0.098850160,0.112291900,10.062648770,-0.049127640,-0.099194070,0.043001770
1640791897843859968,-0.102387510,0.114313190,9.256242750,-0.067646810,-0.037288660,0.050993260
1640791897844349952,-0.111612130,0.140319750,9.482367520,-0.092375290,0.003047290,0.045780830
1640791897847069952,-0.034190620,-0.098155870,10.095248220,-0.091266630,0.047571960,0.044311590
1640791897848790016,0.058877500,0.018561790,9.957082750,-0.030881170,-0.004962090,0.035658480
1640791897852099840,0.023342010,0.123386820,10.056581500,-0.013671820,-0.039982810,0.048057740
1640791897854129920,-0.123726100,0.050379610,9.828170780,-0.060111290,-0.023999810,0.059372190
1640791897857979904,-0.197872100,-0.014217680,9.584137920,-0.056962670,-0.044500820,0.055892770
1640791897859020032,-0.161290790,-0.077859570,9.515426640,-0.016212460,0.012438000,0.044938920
1640791897862289920,-0.101546530,0.053754890,9.500205990,0.002765660,0.043292350,0.036706030
1640791897863799808,-0.244465190,0.157776430,10.331222530,-0.008948150,0.020207470,0.031879540
1640791897867159808,-0.361645760,0.063429680,10.299387930,-0.025910140,-0.070585320,0.037235020
1640791897868849920,-0.343733130,0.009266760,9.583434100,-0.001791120,-0.107707090,0.054620210
1640791897872570112,-0.198250710,0.031063680,9.169866560,0.017125910,0.007417800,0.045150530
1640791897873859840,-0.217665910,0.030249240,9.829860690,0.016632680,0.062759220,0.037425760
1640791897877169920,-0.190562860,0.202853680,10.476233480,0.024972860,0.007015470,0.043372810
1640791897878870016,-0.097858210,0.238631050,10.016965870,0.004419680,-0.089514260,0.050243750
1640791897882069760,-0.052911600,0.215813070,9.653944970,0.008155400,-0.089228140,0.061982870
1640791897883770112,-0.132953090,0.409555580,9.626902580,0.011150540,0.033199790,0.053730600
1640791897887369984,-0.401378420,0.400975410,10.251649860,0.001099710,-0.028400130,0.040200360
1640791897889129984,-0.271863970,0.429887000,10.057287220,0.013023610,-0.070299220,0.062382220
1640791897892410112,-0.072816320,0.606548960,9.353778840,0.004234910,-0.027699770,0.046288970
1640791897893889792,-0.204947130,0.685786490,10.184727670,-0.044608120,-0.011402370,0.051644450
1640791897897159936,-0.135969460,0.748554050,10.138605120,-0.069063900,-0.000447030,0.073827810
1640791897898860032,-0.129991380,0.429654060,9.981382370,-0.037710370,-0.098562250,0.052280720
1640791897902339840,-0.032721750,0.335227010,9.913708690,-0.006070730,-0.041399900,0.071507690
1640791897903820032,0.081667590,0.611083270,9.477368350,-0.044035910,0.036175540,0.063735240
1640791897907219968,-0.121201950,0.361228350,10.320219990,-0.126953440,-0.048972670,0.070308150
1640791897909560064,0.156488840,0.175892310,9.738133430,-0.109969090,-0.019781290,0.076322260
1640791897912079872,0.197048900,0.148428260,9.397416110,-0.038735570,-0.006765130,0.026531520
1640791897913799936,-0.042544380,0.174757230,10.228611950,-0.018975140,0.009807940,0.045180320
1640791897917349888,-0.101272830,0.385039450,9.829075810,-0.082635890,0.004988910,0.060553850
1640791897919119872,-0.202165260,0.044842170,9.874545100,-0.116212670,-0.077804920,0.053793200
1640791897922540032,-0.113228850,-0.067512130,9.562701230,-0.081850610,0.014983120,0.055624540
1640791897926550016,-0.028455970,0.142566140,9.314593320,-0.019422180,0.070069720,0.043913720
1640791897927189760,-0.247726380,0.003368080,10.482888220,-0.017891830,0.021073230,0.045639280
1640791897928890112,-0.178561750,0.018381870,10.008281710,-0.051420940,-0.019988420,0.050926210
1640791897932139776,-0.070436600,-0.101325020,9.422917370,-0.039768220,-0.063774000,0.055593260
1640791897933910016,-0.214387220,-0.204252570,9.593408580,-0.019027300,0.016081330,0.040824720
1640791897937159936,-0.135937330,0.038408250,9.472396850,-0.014929480,0.064642730,0.020295380
1640791897939040000,-0.283324960,0.086146530,10.278177260,-0.006955860,-0.014466050,0.016622250
1640791897943249920,-0.323403720,0.033957840,9.993581770,0.000387430,-0.049476330,0.033526120
1640791897943800064,-0.093910570,0.100668930,9.307777400,0.032511350,-0.032223760,0.038507580
1640791897947129856,-0.451098620,0.067618380,10.151824000,0.022105870,0.016143920,0.033602120
1640791897948839936,-0.451245010,0.081323660,10.065381050,0.020341580,-0.008106230,0.042094290
1640791897952199936,-0.218297240,0.212986350,9.692317010,0.026901070,-0.080707670,0.041554870
1640791897953819904,-0.161492710,0.181187610,9.666851040,0.018966200,-0.013664360,0.034491720
1640791897957190144,0.018150900,0.311866280,9.853433610,0.018326930,0.036576390,0.033508240
1640791897961829888,-0.185941560,0.447343140,10.416934010,0.016793610,-0.047044460,0.030049680
1640791897962319872,-0.250336500,0.361138400,10.108614920,0.014823680,-0.091044610,0.029601160
1640791897963789824,0.018454250,0.522612990,9.283410070,0.007733700,-0.062257050,0.025990610
1640791897967150080,-0.217293290,0.637166200,9.867883680,-0.014349820,0.007006530,0.034537920
1640791897968899840,-0.173449280,0.531158690,10.188327790,-0.034523000,0.013044480,0.057327740
1640791897972179968,0.046529520,0.465714100,9.867727280,-0.010675190,-0.060060620,0.050038100
1640791897973829888,-0.041161330,0.243536250,9.981841090,0.016702710,-0.046184660,0.038346650
1640791897977089792,0.080904530,0.384068610,9.638551710,-0.024162230,0.019945210,0.038211050
1640791897978839808,-0.182530570,0.385491610,9.952172280,-0.064371530,-0.024972860,0.032161180
1640791897982569984,-0.163823410,-0.012620570,10.077911380,-0.063513220,-0.046639140,0.030291080
1640791897983849984,0.232799310,0.117487850,9.120949750,-0.006952880,0.011597570,0.012412670
1640791897987439872,0.016245670,0.258909940,9.916069980,0.006967780,0.033880770,0.013682250
1640791897988969984,-0.010202990,0.278790000,10.142297740,-0.055700530,0.047239660,0.035640590
1640791897995179776,-0.081726180,0.150724830,9.842258450,-0.059856480,-0.066573930,0.044023990
1640791897996110080,-0.188464130,-0.254008800,9.823406220,0.014165040,-0.069180140,0.038228930
1640791897997079808,-0.003443530,-0.062066710,8.927458760,0.036831200,0.055345900,0.018620490
1640791897998970112,-0.156356510,0.103243880,9.913531300,0.005239250,0.065346080,0.010195380
1640791898002089984,-0.217414230,-0.055785310,10.454685210,-0.037170950,0.044664740,0.008510050
1640791898003889920,-0.045485250,-0.002756550,9.672827720,0.006775560,-0.067004570,0.001987810
1640791898007200000,-0.179421720,-0.067820180,9.631344800,0.076681360,-0.030788780,0.011862810
1640791898010180096,-0.208912090,0.033455090,9.338734630,0.054490580,0.052003560,0.004531440
1640791898012089856,-0.305174950,0.176054700,9.984122280,0.026799740,0.017754740,0.006668270
1640791898013890048,-0.296984970,0.113804680,10.119242670,0.014428790,0.009326640,0.016193090
1640791898017120000,-0.008274580,0.146825760,9.589373590,0.051268930,-0.026005510,0.018922980
1640791898018829824,-0.063706710,0.371060520,9.957153320,0.086264330,0.019218030,0.013203920
1640791898022219776,-0.162337780,0.446491420,9.903359410,0.033690040,0.040017070,0.013160710
1640791898023840000,-0.155269320,0.327210520,10.048121450,0.021749730,-0.031015280,0.017619130
1640791898027159808,-0.131703410,0.373431410,9.696540830,0.044977670,-0.011435150,0.008492170
1640791898028889856,-0.072461520,0.459486810,9.485873220,0.043444340,0.004929300,0.008240340
1640791898032089856,-0.089766490,0.623535160,9.956609730,0.012253220,0.046923760,0.017747280
1640791898033799936,-0.179117870,0.458853510,10.093231200,-0.011418760,0.025050340,0.015860790
1640791898037420032,-0.082026670,0.243048370,10.046174050,0.026611990,-0.028096150,0.017884380
1640791898038859776,-0.058000850,0.486040170,9.695159910,0.046841800,0.017786030,0.021599230
1640791898042099968,-0.220999450,0.439868600,9.879899980,-0.022499260,0.022783880,0.031729050
1640791898043779840,-0.102956780,0.329767910,9.936328890,-0.058220340,0.014913080,0.035141410
1640791898047209984,0.071393290,0.127382680,9.457847600,0.006441770,0.028410560,0.009511410
1640791898048839680,0.150988120,0.079197340,9.736440660,0.052867830,0.054432450,-0.003299120
1640791898052140032,0.141340910,0.280496120,9.915649410,0.026011470,0.084009770,0.012429060
1640791898054080000,-0.177112220,0.123294460,10.255522730,-0.031907860,-0.019612910,0.021889810
1640791898057179904,-0.098206010,-0.076470870,9.675628660,-0.020632150,-0.044742220,0.025282800
1640791898059739904,0.013463440,0.029959230,8.948569300,0.038479270,0.056861340,0.016836820
1640791898062319872,-0.178309830,0.010826980,9.824052810,0.047793980,0.108349320,0.007139150
1640791898063939840,-0.172461270,0.106410120,10.301476480,0.031529370,0.090600550,0.005930660
1640791898067099904,-0.221635400,-0.006647950,10.051643370,0.030232970,-0.042882560,0.012847780
1640791898068819968,-0.193006470,-0.055708480,9.429121020,0.042521960,-0.023344160,0.018507240
1640791898074159872,-0.164942530,0.065274940,9.220046040,0.052338850,0.078126800,0.013296310
1640791898075160064,-0.309618260,0.018573570,10.038067820,0.060090430,0.079408290,0.001008810
1640791898077159936,-0.215536980,0.118126150,10.014277460,0.066615630,0.018765030,-0.005821880
1640791898078949888,-0.003996600,0.230975960,9.546335220,0.081500420,-0.004047160,0.002864000
1640791898082099968,-0.132597310,0.284120560,9.793951030,0.057411190,0.054430950,0.012296440
1640791898083819776,-0.301593540,0.234368100,10.044247630,0.045269730,0.035026670,0.005722050
1640791898087479808,-0.339870960,0.169959980,10.002379420,0.093206770,-0.037267800,-0.003355740
1640791898088989952,-0.253176750,0.264546930,9.310235980,0.098128640,-0.001178680,-0.005546210
1640791898093489920,-0.085767930,0.414502710,9.642045020,0.064338730,0.083459910,-0.005435940
1640791898095350016,-0.229980420,0.609994890,10.446839330,0.010375680,0.078546990,0.007262830
1640791898097090048,-0.183761520,0.445089670,10.313653950,0.018906600,-0.044666230,-0.001530350
1640791898098850048,0.034807290,0.375848290,9.591214180,0.087970500,-0.031942130,0.001241270
1640791898102119936,-0.088230320,0.578818920,9.398333550,0.087946650,0.054727490,0.000593070
1640791898104270080,-0.140589730,0.668446120,10.037879940,-0.003743170,0.055110450,0.007073580
1640791898107139840,-0.044510280,0.567657470,10.053978920,-0.049702830,0.001125040,0.038427110
1640791898109809920,0.080405330,0.215834380,9.765003200,0.015926360,0.006549060,0.006641450
1640791898112269824,0.019735200,0.301457080,9.958012580,0.066083680,0.066959870,-0.010398030
1640791898113829888,-0.266047060,0.560791670,10.102239610,0.032067300,0.017236180,0.003157560
1640791898117110016,-0.304345400,0.466231520,10.046398160,-0.071650740,-0.038191680,-0.003126260
1640791898118819840,0.014211460,0.414983660,9.242703440,-0.091910360,0.021333990,-0.000043210
1640791898122370048,0.037406120,0.349320470,9.552092550,-0.009988250,0.100061290,-0.016409150
1640791898123899904,0.122720330,0.428345230,10.132376670,0.021736320,0.115011620,-0.000917910
1640791898128499968,0.088307960,0.332850190,10.200619700,0.003260370,0.014488400,0.025825200
1640791898129849856,-0.024570470,0.059517680,9.915689470,-0.044469530,-0.039891890,0.033758570
1640791898132109824,0.049655420,-0.061651860,9.098839760,-0.057096780,0.022144620,0.027039650
1640791898133809920,-0.122961900,-0.143765430,9.580636020,-0.004497170,0.091406710,0.004559760
1640791898137479936,-0.128890950,-0.047923030,10.095767020,0.006751720,0.139945760,-0.013896820
1640791898138899968,-0.186126260,0.114411610,10.173206330,0.008174780,0.022986530,-0.035944580
1640791898143630080,-0.176252080,0.184807020,9.701796530,0.006030500,-0.011520090,-0.000917910
1640791898144519936,-0.183930500,0.168360530,9.153454780,-0.027085840,0.053292510,0.002588330
1640791898147150080,-0.445225570,0.042448370,9.988472940,0.016601380,0.059592730,0.011287630
1640791898148869888,-0.356736390,0.002744670,9.808020590,0.068368000,0.054800510,0.008217990
1640791898152079872,-0.168658840,-0.044649790,9.504387860,0.073859100,0.010879340,-0.006021560
1640791898154170112,-0.151166600,0.018641800,9.960709570,0.043158230,0.079844900,0.004254280
1640791898163729920,-0.193353500,0.124719800,9.906775470,0.010100010,0.041644280,-0.005663930
1640791898164310016,-0.283946160,0.018240530,10.180336950,0.045607990,-0.053343180,-0.004108250
1640791898164689920,-0.135774250,0.106535200,9.280024530,0.094799700,0.034905970,-0.006201860
1640791898165079808,-0.158167560,0.330916880,9.470488550,0.084918740,0.059308120,-0.025470560
1640791898167099904,-0.400298000,0.499045580,10.529526710,0.041270260,0.053091350,-0.001843270
1640791898168869888,-0.263186130,0.576299610,9.813473700,-0.003105400,-0.019215050,-0.001634660
1640791898172399872,-0.333478900,0.333049950,9.902379990,0.043462220,-0.069710620,-0.000046190
1640791898174069760,-0.256388780,0.407892200,9.607822420,0.082811720,0.054267040,-0.007131700
1640791898178589696,-0.281951070,0.571346160,9.791164400,0.053119660,0.046306850,-0.009894370
1640791898179520000,-0.342268970,0.413875850,10.584915160,-0.004628300,-0.014890730,0.009703640
1640791898182139904,0.037620030,0.404740040,9.439255710,-0.015613440,-0.019404300,0.004538890
1640791898183820032,0.101844500,0.451113100,9.603746410,0.011655690,0.012940170,-0.006361310
1640791898188039936,-0.018858060,0.462994340,10.209794040,0.011798740,0.075788800,0.003565850
1640791898189900032,-0.068226920,0.447070870,9.960203170,0.015808640,-0.023561720,-0.000050660
1640791898192169984,-0.086246480,0.367254910,9.890312190,0.002196430,-0.063419350,0.001038610
1640791898194289920,-0.033653940,0.440386950,9.346190450,-0.037865340,0.043539710,0.008031730
1640791898197180160,-0.155468000,0.425369620,9.850316050,-0.058354440,0.040590760,0.019583110
1640791898198839808,-0.118361640,0.206568140,10.222025870,-0.021421910,0.028030580,0.004522500
1640791898202109696,0.092740790,0.251436830,9.561363220,0.018915540,0.013470650,-0.006231670
1640791898204189952,0.069113030,0.331514480,9.671916010,-0.002640490,0.032195450,0.013294820
1640791898207289856,-0.105538710,0.151423510,10.004181860,-0.052507220,0.050015750,0.022126740
1640791898210249984,-0.064436570,-0.000049960,9.820803640,-0.051671260,-0.019016860,0.016923250
1640791898212169984,0.041352400,-0.052338940,9.351427080,-0.007653240,0.019942230,0.000008940
1640791898215680000,0.046584080,-0.052296410,9.492336270,0.036944450,0.101351760,-0.001375380
1640791898217120000,-0.122787500,0.150204260,10.175843240,0.013819340,0.077660390,0.002186000
1640791898218839808,-0.294824090,0.123676720,10.189047810,-0.026540450,-0.032837690,0.007541480
1640791898222220032,-0.245603680,-0.117424880,9.384522440,-0.011128190,-0.049567230,0.011385980
1640791898223899904,-0.303897590,-0.038180170,9.086372380,0.048907090,0.059773020,-0.015415250
1640791898227129856,-0.419955790,0.078211610,9.998217580,0.060275200,0.082495810,-0.028671320
1640791898229369856,-0.395036010,0.276849000,10.298684120,0.023017820,0.035522870,-0.005285440
1640791898232110080,-0.181910220,0.235894650,9.748014450,0.003816190,-0.039033590,-0.000642240
1640791898233850112,-0.091494130,-0.004140400,9.666029930,0.034561750,0.005711620,0.006145240
1640791898237550080,-0.108585280,0.253927770,9.670983310,0.080895410,0.082899640,-0.003002580
1640791898239040000,-0.306011890,0.297332320,10.250951770,0.064042210,-0.018137700,-0.002071260
1640791898243759872,-0.165027950,0.382837740,9.832072260,0.008513030,-0.033940380,0.005868080
1640791898244549888,-0.030254140,0.483165410,9.243014340,0.005853180,0.020630660,0.000888110
1640791898247139840,-0.230234860,0.450186160,10.269186020,0.024685270,0.038723650,-0.006429850
1640791898248969984,-0.337495980,0.681225780,10.257725720,0.031174720,0.015714770,-0.002881880
1640791898252110080,-0.318349630,0.579869030,9.858378410,0.016584990,-0.078089540,-0.012727080
1640791898254249728,-0.284432710,0.478971930,9.696120260,-0.017115480,-0.029304630,-0.010298200
1640791898257179904,-0.134908380,0.600058260,9.393079760,-0.025156140,0.053727630,0.003181400
1640791898261910016,-0.039365080,0.462534040,10.109433170,-0.035093720,0.018382070,0.008134540
1640791898262569984,0.072674810,0.358488650,10.101698880,-0.025337940,0.002668800,0.007429720
1640791898263830016,0.241256460,0.355124380,9.602920530,-0.000981990,-0.003980100,0.000593070
1640791898267089920,-0.055521020,0.268280030,9.995933530,-0.029851500,-0.004704300,0.003509220
1640791898269149952,-0.250470130,0.198798580,9.912839890,-0.056482860,-0.026340790,0.006778540
1640791898272300032,-0.118280250,0.128802730,9.436320300,-0.051885850,-0.021983680,-0.002564490
1640791898273839872,-0.151913960,0.095886400,9.594002720,-0.025075680,0.024920710,-0.016164780
1640791898277149952,-0.039172050,0.228866260,9.792047500,-0.011822580,0.076118130,-0.003711880
1640791898278869760,-0.108655610,0.164881870,10.174426080,-0.019182260,0.018873810,-0.012166800
1640791898282080000,-0.243056570,0.015275960,10.114590640,-0.012840330,-0.065274540,-0.006307660
1640791898283809792,-0.013271330,0.120570840,9.061947820,-0.008840860,-0.016881530,0.005468730
1640791898287909888,-0.129226460,0.040068810,9.409578320,-0.013685230,0.037100920,-0.010345880
1640791898289359872,-0.124495500,0.005784490,10.095914840,-0.014574830,0.087811080,-0.015583640
1640791898295199744,-0.020698530,0.161706160,9.929897310,0.026865300,0.001168250,-0.011384490
1640791898295709952,-0.203796030,0.008530300,10.034875870,0.041840970,-0.059096520,-0.011168420
1640791898297089792,-0.086863400,0.165194530,9.314901350,0.013817850,0.024411090,0.001645090
1640791898298869760,-0.376887260,0.107148220,9.741444590,0.006313620,0.008834900,-0.001949070
1640791898302649856,-0.475892070,-0.117337080,10.169572830,0.036951900,-0.012469290,-0.007566810
1640791898303989760,-0.106881890,0.225378860,9.197928430,0.065472730,-0.010058280,-0.006462630
1640791898307159808,-0.280360520,0.212889950,10.092941280,0.054080780,0.005249680,-0.016397240
1640791898309809920,-0.245752930,0.366098760,10.228578570,0.006772580,0.031745430,-0.008508560
1640791898312079872,-0.135951310,0.453866000,9.712184910,0.015321370,-0.073212390,-0.005698200
1640791898313859840,-0.247711930,0.234076260,9.917093280,0.052231560,-0.049406300,-0.017058850
1640791898317250048,0.033715050,0.642104800,9.229241370,0.047044460,0.033506750,-0.014294680
1640791898319309824,-0.152270150,0.718096200,10.145497320,0.003692510,-0.001671910,-0.002676250
1640791898322619904,-0.075345610,0.482133210,10.207310680,-0.038287040,-0.021533670,0.014391540
1640791898323859968,0.226050050,0.403082730,9.370115280,0.013495980,-0.023190680,0.010436770
1640791898327089920,-0.122859630,0.296471000,10.234843250,0.052376090,-0.005406140,-0.005112590
1640791898328940032,-0.211826430,0.392726810,9.883926390,-0.013951960,-0.004957620,0.005246700
1640791898332069888,-0.180557550,0.274394300,9.728617670,-0.042091310,-0.071990500,0.006197390
1640791898333989888,-0.141859730,0.041532460,9.786358830,-0.030477340,0.000205640,-0.015264750
1640791898337199872,0.086986320,0.312225820,9.437397000,0.001576540,0.046516950,-0.015181300
1640791898339059712,-0.044714950,0.407144160,10.275318150,0.007814170,0.019700820,-0.011822580
1640791898343469824,-0.115856300,0.225801510,10.063025470,-0.026082990,-0.039070850,-0.014428800
1640791898343979776,0.020439860,0.218713580,9.311835290,-0.004057590,-0.072224450,0.012581050
1640791898347110144,-0.073546230,0.085604040,9.359264370,0.006334480,0.027801100,0.003482400
1640791898348889856,-0.069096540,0.002203130,9.657581330,-0.010009110,0.061096250,0.005857650
1640791898352229888,-0.073311270,-0.050561110,10.250409130,0.012141470,0.032691660,0.001747910
1640791898354269952,-0.144383240,-0.136483060,9.983983990,0.036787990,-0.023750960,-0.018274790
1640791898357139712,-0.071072350,-0.053545650,9.452334400,0.027610370,-0.031046570,0.002259020
1640791898361260032,-0.259888980,-0.030146280,9.619199750,0.027088820,0.030271710,0.000013410
1640791898362449920,-0.456878220,-0.143324550,9.872231480,0.034348670,-0.013588370,-0.021365280
1640791898363849984,-0.216892810,0.082969380,9.552378650,0.073079770,-0.019405790,-0.009298330
1640791898367130112,-0.147466900,0.260857700,9.438169480,0.072094810,0.019586090,-0.011971590
1640791898368849920,-0.132297050,0.316584940,10.133085250,0.036381190,0.028376280,-0.008761880
1640791898372199936,-0.103450340,0.485665080,10.161341670,0.045295060,0.012493130,0.000780820
1640791898373839872,-0.292960580,0.317228200,10.026340480,0.071173910,-0.083400310,-0.010192400
1640791898377110016,-0.213334840,0.416465010,9.522582050,0.072450940,-0.041720270,-0.001606350
1640791898378959872,-0.099974010,0.596129180,9.253362660,0.042288010,0.044143200,-0.006116930
1640791898382319872,-0.309528920,0.537809910,10.356300350,-0.000946220,0.010465090,0.004974010
1640791898385849856,-0.005747390,0.478746410,9.925167080,0.006552040,-0.011193750,0.015684960
1640791898387460096,0.008627060,0.311579140,9.688832280,0.058385730,-0.051648920,-0.011581180
1640791898391219968,-0.117626480,0.350927320,10.028473850,0.050862140,-0.003296140,-0.002130870
1640791898394939904,-0.132007290,0.464633580,9.581026080,-0.006634000,-0.002738830,0.004336240
1640791898395490048,-0.249946420,0.177863370,9.847222330,-0.028730930,-0.081549580,0.001780690
1640791898397219840,-0.004111310,0.102699650,9.300427440,0.003884730,0.020124020,-0.006091590
1640791898398870016,0.059914660,0.310971140,9.498876570,0.048364700,0.051666800,-0.024127970
1640791898402159872,-0.261285420,0.327432990,10.528502460,0.015634300,0.001709160,0.000935790
1640791898404169984,-0.110174090,0.237431080,9.807724950,-0.015057620,-0.058166680,0.005812940
1640791898408689920,-0.056711370,0.066712810,9.469385150,0.015966600,-0.072827940,0.005649030
1640791898409189888,-0.182663560,0.103374090,9.469980240,0.029951340,0.034753980,0.004279610
1640791898412099840,-0.068121470,0.195686360,9.603722570,0.021880870,0.036412480,-0.014804300
1640791898414070016,-0.216586980,0.116771560,10.254277230,0.011843440,-0.020048020,-0.010126830
1640791898417120000,-0.200883910,-0.011008070,9.765530590,0.030747060,-0.057932730,0.002519790
1640791898418899968,-0.142505470,-0.015865060,9.415070530,0.064414740,-0.054834790,-0.001433490
1640791898422189824,-0.363165500,0.092924130,9.712055210,0.045026840,0.011406840,-0.015336280
1640791898423980032,-0.212680300,0.194688960,9.900094990,0.015363100,0.006875400,-0.015759470
1640791898427689984,-0.178070320,0.316255690,10.109571460,0.029759110,-0.034731630,-0.003865360
1640791898428979968,-0.130164040,0.304482550,9.805171010,0.061485180,-0.046320270,-0.003121790
1640791898432119808,0.050219350,0.566079020,9.492636680,0.060641770,-0.025542080,0.007219610
1640791898433859840,-0.222847240,0.655065600,9.830278400,0.013181570,-0.005628170,0.004482270
1640791898437409792,-0.260195290,0.395008860,9.969215390,-0.006973740,-0.042085350,0.015088920
1640791898438899968,-0.139755870,0.421710880,9.719053270,0.038589540,-0.056116280,0.017522280
1640791898442109696,-0.131251540,0.499827590,9.791769030,0.036843120,-0.016859170,-0.002846120
1640791898443889920,0.004724070,0.617145660,9.938117980,-0.036735840,0.023491680,0.009608270
1640791898447119872,-0.126041920,0.450763200,10.147443770,-0.033481420,-0.024683780,0.019118190
1640791898448859904,-0.138272350,0.153499900,9.990363120,0.007797780,-0.072401760,0.005705660
1640791898452100096,0.053649890,0.370960530,9.192123410,0.036099560,-0.047886380,0.015014410
1640791898454389760,-0.085134510,0.505863130,9.419134140,-0.024059420,-0.014194850,0.022239980
1640791898457179904,0.054052830,0.246329190,9.814083100,-0.095239270,0.044949350,0.034537910
1640791898458880000,0.092637980,0.090500630,10.011564250,-0.020511440,0.001500550,0.009873510
1640791898462319872,-0.036248120,0.119549740,10.141921040,0.056673590,-0.051352380,0.002603230
1640791898464049920,-0.070397070,0.283554140,9.451905250,0.011076030,-0.025475030,0.019651650
1640791898467119872,-0.324626710,0.247294340,9.642627720,-0.060682000,-0.038015850,0.018531090
1640791898468969728,-0.265086500,-0.088825090,9.517209050,-0.066667800,0.005984310,0.006718930
1640791898472199936,-0.099077700,-0.092305760,9.336544040,0.041081010,0.010132790,-0.005091730
1640791898473870080,-0.107447710,0.068388340,9.943945880,0.089669240,0.028178100,-0.007429720
1640791898477179904,-0.167686910,0.213071240,10.141323090,0.003296140,-0.013706090,0.005646050
1640791898478880000,-0.206543010,0.030675990,9.965210910,-0.031644110,-0.101095450,0.021131340
1640791898482099968,-0.084529560,-0.083755210,9.152351380,0.012531880,-0.036311150,0.002795460
1640791898483830016,-0.138893470,0.153380800,9.277393340,0.068792710,0.020232800,-0.011350220
1640791898487500032,-0.267687710,0.337233990,10.118345260,0.069375340,0.023172800,-0.008502600
1640791898489049856,-0.251571890,0.488444890,9.922029500,0.009757280,-0.068131100,-0.001427530
1640791898492329728,-0.233582230,0.356497560,9.833693500,-0.000427660,-0.110241790,0.011457500
1640791898496189952,-0.210367710,0.351243140,9.557284360,0.026617940,-0.001987820,0.001290440
1640791898497370112,-0.329579410,0.471709400,10.031072620,0.051131840,-0.012919310,-0.003091990
1640791898498880000,-0.287084700,0.433101980,10.347551350,0.033736230,-0.049914420,0.008536880
1640791898502119936,-0.012003910,0.488239290,9.385294910,0.001746420,-0.079703340,0.016246740
1640791898504829952,0.122416090,0.359382210,9.540633200,-0.011281670,-0.041101870,0.010195380
1640791898507119872,0.077065870,0.441951900,9.829858780,-0.002080200,0.036285820,0.005999210
1640791898508879872,-0.126045200,0.485164400,10.052659990,-0.002843140,-0.092703110,0.001244250
1640791898512089856,-0.089508060,0.342817130,9.887464520,-0.006218250,-0.111693140,-0.001123550
1640791898513849856,0.078758390,0.492309300,9.108689310,-0.023104250,-0.010424850,-0.001758340
1640791898517099776,-0.079035800,0.563123460,10.056899070,-0.061157350,0.026531520,0.012297930
1640791898518980096,-0.066511460,0.439607290,10.339711190,-0.064751510,0.011594590,0.024427470
1640791898522249984,-0.053810540,0.247690320,9.792176250,-0.013099610,-0.100444260,0.014925000
1640791898523909888,-0.020118190,0.104866260,9.456775670,0.019782780,-0.063754620,0.019297010
1640791898529239808,-0.001319780,0.152387650,9.169416430,-0.027458370,0.026646250,0.016508990
1640791898530119936,-0.074003220,0.008763570,9.905969620,-0.071305040,0.008845330,0.017634040
1640791898532079872,0.101452810,-0.057686450,9.843678470,-0.044956810,0.007820130,-0.010220710
1640791898533929728,0.148505900,0.081837350,9.608098980,0.021548570,-0.028242170,-0.019125640
1640791898537469952,-0.055721160,0.234155450,9.875841140,0.015659630,0.006045400,-0.004261730
1640791898538909952,-0.263770340,0.219748820,9.748300550,-0.025320050,-0.036799910,0.002352890
1640791898542749952,-0.358142290,0.107062060,9.702351570,-0.023067000,-0.069400670,0.006011130
1640791898544239872,-0.233345810,0.133118660,9.188438420,0.001595910,0.008204580,-0.005601350
1640791898547059968,-0.197000520,0.177785220,9.805088040,0.028675800,0.036409500,-0.006301700
1640791898548859904,-0.261087780,0.365434080,10.425369260,0.010718410,0.022864340,-0.001852210
1640791898552089856,-0.167847260,0.374188750,9.929758070,-0.016412140,-0.104525690,-0.002741810
1640791898554169856,-0.086969840,0.150927870,9.542289730,-0.003749130,-0.085458170,0.013451280
1640791898557319936,-0.037985740,0.348684820,9.119880680,0.021885340,0.053042180,-0.007216630
1640791898558980096,-0.175384390,0.422316040,10.155895230,0.005798040,0.005874040,0.002294780
1640791898562180096,-0.096010930,0.521008130,10.236808780,-0.024902830,-0.023496150,0.014436250
1640791898563949824,0.140300440,0.432585450,9.441714290,-0.028415020,-0.057962540,-0.005672870
1640791898567139840,0.007005090,0.313851890,9.983235360,-0.007742640,-0.005674360,-0.011400880
1640791898568899840,-0.191352640,0.593095180,9.800685880,-0.008222460,0.033713880,-0.004249810
1640791898572199936,-0.336444740,0.432760950,9.978082660,-0.042045120,-0.099009280,0.008641180
1640791898574060032,-0.241326360,0.272906510,9.604688640,-0.045461950,-0.060503190,0.012372430
1640791898578049792,0.011514220,0.276121680,9.007880210,-0.020234290,0.037275260,0.005157290
1640791898578939904,-0.028156770,0.169695510,10.204807280,-0.015844400,0.048576290,-0.000084940
1640791898582059776,-0.056586010,0.127058030,10.369452480,-0.016637150,0.022283200,0.006705520
1640791898583869952,0.035162490,0.009415750,9.869262700,-0.007581710,-0.102503600,-0.005987290
1640791898587289856,-0.030162370,-0.016933300,9.422991750,-0.004214050,-0.053498160,-0.021709510
1640791898589530112,0.040648940,0.174052190,8.877728460,-0.025014580,0.049188740,-0.014804300
1640791898592259840,-0.039331680,0.174444080,9.895129200,-0.027388340,0.054609780,-0.028829280
1640791898599750144,-0.147989110,0.190438990,10.202575680,0.008654600,0.002172590,-0.027020280
1640791898600239872,-0.007219940,0.327676680,9.507578850,0.031115110,-0.061391290,-0.015437600
1640791898600679936,-0.271880270,0.140818160,9.662998200,0.013916190,-0.015069540,-0.000324850
1640791898602059776,-0.377274160,-0.022275830,9.683876990,0.008800630,0.025920570,-0.019039220
1640791898604829952,-0.294353870,0.058577990,9.621002200,0.026465960,-0.024041540,-0.016534330
1640791898607269888,-0.222936510,0.005461680,9.623352050,0.036770110,-0.005829330,-0.033132740
1640791898608919808,-0.019336760,0.115352510,9.599097250,0.031574070,0.028333070,-0.022731720
1640791898612130048,-0.124643020,0.250544910,10.074287410,0.024324660,-0.009943550,-0.025184450
1640791898613869824,-0.145263930,0.172212320,10.065775870,0.026261810,-0.047481060,-0.023597480
1640791898617100032,0.048817630,0.366540970,9.351176260,0.040300190,-0.035332150,-0.015231970
1640791898619200000,-0.100290570,0.460002390,9.665967940,0.038091840,0.010626020,-0.020143390
1640791898627859712,-0.133989870,0.601092700,10.064165120,-0.001756850,0.031138960,-0.017145280
1640791898628739840,-0.089294020,0.739899990,9.828596120,-0.001230840,-0.038415190,-0.007779900
1640791898629279744,-0.200822860,0.366281780,9.985640530,0.022274260,-0.058752300,-0.016656520
1640791898630210048,-0.121359240,0.567966220,9.486405370,0.018967690,0.014619530,-0.010642410
1640791898632129792,-0.235385580,0.676040530,9.844364170,-0.016294420,-0.006909670,-0.009439880
1640791898633859840,-0.206500380,0.327844980,10.254861830,-0.064206130,-0.005882980,0.004903970
1640791898637529856,0.194041610,0.324085270,9.364451410,-0.021781030,-0.020834810,-0.000372530
1640791898640039936,0.195767480,0.162942800,9.764387130,0.023831430,0.024202460,-0.008076430
1640791898642119936,0.088798290,0.251298190,9.925540920,-0.004626810,0.051121410,-0.002813340
1640791898643980032,0.001154450,0.331273080,9.797780990,-0.042241810,-0.064046670,0.010673700
1640791898647130112,-0.078092600,-0.027967140,9.671493530,-0.051556530,-0.057499110,0.000981990
1640791898648979968,0.023718150,0.149603830,8.969794270,-0.006338950,0.028832260,-0.020411610
1640791898652109824,-0.027016040,0.340157690,9.742065430,0.019373000,0.083033730,-0.015808640
1640791898654539776,-0.210302460,0.141561900,10.418926240,-0.019416210,0.062365840,-0.022853910
1640791898657219840,-0.190532040,0.166028250,9.997601510,-0.007680060,-0.057661530,-0.010971720
1640791898662360064,-0.245351960,-0.081884700,9.448819160,0.040148190,-0.070334960,-0.000809130
1640791898662989824,-0.235263300,-0.122174110,8.845891950,0.032372780,0.013192000,-0.025585290
1640791898663830016,-0.110945080,0.097030650,9.450125690,0.011175870,0.098744030,-0.027239320
1640791898667059968,-0.172847000,-0.096114340,10.321826930,0.012378390,0.060513610,-0.026327370
1640791898669149952,-0.022328500,-0.065069220,10.088321690,0.068406760,-0.054867580,-0.026595600
1640791898672339968,0.060407320,0.202401520,9.441359520,0.094415250,-0.030605500,-0.018145150
1640791898673899776,-0.305381720,0.130264880,9.582156180,0.043798990,0.012841820,-0.017273430
1640791898677100032,-0.323254020,0.246965560,9.729070660,0.031055510,0.004388390,-0.020533800
1640791898678839808,-0.232109050,0.315205780,9.509823800,0.066700580,-0.005683300,-0.023551280
1640791898682080000,-0.148036840,0.355957300,9.750951770,0.083369020,0.005888940,-0.036107010
1640791898683879936,-0.008182360,0.754554690,9.913357730,0.057569150,0.067889700,-0.036332010
1640791898687970048,-0.326696100,0.643118260,10.356666560,0.011928380,-0.026087460,-0.025327500
1640791898692260096,-0.284931240,0.456002410,9.910908700,0.022043290,-0.090885160,-0.017504400
1640791898694819840,0.051499780,0.595285950,8.742095950,0.056725740,-0.019633770,-0.019094350
1640791898695699968,-0.135841590,0.521742820,9.638373370,0.034600490,0.065739460,-0.016804040
1640791898697059840,0.022109420,0.563142900,10.112270360,-0.015391410,0.074048340,0.001746420
1640791898698880000,0.074341190,0.179685730,10.017470360,0.004260240,-0.036241110,-0.011795760
1640791898702439936,-0.005860450,0.049637360,10.059275630,0.042390820,-0.046794120,-0.031673910
1640791898704849920,0.039004920,0.494929130,9.152085300,0.025004150,0.022345780,-0.020638110
1640791898707639808,-0.312119660,0.374361780,9.722452160,-0.042280560,-0.016364460,-0.023679440
1640791898709219840,-0.065579410,0.210266960,9.527028080,-0.041662150,0.022402400,-0.021271400
1640791898712119808,0.180189010,0.166120870,9.216152190,0.057533390,0.062476110,-0.040318070
1640791898713850112,-0.074160510,0.295753720,10.233234410,0.070664290,0.044919550,-0.034502150
1640791898717200128,0.023120240,0.469544800,9.764607430,-0.015257300,0.024272500,-0.003340840
1640791898719159808,-0.189490150,0.079941550,9.744828220,-0.048449640,-0.064897540,-0.012618300
1640791898722339840,-0.149198580,-0.152181040,9.280775070,0.013720990,0.004255770,-0.034423170
1640791898725339904,0.051465480,0.004099490,8.896723750,0.097988540,0.087217970,-0.051437320
1640791898728070144,-0.249899760,0.152225180,10.191674230,0.063687570,0.082699950,-0.058402120
1640791898728969728,-0.204151530,0.242514190,10.057856560,-0.016558170,0.006201860,-0.046947600
1640791898732100096,-0.163765250,0.048992570,9.600925450,0.010910630,-0.076596450,-0.033962730
1640791898734069760,-0.225797370,-0.053667390,9.257642750,0.077444310,0.020186600,-0.038109720
1640791898737519872,-0.180427070,0.166664470,9.345936780,0.111067320,0.079901530,-0.049424180
1640791898739140096,-0.340026770,0.379250050,10.273607250,0.069093710,0.033721330,-0.036025050
1640791898742129920,-0.217033270,0.350070060,9.826600070,0.005984310,-0.019443040,-0.029116870
1640791898743849984,0.011702670,0.309107480,9.462796210,0.031365450,-0.038842860,-0.029228620
1640791898747089920,-0.139333380,0.460359600,9.614465710,0.076285010,0.061821940,-0.036107000
1640791898749179904,-0.251314310,0.483814630,9.906604770,0.069923700,0.021436810,-0.046768780
1640791898752130048,-0.241736930,0.590151250,9.916667940,0.045681000,-0.040081140,-0.030064580
1640791898754349824,-0.122477110,0.464640830,9.287977220,0.007998940,-0.010751190,-0.026345250
1640791898757179904,0.000043540,0.462145860,9.558160780,-0.000697370,0.044855480,-0.030282140
1640791898759699712,-0.125824090,0.577160840,10.069614410,0.016602870,0.055724390,-0.030694900
1640791898762140160,-0.142383680,0.229257350,9.987783430,0.032044950,-0.033080580,-0.037482380
1640791898763969792,-0.009692020,0.304626640,9.559132580,0.045402350,-0.032934550,-0.039979810
1640791898767209984,-0.095859150,0.385056640,9.316957470,0.006882850,0.022523100,-0.027751920
1640791898769049856,-0.093160160,0.287602810,9.676645280,-0.048126280,0.029516220,-0.023868680
1640791898772259840,0.078514110,0.282102970,9.547558780,-0.010652840,0.040224200,-0.020611290
1640791898774319872,0.078271450,0.069587690,9.613921170,0.057704750,0.029557950,-0.036045910
1640791898777060096,0.111719010,0.305656670,9.635372160,0.055146230,0.028635570,-0.038553770
1640791898778959872,-0.075420170,0.384215740,9.574983600,-0.009441380,0.023762880,-0.012229380
1640791898782369792,-0.159656290,-0.000507820,9.695625310,-0.049708790,0.001691280,-0.030633810
1640791898783959808,-0.124372680,-0.034616600,9.332622530,0.030308970,0.024507940,-0.045001510
1640791898787420160,-0.163113280,0.128973380,9.370892520,0.099480170,0.052370140,-0.056567800
1640791898788999936,-0.172941680,0.330683410,9.750997540,0.040234620,0.061342120,-0.042720140
1640791898793099776,-0.271025570,0.296199410,9.929914470,-0.015738610,0.014376640,-0.021450220
1640791898793959936,-0.246666370,-0.040995790,9.686094280,0.011326370,-0.017948450,-0.018988550
1640791898797259776,-0.187593580,0.038193290,9.365181920,0.088997210,-0.001165270,-0.035752360
1640791898798970112,-0.174988490,0.286215600,9.488572120,0.093598670,0.048616530,-0.047767160
1640791898802419968,-0.124745770,0.444099870,9.774859430,0.004109740,0.056299570,-0.043208900
1640791898803939840,-0.131860630,0.444138530,10.104184150,-0.024107100,-0.002674760,-0.031530860
1640791898807469824,0.013630920,0.332939270,9.707002640,0.030887130,-0.006482010,-0.032283370
1640791898808879872,-0.053940310,0.530152560,9.518059730,0.073133410,0.015676020,-0.049999360
1640791898812099840,-0.265375380,0.694940510,9.942165370,0.035792590,0.027385360,-0.032274430
1640791898814359808,-0.220478820,0.566139160,9.611001970,-0.032997140,0.001659990,-0.006361310
1640791898817109760,-0.124112080,0.255564660,9.599933620,-0.012746450,-0.024238230,-0.019986930
1640791898819269888,0.043859970,0.289166990,9.522596360,0.039182610,0.067901610,-0.035624210
1640791898822189824,-0.020216960,0.459111630,9.654494290,0.011223560,0.056709350,-0.037428740
1640791898823969792,-0.256454770,0.336860900,10.344375610,-0.020380320,-0.020876530,-0.025089090
1640791898827169792,-0.078291410,0.218846680,9.363857270,-0.025731330,-0.034482780,-0.016847250
1640791898829019904,-0.024276600,0.272860140,9.126599310,-0.001932680,-0.007319450,-0.025834140
1640791898832109824,0.048753030,0.318166020,9.567326550,-0.005961950,0.120250880,-0.015366080
1640791898833969920,0.068708350,0.180243310,9.752406120,-0.005075340,0.095386800,-0.019514560
1640791898837280000,-0.119717910,0.013372300,10.475422860,0.030437110,-0.031818450,-0.024451320
1640791898839020032,-0.064792910,0.044439570,9.201459880,0.027497110,-0.045816600,-0.014583770
1640791898842080000,-0.188455860,0.114199410,8.786387440,-0.004181270,-0.011189280,-0.039289900
1640791898843869952,-0.356559540,0.003291200,9.658729550,-0.025279820,0.106565660,-0.036334990
1640791898847129856,-0.303892430,0.001510130,9.792441370,0.033451620,0.079289090,-0.047510870
1640791898848960000,-0.368091880,0.131160200,10.256346700,0.094598540,-0.048936900,-0.038243830
1640791898852380160,-0.083602670,0.316569690,9.379484180,0.050847240,0.000369550,-0.013178590
1640791898853939968,-0.109779170,0.363199590,9.272309300,-0.011967120,0.031274560,-0.014828150
1640791898857080064,-0.290514590,0.194548130,10.242210390,0.013992190,0.041051210,-0.011090940
1640791898858959872,-0.132684930,0.236653490,9.488270760,0.075219580,-0.019297000,-0.026629870
1640791898863040000,0.037518870,0.532903130,9.332156180,0.078107410,-0.035488600,-0.037150080
1640791898863950080,0.018629800,0.693638030,9.738758090,-0.019857290,0.092153250,-0.030985480
1640791898867089920,-0.117992480,0.644983830,10.107515340,-0.059843060,0.031727550,-0.019744040
1640791898868899840,-0.217711600,0.427489400,10.248182300,0.016909840,-0.062046950,-0.020375850
1640791898872179968,-0.127161800,0.377767980,9.216584210,0.073665400,-0.033427770,-0.015375020
1640791898873879808,-0.166564300,0.592320080,9.295495030,0.024139880,0.038677450,-0.004248320
1640791898877110016,-0.255768750,0.481814650,9.924832340,-0.085395570,0.072537370,0.005337600
1640791898879420160,-0.096808620,0.103299390,9.877045630,-0.063997510,-0.012148920,-0.002765660
1640791898882089728,0.093389650,0.128689290,9.650301930,0.032441320,-0.005383790,-0.029890240
1640791898883970048,0.062014090,0.379534480,9.506036760,0.031486160,0.051672760,-0.029781470
1640791898887169792,-0.106708580,0.538871710,9.906265260,-0.056330860,0.028465680,-0.006428360
1640791898889019904,-0.062534420,0.298186540,9.697505000,-0.094260300,-0.015105310,-0.007757550
1640791898892099840,0.091875310,0.017345500,9.172842980,-0.022286180,0.010064250,-0.021669270
1640791898894330112,0.093981650,0.229379370,9.360383030,0.043047970,0.094082950,-0.011691450
1640791898897329920,-0.080838520,0.232119230,9.972202300,0.006590780,0.073929120,-0.012664500
1640791898898989824,-0.231311800,0.060634140,10.170478820,-0.046834350,-0.030988460,0.005194540
1640791898902139904,-0.142496910,-0.089465500,9.308831210,-0.036028030,-0.035060940,-0.002540650
1640791898903960064,-0.213346140,-0.267287490,9.184432030,0.026732680,0.032585860,-0.026601550
1640791898907150080,-0.299903690,0.081466600,9.660109520,0.042629250,0.103028120,-0.031082330
1640791898908910080,-0.337341960,0.260367630,10.061216350,0.005954500,0.030325360,-0.033143160
1640791898912160000,-0.221527460,0.239990350,9.954696660,-0.018563870,-0.055497890,-0.008535390
1640791898913869824,0.014251440,0.365260840,9.126696590,0.010095540,0.022238490,0.007344780
1640791898917159936,-0.145957860,0.356772810,9.739802360,0.033831590,0.051900740,-0.011001530
1640791898919040000,-0.317467150,0.452016200,10.259800910,0.031869110,0.030343240,-0.003001090
1640791898923460096,-0.193747010,0.522394780,9.559123040,0.005663930,-0.049313910,-0.004896520
1640791898924229888,-0.075570930,0.319492310,9.546912190,-0.021499400,-0.036786500,-0.000017880
1640791898927300096,0.066247600,0.537405610,9.376754760,-0.020687280,0.103449840,-0.002840160
1640791898928939776,-0.119188360,0.516914190,10.238257410,-0.019048150,0.054210430,-0.007817150
1640791898932189952,-0.300548290,0.385966930,10.577694890,-0.011323390,-0.047364830,0.013738870
1640791898934119936,-0.091000040,0.471807360,9.159536360,-0.007092950,-0.071515140,0.010006130
1640791898937199872,-0.151225600,0.462195100,9.304872510,-0.044687090,0.004389880,0.013853610
1640791898939749888,-0.160685020,0.536087810,9.669311520,-0.095325710,0.104779010,0.033120810
1640791898942329856,-0.068309580,0.396168140,9.982414250,-0.067201260,0.035221880,0.012159350
1640791898943909888,-0.058418170,0.180400310,10.235660550,-0.000716750,-0.034788240,0.009307260
1640791898947089920,0.098012480,0.438134460,9.305171970,0.001826880,0.005081300,0.008696320
1640791898948999936,-0.016995700,0.418907050,9.572098730,-0.089938950,0.022737680,0.005011260
1640791898952119808,-0.036145780,0.105992130,9.786142350,-0.132487710,0.038319830,0.022853910
1640791898954059776,0.209944610,-0.019784190,9.303421020,-0.037674600,0.060254330,0.002542140
1640791898957110016,0.072377500,0.068370060,9.814849850,0.021432340,0.040015580,-0.011911990
1640791898959889920,-0.036924730,0.265187290,9.686128620,-0.030080970,0.041061640,0.016857680
1640791898962089984,-0.201635180,0.119608360,9.753352170,-0.098469850,-0.000040230,0.020998720
1640791898963939840,-0.349060860,-0.194259350,9.712586400,-0.069999690,-0.009271500,0.005821880
1640791898967529984,-0.146434950,-0.047762980,9.112222670,0.027599930,0.069327650,-0.012806060
1640791898968959744,-0.203719440,0.213036820,9.767519000,0.035884980,0.102281570,-0.015999380
1640791898972709888,-0.345725740,0.265640910,10.326376910,-0.035414110,0.043821350,-0.003221630
1640791898973989888,-0.175972310,0.151911140,9.662647250,-0.045202670,-0.028912730,0.008903440
1640791898977120000,-0.235000490,-0.039665590,9.260521890,0.014747680,-0.025348360,-0.000649690
1640791898978969856,-0.197377770,0.071567330,9.274611470,0.054238740,0.070214280,-0.011971590
1640791898982139904,-0.179992440,0.369267340,9.864144330,0.018459560,0.086873780,-0.021281840
1640791898983980032,-0.314803990,0.283338460,10.408628460,-0.037468960,-0.010712450,-0.000905990
1640791898987239936,-0.004883660,0.212357980,9.610499380,-0.002296270,0.000244380,0.007222590
1640791898991469824,-0.223189130,0.300978000,9.685547830,0.042866170,0.014036890,-0.015084450
1640791898992549888,-0.481416290,0.369925470,10.103976250,0.038696830,0.010533630,-0.003932420
1640791898994839808,-0.304169300,0.548330310,9.484312060,-0.006255510,-0.007352230,0.011357670
1640791898997129984,-0.271293880,0.473868580,9.591409680,-0.034621360,-0.031079350,0.002048910
1640791898998979840,0.070028250,0.457020520,9.691825870,-0.013878940,0.093449650,0.008685890
1640791899002099968,0.039608740,0.714766620,10.104232790,0.000187750,0.057637680,-0.008293990
1640791899004070144,-0.277363090,0.579017880,10.614438060,-0.014193360,-0.075392430,0.002262000
1640791899008059904,-0.007841420,0.544926400,9.248728750,-0.035455820,-0.057314340,0.009156760
1640791899008989696,-0.091211010,0.529452620,9.113687520,-0.051963330,-0.013910230,0.000719730
