# timestamp, acc_x, acc_y, acc_z, gyro_x, gyro_y, gyro_z
1524899787.005335,1.161105513572693,-0.5890520215034486,1.6651220321655273,0.5971845984458923,1.7807878255844116,-12.640610694885254
1524899787.01518,1.2131255865097048,-0.625931978225708,1.711711645126343,0.5362132787704468,1.614205002784729,-13.18644905090332
1524899787.025186,1.2043461799621584,-0.6686683297157288,1.733814001083374,0.8913722634315491,1.0095733404159546,-12.545980453491211
1524899787.035275,1.1845759153366089,-0.74916809797287,1.771187424659729,0.8418445587158203,1.9354047775268555,-12.627699851989746
1524899787.045126,1.1699832677841189,-0.7752616405487062,1.8328068256378174,0.7394201159477234,1.5761080980300903,-13.2183256149292
1524899787.055355,1.1142073869705202,-0.8421543836593628,1.8313268423080447,0.8777436017990112,1.4645500183105469,-12.388315200805664
1524899787.065548,1.08094596862793,-0.9201927781105042,1.8701272010803223,0.7272931337356567,2.120711088180542,-13.27013111114502
1524899787.075759,1.0560481548309326,-0.9432789683341981,1.9204580783843994,0.4178653955459595,1.1825647354125977,-12.963226318359375
1524899787.085449,1.0462303161621096,-0.9765434861183168,1.9489516019821167,0.7212473154067993,1.332352638244629,-12.32249641418457
1524899787.095396,1.025601387023926,-1.0794556140899658,1.950423836708069,0.9421526193618774,1.6992086172103882,-12.992708206176758
1524899787.105916,1.0258281230926516,-1.0673333406448364,2.00703501701355,0.6066746115684509,1.3187164068222046,-12.214016914367676
1524899787.115464,1.0217920541763306,-1.1543514728546145,2.022996425628662,1.1840306520462036,1.7026841640472412,-12.789993286132812
1524899787.125866,1.0065615177154543,-1.2098529338836672,2.038149356842041,0.5441367626190186,1.9234992265701294,-12.69395637512207
1524899787.135174,1.0397797822952273,-1.1887260675430298,2.073285818099976,0.8087660074234009,1.6207823753356934,-12.769574165344238
1524899787.146914,1.019357204437256,-1.252863883972168,2.0576837062835693,0.6244377493858337,1.2139816284179688,-13.03838062286377
1524899787.15539,1.0419343709945679,-1.186851739883423,2.12955641746521,0.5022732615470886,1.7876304388046265,-12.128727912902832
1524899787.165275,1.0789115428924563,-1.1914623975753786,2.124448537826538,1.0891149044036865,1.657761573791504,-12.827057838439941
1524899787.175201,1.055900812149048,-1.1377183198928833,2.1397187709808354,0.6617425680160522,1.3612160682678223,-12.618719100952148
1524899787.185254,1.0919897556304934,-1.1198872327804565,2.152488946914673,0.9108027219772339,2.2828915119171143,-12.78657054901123
1524899787.195305,1.0702579021453857,-1.1006790399551394,2.174232244491577,0.38027268648147583,1.3675968647003174,-12.840557098388672
1524899787.205297,1.0768429040908816,-1.0461753606796267,2.1833324432373047,0.6411179304122925,2.1298701763153076,-12.710325241088867
1524899787.21526,1.0779274702072146,-1.0772038698196411,2.1785731315612797,0.8351390361785889,1.4266862869262695,-13.5806303024292
1524899787.225225,1.0716528892517092,-1.0362050533294678,2.2025084495544434,0.6628004312515259,1.2440028190612793,-12.1791410446167
1524899787.23531,1.0849354267120361,-1.0978218317031863,2.2070395946502686,1.0482568740844727,2.0886127948760986,-12.695778846740723
1524899787.245353,1.0895427465438845,-1.1419818401336672,2.2355175018310547,0.8466975092887878,1.5182220935821533,-12.051043510437012
1524899787.260069,1.1331574916839602,-1.176740288734436,2.2360131740570073,1.1130484342575073,2.018040657043457,-12.501008987426758
1524899787.265278,1.1564165353775027,-1.2432899475097656,2.2110466957092285,0.5590654611587524,1.6891571283340454,-12.805618286132812
1524899787.275199,1.1966019868850708,-1.1978814601898196,2.263481855392456,0.522715151309967,1.7419251203536987,-11.868635177612305
1524899787.28564,1.2378976345062258,-1.2621878385543825,2.221893787384033,1.003676176071167,1.482779860496521,-12.546833038330078
1524899787.295237,1.252972483634949,-1.2361783981323242,2.2569394111633305,0.7260947823524475,1.4134577512741089,-11.794157028198242
1524899787.305228,1.2885822057724001,-1.2127572298049927,2.2226643562316895,0.9629353880882263,1.8044838905334473,-12.462241172790527
1524899787.315246,1.2389674186706543,-1.2097566127777102,2.2627735137939453,0.7796581387519836,1.377445101737976,-12.666458129882812
1524899787.325267,1.2300040721893313,-1.182740926742554,2.25518536567688,0.899570882320404,1.9433975219726562,-12.30925178527832
1524899787.335308,1.1699562072753908,-1.187967300415039,2.2525498867034917,0.8852614164352417,1.4002825021743774,-13.18379020690918
1524899787.34527,1.0994112491607668,-1.1535909175872803,2.261054754257202,0.8438706398010254,1.37654447555542,-12.43971061706543
1524899787.355223,1.0506874322891235,-1.1800762414932253,2.2385621070861816,1.1262524127960205,1.860160231590271,-13.236824035644531
1524899787.365197,1.0205857753753664,-1.2030807733535769,2.2754859924316406,0.7011579871177673,1.2272624969482422,-12.795565605163574
1524899787.3753,1.003882169723511,-1.1940122842788696,2.2476813793182377,0.8751969933509827,1.576149821281433,-11.969807624816895
1524899787.385159,0.9845332503318788,-1.2468180656433105,2.2318482398986816,1.1809368133544922,1.6376770734786987,-13.097969055175781
1524899787.395385,0.9973928332328796,-1.2271320819854739,2.2519659996032715,0.8551796078681946,1.2510459423065186,-12.128717422485352
1524899787.405296,1.007404685020447,-1.2366316318511965,2.195279598236084,1.0573679208755493,1.724381923675537,-12.798007011413574
1524899787.415255,1.0176707506179812,-1.2589898109436035,2.211753129959107,1.0109111070632935,1.3949354887008667,-12.76856517791748
1524899787.425274,1.029116749763489,-1.239205002784729,2.161896228790283,1.1291197538375854,1.4118409156799316,-12.14549732208252
1524899787.435576,1.0244362354278564,-1.246431112289429,2.2011983394622803,0.9140129089355469,1.739452838897705,-13.059316635131836
1524899787.44524,0.998108208179474,-1.185267210006714,2.172989845275879,1.062636137008667,1.5390034914016724,-12.836350440979004
1524899787.455233,0.9676242470741273,-1.147379755973816,2.1632030010223393,1.002460241317749,1.3632158041000366,-12.524126052856445
1524899787.465194,0.9244534969329835,-1.1196584701538086,2.1467995643615723,0.9188661575317383,1.3530148267745972,-13.42780876159668
1524899787.475249,0.8540028929710388,-1.0374163389205935,2.137697219848633,0.830569326877594,1.5374211072921753,-12.379542350769043
1524899787.4854,0.840382754802704,-1.0278855562210085,2.144331216812134,1.0792717933654785,1.5722023248672485,-12.717233657836914
1524899787.495153,0.7825717329978944,-1.0118086338043213,2.093000411987305,1.1428742408752441,1.237778902053833,-13.376839637756348
1524899787.505349,0.7494697570800782,-1.00800621509552,2.0666544437408447,1.1393754482269287,1.567953109741211,-12.660317420959473
1524899787.515265,0.7868902683258057,-1.0834736824035647,2.081997871398926,1.1994003057479858,1.4291744232177734,-13.156538963317871
1524899787.525167,0.7787069082260133,-1.138952136039734,2.0450708866119385,1.4160683155059814,1.4390536546707153,-13.161346435546875
1524899787.535292,0.8370943069458009,-1.2513388395309448,2.0175080299377446,1.0362831354141235,1.7431974411010742,-12.6582670211792
1524899787.545167,0.869675636291504,-1.2717342376708984,2.0316386222839355,1.0181998014450073,1.1494396924972534,-12.450708389282227
1524899787.555187,0.9165654182434082,-1.2911071777343752,2.005708694458008,1.2987041473388672,1.660105586051941,-12.897109985351562
1524899787.565242,0.9721082448959352,-1.3468911647796633,2.0074005126953125,1.045902132987976,1.8624130487442017,-13.014266014099121
1524899787.575358,1.0140063762664797,-1.2554328441619873,1.9866632223129275,0.7858370542526245,0.8271031379699707,-12.383636474609375
1524899787.586262,1.0192644596099856,-1.224772334098816,1.9594488143920898,1.1202667951583862,1.4974370002746582,-12.629173278808594
1524899787.595801,1.041232705116272,-1.1970599889755251,1.97556471824646,1.1146036386489868,1.5752360820770264,-13.153288841247559
1524899787.605228,1.054023623466492,-1.0958636999130251,1.9587397575378418,0.8488124012947083,0.9791147112846375,-12.646860122680664
1524899787.615252,1.035877346992493,-1.035577654838562,1.9147994518280032,1.0316401720046997,1.4573529958724976,-12.411295890808105
1524899787.625166,1.0389168262481692,-0.9834054708480835,1.939518690109253,1.225730538368225,1.1125550270080566,-12.960126876831055
1524899787.635691,1.0198904275894165,-0.9560685753822328,1.9010040760040283,1.0528217554092407,1.2360960245132446,-12.75814151763916
1524899787.645377,1.0342208147048952,-0.9441928863525392,1.911657691001892,0.9548979997634888,1.543920874595642,-12.129938125610352
1524899787.655196,1.070779085159302,-0.9414326548576355,1.8913339376449587,1.3425534963607788,1.1352745294570923,-12.600318908691406
1524899787.665329,1.0887445211410525,-1.0040724277496338,1.8530139923095703,1.1237316131591797,1.4100348949432373,-12.803253173828125
1524899787.6752,1.1492443084716797,-1.0414152145385744,1.8657399415969849,1.0626811981201172,1.5760725736618042,-12.417311668395996
1524899787.685281,1.205663084983826,-1.0551931858062746,1.8459893465042114,1.2187312841415405,0.9830946922302246,-12.121739387512207
1524899787.700374,1.2538226842880251,-1.1124494075775146,1.8512634038925173,1.026179313659668,1.4550646543502808,-12.318448066711426
1524899787.705326,1.3025605678558352,-1.1126925945281982,1.8347240686416626,1.1000491380691528,1.2206854820251465,-12.777241706848145
1524899787.715201,1.3176711797714233,-1.1138339042663576,1.819427728652954,1.0845121145248413,1.0406585931777954,-12.209796905517578
1524899787.7252,1.3691904544830324,-1.1245009899139407,1.8262006044387817,0.9345299601554871,1.484407901763916,-11.970821380615234
1524899787.735227,1.419933080673218,-1.0560109615325928,1.8170233964920046,1.1350680589675903,1.179594874382019,-12.576207160949707
1524899787.745166,1.4550722837448122,-1.0273218154907227,1.8034980297088623,1.019225835800171,1.1015076637268066,-12.392696380615234
1524899787.755161,1.4809306859970093,-0.9819073677062989,1.803202748298645,0.9344523549079895,1.3199291229248047,-11.840160369873047
1524899787.76517,1.5368938446044924,-0.9365679621696473,1.8157862424850464,1.1625702381134033,1.168410062789917,-12.374923706054688
1524899787.775378,1.5403136014938357,-0.9104525446891785,1.8042609691619875,1.113828420639038,1.2130961418151855,-12.359453201293945
1524899787.785139,1.5745986700057986,-0.9130811095237732,1.8165005445480347,1.081397533416748,1.040860891342163,-11.607741355895996
1524899787.795175,1.5945113897323608,-0.9114210605621339,1.8221781253814697,1.1640864610671997,1.2722901105880737,-12.027233123779297
1524899787.805251,1.6042143106460574,-0.9296173453330995,1.8233153820037842,1.1674398183822632,1.2975001335144043,-12.195354461669922
1524899787.815661,1.6497250795364382,-0.9528332352638245,1.8215798139572146,0.9192838072776794,1.2296448945999146,-11.600630760192871
1524899787.825428,1.6822241544723513,-0.9632084369659424,1.8380954265594482,1.0711289644241333,1.174304723739624,-12.299086570739746
1524899787.835327,1.7090009450912476,-0.9919931888580323,1.830702781677246,1.0749878883361816,1.1991753578186035,-12.406449317932129
1524899787.845153,1.7313287258148196,-0.9978554248809816,1.8512271642684937,0.7813172340393066,1.1425995826721191,-11.572672843933105
1524899787.855158,1.7517513036727907,-0.9760404229164124,1.8734296560287478,1.0349977016448975,0.8825857043266296,-11.996787071228027
1524899787.865371,1.7330147027969363,-0.9936884045600891,1.8666473627090454,1.1728535890579224,0.9849209189414978,-11.692435264587402
1524899787.875203,1.7336292266845703,-0.9773486256599427,1.9090019464492798,0.9169468879699707,1.1302249431610107,-11.031905174255371
1524899787.885216,1.7307499647140505,-0.9581212997436525,1.892723560333252,1.146977186203003,1.1047296524047852,-11.819611549377441
1524899787.895089,1.7285999059677126,-0.9544333219528198,1.924811363220215,0.9774858951568604,1.2205208539962769,-11.290459632873535
1524899787.905089,1.773338556289673,-0.957015872001648,1.9216312170028687,0.9968648552894592,1.2883988618850708,-11.856761932373047
1524899787.915289,1.7889513969421387,-0.9588066339492799,1.9466968774795532,0.8654612898826599,0.8429752588272095,-12.019354820251465
1524899787.925213,1.8356001377105715,-0.9285039305686952,1.9541071653366089,0.9485419988632202,1.191450595855713,-11.321243286132812
1524899787.935243,1.8783247470855715,-0.9356306791305542,1.9710838794708254,1.0766898393630981,0.7261257767677307,-11.754674911499023
1524899787.945652,1.8781254291534426,-0.9123630523681641,1.9950435161590576,0.9100268483161926,0.863739550113678,-11.080120086669922
1524899787.955188,1.9328467845916748,-0.9268630146980287,2.0037295818328857,1.1751470565795898,1.4901888370513916,-11.415772438049316
1524899787.965204,1.9208008050918581,-0.9324096441268922,2.023192882537842,0.887133002281189,0.5976802110671997,-11.674267768859863
1524899787.975113,1.9429200887680056,-0.904748797416687,2.0174276828765874,0.8185167908668518,1.3783862590789795,-11.20222282409668
1524899787.985074,1.9636534452438357,-0.9218459725379944,2.062300682067871,1.0023317337036133,0.5474435091018677,-11.366494178771973
1524899787.995206,1.9632378816604614,-0.887660324573517,2.0594472885131836,1.0568846464157104,0.6701636910438538,-10.576326370239258
1524899788.005478,1.9666371345520022,-0.9564048647880555,2.0862648487091064,0.994277834892273,1.2194509506225586,-11.440472602844238
1524899788.015133,1.9483102560043337,-0.9278350472450256,2.097404479980469,0.7142884731292725,0.8000903129577637,-11.104063987731934
1524899788.0251,1.945966720581055,-0.9778648614883423,2.118246555328369,1.1102967262268066,0.7611309885978699,-11.315834999084473
1524899788.035454,1.9277825355529785,-1.0169576406478884,2.1119256019592285,0.7785542011260986,0.7446569204330444,-10.705761909484863
1524899788.045343,1.9292294979095461,-1.0171359777450564,2.1446990966796875,1.0497163534164429,0.7026715874671936,-11.015231132507324
1524899788.055348,1.8685960769653323,-1.0899766683578491,2.1232795715332036,0.7922799587249756,0.810507595539093,-11.332396507263184
1524899788.06516,1.8239051103591921,-1.0818994045257568,2.1859190464019775,0.8194652199745178,1.0241276025772095,-11.240378379821777
1524899788.076669,1.7526816129684448,-1.104016184806824,2.1832027435302734,0.8973391652107239,0.025940943509340286,-11.099206924438477
1524899788.085124,1.6505954265594485,-1.1277459859848025,2.201226234436035,1.0558253526687622,0.7741608023643494,-10.651630401611328
1524899788.095176,1.55372428894043,-1.1599012613296509,2.2117831707000737,0.8265463709831238,0.6217789649963379,-11.320514678955078
1524899788.105204,1.4534215927124026,-1.149492859840393,2.232116937637329,0.8158344626426697,0.723102331161499,-11.179898262023926
1524899788.115175,1.3698575496673584,-1.1895562410354616,2.242882013320923,0.8423892855644226,0.6217982172966003,-11.832818031311035
1524899788.126186,1.317616105079651,-1.1807661056518557,2.2464218139648438,0.7054080963134766,0.4026527404785156,-10.985668182373047
1524899788.135216,1.229208827018738,-1.2144187688827515,2.2517752647399907,1.06382417678833,0.12225587666034698,-11.538274765014648
1524899788.145286,1.149601221084595,-1.2722537517547607,2.277446985244751,0.9148306846618652,0.9026593565940857,-10.905828475952148
1524899788.155462,1.1028094291687012,-1.3123722076416018,2.296478033065796,0.8490808010101318,0.5290982127189636,-11.970357894897461
1524899788.165244,1.0357455015182497,-1.3577100038528445,2.287933349609375,0.6677001118659973,0.4719063639640808,-11.205742835998535
1524899788.175201,1.009744167327881,-1.4049519300460815,2.267863512039185,0.9706210494041443,0.5909844040870667,-11.256070137023926
1524899788.185292,0.9598622322082521,-1.4327813386917114,2.2845683097839355,0.8396044373512268,0.16349230706691742,-11.235831260681152
1524899788.195329,0.9457005858421326,-1.4477549791336062,2.291008234024048,0.7759544253349304,0.9776778221130371,-11.520733833312988
1524899788.205138,0.9358243346214296,-1.449679493904114,2.3223915100097656,0.7625223398208618,0.2969999611377716,-12.520919799804688
1524899788.215135,0.9065824747085572,-1.4078800678253174,2.2876842021942143,0.7208167910575867,0.27388250827789307,-11.820327758789062
1524899788.225106,0.8700746893882753,-1.3466888666152954,2.320154905319214,0.5109525322914124,0.217514306306839,-11.916289329528809
1524899788.23569,0.7841660380363464,-1.2691571712493899,2.307816505432129,0.9221338033676147,0.21485558152198792,-11.797391891479492
1524899788.245569,0.7343951463699342,-1.2031710147857668,2.3431570529937744,0.5053662657737732,0.3920765519142151,-11.19270133972168
1524899788.255271,0.6664806008338929,-1.1147968769073486,2.3505463600158696,0.6228213310241699,0.20635707676410675,-12.098445892333984
1524899788.265386,0.5956687331199647,-1.056009292602539,2.2939059734344482,0.6267575025558472,0.606448769569397,-11.86852741241455
1524899788.275176,0.6055781841278076,-1.011394023895264,2.3258895874023438,0.4052298069000244,0.2821073830127716,-12.11739444732666
1524899788.28521,0.5741500854492189,-0.9745360612869264,2.284834623336792,0.7016074657440186,0.24214506149291992,-12.770119667053223
1524899788.295096,0.5986365079879762,-0.9804782271385193,2.293601036071778,0.7216414213180542,0.34702298045158386,-11.994475364685059
1524899788.30581,0.6164496541023256,-0.939643919467926,2.2930386066436768,0.5240651965141296,0.042631715536117554,-11.600777626037598
1524899788.31541,0.6158825159072876,-0.9223810434341432,2.285074234008789,0.7776467800140381,0.13599860668182373,-12.061070442199707
1524899788.325184,0.6135573387145997,-0.9347147345542909,2.268878221511841,0.5908018350601196,0.7263973951339722,-12.453523635864258
1524899788.335178,0.6231473088264466,-0.8707849383354187,2.267088890075684,0.30361926555633545,0.202363520860672,-12.275053977966309
1524899788.345434,0.6177421808242799,-0.8166677951812744,2.2522084712982178,0.36646196246147156,-0.0501997247338295,-12.640989303588867
1524899788.355085,0.5767267346382141,-0.7776930928230287,2.2384068965911865,0.5440282821655273,0.3851310610771179,-12.904257774353027
1524899788.365165,0.5486123561859132,-0.6994028687477113,2.2383439540863037,0.3460023105144501,-0.05604184791445732,-13.10140323638916
1524899788.375083,0.47609573602676397,-0.6124722957611084,2.2196261882781987,0.2780439257621765,-0.05296887829899788,-12.642826080322266
1524899788.385107,0.43072509765625006,-0.5531038045883179,2.228363037109375,0.3642725944519043,0.15046998858451843,-12.178608894348145
1524899788.395114,0.40646329522132874,-0.48723998665809637,2.213653564453125,0.261197954416275,-0.049130070954561234,-12.218544960021973
1524899788.405141,0.3690717816352845,-0.4318041801452637,2.176708936691284,0.3217415511608124,0.3146500289440155,-12.453766822814941
1524899788.415222,0.3724717199802399,-0.3763467073440552,2.1656279563903813,0.4475659728050232,0.3078348934650421,-12.262146949768066
1524899788.42511,0.3544521629810334,-0.30863818526268005,2.118643283843994,0.1700766235589981,-0.12352187186479568,-12.050149917602539
1524899788.435279,0.3458655774593353,-0.2817291617393494,2.133850574493408,0.3370803892612457,0.2551569938659668,-12.340394973754883
1524899788.44522,0.3343513906002045,-0.26649114489555364,2.097238302230835,0.4506615400314331,0.2807169556617737,-12.57597541809082
1524899788.455168,0.3044844269752503,-0.22446197271347046,2.0977616310119633,0.29633671045303345,0.18834492564201355,-12.939007759094238
1524899788.465594,0.27705362439155584,-0.19023768603801727,2.076538562774658,0.143626868724823,0.3256921172142029,-13.156726837158203
1524899788.475238,0.22468024492263794,-0.12812772393226626,2.0708155632019043,0.26367661356925964,0.07327134907245636,-12.952223777770996
1524899788.485276,0.1858484745025635,-0.07403063029050828,2.0387332439422607,0.04301055520772934,0.11997511982917786,-12.699824333190918
1524899788.49523,0.11954119056463243,0.030627433210611343,2.0177726745605473,0.046892035752534866,0.09034578502178192,-12.372747421264648
1524899788.505206,0.07729007303714754,0.12290328741073608,1.9946277141571045,0.16634805500507355,0.10586012899875641,-12.448506355285645
1524899788.515261,0.0444100983440876,0.19067856669425967,1.9704397916793823,0.14155717194080353,0.27885955572128296,-12.575409889221191
1524899788.525164,0.018235774710774425,0.2625367939472199,1.942859411239624,0.17282772064208984,0.2814525365829468,-12.871201515197754
1524899788.535223,0.008955548517405989,0.2926139235496521,1.8890790939331057,0.1227516457438469,0.2908705472946167,-12.872230529785156
1524899788.545302,-0.005397652741521598,0.32649579644203186,1.858715534210205,0.13841788470745087,0.36402180790901184,-12.992591857910156
1524899788.555226,0.010101084597408772,0.35268223285675054,1.835613489151001,0.19381648302078247,0.21780738234519958,-12.790303230285645
1524899788.565218,0.002064398489892483,0.36146679520607,1.7994542121887207,0.008252730593085289,0.353127121925354,-12.658055305480957
1524899788.575267,0.02296058274805546,0.38247984647750854,1.7709141969680788,0.24648445844650269,0.14810766279697418,-12.371377944946289
1524899788.585998,0.02055771835148335,0.39764949679374695,1.7095977067947388,0.12926024198532104,0.24605409801006317,-12.202840805053711
1524899788.595278,0.006594034377485514,0.4619689583778382,1.6822971105575562,-0.026625782251358032,0.4005028009414673,-11.983210563659668
1524899788.605122,0.0139631275087595,0.5403928756713868,1.6646478176116943,0.0930279865860939,0.21793104708194733,-11.871180534362793
1524899788.615531,-0.014496772550046446,0.6258700489997864,1.5867385864257815,0.08262820541858673,0.31396764516830444,-11.832728385925293
1524899788.625164,-0.0022184376139193778,0.7213776707649231,1.56196928024292,-0.06937095522880554,0.42918074131011963,-11.995355606079102
1524899788.635122,-0.009666875936090946,0.8420964479446412,1.5060975551605225,0.00841221772134304,0.4237108528614044,-12.104188919067383
1524899788.645173,0.006939000915735961,0.9274435043334962,1.4967035055160522,0.0491342730820179,0.5744007229804993,-12.114944458007812
1524899788.655108,0.05255052819848061,0.9883296489715576,1.4172798395156863,0.10763169080018997,0.5286405682563782,-12.168195724487305
1524899788.665101,0.07191223651170732,1.0498374700546265,1.3798357248306274,-0.010565394535660744,0.4632481336593628,-12.118426322937012
1524899788.675165,0.12856604158878326,1.0888223648071291,1.3473069667816162,0.13713562488555908,0.42987334728240967,-12.133323669433594
1524899788.685107,0.1711380481719971,1.1223590373992922,1.2933400869369507,0.15598757565021515,0.566767692565918,-11.928618431091309
1524899788.695151,0.23379412293434146,1.1493744850158691,1.2670075893402102,0.09309347718954086,0.4513013958930969,-11.86135482788086
1524899788.705196,0.2802091538906098,1.1964894533157349,1.1895155906677246,0.19944775104522705,0.6406431794166565,-11.651991844177246
1524899788.715185,0.32453107833862305,1.23837947845459,1.1731503009796143,-0.0238887257874012,0.6057816743850708,-11.448068618774414
1524899788.725264,0.3684237897396088,1.2928088903427126,1.1196492910385132,-0.010390189476311207,0.661700427532196,-11.265726089477539
1524899788.73563,0.41273427009582525,1.3523858785629272,1.0803885459899905,0.09095465391874313,0.4556621313095093,-11.140631675720215
1524899788.746113,0.46115890145301824,1.3968809843063354,1.0194212198257446,0.004898332059383392,0.5489367246627808,-11.220881462097168
1524899788.755133,0.4987453520298004,1.4782607555389407,0.966762363910675,0.11280358582735062,0.5561132431030273,-11.282073974609375
1524899788.765291,0.557887375354767,1.5228950977325442,0.9420288801193237,0.0840410441160202,0.5985885858535767,-11.141048431396484
1524899788.775155,0.61797833442688,1.5524559020996094,0.8708402514457704,0.06770020723342896,0.771278977394104,-11.115518569946289
1524899788.785088,0.6920308470726014,1.5793827772140503,0.8381974101066589,0.2520223557949066,0.6094650626182556,-11.027501106262207
1524899788.795363,0.7724499106407166,1.5485281944274905,0.7672288417816162,-0.038462430238723755,0.90048748254776,-11.029611587524414
1524899788.80507,0.8659350872039796,1.5220350027084353,0.7532808780670166,0.19012382626533508,0.7932814955711365,-10.981877326965332
1524899788.815139,0.958102583885193,1.4627101421356201,0.6705890893936158,0.28235161304473877,0.7852201461791992,-10.981106758117676
1524899788.825088,1.0539630651474001,1.405414342880249,0.6236183643341064,-0.017058663070201874,0.9452477097511292,-10.897692680358887
1524899788.835118,1.14732027053833,1.3745254278182986,0.5753403306007385,0.04188184812664986,0.6635488271713257,-10.81005859375
1524899788.845306,1.2157794237136843,1.3331329822540285,0.5131258368492126,0.3069934844970703,0.977282702922821,-10.751845359802246
1524899788.855117,1.290868401527405,1.305914282798767,0.48227006196975714,-0.14542831480503082,0.9105202555656433,-10.699541091918945
1524899788.865093,1.3411766290664675,1.3137859106063843,0.40460318326950073,-0.022905634716153145,0.7322470545768738,-10.58517074584961
1524899788.875173,1.3879743814468384,1.2805405855178835,0.3563729226589203,0.18446218967437744,0.9077982902526855,-10.383578300476074
1524899788.885116,1.4371823072433474,1.2859092950820925,0.2921879291534424,-0.06490899622440338,0.8997728228569031,-10.575758934020996
1524899788.895196,1.467495918273926,1.316709041595459,0.25572881102561956,-0.10429122298955917,0.9081299304962158,-10.554591178894043
1524899788.905081,1.5144581794738772,1.3116540908813477,0.1925182342529297,0.10660060495138168,0.8858192563056946,-10.285910606384277
1524899788.915175,1.5496761798858643,1.3136463165283205,0.10810848325490952,0.06686539947986603,0.8978126645088196,-10.281074523925781
1524899788.925374,1.5821976661682131,1.324281692504883,0.06522932648658752,-0.034953728318214417,0.6912793517112732,-10.424263000488281
1524899788.935194,1.6122343540191653,1.3314235210418701,0.002520391019061208,0.06709173321723938,0.9447754621505737,-9.78279972076416
1524899788.945135,1.663394093513489,1.3000761270523071,-0.056965962052345276,0.16029775142669678,0.9354196786880493,-10.127738952636719
1524899788.955203,1.698824167251587,1.2497032880783083,-0.1317909210920334,0.1584414541721344,0.9091936349868774,-10.110745429992676
1524899788.965191,1.749374866485596,1.2132265567779543,-0.20098955929279327,0.06406215578317642,1.251917839050293,-9.778051376342773
1524899788.97516,1.828443765640259,1.1802846193313599,-0.26814582943916326,0.14160799980163574,0.8263248801231384,-10.27563762664795
1524899788.985115,1.8555310964584353,1.1188398599624634,-0.3229351341724396,0.2089184671640396,1.1680630445480347,-9.992103576660156
1524899788.995199,1.9211864471435547,1.0763368606567385,-0.40309974551200867,0.053141992539167404,1.0346183776855469,-10.14022159576416
1524899789.005267,1.9283871650695803,1.0293335914611819,-0.48531749844551086,0.2463388890028,1.1959693431854248,-10.236978530883789
1524899789.015176,1.9596105813980105,0.9933989644050598,-0.5243531465530397,0.13197001814842224,1.019722819328308,-10.219123840332031
1524899789.025571,1.9284218549728396,0.9507603645324707,-0.626531720161438,0.08353779464960098,1.0208191871643066,-10.10828685760498
1524899789.03508,1.9064054489135742,0.9243097305297853,-0.6938437819480896,0.08183196187019348,1.1114085912704468,-10.23526382446289
1524899789.045271,1.8694547414779665,0.9486294388771058,-0.7941010594367981,0.09649670869112015,1.1436216831207275,-10.159111022949219
1524899789.055163,1.8085459470748904,0.9421281814575195,-0.8628171682357789,0.18646177649497986,0.9933857321739197,-10.10495662689209
1524899789.065091,1.7893413305282595,0.9440057277679443,-0.9439019560813904,0.18762578070163727,1.0373404026031494,-10.226241111755371
1524899789.075115,1.744936466217041,0.9591113924980165,-1.0129945278167725,0.08227857947349548,0.7654905915260315,-10.541168212890625
1524899789.085129,1.7227652072906496,0.9411190748214723,-1.1037346124649048,0.07534100115299225,1.0703880786895752,-10.434950828552246
1524899789.09517,1.7177557945251467,0.8924897909164429,-1.1839669942855837,0.2097773402929306,1.086804747581482,-10.717424392700195
1524899789.105172,1.7279850244522097,0.839300274848938,-1.2791519165039062,-0.048232339322566986,1.0618120431900024,-10.2539644241333
1524899789.115241,1.7638894319534302,0.7877796888351442,-1.3359686136245728,-0.024643411859869957,1.4435268640518188,-10.394209861755371
1524899789.125227,1.7987990379333498,0.7289427518844606,-1.4246753454208374,0.34024322032928467,1.0133365392684937,-10.048735618591309
1524899789.135851,1.8322644233703616,0.6439411640167236,-1.5227583646774294,0.15914171934127808,1.3904504776000977,-9.815653800964355
1524899789.145092,1.8437907695770266,0.6001536846160889,-1.6131173372268677,0.14040374755859375,1.0782017707824707,-10.22478199005127
1524899789.155025,1.8668115139007568,0.5641906857490541,-1.7063055038452148,0.19357623159885406,0.9856882691383362,-9.96117115020752
1524899789.165146,1.8463604450225832,0.5131714344024659,-1.7962204217910767,0.1788409799337387,1.16305673122406,-10.685047149658203
1524899789.175074,1.830472230911255,0.5257856249809265,-1.8479111194610598,-0.08031155169010162,0.8135431408882141,-10.798311233520508
1524899789.185067,1.7636792659759524,0.49471357464790344,-1.9690957069396973,-0.06128193438053131,1.1627141237258911,-10.519868850708008
1524899789.195094,1.7155507802963257,0.4964702725410462,-2.0345513820648193,-0.184855654835701,1.241195797920227,-10.338034629821777
1524899789.205219,1.6808614730834963,0.5470849871635438,-2.1167240142822266,0.09771072864532471,1.1454801559448242,-9.918344497680664
1524899789.215033,1.638377666473389,0.5600897669792175,-2.1963362693786626,0.15498335659503937,0.8621838688850403,-10.339537620544434
1524899789.226397,1.6175111532211306,0.599128246307373,-2.2602100372314453,-0.16988888382911682,1.2455689907073975,-11.187605857849121
1524899789.235058,1.5843592882156372,0.6081396937370301,-2.3437578678131104,0.08904332667589188,1.0242269039154053,-10.833948135375977
1524899789.245289,1.5918886661529543,0.5500773191452027,-2.4323277473449707,-0.23842163383960724,1.385694980621338,-10.309271812438965
1524899789.255229,1.602408289909363,0.5822246074676514,-2.5012958049774174,0.11271218210458755,1.3940664529800415,-10.215791702270508
1524899789.265142,1.639529347419739,0.565162181854248,-2.5536160469055176,0.24260075390338898,0.8908798694610596,-10.294268608093262
1524899789.275395,1.6326019763946533,0.5573673844337464,-2.645256757736206,0.0453166738152504,1.0828475952148438,-11.06369686126709
1524899789.285222,1.6247173547744753,0.5676614046096803,-2.698610782623291,-0.13128352165222168,1.1873388290405273,-11.678139686584473
1524899789.295114,1.6055904626846316,0.5624070763587952,-2.769783258438111,-0.28978535532951355,0.9602779746055603,-10.83035945892334
1524899789.305053,1.5575006008148196,0.5575931072235107,-2.859546184539795,0.06005868315696716,1.245171070098877,-10.357514381408691
1524899789.315036,1.5311213731765747,0.5845198035240174,-2.9117422103881836,0.020764688029885292,0.8507904410362244,-11.041437149047852
1524899789.325064,1.4449117183685305,0.6548405885696412,-2.9667229652404785,-0.21143220365047455,0.7855967879295349,-11.65164852142334
1524899789.335083,1.388914465904236,0.6413524746894836,-3.0343155860900883,-0.3012538552284241,1.3629162311553955,-11.637598037719727
1524899789.345102,1.3287925720214846,0.666939377784729,-3.0787265300750732,-0.0502547025680542,0.9796887636184692,-10.486359596252441
1524899789.355048,1.2737799882888794,0.6687552332878114,-3.1474380493164062,0.09261948615312576,0.8878387212753296,-11.397124290466309
1524899789.365385,1.2380014657974245,0.659519135951996,-3.2096943855285645,-0.5212595462799072,1.1820480823516846,-12.06710147857666
1524899789.375105,1.2065207958221438,0.7152248024940491,-3.2524127960205083,-0.2836466431617737,1.0877207517623901,-11.483980178833008
1524899789.385229,1.1952611207962038,0.6433724164962769,-3.3106400966644287,-0.1373985856771469,1.474374771118164,-10.731937408447266
1524899789.395063,1.185117244720459,0.7111665606498719,-3.3352553844451904,-0.25010785460472107,1.1743303537368774,-11.243391036987305
1524899789.405053,1.1875363588333132,0.7279896736145021,-3.400763988494873,-0.056914426386356354,1.0698708295822144,-11.835836410522461
1524899789.415082,1.1583249568939211,0.6643054485321045,-3.455097913742066,-0.26193171739578247,1.0724109411239624,-11.936087608337402
1524899789.425293,1.1473883390426638,0.6774358153343201,-3.4870364665985107,-0.32694146037101746,1.3873399496078491,-10.80541706085205
1524899789.435541,1.1113098859786987,0.6676235795021058,-3.535839080810547,-0.042525678873062134,1.1025320291519165,-11.098634719848633
1524899789.445108,1.0513676404953005,0.6841166019439698,-3.5777435302734375,-0.12505678832530975,0.6643449664115906,-12.158112525939941
1524899789.455148,0.9614126086235047,0.6647217273712158,-3.6506373882293706,-0.19252337515354156,1.2018159627914429,-12.088956832885742
1524899789.465127,0.9085017442703248,0.6645135879516602,-3.6508889198303223,-0.5738162994384766,0.8782095313072205,-11.545328140258789
1524899789.47507,0.8352529406547546,0.6735587716102601,-3.684730052947998,0.0958731472492218,0.9876113533973694,-11.69623851776123
1524899789.485062,0.7624388933181764,0.6877146959304811,-3.7180707454681396,-0.3720787763595581,0.8567159175872803,-13.19757080078125
1524899789.495047,0.7408671379089357,0.7293288707733154,-3.7373752593994145,-0.9123737215995789,1.1509909629821777,-12.166258811950684
1524899789.505123,0.704029679298401,0.6997754573822021,-3.7546892166137695,0.061932504177093506,1.2202951908111572,-12.10366439819336
1524899789.515155,0.7081144452095032,0.6920502781867982,-3.758488178253174,-0.1541607677936554,1.3016903400421143,-12.263445854187012
1524899789.525072,0.6835329532623292,0.7176550626754762,-3.7870049476623535,-0.47647979855537415,0.8877550363540649,-12.716463088989258
1524899789.535138,0.6733174324035646,0.624077558517456,-3.8216619491577153,-0.4713314473628998,1.3195770978927612,-11.850815773010254
1524899789.545066,0.6656364202499391,0.581553041934967,-3.8385097980499268,0.034713391214609146,1.329056739807129,-11.71247386932373
1524899789.555114,0.6357255578041077,0.6094591021537782,-3.8572802543640137,-0.37322020530700684,0.6539189219474792,-12.300065040588379
1524899789.565166,0.6193078160285951,0.5947561860084535,-3.838440418243408,-0.4048638641834259,1.1558265686035156,-12.8742036819458
1524899789.575133,0.5878074765205384,0.5826327204704285,-3.872997045516968,-0.3127909004688263,0.7662739753723145,-13.1375150680542
1524899789.585084,0.5571311116218568,0.5794976949691772,-3.816096067428589,-0.6706671118736267,1.1408175230026245,-12.099363327026367
1524899789.595042,0.5298200249671936,0.6292931437492372,-3.8416225910186768,-0.3720720410346985,1.245478630065918,-11.982170104980469
1524899789.605382,0.5141056776046754,0.6446456313133241,-3.8359429836273193,-0.24758696556091309,0.7115193605422974,-12.908692359924316
1524899789.615093,0.4688230454921723,0.659908652305603,-3.820360898971558,-0.6698271632194519,1.0401477813720703,-13.06871223449707
1524899789.625141,0.48309448361396795,0.6780919432640076,-3.8141653537750244,-0.688566267490387,1.259415626525879,-12.747933387756348
1524899789.635704,0.4629146456718445,0.680681884288788,-3.778670310974121,-0.20346388220787048,0.9570411443710327,-12.413789749145508
1524899789.645028,0.447759360074997,0.6569566726684571,-3.770724296569824,-0.3855021297931671,1.2567237615585327,-12.314613342285156
1524899789.655185,0.4463790357112885,0.6759242415428162,-3.73877763748169,-0.5240760445594788,0.9111869931221008,-12.29531192779541
1524899789.665156,0.40802600979805,0.6202444434165955,-3.7305104732513428,-0.09470319747924805,0.9111573100090027,-12.717337608337402
1524899789.675136,0.3972676694393158,0.534178137779236,-3.664778232574463,-0.3090752065181732,1.1983778476715088,-12.960159301757812
1524899789.685062,0.3847655057907105,0.5280506610870362,-3.6575324535369873,-0.6870918273925781,0.7698381543159485,-12.86742877960205
1524899789.695121,0.36307272315025335,0.4685862362384796,-3.5807337760925297,-0.4312095642089844,0.7281349301338196,-12.765833854675293
1524899789.705163,0.3562724888324738,0.3983626961708069,-3.546959638595581,-0.20418474078178406,1.4870994091033936,-12.742759704589844
1524899789.71509,0.37835797667503357,0.37437319755554205,-3.480734348297119,-0.8373591899871826,0.6381095051765442,-12.659485816955566
1524899789.725165,0.3774829208850861,0.3405496776103974,-3.418428421020508,-0.3404693901538849,1.1527595520019531,-12.647188186645508
1524899789.735135,0.4180252552032471,0.264160692691803,-3.37215805053711,-0.2461213320493698,1.2122300863265991,-12.656198501586914
1524899789.745563,0.46312147378921514,0.2575221359729767,-3.298405647277832,-0.6530694365501404,0.8180758953094482,-12.570798873901367
1524899789.755279,0.5060068964958191,0.2453570514917374,-3.2412357330322266,-0.43015462160110474,1.192678451538086,-12.540873527526855
1524899789.765208,0.577682137489319,0.21614120900630954,-3.1601738929748535,-0.2537775933742523,0.9799456000328064,-12.38083553314209
1524899789.77518,0.6219643354415895,0.2135845422744751,-3.1090493202209477,-0.4542962610721588,0.829285204410553,-12.347683906555176
1524899789.785339,0.672770380973816,0.2272610068321228,-3.0286920070648193,-0.6317556500434875,0.9829171895980835,-12.042022705078125
1524899789.795258,0.7209405899047852,0.23110450804233554,-2.9485924243927,-0.4498513340950012,1.056037425994873,-12.095234870910645
1524899789.805384,0.7577725052833558,0.23674634099006656,-2.8779306411743164,-0.5743356943130493,0.999420702457428,-12.445749282836914
1524899789.815237,0.7932833433151246,0.24969585239887238,-2.7857732772827153,-0.5751326084136963,1.1909235715866089,-12.936467170715332
1524899789.82676,0.8127166628837587,0.24019533395767212,-2.728158712387085,-0.4493654668331146,0.9737088084220886,-13.144999504089355
1524899789.835456,0.841255784034729,0.24721725285053256,-2.6262645721435547,-0.5381927490234375,0.8429151773452759,-12.506166458129883
1524899789.84512,0.87961483001709,0.27158156037330633,-2.570187568664551,-0.535993218421936,0.7197208404541016,-11.826862335205078
1524899789.855084,0.9279087185859681,0.2857673168182373,-2.456116676330567,-0.5140887498855591,0.9513598084449768,-11.865957260131836
1524899789.865349,0.9764217138290406,0.31925272941589355,-2.3852710723876953,-0.304707795381546,1.3499205112457275,-12.684345245361328
1524899789.875122,1.0503758192062378,0.3807247877120972,-2.2898857593536377,-0.6302191615104675,1.161122441291809,-12.574614524841309
1524899789.885174,1.1612529754638674,0.46651518344879156,-2.1678202152252197,-0.7626519203186035,0.8326177597045898,-11.616000175476074
1524899789.895081,1.2695813179016116,0.5562906861305237,-2.084194421768189,-0.49502450227737427,1.1433184146881104,-11.804718017578125
1524899789.905045,1.3815026283264162,0.6153086423873901,-1.9904372692108154,-0.7093457579612732,1.3678702116012573,-12.194024085998535
1524899789.915034,1.4864203929901123,0.7076956033706666,-1.9114100933074951,-0.7069796323776245,0.9914637804031372,-11.534697532653809
1524899789.925029,1.5407153367996218,0.7471958398818971,-1.8176095485687256,-0.16183042526245117,0.8799009323120117,-11.897912979125977
1524899789.935782,1.5949323177337649,0.7583485245704651,-1.7302675247192385,-0.526023805141449,1.2355648279190063,-11.920145034790039
1524899789.945069,1.6553845405578616,0.7752833366394043,-1.6274276971817017,-0.5306962728500366,0.9507901668548584,-11.415173530578613
1524899789.955143,1.6610404253005981,0.7436046600341798,-1.5335142612457275,-0.398803174495697,0.6467450261116028,-11.56056022644043
1524899789.965177,1.6890940666198733,0.7454786896705629,-1.4283698797225952,-0.618168294429779,1.7047362327575684,-11.208070755004883
1524899789.975568,1.7279930114746096,0.7487626075744629,-1.3398725986480715,-0.22811487317085266,0.680277943611145,-12.042430877685547
1524899789.985089,1.721303701400757,0.7617881298065186,-1.2223238945007324,-0.8149656653404236,0.8800536394119263,-11.228102684020996
1524899789.995279,1.7730268239974976,0.7558178901672364,-1.1394360065460205,-0.11855198442935944,1.358533501625061,-11.604512214660645
1524899790.005111,1.8032634258270266,0.7868746519088746,-1.0155471563339233,-0.6106269955635071,0.9041117429733276,-11.17762565612793
1524899790.015094,1.8503037691116335,0.831547737121582,-0.9341096282005311,-0.3718772530555725,1.1469504833221436,-11.300575256347656
1524899790.025259,1.8889417648315432,0.8626798391342163,-0.8103903532028198,-0.39656683802604675,1.1377217769622803,-11.345743179321289
1524899790.035586,1.9535329341888428,0.8852647542953492,-0.7178214192390442,-0.6796148419380188,1.0508344173431396,-10.437936782836914
1524899790.045061,1.9876202344894411,0.8937706351280214,-0.5931339263916016,-0.38098591566085815,1.1877236366271973,-11.250467300415039
1524899790.055069,2.021849155426026,0.9222429394721985,-0.4902357161045075,-0.50470370054245,1.0328903198242188,-11.033133506774902
1524899790.065103,2.0697541236877446,0.8833732604980469,-0.3835098147392273,-0.16655461490154266,0.9619913101196289,-10.933427810668945
1524899790.075081,2.093034267425537,0.8628120422363282,-0.271188348531723,-0.3768857419490814,0.8717671036720276,-10.691590309143066
1524899790.08527,2.116174936294556,0.7805052399635316,-0.17556212842464447,-0.31685250997543335,1.3080534934997559,-9.910905838012695
1524899790.095633,2.1488554477691655,0.6825996041297913,-0.04068401083350182,0.018712546676397324,0.7661820650100708,-11.237588882446289
1524899790.105313,2.172028541564942,0.6159765720367432,0.06886289268732071,-0.28915825486183167,0.9248334765434265,-10.157280921936035
1524899790.115169,2.190467596054077,0.46761068701744085,0.16390784084796906,-0.42252597212791443,1.3520703315734863,-9.697708129882812
1524899790.125028,2.2416219711303715,0.3448534011840821,0.3003363013267517,-0.207170307636261,0.7824859619140625,-10.71063232421875
1524899790.135033,2.2669837474823002,0.26600155234336853,0.41586184501647955,-0.044906917959451675,0.9966815114021301,-10.755783081054688
1524899790.145096,2.312139749526978,0.12392820417881012,0.5016523599624634,-0.5245000123977661,0.9463145136833191,-10.074884414672852
1524899790.155281,2.3426194190979004,0.026631817221641544,0.5978266000747681,-0.18330611288547516,0.9436771273612976,-9.942230224609375
1524899790.165017,2.389119625091553,-0.10540462285280229,0.7303341031074524,0.198443204164505,1.0595591068267822,-10.488260269165039
1524899790.175151,2.4173541069030766,-0.2203168272972107,0.8856561779975892,-0.24637076258659363,1.0946111679077148,-10.544066429138184
1524899790.18516,2.4445044994354252,-0.3889589309692383,0.9800422191619873,-0.1971588432788849,0.9580562114715576,-9.879392623901367
1524899790.195288,2.4628162384033203,-0.5459583401679994,1.0691323280334473,-0.13695324957370758,0.9481285810470581,-9.753605842590332
1524899790.205139,2.503714799880982,-0.6679018735885621,1.1818288564682007,-0.15741850435733795,0.7212021350860596,-9.781937599182129
1524899790.215047,2.549639463424683,-0.8041849136352539,1.3032926321029665,-0.13699480891227722,1.0905101299285889,-9.77657413482666
1524899790.225097,2.612132072448731,-0.9536600708961487,1.4072364568710327,-0.11999683082103729,1.2089377641677856,-9.901471138000488
1524899790.235145,2.676649570465088,-1.0992465019226076,1.5222492218017578,-0.044336240738630295,1.1029185056686401,-10.173121452331543
1524899790.245375,2.7332580089569096,-1.2540646791458132,1.6076583862304688,0.06558328121900558,1.0989633798599243,-10.08531665802002
1524899790.255079,2.787857055664063,-1.4385241270065308,1.6999217271804812,-0.09437193721532822,0.8286977410316467,-9.701695442199707
1524899790.265056,2.7945036888122563,-1.5925880670547485,1.72345769405365,0.27967944741249084,0.702631950378418,-10.037487030029297
1524899790.275231,2.795090436935425,-1.7367305755615237,1.847411870956421,0.0003596651367843151,1.0363709926605225,-10.195422172546387
1524899790.285319,2.79340672492981,-1.8614649772644045,1.9297327995300293,-0.05545022338628769,0.8755354881286621,-9.768434524536133
1524899790.295037,2.765485525131226,-2.0096774101257324,2.0163545608520512,0.16161242127418518,0.9469188451766968,-9.97421932220459
1524899790.305556,2.740364313125611,-2.115687131881714,2.113417148590088,0.07307767868041992,1.180607795715332,-10.099031448364258
1524899790.315028,2.714186429977417,-2.211426973342896,2.163477897644043,-0.3474523723125458,0.8594250082969666,-9.894312858581543
1524899790.325046,2.630749940872193,-2.302855014801026,2.2008681297302246,0.15018372237682343,0.6237288117408752,-10.182327270507812
1524899790.335211,2.5003614425659184,-2.3686106204986572,2.2287640571594243,-0.1058981716632843,0.6587556004524231,-10.583675384521484
1524899790.345037,2.3663008213043217,-2.391096830368042,2.283798933029175,-0.36385780572891235,0.7174185514450073,-9.865166664123535
1524899790.355047,2.1964144706726074,-2.4803004264831547,2.391627311706543,0.021246448159217834,0.9174897074699402,-10.509593963623047
1524899790.365152,1.9875012636184695,-2.508356332778931,2.455508232116699,0.25968751311302185,0.26053372025489807,-10.953118324279785
1524899790.375205,1.7819155454635622,-2.521866798400879,2.469322204589844,-0.4262155294418335,0.8924800157546997,-9.979684829711914
1524899790.385156,1.5448588132858279,-2.5376992225646973,2.57140851020813,0.0658719465136528,0.28348007798194885,-10.927584648132324
1524899790.395061,1.2785037755966187,-2.505196809768677,2.5607028007507324,0.034659214317798615,0.5886783003807068,-10.867073059082031
1524899790.405075,1.0435732603073122,-2.4473662376403813,2.6936795711517334,-0.2491685152053833,0.4000358283519745,-10.696432113647461
1524899790.415008,0.8353651762008668,-2.327512502670288,2.7095406055450444,-0.35853543877601624,0.7348611950874329,-10.724863052368164
1524899790.425655,0.6348920464515687,-2.1639482975006104,2.803677797317505,0.1984359622001648,0.3287152349948883,-10.952923774719238
1524899790.435521,0.4691852331161499,-1.9288108348846438,2.873093843460083,-0.6335709691047668,0.8216493129730225,-11.150879859924316
1524899790.445225,0.337132602930069,-1.6892924308776858,2.947736978530884,-0.39436453580856323,0.5784528851509094,-10.75050163269043
1524899790.455172,0.20796465873718264,-1.4348888397216797,3.041970014572144,-0.40674954652786255,0.5429562330245972,-11.266953468322754
1524899790.465108,0.11611896008253099,-1.1228970289230347,3.0730135440826416,-0.44553902745246887,0.7456638216972351,-11.865793228149414
1524899790.475014,0.042958054691553116,-0.8018859624862672,3.176837682723999,-0.23028017580509186,0.3239719271659851,-11.474611282348633
1524899790.484974,-0.0012938501313328745,-0.5423449277877809,3.203028917312622,-0.5221025347709656,0.7211707234382629,-11.35968017578125
1524899790.495061,-0.008543224073946478,-0.310335636138916,3.2866046428680424,-0.038309745490550995,0.6191238164901733,-11.849180221557617
1524899790.505025,-0.0011526591842994096,-0.13500156998634338,3.3600971698760986,-0.1126316711306572,0.7149499654769897,-12.205698013305664
1524899790.515148,0.03968983516097069,0.007728669792413712,3.375270128250122,-0.5128157138824463,1.1817426681518555,-12.00816822052002
1524899790.525238,0.09630785882472993,0.05766348913311959,3.4674487113952637,0.5444726943969727,0.3121689558029175,-11.693602561950684
1524899790.535045,0.17519725859165194,0.0561264231801033,3.5006363391876225,-0.09795322269201279,0.9232573509216309,-12.529582977294922
1524899790.545007,0.2513468265533448,0.041508812457323074,3.5495481491088867,0.14064772427082062,0.5123332738876343,-12.431428909301758
1524899790.555067,0.33516091108322144,-0.030736479908227924,3.6483042240142822,0.3026343286037445,0.9154250621795654,-12.280274391174316
1524899790.565051,0.3624542355537415,-0.1491404175758362,3.6690521240234375,0.189742311835289,0.23010319471359253,-12.414828300476074
1524899790.575031,0.381067842245102,-0.25755080580711365,3.774800062179566,0.09380513429641724,0.8925297260284424,-12.273953437805176
1524899790.585072,0.3976385593414307,-0.40223827958106995,3.7605483531951904,0.23564550280570984,0.20481355488300323,-12.721925735473633
1524899790.595042,0.3695773184299469,-0.4816261529922486,3.890383243560791,0.27732202410697937,0.6046650409698486,-12.456358909606934
1524899790.60511,0.3635216653347016,-0.5667705535888673,3.9000890254974365,0.018886523321270943,0.5372202396392822,-12.706358909606934
1524899790.615004,0.34806245565414434,-0.5895552635192871,4.0095276832580575,-0.08533153682947159,0.3543093502521515,-12.174256324768066
1524899790.625004,0.31696739792823797,-0.5887301564216614,3.985973358154297,0.04646334797143936,0.35201776027679443,-13.552660942077637
1524899790.635004,0.3105148375034332,-0.5206851959228517,4.094040393829346,-0.17531311511993408,0.7959743738174438,-12.398282051086426
1524899790.64534,0.2973738610744477,-0.43439912796020513,4.156949520111084,-0.2786442041397095,0.11073073744773865,-12.907007217407227
1524899790.655751,0.3035132288932801,-0.3489217460155487,4.201827049255372,-0.05602584034204483,0.9030704498291016,-13.056610107421875
1524899790.665072,0.32960024476051336,-0.27087274193763733,4.257426738739014,-0.13779862225055695,0.049198005348443985,-12.975242614746094
1524899790.675007,0.3359980285167694,-0.1891138404607773,4.3083720207214355,-0.2223862111568451,0.6668868660926819,-12.574752807617188
1524899790.685034,0.3522167801856995,-0.16298472881317141,4.3550310134887695,-0.01596037857234478,0.4104709327220917,-13.891196250915527
1524899790.695029,0.36924231052398687,-0.14663618803024292,4.431579113006593,-0.009069073013961315,0.34727469086647034,-12.309243202209473
1524899790.705084,0.33424988389015203,-0.1880064755678177,4.455203056335449,-0.11981692165136337,0.37801238894462585,-13.640456199645996
1524899790.714978,0.31368589401245117,-0.2147740423679352,4.532975196838379,-0.02444644272327423,0.3791186511516571,-12.70714282989502
1524899790.725029,0.27859544754028326,-0.2952916324138642,4.56799840927124,0.16793906688690186,0.4530832767486572,-13.152824401855469
1524899790.73821,0.23318143188953402,-0.329372763633728,4.620089530944825,-0.26606103777885437,0.25167375802993774,-13.23979663848877
1524899790.745042,0.21744367480278018,-0.36693939566612244,4.6243181228637695,0.08026999235153198,0.6147566437721252,-12.451394081115723
1524899790.755095,0.20148737728595734,-0.4200653731822968,4.689032077789307,-0.15649165213108063,0.27267202734947205,-13.653130531311035
1524899790.765037,0.2138469070196152,-0.34158426523208624,4.707585334777832,-0.21345002949237823,0.7093920707702637,-12.638014793395996
1524899790.775144,0.23032829165458682,-0.3352380692958832,4.738694190979005,-0.03469659015536308,0.29435649514198303,-12.983994483947754
1524899790.785174,0.23814602196216586,-0.2554827332496643,4.73065710067749,-0.381747841835022,0.5197363495826721,-13.017353057861328
1524899790.795267,0.2810022532939911,-0.14682587981224063,4.784422397613525,-0.3326939344406128,0.8927303552627563,-13.207600593566895
1524899790.805501,0.2893949747085572,-0.10334160178899766,4.778680801391602,-0.11975971609354019,0.12425629049539566,-12.93798542022705
1524899790.815392,0.2671401202678681,-0.02683846652507782,4.808268070220948,-0.2480311095714569,0.4694201946258545,-12.500056266784668
1524899790.82505,0.295937329530716,0.042135078459978104,4.820640563964844,-0.18857303261756897,0.7160059809684753,-13.63868522644043
1524899790.834987,0.24746643006801605,0.07246556878089906,4.805214881896973,-0.20334087312221527,0.37080803513526917,-12.7698335647583
1524899790.844991,0.24139697849750522,0.0837695673108101,4.804688453674316,-0.2463805228471756,0.5525944828987122,-12.104703903198242
1524899790.855025,0.23100376129150393,0.11522887647151947,4.792043685913087,0.03473687171936035,0.5264566540718079,-13.105905532836914
1524899790.865409,0.21226054430007937,0.08380333334207535,4.772210121154785,-0.06006724014878273,0.7005807757377625,-12.888707160949707
1524899790.875375,0.23632808029651642,0.07096535712480546,4.715421199798584,-0.288760781288147,0.7172695994377136,-12.18902587890625
1524899790.885915,0.2678209245204926,0.09782832115888597,4.712674140930176,-0.07970765233039856,0.31094983220100403,-12.23318862915039
1524899790.895002,0.3032521307468415,0.07532297074794769,4.616333007812501,0.0033771877642720938,1.2489516735076904,-12.81010627746582
1524899790.905034,0.38225176930427557,0.07234881818294525,4.615568161010742,-0.18952611088752747,0.8492636680603027,-12.949058532714844
1524899790.914989,0.45066532492637634,0.13221029937267306,4.54192590713501,-0.2677302062511444,0.528012752532959,-12.364240646362305
1524899790.925075,0.5150434374809266,0.1349945962429047,4.489865303039551,-0.16484765708446503,0.708568811416626,-12.102499961853027
1524899790.935171,0.6012902855873109,0.1357284039258957,4.453627586364747,-0.04939933493733406,1.0328810214996338,-12.027551651000977
1524899790.94508,0.6681731939315797,0.16973313689231873,4.383336544036865,0.007869547232985497,0.8614213466644287,-12.21076488494873
1524899790.955173,0.7513980865478516,0.11103513091802598,4.3443989753723145,-0.09765365719795227,1.1510697603225708,-12.418431282043457
1524899790.965025,0.819377899169922,0.03700082004070283,4.268730640411377,0.047552064061164856,1.1566674709320068,-12.51500415802002
1524899790.975104,0.9207740426063539,-0.04927299544215202,4.199429512023927,0.04308641329407692,0.6997208595275879,-12.513296127319336
1524899790.985155,1.004463076591492,-0.16788873076438904,4.128269672393799,-0.19071179628372192,1.2733230590820312,-12.334035873413086
1524899790.995138,1.1092638969421387,-0.2861959040164948,4.107074737548828,0.18481813371181488,0.6176455616950989,-11.942489624023438
1524899791.005167,1.1608456373214724,-0.4637774527072907,4.027370452880859,0.3988969624042511,0.977895200252533,-11.720199584960938
1524899791.015106,1.2375913858413699,-0.6692941784858704,3.9886221885681157,0.22012989223003387,1.1929208040237427,-11.494426727294922
1524899791.025135,1.3004815578460696,-0.8428850173950195,3.919266939163208,0.3952406346797943,1.167015790939331,-11.623250961303711
1524899791.035543,1.3462200164794922,-1.0798102617263796,3.855192184448242,0.3945479094982147,1.1173136234283447,-11.901812553405762
1524899791.045118,1.3957048654556277,-1.3157956600189211,3.803337335586548,0.17600516974925995,1.3507717847824097,-12.14167594909668
1524899791.055238,1.4270164966583254,-1.5202574729919434,3.7336215972900395,0.3943336308002472,0.9615703225135803,-12.14698314666748
1524899791.065157,1.4350813627243044,-1.763122320175171,3.6904664039611816,0.22862744331359863,0.9863812327384949,-11.968017578125
1524899791.074981,1.4004677534103394,-1.978700637817383,3.6140732765197754,0.3031844198703766,1.26085364818573,-11.710246086120605
1524899791.085462,1.3586261272430422,-2.19483494758606,3.5775039196014404,0.4933660924434662,0.8586807250976562,-11.555846214294434
1524899791.095475,1.2473807334899905,-2.3884620666503906,3.4932892322540288,0.49714919924736023,1.126104712486267,-11.681754112243652
1524899791.105419,1.1370886564254763,-2.5562851428985596,3.4611072540283203,0.33792316913604736,1.0024726390838623,-11.533482551574707
1524899791.115146,0.9685163497924805,-2.7334787845611577,3.389756679534912,0.585622251033783,0.9433338642120361,-11.232048988342285
1524899791.125114,0.7959420680999757,-2.9123609066009526,3.3207454681396484,0.6421597599983215,0.9266096949577332,-11.102357864379883
1524899791.135159,0.610704004764557,-3.0441863536834717,3.2608554363250737,0.40155771374702454,1.098268747329712,-11.231246948242188
1524899791.145067,0.4147132337093354,-3.115849018096924,3.1851649284362793,0.3908459544181824,0.6088916659355164,-11.4896879196167
1524899791.15499,0.19911502301692963,-3.193771123886109,3.1385860443115234,0.8242239952087402,1.4751322269439697,-11.626238822937012
1524899791.165021,0.03719798848032952,-3.1889345645904545,3.050848960876465,0.3591885268688202,1.0566151142120361,-11.246356010437012
1524899791.175162,-0.13652424514293673,-3.098317861557007,3.0064978599548344,0.4343205988407135,0.8107137680053711,-10.913031578063965
1524899791.185061,-0.3026805222034455,-3.010117530822754,2.9197821617126465,0.6310553550720215,1.2183988094329834,-11.11317253112793
1524899791.195072,-0.4499300420284271,-2.8582909107208256,2.877283811569214,0.5448737144470215,0.9534896612167358,-11.894357681274414
1524899791.205073,-0.602055847644806,-2.676768779754639,2.7911455631256104,0.4500093460083008,0.7950577139854431,-11.82591438293457
1524899791.215096,-0.6765435338020326,-2.5303866863250732,2.73712706565857,0.28124693036079407,1.4473652839660645,-11.456756591796875
1524899791.22494,-0.6890470981597902,-2.3757994174957275,2.657242774963379,0.4817398190498352,0.8640972971916199,-11.254426956176758
1524899791.23499,-0.6934545636177063,-2.2408115863800053,2.5689597129821777,0.6760155558586121,1.2767606973648071,-11.397309303283691
1524899791.245017,-0.6554061770439149,-2.109500646591187,2.503817081451416,0.8650506138801575,1.6773507595062256,-11.58266544342041
1524899791.254979,-0.586511254310608,-1.972186803817749,2.416573524475098,0.6800420880317688,1.1009048223495483,-11.498821258544922
1524899791.265245,-0.515075981616974,-1.883756160736084,2.3384976387023926,0.8051721453666687,1.2639389038085938,-11.312265396118164
1524899791.274969,-0.4144204258918762,-1.8015663623809817,2.249288320541382,0.7796938419342041,1.1137690544128418,-11.131925582885742
1524899791.285511,-0.3102442622184754,-1.7425453662872317,2.1891255378723145,0.7697147130966187,1.1997618675231934,-11.058815956115723
1524899791.295033,-0.19113078713417056,-1.7022652626037598,2.108855485916138,0.9175472855567932,1.1594702005386353,-11.013904571533203
1524899791.305308,-0.07908943295478822,-1.6649507284164429,2.0251805782318115,0.6900045871734619,1.0557634830474854,-11.239047050476074
1524899791.315732,0.031050192192196846,-1.6197003126144411,1.9419385194778442,0.8477439880371094,1.1398309469223022,-11.530655860900879
1524899791.324981,0.15673939883708957,-1.5806357860565188,1.873561143875122,0.8609253764152527,1.4689958095550537,-11.27204418182373
1524899791.334974,0.29736134409904486,-1.5326582193374634,1.7956919670104983,0.7872602939605713,1.3889881372451782,-10.996790885925293
1524899791.345108,0.4245273172855378,-1.4785972833633423,1.7176806926727295,0.9492860436439514,1.2479110956192017,-11.138187408447266
1524899791.355135,0.539991557598114,-1.4642547369003298,1.6560031175613403,1.053866982460022,1.2035189867019653,-11.119327545166016
1524899791.36564,0.6454570889472963,-1.440192222595215,1.5877360105514526,0.8832287192344666,1.099528193473816,-11.144632339477539
1524899791.375099,0.7485793232917787,-1.4631946086883545,1.5218081474304201,1.0066550970077515,1.3415186405181885,-11.168630599975586
1524899791.385063,0.8563783764839173,-1.5133990049362183,1.440975308418274,1.1433035135269165,1.1208196878433228,-11.20032787322998
1524899791.395132,0.9454826712608337,-1.5767084360122683,1.3887535333633423,0.9927087426185608,1.0308787822723389,-11.429423332214355
1524899791.405171,1.0498248338699343,-1.6549401283264162,1.3135467767715454,0.941291332244873,1.1852067708969116,-11.793928146362305
1524899791.414979,1.1607503890991213,-1.72748863697052,1.2696897983551028,1.1630220413208008,0.9581905603408813,-11.704411506652832
1524899791.425027,1.239505171775818,-1.856008529663086,1.187686562538147,1.0738029479980469,1.2511018514633179,-11.6588773727417
1524899791.435027,1.334442138671875,-1.9344946146011355,1.1703084707260132,0.8745133876800537,1.3474512100219727,-11.735212326049805
1524899791.445015,1.4135332107543948,-1.995370388031006,1.0947747230529785,1.0332483053207397,1.0079821348190308,-11.693217277526855
1524899791.455013,1.4710609912872317,-2.104903221130371,1.0443685054779055,1.301269292831421,1.346452236175537,-11.419891357421875
1524899791.465126,1.5155394077301028,-2.1885297298431396,0.9909267425537109,1.0680601596832275,1.2639976739883423,-11.25147819519043
1524899791.475072,1.5192493200302124,-2.2322857379913335,0.9380017518997192,0.9456414580345154,1.0029973983764648,-11.465173721313477
1524899791.485,1.5132550001144411,-2.291840553283692,0.9118518829345703,1.090120792388916,1.106673240661621,-11.78846549987793
1524899791.495078,1.4762854576110842,-2.3257126808166504,0.8247129917144777,1.0250900983810425,1.0836197137832642,-12.219301223754883
1524899791.50514,1.4058547019958498,-2.305823564529419,0.8498854041099548,0.8522539138793945,0.9154284596443176,-12.431778907775879
1524899791.515643,1.3220365047454834,-2.296364068984986,0.7863878011703491,0.7534864544868469,1.3795284032821655,-12.336613655090332
1524899791.52523,1.2599253654479983,-2.23666262626648,0.768682062625885,0.7962055206298828,0.8847329020500183,-12.000509262084961
1524899791.535029,1.156068563461304,-2.1507418155670166,0.7140967845916749,1.0502277612686157,0.8163155317306519,-11.711410522460938
1524899791.545033,1.0611629486083987,-2.054570436477661,0.6841622591018677,0.8172690868377686,1.2874541282653809,-12.35588550567627
1524899791.555028,1.0184389352798462,-1.9576495885849001,0.6866437792778015,0.7601034045219421,1.2695982456207275,-12.471938133239746
1524899791.565051,0.9663962125778199,-1.9064102172851565,0.6142200231552124,1.0940717458724976,0.9110098481178284,-12.414522171020508
1524899791.574995,0.9454522132873536,-1.9265592098236084,0.5988656878471376,0.7896771430969238,1.4787299633026123,-12.32931137084961
1524899791.584996,0.9469383358955384,-1.8669754266738892,0.5710633993148804,0.9407678842544556,1.5060582160949707,-12.323831558227539
1524899791.595201,0.9685747623443604,-1.8705563545227053,0.5596284866333008,1.115332007408142,1.2470802068710327,-12.728913307189941
1524899791.605036,0.9840869307518006,-1.8889161348342898,0.5146142840385437,1.0227129459381104,1.6004141569137573,-13.343572616577148
1524899791.615142,1.0006470680236819,-1.7925950288772583,0.5068588256835939,0.7549943923950195,1.142819881439209,-13.628673553466797
1524899791.625075,1.00490939617157,-1.7228301763534546,0.5106046199798584,0.6851935982704163,1.2625250816345215,-13.300068855285645
1524899791.635027,0.9847435355186462,-1.6141272783279421,0.4994437098503113,0.8014781475067139,1.457375407218933,-12.649067878723145
1524899791.645043,0.9769591689109803,-1.461307764053345,0.49052783846855164,0.8884292840957642,1.0932360887527466,-12.274819374084473
1524899791.654966,0.9149357676506044,-1.273951530456543,0.4718466699123383,0.6929985284805298,1.230660319328308,-12.766140937805176
1524899791.664937,0.8729871511459352,-1.1232048273086548,0.5037789940834045,0.7358667254447937,1.503237247467041,-13.678818702697754
1524899791.675038,0.8384560942649841,-0.9920508861541749,0.4765125513076782,0.8653335571289062,1.358682632446289,-13.915014266967773
1524899791.68551,0.8125018477439881,-0.906469762325287,0.4772453010082245,0.716973602771759,1.1693603992462158,-13.329476356506348
1524899791.695443,0.8013975620269777,-0.8376395106315613,0.4476678669452668,0.7522148489952087,1.7082642316818237,-12.651946067810059
1524899791.705014,0.808603584766388,-0.749459981918335,0.5172789096832275,0.9540481567382812,1.2902320623397827,-12.640458106994629
1524899791.715021,0.8026987314224243,-0.6993631720542909,0.4931218922138214,0.8938785791397095,1.569657564163208,-13.09202766418457
1524899791.724973,0.7937000393867494,-0.6465362906455995,0.5079694390296936,0.9353057742118835,1.5590187311172485,-13.623725891113281
1524899791.73507,0.8010614514350892,-0.6256978511810303,0.5086942315101625,0.7913671731948853,1.422322392463684,-13.492960929870605
1524899791.745277,0.7894001007080079,-0.608696699142456,0.5358726978302002,0.7489773035049438,1.3953754901885986,-13.205584526062012
1524899791.755315,0.81417316198349,-0.5969985723495485,0.5573405623435974,0.8442355990409851,1.4078938961029053,-13.102907180786133
1524899791.764949,0.8041277527809144,-0.5839137434959413,0.5582405924797058,0.8214671015739441,1.4382573366165161,-13.443414688110352
1524899791.775099,0.7793042063713075,-0.5624809265136719,0.6200505495071412,0.7043601274490356,1.454962968826294,-13.609869956970215
1524899791.784925,0.7598724961280824,-0.5286952257156372,0.6156091094017029,0.7690927386283875,1.6580475568771362,-13.342144012451172
1524899791.794945,0.75636887550354,-0.5094882845878602,0.6589505076408386,0.6563568711280823,1.2994728088378906,-12.94903564453125
1524899791.804987,0.7357949614524842,-0.48026576638221746,0.6606554388999939,0.8155747056007385,1.5240070819854736,-13.382932662963867
1524899791.815019,0.704839050769806,-0.45385733246803284,0.7053821682929994,0.8168975710868835,1.73891019821167,-13.6487455368042
1524899791.824943,0.7050288319587709,-0.4566402733325958,0.7289863228797913,0.7143415808677673,1.38090181350708,-13.109148979187012
1524899791.834976,0.67904132604599,-0.44194012880325323,0.7251915335655212,0.6846118569374084,1.5087165832519531,-12.896515846252441
1524899791.84489,0.6754785776138307,-0.4580737948417664,0.773755669593811,0.7241871356964111,1.6481343507766724,-13.451062202453613
1524899791.855064,0.6694611907005311,-0.47066354751586914,0.7811281085014344,0.6681804060935974,1.6690231561660767,-13.35548210144043
1524899791.86525,0.6880674958229066,-0.45907315611839294,0.8444989323616028,0.6475775241851807,1.5266278982162476,-13.15359878540039
1524899791.875013,0.7190331816673279,-0.47587180137634283,0.8291429877281189,0.6871351003646851,1.6631426811218262,-13.603387832641602
1524899791.885074,0.7360082864761354,-0.4953851997852326,0.8703300952911377,0.839272677898407,1.5020555257797241,-13.66712760925293
1524899791.895032,0.7657586336135865,-0.5316781997680664,0.8958862423896791,0.6139113306999207,1.8193855285644531,-13.070121765136719
1524899791.905038,0.8097673654556276,-0.4940378963947296,0.9528325796127319,0.45413124561309814,1.5877783298492432,-13.080960273742676
1524899791.915172,0.8332590460777283,-0.48683696985244757,0.9629101753234863,0.7211441397666931,1.4162757396697998,-13.666139602661133
1524899791.924971,0.8273502588272096,-0.5047343969345094,0.9926964640617371,0.4428732693195343,1.7194536924362183,-13.017731666564941
1524899791.934988,0.8630441427230836,-0.46321964263916016,1.0578439235687258,0.4865076541900635,1.7615920305252075,-12.9962739944458
1524899791.945846,0.8644005060195924,-0.43599680066108704,1.063073754310608,0.8167386054992676,1.5878024101257324,-13.581900596618652
1524899791.954954,0.8797163963317871,-0.4410544931888581,1.0834323167800903,0.5852457880973816,1.5986813306808472,-12.727472305297852
1524899791.964913,0.9286024570465089,-0.41736033558845526,1.1557117700576782,0.38341695070266724,1.968634843826294,-12.703600883483887
1524899791.97533,0.9464479088783265,-0.40444812178611755,1.1886177062988283,0.5590604543685913,1.8285341262817383,-13.497124671936035
1524899791.985224,0.9944491982460023,-0.41677555441856384,1.221876621246338,0.46979570388793945,1.7878100872039795,-13.076643943786621
1524899791.995011,1.0527377128601074,-0.4128138422966004,1.230505347251892,0.3775536119937897,1.8370823860168457,-13.255950927734375
1524899792.004943,1.0637181997299197,-0.43197149038314825,1.3018989562988281,0.7346808910369873,1.598494291305542,-13.349305152893066
1524899792.015014,1.0822857618331911,-0.4637356400489807,1.3573997020721438,0.5198745131492615,1.5562068223953247,-12.51071548461914
1524899792.024954,1.0932606458663943,-0.5046738982200623,1.4293177127838135,0.6118985414505005,1.5133106708526611,-12.854689598083496
1524899792.034933,1.060928463935852,-0.5920400023460389,1.4373743534088135,0.7041208744049072,1.5894449949264526,-12.682734489440918
1524899792.044993,1.0841546058654787,-0.6469465494155885,1.4913722276687622,0.5737617611885071,2.1946206092834473,-12.930279731750488
1524899792.055103,1.1088163852691653,-0.724104106426239,1.5266579389572146,0.6644558906555176,1.1345679759979248,-13.303865432739258
1524899792.065013,1.097531318664551,-0.7752372026443481,1.547574758529663,0.5641986727714539,1.9377347230911255,-12.343198776245117
1524899792.074984,1.153347373008728,-0.8117504119873048,1.6255415678024292,0.7304616570472717,1.4503815174102783,-12.764421463012695
1524899792.085422,1.1696965694427492,-0.8405592441558839,1.6482418775558472,0.43881627917289734,1.2512670755386353,-12.054046630859375
1524899792.094897,1.2218987941741946,-0.8858692049980164,1.6968091726303103,0.5179325342178345,2.309011220932007,-12.759306907653809
1524899792.104997,1.2707118988037112,-0.8812345266342163,1.7377114295959473,0.35689595341682434,1.5456205606460571,-13.211554527282715
1524899792.114904,1.3002771139144897,-0.87878155708313,1.7439371347427368,0.7613028287887573,1.581780195236206,-12.588496208190918
1524899792.124962,1.3218494653701784,-0.9220445752143861,1.7745243310928345,0.4164515435695648,1.4945440292358398,-12.672525405883789
1524899792.135052,1.2959218025207522,-0.8723734617233276,1.8373452425003054,0.5355194211006165,1.3813587427139282,-12.173409461975098
1524899792.149283,1.2880924940109255,-0.9156649708747864,1.872528314590454,0.513206958770752,1.9600615501403809,-13.348553657531738
1524899792.155193,1.279999852180481,-0.8961137533187867,1.9062962532043457,0.2520475685596466,1.8530051708221436,-12.798264503479004
1524899792.165113,1.2823153734207156,-0.9287739396095277,1.890791416168213,0.7694304585456848,1.4082485437393188,-13.349257469177246
1524899792.175106,1.2386558055877688,-0.961477518081665,1.9456986188888552,0.4122876226902008,1.3440860509872437,-12.662984848022461
1524899792.185005,1.249000430107117,-0.9608039855957031,1.9976515769958496,0.7151336669921875,1.8485718965530396,-12.416163444519043
1524899792.195214,1.189679741859436,-1.0386871099472048,2.0022356510162354,0.3632664084434509,1.4036985635757446,-13.067862510681152
1524899792.205152,1.1752347946166994,-1.0059866905212405,2.0640499591827393,0.5543829798698425,2.056051015853882,-12.994597434997559
1524899792.215179,1.140224099159241,-1.0923000574111938,2.0635211467742924,0.6334853768348694,1.3753145933151245,-13.14217758178711
1524899792.225116,1.1292464733123782,-1.0778310298919678,2.108552932739258,0.6701886653900146,1.7093045711517334,-12.488007545471191
1524899792.234977,1.123266577720642,-1.1026899814605715,2.109276056289673,0.7138636708259583,1.4113446474075317,-12.621853828430176
1524899792.245419,1.1614265441894533,-1.1464468240737917,2.1806013584136963,0.5555737018585205,1.6402602195739746,-11.925129890441895
1524899792.255126,1.185671925544739,-1.1494511365890503,2.1783077716827397,0.6113929748535156,2.1727731227874756,-13.413122177124023
1524899792.265048,1.2604374885559084,-1.1355358362197876,2.2440829277038574,0.4728974401950836,1.6069669723510742,-12.429038047790527
1524899792.275075,1.296433925628662,-1.144070386886597,2.221092462539673,0.9312325119972229,1.2582321166992188,-12.442333221435547
1524899792.285127,1.2933460474014284,-1.1453223228454592,2.2894837856292725,0.6246741414070129,1.6422936916351318,-11.93515396118164
1524899792.295407,1.3116430044174197,-1.0991630554199219,2.3275711536407475,0.7401654124259949,1.8719723224639893,-13.037276268005371
1524899792.305092,1.2612364292144778,-1.1037712097167969,2.3592758178710938,0.5564126968383789,1.452936053276062,-12.552417755126953
1524899792.31504,1.2467769384384155,-1.0953642129898074,2.3387248516082764,0.788632333278656,1.7260955572128296,-13.028718948364258
1524899792.325351,1.1995041370391848,-1.0167517662048342,2.3930556774139404,0.8336572051048279,1.1926209926605225,-12.646095275878906
1524899792.334937,1.1599290370941164,-0.9909906387329102,2.373481988906861,0.838780403137207,1.3740184307098389,-12.591086387634277
1524899792.345037,1.108657479286194,-0.9767090082168579,2.43196439743042,0.8458983302116394,1.5919526815414429,-11.900262832641602
1524899792.355046,1.0944147109985352,-0.9696326255798341,2.4156949520111084,0.9359238743782043,1.76333487033844,-12.720481872558594
1524899792.364974,1.0758523941040041,-0.9485633969306947,2.4334452152252197,0.5057203769683838,1.825298547744751,-13.063420295715332
1524899792.374992,1.10665500164032,-0.9648132920265198,2.415991544723511,0.8740310668945312,1.5631908178329468,-13.372971534729004
1524899792.384933,1.094190835952759,-0.9601997137069702,2.4154622554779053,0.7456573843955994,1.3683804273605347,-12.663237571716309
1524899792.394996,1.1047749519348145,-0.9671965837478639,2.4400265216827393,1.1064223051071167,1.6922798156738281,-12.68173599243164
1524899792.40506,1.0827270746231081,-0.9521530270576478,2.425248622894287,0.6703442335128784,1.0877000093460083,-12.46604061126709
1524899792.415064,1.080718517303467,-0.9200154542922974,2.4534583091735844,0.9162333011627197,1.7902711629867554,-12.223807334899902
1524899792.425241,1.0580167770385744,-0.9383060932159424,2.3969621658325195,0.7768640518188477,1.6210976839065552,-12.625941276550293
1524899792.435426,1.0674372911453247,-0.8989199995994569,2.4264659881591797,0.6417660713195801,2.1291580200195312,-12.546121597290039
1524899792.444919,1.0633504390716555,-0.8765911459922792,2.370692491531372,0.9328086972236633,1.2176570892333984,-13.50514030456543
1524899792.454984,1.0450844764709475,-0.852594256401062,2.392795562744141,0.8532466292381287,1.4442418813705444,-12.558390617370605
1524899792.465044,1.0129773616790774,-0.8421484231948853,2.3584251403808594,0.8003567457199097,1.4243954420089722,-13.020265579223633
1524899792.475007,1.0073109865188599,-0.8153064250946046,2.392814874649048,0.6544565558433533,1.3950954675674438,-11.84439468383789
1524899792.485018,0.9963644742965699,-0.8256466388702394,2.3415424823760986,1.2917401790618896,1.6257498264312744,-12.57656192779541
1524899792.494982,0.9885549545288087,-0.8550821542739868,2.323787689208985,0.6474118232727051,1.4501391649246216,-12.340619087219238
1524899792.504908,1.0145772695541384,-0.8729425072669983,2.318427562713623,0.9339045882225037,2.0666816234588623,-12.385013580322266
1524899792.514956,1.0200917720794678,-0.9852810502052308,2.307845115661621,1.0958536863327026,1.4082212448120117,-13.009102821350098
1524899792.525006,1.017889976501465,-1.0531225204467776,2.274045944213867,0.7003459334373474,1.8176071643829346,-12.602578163146973
1524899792.535012,1.011494278907776,-1.1252415180206299,2.2789359092712407,0.972425639629364,1.5185390710830688,-13.643916130065918
1524899792.54497,0.9624009132385255,-1.220887303352356,2.273801565170288,1.2380813360214233,1.1582378149032593,-13.26105785369873
1524899792.555044,0.8963165879249573,-1.2982076406478884,2.2306747436523438,0.8722255229949951,1.5430299043655396,-12.317806243896484
1524899792.565003,0.8338328599929811,-1.32608699798584,2.234306573867798,0.90666663646698,1.2073804140090942,-12.869970321655273
1524899792.574895,0.7582465410232545,-1.3413034677505493,2.1683588027954106,1.2303588390350342,1.35465407371521,-12.321905136108398
1524899792.584927,0.7648200988769532,-1.3732737302780151,2.2068185806274414,1.0668079853057861,1.5119744539260864,-12.35466194152832
1524899792.594971,0.7331449389457703,-1.370891332626343,2.1367452144622803,1.0960118770599365,1.3183735609054565,-12.804673194885254
1524899792.605029,0.7462964653968812,-1.3961974382400515,2.126061201095581,0.9063459634780884,1.6531282663345337,-11.831568717956543
1524899792.614953,0.7912791967391969,-1.4035048484802246,2.138191938400269,1.143125295639038,1.569437026977539,-12.345488548278809
1524899792.624939,0.7859724760055543,-1.3776636123657227,2.105712413787842,1.1554937362670898,1.4125401973724365,-12.650778770446777
1524899792.634973,0.8220584392547607,-1.3630992174148562,2.1167266368865967,0.6258983612060547,1.8530610799789429,-12.180846214294434
1524899792.645127,0.8576545715332032,-1.28214967250824,2.1071598529815674,1.1562608480453491,1.0605696439743042,-12.77639389038086
1524899792.654944,0.845942258834839,-1.2569215297698975,2.084661960601807,1.0132877826690674,1.5570805072784424,-13.100506782531738
1524899792.664973,0.8785827755928041,-1.1714073419570923,2.0910327434539795,0.9589081406593323,1.4209579229354858,-12.454301834106445
1524899792.674983,0.8755303025245667,-1.0709229707717898,2.085461378097534,1.0811097621917725,1.007846713066101,-12.949395179748535
1524899792.685022,0.8651894330978395,-1.0460273027420046,2.076889991760254,1.1719318628311157,1.493253469467163,-12.777320861816406
1524899792.694961,0.8869851231575013,-0.9444153904914856,2.0684254169464116,0.8387907147407532,1.2571550607681274,-12.150193214416504
1524899792.704979,0.906587302684784,-0.8500153422355652,2.065960168838501,1.053272008895874,1.1648986339569092,-12.512880325317383
1524899792.71493,0.9275741577148438,-0.8202149271965028,2.025481700897217,1.0183736085891724,1.5400428771972656,-12.603809356689453
1524899792.725512,0.9847782850265504,-0.7404513359069825,2.0441842079162598,0.8457130789756775,1.2034720182418823,-11.960482597351074
1524899792.73513,1.0254796743392947,-0.7275543808937073,2.0136909484863286,1.0864393711090088,1.3376656770706177,-12.55625057220459
1524899792.745039,1.1001693010330202,-0.7680774927139282,2.0122029781341553,1.1819932460784912,1.4086213111877441,-12.754559516906738
1524899792.754929,1.1674847602844238,-0.7700723409652711,1.9954525232315063,1.0595834255218506,1.1829382181167603,-12.161348342895508
1524899792.765029,1.2422136068344118,-0.8093102574348451,1.9670803546905518,0.9661328792572021,1.156528353691101,-12.179987907409668
1524899792.775058,1.305225491523743,-0.8505980372428894,1.9886877536773684,1.4120938777923584,1.3847655057907104,-12.523998260498047
1524899792.784973,1.3578463792800906,-0.8970255851745605,1.9435313940048218,1.2794969081878662,1.1402958631515503,-12.25068187713623
1524899792.798523,1.4214402437210083,-0.9323292374610902,1.9606132507324219,0.8977062702178955,1.105896234512329,-11.7483491897583
1524899792.805381,1.4838373661041262,-0.9381988048553468,1.942150354385376,1.415241003036499,1.3308237791061401,-11.877645492553711
1524899792.815593,1.5788263082504275,-0.9917556047439575,1.9383016824722292,1.3184528350830078,1.3111214637756348,-12.175152778625488
1524899792.824977,1.6425950527191164,-0.9937178492546082,1.9433764219284058,0.8734565377235413,1.397623062133789,-11.961774826049805
1524899792.835099,1.7294617891311646,-0.9598127603530885,1.9487013816833496,1.1242386102676392,1.2612488269805908,-11.764981269836426
1524899792.845105,1.7841763496398928,-0.9842953681945802,1.9360020160675049,1.1311265230178833,1.3585776090621948,-12.437808990478516
1524899792.854901,1.806772828102112,-0.9514566659927368,1.9214134216308596,1.026790738105774,1.0413256883621216,-12.229523658752441
1524899792.864897,1.8132915496826174,-0.9157856106758118,1.9262926578521729,0.8688539266586304,1.1172420978546143,-11.704834938049316
1524899792.874836,1.8099201917648315,-0.9147784709930421,1.9431591033935547,1.1066417694091797,1.1734650135040283,-12.320263862609863
1524899792.885005,1.7952691316604616,-0.9204624891281129,1.919956922531128,1.1186410188674927,0.7837066650390625,-12.032102584838867
1524899792.894893,1.772359371185303,-0.935217559337616,1.94050407409668,1.0093064308166504,1.1819734573364258,-11.372700691223145
1524899792.904903,1.7712569236755373,-0.9692369699478149,1.9533909559249878,1.2810876369476318,1.0024088621139526,-11.869696617126465
1524899792.915183,1.7594608068466187,-1.0237495899200442,1.9448148012161255,1.2080273628234863,1.03917396068573,-11.409506797790527
1524899792.925038,1.7929408550262453,-1.094837307929993,1.9744504690170288,1.1409164667129517,1.1875526905059814,-11.453773498535156
1524899792.934935,1.8135528564453127,-1.159483790397644,1.9776860475540163,1.0975290536880493,1.2750986814498901,-12.316500663757324
1524899792.945189,1.8504128456115725,-1.2023448944091797,2.008277416229248,0.9080786108970642,1.0808292627334595,-11.59609317779541
1524899792.954905,1.900372862815857,-1.2454220056533816,1.9954144954681396,1.0969908237457275,0.9645268321037292,-11.517762184143066
1524899792.96495,1.9001394510269167,-1.2733143568038943,2.009286642074585,1.185227632522583,0.7569466233253479,-11.587318420410156
1524899792.974878,1.911062002182007,-1.2976630926132202,2.0221772193908696,0.9804190993309021,1.248612642288208,-10.990148544311523
1524899792.984984,1.921699404716492,-1.3127323389053345,2.0623247623443604,1.1069855690002441,1.050937294960022,-11.771028518676758
1524899792.994854,1.8741121292114258,-1.3017839193344118,2.0459718704223633,0.8572909832000732,0.8444963097572327,-11.546384811401367
1524899793.004973,1.8527057170867922,-1.2857272624969485,2.0785932540893555,0.9491708874702454,1.0939635038375854,-11.698711395263672
1524899793.014861,1.792826294898987,-1.2433288097381592,2.0843369960784917,0.8384941816329956,0.46743252873420715,-11.383225440979004
1524899793.024961,1.754714369773865,-1.212690830230713,2.116015672683716,1.1369417905807495,0.9789934158325195,-11.073801040649414
1524899793.035247,1.669872760772705,-1.1956496238708498,2.1032755374908447,0.9257573485374451,0.5370932817459106,-11.324721336364746
1524899793.044934,1.6305379867553713,-1.1455628871917727,2.1399199962615967,0.927937388420105,1.2801486253738403,-11.086575508117676
1524899793.055003,1.593449115753174,-1.1483683586120605,2.1411793231964116,0.7716303467750549,0.7405798435211182,-11.690945625305176
1524899793.064897,1.5837553739547732,-1.1163586378097534,2.144406318664551,0.9830158948898315,0.752956211566925,-10.987044334411621
1524899793.074991,1.5632731914520264,-1.1360088586807253,2.1252241134643555,0.9168750643730164,0.7270784378051758,-11.255045890808105
1524899793.084911,1.5814046859741213,-1.1114424467086794,2.181239366531372,0.9750929474830627,0.8307894468307495,-10.424817085266113
1524899793.094947,1.5938950777053835,-1.1462664604187012,2.164742708206177,0.9752833247184753,0.914359450340271,-11.584041595458984
1524899793.104941,1.6052411794662478,-1.1747984886169434,2.1986851692199707,0.7592374682426453,0.9240316152572632,-10.957928657531738
1524899793.114868,1.6087127923965454,-1.2119200229644778,2.1716887950897217,1.090057611465454,0.5434027314186096,-11.233780860900879
1524899793.125082,1.5904399156570437,-1.2418367862701418,2.208240032196045,0.8123049736022949,0.5797820687294006,-10.478649139404297
1524899793.134885,1.579225301742554,-1.2654997110366821,2.222437143325806,1.045102834701538,0.9280778169631958,-11.2738618850708
1524899793.148806,1.5024589300155642,-1.2939813137054443,2.2074174880981445,0.7898911833763123,0.331142395734787,-11.340394973754883
1524899793.154924,1.4549813270568848,-1.3029997348785403,2.2480125427246094,0.7610132098197937,0.9880205392837524,-11.046045303344727
1524899793.165156,1.3752292394638064,-1.294724225997925,2.230476140975952,0.8214191794395447,0.1156187653541565,-11.286681175231934
1524899793.174901,1.293092727661133,-1.2755029201507568,2.278757810592652,0.9570401310920715,0.5754926800727844,-10.794672012329102
1524899793.184891,1.1933476924896242,-1.2803415060043335,2.2388229370117188,0.8081611394882202,0.6468725204467773,-11.549513816833496
1524899793.194863,1.1197751760482788,-1.2346824407577517,2.2844772338867188,0.6181261539459229,0.7413141131401062,-11.218642234802246
1524899793.205196,1.0551446676254275,-1.2262350320816042,2.2455413341522217,0.9383751749992371,0.2593705654144287,-12.209314346313477
1524899793.214906,0.9991862773895265,-1.1990482807159424,2.2836842536926274,0.6473572850227356,0.3072541356086731,-11.249333381652832
1524899793.224883,0.974977731704712,-1.1800131797790527,2.2631325721740723,0.9219702482223511,0.5346365571022034,-11.660144805908203
1524899793.235037,0.9415410757064819,-1.189715623855591,2.2699060440063477,0.9086911678314209,0.25261741876602173,-11.45811939239502
1524899793.245243,0.9637388586997987,-1.1896382570266726,2.257258176803589,0.9410766959190369,0.8687926530838013,-11.484354972839355
1524899793.255922,0.9997000098228456,-1.1942335367202759,2.2875556945800786,0.7374117374420166,0.4764437675476074,-12.340322494506836
1524899793.264939,1.0320832729339602,-1.1983528137207031,2.2598958015441895,0.7735241651535034,0.44967690110206604,-11.711568832397461
1524899793.274888,1.0829046964645386,-1.20031476020813,2.2720751762390137,0.6879132986068726,0.3701075315475464,-11.135096549987793
1524899793.28512,1.0892477035522463,-1.1547122001647951,2.2674784660339355,0.855733335018158,0.20938129723072052,-11.66342830657959
1524899793.29489,1.069803833961487,-1.1225301027297974,2.266644954681397,0.6004596948623657,0.6398236155509949,-11.440313339233398
1524899793.304943,1.08319628238678,-1.0961172580718994,2.2870912551879883,0.5777955651283264,0.45468229055404663,-11.68401050567627
1524899793.314846,1.027340292930603,-1.0614261627197268,2.2347888946533203,0.7815056443214417,0.11893035471439362,-12.593595504760742
1524899793.324912,0.9652364253997804,-1.0694961547851565,2.2750630378723145,0.5083935260772705,0.22566965222358704,-12.260589599609375
1524899793.334855,0.8927893042564393,-1.0208842754364014,2.2646439075469975,0.5396913886070251,0.011105474084615707,-11.907289505004883
1524899793.34497,0.7829169034957887,-1.0078129768371582,2.2889089584350586,0.7915076017379761,-0.04451357200741768,-12.395763397216797
1524899793.35486,0.6800268292427063,-1.0054063796997073,2.241960048675537,0.8022431135177612,0.10316967964172363,-11.987044334411621
1524899793.364885,0.5819888710975648,-0.9810535907745362,2.271033525466919,0.46280771493911743,0.055754225701093674,-11.755386352539062
1524899793.374885,0.5340281128883363,-0.9869992733001709,2.2268605232238774,0.7857569456100464,0.46124184131622314,-12.316505432128906
1524899793.384988,0.4934892654418946,-1.0030919313430786,2.2056000232696533,0.6630215048789978,0.22734597325325012,-12.633325576782227
1524899793.395018,0.4791121482849121,-1.0038782358169558,2.191096782684326,0.36604878306388855,0.15202166140079498,-12.616861343383789
1524899793.404951,0.48926803469657904,-0.9734950065612794,2.19639253616333,0.2537393569946289,0.3881561756134033,-12.484404563903809
1524899793.41532,0.5284167528152467,-0.911754846572876,2.2060577869415288,0.39137229323387146,-0.04882113263010979,-12.6886625289917
1524899793.424909,0.517908275127411,-0.8586729168891907,2.158114194869995,0.34746384620666504,0.16530467569828033,-13.032637596130371
1524899793.435051,0.48994752764701843,-0.7804328203201295,2.172128200531006,0.32371360063552856,0.15461942553520203,-12.814919471740723
1524899793.445115,0.4532886147499085,-0.6982957720756532,2.1485254764556885,0.4017312526702881,-0.10308078676462173,-12.122770309448242
1524899793.45534,0.39598810672760015,-0.642561674118042,2.145969390869141,0.21951009333133698,-0.04037221521139145,-12.052586555480957
1524899793.465465,0.3509477078914643,-0.5619392991065979,2.129789352416992,0.3606710433959961,0.13459977507591248,-12.326876640319824
1524899793.475028,0.2783472537994385,-0.5101773142814637,2.1267967224121094,0.30083757638931274,0.2668357491493225,-12.609302520751953
1524899793.485045,0.2318369895219803,-0.47519239783287054,2.1001598834991455,0.39928412437438965,0.23274365067481995,-12.535696983337402
1524899793.495007,0.19211363792419436,-0.44471263885498047,2.069189786911011,0.22270889580249786,0.0649547427892685,-12.320414543151855
1524899793.505024,0.1631754040718079,-0.41437432169914246,2.0653622150421143,0.363088458776474,-0.0077701653353869915,-12.55688190460205
1524899793.515101,0.13713134825229645,-0.39396813511848455,2.047170877456665,0.22913432121276855,0.33836328983306885,-12.7659273147583
1524899793.525136,0.10292265564203264,-0.3177598714828492,2.0354344844818115,0.24492843449115753,0.1834445595741272,-13.118326187133789
1524899793.535577,0.06821119785308839,-0.2554781138896942,1.9701123237609866,0.20192646980285645,0.22708475589752197,-13.03406047821045
1524899793.547249,0.02371093258261681,-0.17052461206912994,1.985525369644165,0.08326573669910431,0.3677992522716522,-12.819396018981934
1524899793.55491,-0.008175277151167393,-0.022871030494570736,1.932371973991394,0.047466445714235306,-0.006647340953350067,-12.503157615661621
1524899793.56507,-0.057906046509742744,0.11090488731861116,1.908381462097168,-0.10276231914758682,-0.022695623338222504,-12.262553215026855
1524899793.574922,-0.10420023649930955,0.26669567823410034,1.909371852874756,0.11082837730646133,0.24858859181404114,-12.21580696105957
1524899793.584886,-0.1278691738843918,0.3964426517486572,1.8625272512435913,-0.005705573130398989,0.3944246172904968,-12.591719627380371
1524899793.594878,-0.14432325959205627,0.4970143139362336,1.8355624675750732,0.05401560291647911,0.2036585658788681,-12.80264663696289
1524899793.604902,-0.1576543897390366,0.5658090710639955,1.7852141857147217,0.2403857707977295,0.330944299697876,-12.793503761291504
1524899793.614952,-0.1444133371114731,0.5988503098487854,1.7502770423889162,0.14620982110500336,0.4672466814517975,-12.726272583007812
1524899793.624895,-0.14346741139888766,0.660495936870575,1.6946215629577637,0.07382848858833313,0.034648921340703964,-12.676708221435547
1524899793.634967,-0.13024386763572693,0.670210897922516,1.6640381813049316,0.2705998122692108,0.38987043499946594,-12.514506340026855
1524899793.644942,-0.09412588924169542,0.6623690724372865,1.623250961303711,0.14932221174240112,0.506777286529541,-12.295280456542969
1524899793.654921,-0.042823866009712226,0.7151829600334167,1.5806589126586916,0.0022472813725471497,0.21068421006202698,-12.117768287658691
1524899793.665164,-0.0057910336181521424,0.7438915371894836,1.5261210203170776,0.20611630380153656,0.4134029746055603,-12.014618873596191
1524899793.674834,0.040570199489593506,0.7865387797355653,1.4978065490722656,0.0011862401152029634,0.4216049313545227,-11.986533164978027
1524899793.684872,0.08368426561355592,0.8783550262451173,1.4612191915512085,-0.0032647396437823772,0.43192872405052185,-11.850610733032227
1524899793.69496,0.11827512830495836,0.9760787487030029,1.3949477672576907,0.0777955874800682,0.37756848335266113,-11.95490837097168
1524899793.704917,0.15666551887989047,1.0649367570877075,1.3795582056045532,-0.012962043285369873,0.39047902822494507,-11.983120918273926
1524899793.715254,0.1892227679491043,1.1313372850418093,1.3180580139160156,0.1084643080830574,0.6051666140556335,-12.044578552246094
1524899793.724943,0.23998647928237918,1.1716955900192263,1.2954169511795044,0.04351682588458061,0.4953534007072449,-11.975626945495605
1524899793.735011,0.27664449810981756,1.2073291540145874,1.2147619724273684,0.1613314002752304,0.6225684881210327,-11.857312202453613
1524899793.744899,0.34121194481849676,1.2457184791564941,1.1871185302734375,0.003906589932739735,0.7313064336776733,-11.620391845703125
1524899793.75505,0.40766656398773193,1.2645264863967898,1.1497942209243774,0.013766961172223091,0.7102511525154114,-11.641596794128418
1524899793.764943,0.47677755355834966,1.2966767549514773,1.0772253274917603,0.13160666823387146,0.5162829756736755,-11.356568336486816
1524899793.774927,0.5303821563720704,1.2951363325119019,1.0572251081466677,-0.02924458310008049,0.6911970376968384,-11.431754112243652
1524899793.784939,0.5874468088150026,1.3056609630584717,1.000097632408142,0.1004885733127594,0.6030001044273376,-11.551708221435547
1524899793.79496,0.6464049816131592,1.3026559352874758,0.9814789295196533,0.09693516045808792,0.5914547443389893,-11.558005332946777
1524899793.804873,0.7038540840148927,1.2929557561874392,0.9064769148826599,0.10024749487638474,0.5838386416435242,-11.453965187072754
1524899793.814977,0.7536285519599916,1.312343955039978,0.8730330467224122,-0.00927887111902237,0.6462981104850769,-11.238554954528809
1524899793.824834,0.8238238096237184,1.3217204809188843,0.8224812150001526,0.1277577131986618,0.8412362933158875,-10.973454475402832
1524899793.834918,0.887300431728363,1.3419662714004519,0.7803134918212891,-0.04691501334309578,0.5770580172538757,-10.74914836883545
1524899793.844897,0.957355558872223,1.3448885679244997,0.7268432974815369,0.11941223591566086,0.8187175989151001,-10.857446670532227
1524899793.854903,1.0245375633239748,1.3524264097213745,0.6829429268836976,0.06045287102460861,0.5905830264091492,-10.84316635131836
1524899793.864897,1.0844318866729739,1.3724945783615112,0.6355133652687073,-0.034837592393159866,0.7634298801422119,-10.698075294494629
1524899793.874876,1.155036449432373,1.3769905567169192,0.5825942158699036,0.09008584916591644,0.75539231300354,-10.55138111114502
1524899793.885134,1.20489239692688,1.3749139308929446,0.5284276008605957,0.021714717149734497,0.7204874157905579,-10.597247123718262
1524899793.895041,1.256608843803406,1.3537119626998901,0.4853548109531403,0.1684863418340683,0.9416055679321289,-10.785472869873047
1524899793.905306,1.3024289608001711,1.3375024795532227,0.4338530898094177,0.027980344370007515,0.7608458399772644,-10.602435111999512
1524899793.91497,1.3323606252670288,1.3078155517578127,0.37558647990226746,0.11065780371427536,0.7507268786430359,-10.533330917358398
1524899793.925261,1.3470652103424074,1.2666033506393435,0.3241901397705078,0.08562461286783218,0.9753292202949524,-10.612739562988281
1524899793.935088,1.371474623680115,1.2446292638778687,0.2784521877765656,0.10479328036308289,0.9726519584655762,-10.803980827331543
1524899793.945047,1.3852686882019045,1.2193292379379272,0.21807700395584106,0.04097806662321091,0.8488305807113647,-10.621949195861816
1524899793.955086,1.4008376598358154,1.1910282373428347,0.1622627228498459,0.06155294179916382,0.9336665272712708,-10.350479125976562
1524899793.965075,1.4033846855163576,1.1664171218872073,0.1008504182100296,0.07705269753932953,0.9838413596153259,-10.533428192138672
1524899793.974953,1.4321789741516116,1.1644914150238037,0.03978797048330308,-0.0297833401709795,0.7721020579338074,-10.235506057739258
1524899793.984965,1.4488269090652468,1.1641689538955688,-0.02110407128930092,0.11406563967466354,0.8130472302436829,-10.112765312194824
1524899793.994906,1.4435688257217407,1.1525169610977175,-0.08500450849533081,0.037422195076942444,0.8652562499046326,-10.131343841552734
1524899794.004887,1.4803960323333742,1.15872597694397,-0.11971845477819443,0.006059399805963039,1.1056123971939087,-9.92293930053711
1524899794.015486,1.5115050077438357,1.1779462099075317,-0.20725114643573764,0.15681153535842896,0.9976579546928406,-10.20438003540039
1524899794.024847,1.530640244483948,1.140332818031311,-0.25043949484825134,0.16781100630760193,1.029440999031067,-10.300763130187988
1524899794.034954,1.5782865285873413,1.162617325782776,-0.33536025881767273,-0.09608232975006104,1.3492588996887207,-10.311057090759277
1524899794.044909,1.6046603918075564,1.190053462982178,-0.37645524740219116,0.053403228521347046,0.7524950504302979,-10.589756965637207
1524899794.054929,1.6162657737731936,1.136208176612854,-0.48228916525840765,0.17082920670509338,1.1547874212265015,-10.24353313446045
1524899794.064827,1.6319580078125002,1.1465952396392822,-0.5441181659698486,-0.0774163007736206,1.0732523202896118,-10.601985931396484
1524899794.07491,1.6595991849899292,1.1535030603408816,-0.6073904633522034,-0.04972551390528679,1.269395112991333,-10.195372581481934
1524899794.084862,1.6640529632568362,1.1411274671554568,-0.6797433495521545,0.278084397315979,0.7770532965660095,-10.247559547424316
1524899794.094866,1.6734544038772585,1.1037700176239014,-0.7516862750053407,0.08819378167390823,1.2794301509857178,-10.11791706085205
1524899794.104895,1.697619438171387,1.0847169160842896,-0.8249683380126953,0.0056263115257024765,1.0399317741394043,-10.064447402954102
1524899794.117256,1.7209887504577637,1.0704936981201174,-0.9007493257522583,0.15672007203102112,1.0211039781570435,-9.997222900390625
1524899794.1249,1.76500141620636,1.0169620513916018,-0.9922931790351868,0.36415451765060425,1.2265065908432007,-10.108539581298828
1524899794.134849,1.7974396944046023,1.013343095779419,-1.0550922155380251,-0.1826164573431015,0.902636706829071,-10.17297649383545
1524899794.14491,1.840084791183472,1.002020239830017,-1.1309770345687866,0.3481377363204956,1.168784737586975,-10.398432731628418
1524899794.154857,1.8815960884094238,0.9258694648742677,-1.2408645153045654,0.1972927302122116,1.1323343515396118,-10.476502418518066
1524899794.164773,1.8913114070892336,0.9385923743247987,-1.2803895473480225,-0.21082940697669983,0.8360170125961304,-10.777277946472168
1524899794.174841,1.9117364883422854,0.9119319915771484,-1.3790054321289065,0.0904608964920044,1.527214765548706,-10.509477615356445
1524899794.184822,1.9217514991760256,0.8728395104408264,-1.424533486366272,0.037103425711393356,0.9488380551338196,-10.637118339538574
1524899794.194886,1.9381202459335327,0.8531591892242433,-1.531666874885559,-0.053573958575725555,1.182945966720581,-10.073280334472656
1524899794.204934,1.9302941560745241,0.780051350593567,-1.5996326208114624,0.1258525252342224,1.2715277671813965,-10.176772117614746
1524899794.218309,1.9415553808212282,0.764379620552063,-1.6777729988098147,0.15982019901275635,1.1475111246109009,-10.040155410766602
1524899794.224836,1.9605281352996828,0.7028169631958008,-1.7626402378082275,0.18834201991558075,1.2005817890167236,-10.302343368530273
1524899794.235031,1.94480562210083,0.6633877158164979,-1.8378804922103882,0.14607182145118713,0.7489010691642761,-10.863038063049316
1524899794.24479,1.9572983980178835,0.5868288874626161,-1.946062445640564,0.12943729758262634,1.3305615186691284,-10.940101623535156
1524899794.255858,1.9233366250991824,0.554816722869873,-1.9878249168395998,-0.34937238693237305,0.9411981105804443,-10.866973876953125
1524899794.264893,1.8910384178161623,0.5447704195976257,-2.092841148376465,0.09554293751716614,1.4212359189987183,-10.39066219329834
1524899794.274805,1.8358012437820435,0.5113783478736879,-2.1526732444763184,0.10465903580188751,0.9852416515350342,-9.979736328125
1524899794.284783,1.755324959754944,0.5458242893218995,-2.2416086196899414,-0.035180624574422836,0.8764987587928772,-10.883830070495605
1524899794.294855,1.6744865179061892,0.5089629888534546,-2.3364992141723637,0.11428976058959961,1.1771520376205444,-11.528400421142578
1524899794.304893,1.6187409162521365,0.49688875675201416,-2.401311159133911,-0.21814994513988495,0.9479146599769592,-10.986480712890625
1524899794.314858,1.558945655822754,0.5258291959762574,-2.453162908554077,-0.23507116734981537,1.4905627965927124,-10.3567476272583
1524899794.325004,1.5327954292297366,0.544045388698578,-2.5037147998809814,0.12630873918533325,0.9093472957611084,-10.552421569824219
1524899794.334997,1.4757649898529055,0.5901676416397095,-2.6103663444519047,0.07846525311470032,1.000197172164917,-11.596402168273926
1524899794.346995,1.4385379552841189,0.5325806736946106,-2.6873371601104736,-0.2383703589439392,1.274107575416565,-11.541645050048828
1524899794.354888,1.4484957456588745,0.5693594217300416,-2.741708755493164,-0.24832947552204132,1.412790298461914,-10.504772186279297
1524899794.365002,1.4472994804382326,0.5606507658958436,-2.8153812885284424,0.23140282928943634,1.2442721128463745,-10.676268577575684
1524899794.374914,1.4546626806259157,0.5685368776321411,-2.864679098129273,-0.19684377312660217,0.9711525440216064,-11.442584991455078
1524899794.384936,1.4459074735641482,0.613306999206543,-2.951927900314331,-0.04192186892032623,1.4288002252578735,-11.720780372619629
1524899794.394809,1.409127116203308,0.5267173051834108,-3.0297186374664307,-0.2283783107995987,1.0370652675628662,-11.069234848022461
1524899794.404815,1.3761903047561648,0.5934534668922425,-3.1063618659973145,-0.27607348561286926,1.2855935096740723,-10.555704116821289
1524899794.414964,1.3204591274261477,0.643578827381134,-3.141027688980103,0.08077237010002136,1.1341304779052734,-11.462063789367676
1524899794.424906,1.2642253637313845,0.6999739408493042,-3.200011968612671,-0.5141913890838623,0.7189081907272339,-12.087875366210938
1524899794.434831,1.1766517162322998,0.7172647118568422,-3.295252799987793,-0.2357553392648697,1.3764638900756836,-10.998052597045898
1524899794.445173,1.1071435213088991,0.7320726513862611,-3.327721357345581,-0.3341805338859558,1.0046464204788208,-11.148175239562988
1524899794.454993,1.0256036520004275,0.8476144671440125,-3.384017944335938,-0.036355532705783844,1.0180217027664185,-11.792859077453613
1524899794.464825,0.9810081720352174,0.8574695587158203,-3.4082579612731934,-0.27213719487190247,1.3444432020187378,-11.999870300292969
1524899794.47492,0.9514645934104919,0.8493394851684571,-3.4952142238616943,-0.3444119691848755,0.9312039017677307,-11.103961944580078
1524899794.484844,0.9192355871200563,0.858939826488495,-3.522155523300171,0.08832108229398727,1.2700762748718262,-11.238836288452148
1524899794.49486,0.9295422434806825,0.8854653835296631,-3.566975831985474,-0.4949277341365814,1.1938472986221313,-12.461905479431152
1524899794.504833,0.9179287552833558,0.8933813571929932,-3.6114964485168457,-0.2629229426383972,1.0153007507324219,-12.073148727416992
1524899794.514989,0.9352952241897583,0.8364872932434083,-3.633281946182251,-0.24601013958454132,1.0236179828643799,-12.078049659729004
1524899794.524848,0.9190753102302552,0.8043299317359925,-3.6839585304260254,-0.2889571189880371,1.3269497156143188,-11.340228080749512
1524899794.535331,0.9136828780174256,0.7856065630912781,-3.733254194259644,-0.27190354466438293,0.5519763827323914,-12.331275939941406
1524899794.545173,0.8588516116142274,0.7646875977516174,-3.7824106216430664,-0.3583068549633026,1.3391387462615967,-12.674493789672852
1524899794.554854,0.8407776951789856,0.7345210909843446,-3.7793121337890625,-0.3451938331127167,1.1451001167297363,-12.640068054199219
1524899794.564925,0.806015431880951,0.7198084592819215,-3.817704200744629,-0.6248242855072021,1.047385334968567,-11.376832962036133
1524899794.574825,0.7399643659591676,0.732843816280365,-3.845687627792359,0.08080814778804779,1.134467363357544,-12.026544570922852
1524899794.584841,0.7103998661041261,0.7123937606811523,-3.862488269805908,-0.5203309655189514,0.9184929728507996,-12.606887817382812
1524899794.594844,0.6531566977500916,0.6651440262794496,-3.8992743492126465,-0.4868391454219818,1.1111112833023071,-12.654797554016113
1524899794.60493,0.6316225528717042,0.659009337425232,-3.863950729370117,-0.5197393894195557,1.1323083639144897,-12.018491744995117
1524899794.614932,0.6101326942443849,0.6719468832015991,-3.9089221954345708,-0.08649742603302002,1.2537003755569458,-11.740866661071777
1524899794.624875,0.5835604071617128,0.6782343983650208,-3.8636040687561035,-0.3290523290634155,0.7813025116920471,-12.827052116394043
1524899794.634904,0.5620841383934021,0.6644254922866822,-3.921424627304077,-0.4931381046772003,1.1008301973342896,-12.955626487731934
1524899794.644949,0.5456989407539369,0.6359727978706361,-3.8961164951324463,-0.4928049147129059,0.9505693912506104,-12.657514572143555
1524899794.654874,0.5364308953285218,0.6076109409332275,-3.882623434066773,-0.27274608612060547,0.8920467495918274,-12.369202613830566
1524899794.665159,0.5167778730392457,0.5569286346435547,-3.8737587928771973,-0.4024302661418915,1.0181304216384888,-12.356147766113281
1524899794.674818,0.5231986045837402,0.5320299267768861,-3.849531412124634,-0.24051794409751892,0.8157875537872314,-12.821043968200684
1524899794.685194,0.5010536313056947,0.4686944782733918,-3.859384298324585,-0.2921540439128876,0.9598609209060669,-13.205427169799805
1524899794.694849,0.49917459487915045,0.42372238636016846,-3.791594028472901,-0.6290396451950073,0.9232891798019409,-13.282086372375488
1524899794.704932,0.5222387313842775,0.4131567180156708,-3.7703909873962402,-0.47721970081329346,1.028456211090088,-12.816910743713379
1524899794.714941,0.5167768597602844,0.39902678132057195,-3.7260169982910156,-0.4240579903125763,0.9475569128990173,-12.52773380279541
1524899794.724876,0.5405336022377015,0.4210215508937836,-3.6819405555725098,-0.4771723747253418,1.1215778589248657,-12.327127456665039
1524899794.734979,0.5544646382331849,0.4626254141330719,-3.6347932815551762,-0.6360604166984558,1.1026976108551025,-12.368561744689941
1524899794.745121,0.5861887335777284,0.49902257323265076,-3.5567164421081543,-0.38585329055786133,1.0516319274902344,-12.37116813659668
1524899794.754947,0.6083933115005493,0.523440182209015,-3.523906707763672,-0.376167893409729,0.9384695291519165,-12.537246704101562
1524899794.764945,0.6075684428215028,0.555562198162079,-3.451057195663452,-0.5955665111541748,0.9217732548713684,-12.639278411865234
1524899794.774909,0.6232070922851564,0.5699305534362793,-3.3711991310119633,-0.42963922023773193,1.2222646474838257,-12.650585174560547
1524899794.785026,0.6139778494834901,0.5383045077323914,-3.3495702743530273,-0.3225654363632202,0.8072828650474548,-12.936285018920898
1524899794.795015,0.5987989902496338,0.5051564574241639,-3.265566825866699,-0.34728845953941345,0.9603101015090942,-12.923967361450195
1524899794.805038,0.5857714414596559,0.45919558405876165,-3.226757764816284,-0.5288873910903931,1.1045708656311035,-12.968643188476562
1524899794.814849,0.5572330951690675,0.4092560112476349,-3.1259880065917973,-0.4069299101829529,0.7100542783737183,-12.942680358886719
1524899794.824879,0.5409375429153443,0.35410305857658386,-3.1002509593963623,-0.38181230425834656,0.7946027517318726,-12.850564956665039
1524899794.834817,0.5233244299888611,0.3178237974643708,-2.9991002082824707,-0.6144545078277588,0.985572099685669,-12.412542343139648
1524899794.845056,0.5600255727767945,0.31049412488937383,-2.904350996017456,-0.48736193776130676,0.7881699204444885,-12.078424453735352
1524899794.854844,0.6085318922996522,0.3099135756492615,-2.833084344863892,-0.31582754850387573,1.0353246927261353,-11.93757438659668
1524899794.864959,0.6939822435379029,0.3263928294181824,-2.7401034832000732,-0.46385326981544495,1.0669329166412354,-12.14918041229248
1524899794.874941,0.8007137179374695,0.3497589528560639,-2.651257276535034,-0.2918378412723541,1.2403157949447632,-12.677556037902832
1524899794.885004,0.9001798629760743,0.34664964675903326,-2.567758321762085,-0.5341387987136841,1.272163987159729,-12.715361595153809
1524899794.894817,1.0257655382156374,0.3626067638397217,-2.4746704101562504,-0.683445930480957,0.8400453925132751,-12.186942100524902
1524899794.904833,1.1102377176284792,0.3787626326084137,-2.3991641998291016,-0.44096457958221436,0.8898468017578125,-11.643134117126465
1524899794.91504,1.182170033454895,0.34036454558372503,-2.2790884971618652,-0.34162619709968567,1.4048104286193848,-12.231681823730469
1524899794.924953,1.2385139465332033,0.3208433389663697,-2.235750436782837,-0.3434630036354065,1.037917137145996,-12.9133882522583
1524899794.934888,1.2457343339920046,0.29808780550956726,-2.143203735351563,-0.44431272149086,0.7030152082443237,-12.169516563415527
1524899794.944823,1.267316818237305,0.27163368463516235,-2.0333707332611084,-0.4179799556732178,1.1228190660476685,-11.854568481445312
1524899794.95556,1.2757806777954102,0.28355258703231817,-1.9248673915863037,-0.24045367538928986,1.0301495790481567,-12.234733581542969
1524899794.965561,1.3018115758895876,0.28103905916213995,-1.8264923095703125,-0.48751598596572876,1.0462278127670288,-11.966900825500488
1524899794.974833,1.329593896865845,0.3194216787815094,-1.744182348251343,-0.4110785126686096,1.082717776298523,-11.96970272064209
1524899794.985206,1.3725692033767702,0.38338810205459595,-1.6265017986297607,-0.7816454172134399,0.8838673830032349,-11.291022300720215
1524899794.994863,1.4660674333572388,0.4801797568798066,-1.5275793075561523,-0.6142923831939697,1.6435577869415283,-11.677824020385742
1524899795.004965,1.558352828025818,0.5749249458312989,-1.437927484512329,-0.27417153120040894,0.8011768460273743,-12.024896621704102
1524899795.014866,1.6404803991317751,0.7071940898895264,-1.3241227865219118,-0.5957939624786377,1.2001910209655762,-11.199129104614258
1524899795.024839,1.7351551055908205,0.7933364510536194,-1.2281275987625122,-0.4903397560119629,1.1389271020889282,-11.709824562072754
1524899795.034899,1.7881900072097778,0.8544757962226869,-1.1125555038452148,-0.5748324394226074,0.8703421950340271,-10.714702606201172
1524899795.04487,1.8202118873596194,0.8791683316230775,-1.0401411056518555,-0.38007888197898865,1.4607844352722168,-11.555803298950195
1524899795.054895,1.8515521287918093,0.8955399394035339,-0.9198627471923829,-0.3483576476573944,0.8391996622085571,-11.40334415435791
1524899795.064909,1.8402606248855593,0.8665654063224792,-0.8355816602706909,-0.4439976215362549,0.8071670532226562,-11.170721054077148
1524899795.074866,1.8411198854446411,0.8116806149482728,-0.7000693678855896,-0.2665632665157318,1.3330144882202148,-10.801950454711914
1524899795.092779,1.8203374147415163,0.751403570175171,-0.6432030200958252,-0.2652532756328583,0.6721509099006653,-11.169476509094238
1524899795.095277,1.8050531148910525,0.6904547810554504,-0.5134470462799073,-0.12848056852817535,1.1349544525146484,-10.887767791748047
1524899795.104853,1.8147679567337038,0.6201845407485962,-0.40771010518074036,-0.7742480635643005,1.3037738800048828,-10.74561882019043
1524899795.114785,1.8323501348495483,0.5378201007843019,-0.2921682298183441,-0.09271809458732605,0.5164399147033691,-10.655538558959961
1524899795.125029,1.8306738138198855,0.480430155992508,-0.18765202164649963,-0.33050116896629333,1.4532476663589478,-10.843074798583984
1524899795.13485,1.900461554527283,0.42058420181274414,-0.08995487540960313,-0.44328606128692627,1.0848242044448853,-10.923331260681152
1524899795.144776,1.9690737724304201,0.3875877559185028,0.03250649943947792,-0.43552178144454956,0.6789389252662659,-10.503825187683105
1524899795.155064,2.046856164932251,0.34834384918212896,0.129033163189888,-0.09476367384195328,1.7902648448944092,-10.38630485534668
1524899795.165189,2.1345338821411137,0.27966547012329107,0.24853816628456116,-0.3104919195175171,0.7898570895195007,-10.92469596862793
1524899795.174861,2.210642814636231,0.24282456934452057,0.3640797436237336,-0.471119225025177,0.9701797962188721,-10.43656063079834
1524899795.184828,2.294860124588013,0.13492514193058014,0.49849507212638855,-0.3359392285346985,1.5456293821334839,-10.036266326904297
1524899795.195271,2.354567766189575,0.010962121188640596,0.573148250579834,-0.05191844701766968,0.7294588685035706,-10.382613182067871
1524899795.204961,2.4082927703857426,-0.08967417478561403,0.6802645325660706,-0.00375668634660542,1.3503434658050537,-10.554338455200195
1524899795.214893,2.4857172966003422,-0.21598434448242188,0.8104918599128724,-0.41192978620529175,1.0244474411010742,-10.327681541442871
1524899795.224972,2.508067607879639,-0.3820606470108032,0.9349852800369263,0.03433958441019058,1.0132040977478027,-10.296091079711914
1524899795.235134,2.544498920440674,-0.5495057106018068,1.0131568908691406,-0.026707680895924568,1.1396745443344116,-10.035661697387695
1524899795.244883,2.610655784606934,-0.6663950681686402,1.1325982809066772,-0.1942528337240219,0.6764046549797058,-9.757323265075684
1524899795.254987,2.6486084461212163,-0.8137929439544678,1.2428342103958132,0.012534856796264648,1.3147401809692383,-10.094217300415039
1524899795.264901,2.735378980636597,-0.9421966075897217,1.3599644899368286,-0.134902685880661,1.5081934928894043,-10.217058181762695
1524899795.274823,2.8091659545898438,-1.0306829214096072,1.4227244853973389,-0.061069928109645844,0.9961727857589722,-10.049676895141602
1524899795.284961,2.8987903594970708,-1.1478714942932131,1.521758794784546,-0.15750974416732788,1.1119959354400635,-9.65538501739502
1524899795.294952,2.977981567382813,-1.2349462509155273,1.5897715091705324,0.07075688987970352,0.9925429821014404,-10.02476692199707
1524899795.305254,3.0163545608520512,-1.345010757446289,1.6905747652053833,0.115157850086689,0.900402307510376,-10.365279197692871
1524899795.315003,3.0407297611236572,-1.4716525077819826,1.7838256359100342,-0.13724291324615479,1.2191846370697021,-10.01143741607666
1524899795.324832,3.050700187683106,-1.621182680130005,1.8711036443710327,-0.08103325963020325,0.9388377070426941,-9.814764976501465
1524899795.334897,3.012922286987305,-1.7539921998977661,1.9610202312469485,0.03715714439749718,0.758948802947998,-10.236652374267578
1524899795.344756,2.95100212097168,-1.9035452604293823,1.9816107749938965,0.006543518975377083,0.8303221464157104,-10.003622055053711
1524899795.354842,2.8563618659973145,-2.0544435977935795,2.05703067779541,0.015963252633810043,1.003498911857605,-9.779509544372559
1524899795.364796,2.7465281486511235,-2.1972098350524907,2.092658281326294,0.16248777508735657,0.9445379376411438,-10.408016204833984
1524899795.374867,2.6082699298858647,-2.300236701965332,2.1805307865142827,-0.008411088958382607,0.5554555058479309,-10.676353454589844
1524899795.384858,2.448034286499024,-2.4148037433624268,2.198824167251587,-0.05627072602510452,0.6531293988227844,-10.125036239624023
1524899795.394822,2.26019287109375,-2.463737487792969,2.2798867225646973,-0.12785351276397705,1.0067137479782104,-10.397315979003906
1524899795.404873,2.050456523895264,-2.5074181556701665,2.3342912197113037,0.11116225272417068,0.3005356192588806,-11.07664966583252
1524899795.414718,1.8147794008255007,-2.5297319889068604,2.346647739410401,-0.21848364174365997,0.746192455291748,-10.068571090698242
1524899795.424837,1.5818393230438235,-2.512619733810425,2.448650360107422,-0.10060972720384598,0.640972912311554,-10.989629745483398
1524899795.435008,1.3407554626464844,-2.4363756179809575,2.4655840396881104,-0.06738105416297913,0.3800013065338135,-10.7634859085083
1524899795.444725,1.098376274108887,-2.396013498306275,2.5609381198883057,-0.13730277121067047,0.707850456237793,-10.443570137023926
1524899795.454877,0.8881003856658937,-2.2709743976593018,2.6119458675384526,-0.3028877079486847,0.7053300738334656,-11.140653610229492
1524899795.464866,0.6601008772850038,-2.154238224029541,2.674745798110962,0.0957355946302414,0.2563122510910034,-10.777250289916992
1524899795.474819,0.47576287388801575,-1.9988602399826052,2.7219128608703613,-0.439605712890625,0.8948758244514465,-10.775053977966309
1524899795.4848,0.29817739129066473,-1.809893608093262,2.799900770187378,0.026345696300268173,0.4315742254257202,-10.931015014648438
1524899795.494704,0.12234874069690706,-1.5925068855285645,2.885513305664063,-0.3129231631755829,0.3162325322628021,-11.146428108215332
1524899795.504843,0.018543252721428875,-1.366438865661621,2.9232935905456543,-0.5918622612953186,1.15679931640625,-11.242141723632812
1524899795.514815,-0.05380072817206383,-1.1373428106307986,3.0064971446990967,-0.263783723115921,0.27638232707977295,-11.172598838806152
1524899795.524746,-0.11527313292026521,-0.888851284980774,3.042792558670044,-0.22611837089061737,1.0793461799621582,-11.846871376037598
1524899795.5354,-0.10100878775119783,-0.6504853963851929,3.114724397659302,-0.17872071266174316,1.025417447090149,-11.703519821166992
1524899795.547902,-0.10922571271657945,-0.4175375699996948,3.1716361045837402,-0.32127898931503296,0.07986664026975632,-11.104784965515137
1524899795.554809,-0.08468695729970932,-0.26515752077102667,3.2066478729248047,-0.13590022921562195,1.0483771562576294,-11.880755424499512
1524899795.564819,-0.03604646772146226,-0.07322883605957033,3.3393311500549316,0.0661730095744133,0.9065080285072327,-12.046736717224121
1524899795.574841,-0.010959580540657045,0.04768356308341026,3.379566907882691,-0.16552330553531647,0.5887585282325745,-12.037095069885254
1524899795.584742,0.00579403154551983,0.023928482085466385,3.3683922290802,0.12566472589969635,0.5254736542701721,-11.515090942382812
1524899795.594775,0.02059055306017399,0.0014106536982581022,3.506788730621338,0.20208747684955597,0.7818911075592041,-12.30196762084961
1524899795.604925,0.03295798227190972,-0.1428206115961075,3.462246894836426,0.33654215931892395,0.36298561096191406,-12.319586753845215
1524899795.616028,0.05656727403402329,-0.24775774776935577,3.573611736297608,0.19311082363128662,0.8579487204551697,-12.290925979614258
1524899795.625398,0.09486234933137895,-0.4265921711921692,3.5689804553985596,0.4194665253162384,0.4559519588947296,-12.460000038146973
1524899795.635215,0.15590247511863708,-0.5377526283264161,3.6725308895111084,0.08453275263309479,0.6635944843292236,-12.147689819335938
1524899795.644801,0.23208798468112948,-0.6208446621894838,3.6643550395965576,0.1593809574842453,0.8198373913764954,-13.099376678466797
1524899795.654795,0.3100209832191468,-0.6560245156288147,3.7568967342376713,-0.19802746176719666,0.5127832293510437,-12.19571304321289
1524899795.664786,0.3696206212043763,-0.6128139495849609,3.767699718475342,0.3067345917224884,0.6358965039253235,-13.147817611694336
1524899795.674776,0.4157239496707916,-0.5664351582527162,3.8456592559814453,-0.43365150690078735,0.5245469212532043,-12.222253799438477
1524899795.684868,0.4593168497085572,-0.4625143110752106,3.9120256900787354,-0.05826469138264656,0.45724964141845703,-13.070535659790039
1524899795.69479,0.43673053383827215,-0.37375980615615845,3.9604232311248784,-0.009456152096390724,0.49737411737442017,-13.087762832641602
1524899795.704985,0.44916281104087835,-0.29707953333854675,4.022339820861816,-0.20017200708389282,0.3666220009326935,-12.609142303466797
1524899795.714822,0.40239840745925903,-0.23453983664512637,4.069238662719727,-0.23081156611442566,0.14945301413536072,-13.008745193481445
1524899795.725033,0.3725924193859101,-0.2460652440786362,4.122435092926025,0.24511748552322388,0.7336849570274353,-13.544983863830566
1524899795.73482,0.31921172142028814,-0.2911316156387329,4.142274856567384,-0.03309831768274307,0.11284450441598892,-12.69110107421875
1524899795.744812,0.30098572373390203,-0.3351052403450012,4.211247444152832,-0.23160704970359802,0.5728029608726501,-12.886592864990234
1524899795.754751,0.3160979747772217,-0.38775709271430975,4.224868297576904,0.25666627287864685,0.5261169672012329,-13.921445846557617
1524899795.76496,0.3272975683212281,-0.4170942902565003,4.2849955558776855,-0.08050776273012161,0.44406774640083313,-12.02460765838623
1524899795.774752,0.39092651009559637,-0.44150668382644653,4.312268733978272,-0.2470036745071411,0.7060518860816956,-13.333683967590332
1524899795.784738,0.4229435324668885,-0.435752272605896,4.340698719024658,0.050030335783958435,0.3061143457889557,-13.691340446472168
1524899795.794815,0.4626559019088745,-0.44392150640487676,4.392706394195557,-0.16518396139144897,0.6145646572113037,-12.100586891174316
1524899795.804819,0.4992370009422303,-0.4109081327915192,4.403357028961182,-0.31268441677093506,0.6668028831481934,-13.570484161376953
1524899795.81483,0.49323794245719915,-0.34691497683525085,4.4650540351867685,-0.17172583937644958,0.049894388765096664,-13.546675682067871
1524899795.824861,0.4672191143035889,-0.334332138299942,4.470917224884033,-0.11868425458669662,0.7925916314125061,-12.22946834564209
1524899795.834935,0.4231574535369873,-0.28469848632812506,4.546358108520508,-0.1825283020734787,0.312620609998703,-13.355376243591309
1524899795.84506,0.37461447715759283,-0.23135322332382205,4.549453258514404,-0.34825563430786133,0.368974506855011,-13.1183443069458
1524899795.855138,0.3311945796012879,-0.244364395737648,4.5742435455322275,-0.0827963799238205,0.6144969463348389,-13.088956832885742
1524899795.8659,0.2769503593444825,-0.2246294617652893,4.586132049560547,0.05997365713119507,0.3025047183036804,-12.769281387329102
1524899795.874748,0.24125894904136658,-0.19666942954063418,4.586659908294678,-0.36300212144851685,0.5356757640838623,-12.628982543945312
1524899795.884767,0.2616004645824433,-0.22227638959884646,4.588431358337402,-0.36980316042900085,0.771338701248169,-13.488009452819824
1524899795.894804,0.24441720545291903,-0.1945771723985672,4.591297149658204,0.3125464618206024,0.5435969829559326,-12.75334358215332
1524899795.904786,0.28280040621757513,-0.19263438880443573,4.55793571472168,-0.3642203211784363,0.6487606763839722,-12.246282577514648
1524899795.915101,0.3562683165073395,-0.14393661916255954,4.575179100036621,-0.3965080678462982,0.7818903923034668,-12.959490776062012
1524899795.924991,0.38997760415077215,-0.14406013488769534,4.5370774269104,-0.037546902894973755,0.7100152969360352,-13.250930786132812
1524899795.934874,0.4385164380073548,-0.11381404101848602,4.520716190338136,-0.15481197834014893,0.7605658173561096,-12.650577545166016
1524899795.945261,0.48536682128906256,-0.0198772344738245,4.495316982269287,-0.283138245344162,0.5956029891967773,-12.117557525634766
