timestamp,accel_x,accel_y,accel_z,gyro_x,gyro_y,gyro_z
1640844491910879744,-1.575405360,-0.046787910,9.741147040,-0.249956550,-0.135919470,-0.080849240
1640844491913019904,-0.847579000,0.725702640,8.786082270,-0.248205680,-0.190973280,-0.074854500
1640844491914099968,-0.575884880,1.297110200,9.756633760,-0.283361970,-0.161387030,-0.047372290
1640844491915680000,0.254728790,1.736603260,9.003907200,-0.364545020,-0.086784360,-0.040148200
1640844491916930048,1.025539040,1.849626420,9.199242590,-0.371974650,-0.145602210,-0.037124750
1640844491917999872,0.830846070,1.754500150,9.753623960,-0.370508430,-0.119352350,-0.037087500
1640844491922060032,0.904532070,1.193472860,9.119526860,-0.443294640,-0.163817410,-0.050258640
1640844491922929920,0.277287240,0.102845140,9.365512850,-0.406313030,-0.226031270,-0.040172050
1640844491927209728,-0.468539600,-0.947581110,9.259178160,-0.335575700,-0.182078820,-0.063082580
1640844491929169920,-0.640467580,-1.353782420,8.673891070,-0.284576450,-0.147618350,-0.069329150
1640844491931910144,-1.405460950,-1.309696910,9.994478230,-0.350469320,-0.152516350,-0.048252940
1640844491932869888,-1.123399730,-0.983217000,9.409474370,-0.455084500,-0.138798370,-0.053651630
1640844491936940032,-0.749535380,-0.407448260,9.288662910,-0.363719490,-0.235868990,-0.058516860
1640844491937829888,-0.691452380,0.414267270,9.568611150,-0.293824080,-0.145512830,-0.093895200
1640844491941920000,0.265426280,1.175658820,8.577754020,-0.290961530,-0.149007160,-0.105042760
1640844491942989824,0.130540640,1.390125870,10.217183110,-0.313423600,-0.190465120,-0.065147880
1640844491949999872,0.639483330,1.312508110,8.957671170,-0.378647480,-0.134675200,-0.040671230
1640844491952119808,0.611941580,0.893391850,9.359625820,-0.358530910,-0.263613460,-0.010865930
1640844491952630016,0.085509200,0.550544140,9.597936630,-0.373934210,-0.124417260,-0.007665160
1640844491953209856,0.223194930,0.075897760,8.786496160,-0.395922390,-0.193430480,-0.028432900
1640844491956829952,-0.540885630,-0.376704130,10.060916900,-0.365519520,-0.187830640,-0.030833480
1640844491957870080,-0.462543280,-0.450196770,8.902010920,-0.372208680,-0.134171550,-0.075612970
1640844491963219968,-0.756502990,-0.342420040,9.930762290,-0.360558960,-0.221931950,-0.080838800
1640844491964659968,-1.040527110,0.213224840,9.718801500,-0.398595630,-0.143708300,-0.068700310
1640844491967180032,-0.565387430,0.429092170,9.205493930,-0.453373850,-0.248605060,-0.066535180
1640844491968089856,-0.501579940,0.676567550,9.659543040,-0.375890760,-0.184918940,-0.018614530
1640844491971849984,0.181527470,0.871775390,8.730598450,-0.339938790,-0.125065460,-0.031857190
1640844491972859904,0.546578820,0.868597920,9.641745570,-0.379498300,-0.146242990,0.003573300
1640844491976940032,0.760930240,0.820238590,9.314253810,-0.443665710,-0.106637180,0.026963650
1640844491978050048,0.870988730,0.333061010,9.394345280,-0.486977460,-0.182506490,-0.003260370
1640844491982009856,0.276144770,0.096941160,9.510557170,-0.419320260,-0.175148290,-0.006140770
1640844491984499968,-0.085420440,-0.202504660,8.838475230,-0.411801100,-0.200484740,-0.055371230
1640844491987139840,-0.568950300,-0.557375190,9.371044160,-0.391274720,-0.179968770,-0.067284700
1640844491988399872,-0.961078410,-0.508749960,9.213734630,-0.363869970,-0.121474270,-0.044289220
1640844491991940096,-1.042376520,-0.510622980,9.741550450,-0.385525850,-0.179882360,-0.043615700
1640844491992899840,-1.114113930,-0.228039760,9.836392400,-0.382541060,-0.201858570,-0.020304320
1640844491996889856,-0.498324480,0.109057340,8.972454070,-0.389693710,-0.197519360,-0.027152900
1640844491997859840,-0.053801100,0.378581550,9.285376550,-0.349691570,-0.146196830,-0.029221180
1640844492002029824,0.328039710,0.760378540,9.382695200,-0.337471160,-0.094413780,-0.017496950
1640844492002869760,0.792861160,0.910958950,9.483081820,-0.379306020,-0.154769440,-0.024767220
1640844492006819840,0.496848080,0.788569090,10.018355370,-0.401683240,-0.220082730,-0.013481080
1640844492007939840,0.455741170,0.616117480,9.011969570,-0.425167410,-0.184364620,0.003154580
1640844492012209920,0.051720590,0.143010180,9.306514740,-0.376360120,-0.197498500,-0.010396540
1640844492012929792,-0.580877900,-0.107411480,9.923711780,-0.336614310,-0.123675190,-0.002336500
1640844492017069824,-0.345380960,-0.039452270,8.993634220,-0.370648530,-0.162693860,0.001113120
1640844492017949696,-0.705343430,-0.276073810,9.946074490,-0.406467970,-0.193479700,-0.016340620
1640844492022029824,-0.381608930,0.066797230,8.994091030,-0.426948070,-0.070334970,-0.022938850
1640844492022899968,-0.308640780,0.258060840,9.671236990,-0.383141640,-0.200280560,-0.033897160
1640844492026850048,-0.415431980,0.302460850,10.037421230,-0.370885430,-0.160831230,-0.023414200
1640844492028169984,0.567989170,0.414033590,8.188976290,-0.343994800,-0.160224750,-0.020322200
1640844492032110080,0.279074550,0.231637810,9.930933000,-0.323873760,-0.110265610,-0.003522630
1640844492033149952,0.506288350,0.376199100,9.218970300,-0.377343680,0.001570580,0.019814080
1640844492037629952,0.419729890,0.211311270,9.864713670,-0.417089460,-0.226786750,0.029240550
1640844492038109952,0.022655110,-0.118402590,9.612764360,-0.388993290,-0.137993660,0.031052520
1640844492041900032,0.337285820,-0.244898860,8.138946530,-0.302103190,-0.125651080,-0.022019450
1640844492043059712,-0.535936180,-0.188026440,10.076734540,-0.273041460,-0.069458780,-0.029280780
1640844492047099904,-0.464124050,-0.022416230,9.361088750,-0.355830880,-0.039425490,-0.013923650
1640844492050309888,-0.538644910,-0.086743320,9.992048260,-0.372725670,-0.208356990,-0.004619360
1640844492051939840,-0.750391420,0.121502700,9.583310130,-0.347997310,-0.128114220,0.004854800
1640844492053619968,-0.209191690,0.248378650,8.730226520,-0.314979290,-0.120545940,-0.018416350
1640844492056829952,-0.465345980,0.449743690,10.109190940,-0.272651020,-0.086396940,-0.007545950
1640844492057890048,0.123016330,0.616061390,9.201642990,-0.317737490,-0.080291930,-0.004462900
1640844492063180032,0.622772810,0.503077510,9.475554470,-0.354696870,-0.123062740,0.022804740
1640844492064270080,0.571226600,0.533810080,9.597285270,-0.355374870,-0.015732650,0.033617020
1640844492069079808,0.637623550,0.427001450,9.701239590,-0.369191200,-0.077556090,0.010627510
1640844492069749760,0.073984040,0.236009810,9.948613170,-0.341513750,-0.126501930,0.035792590
1640844492071909888,-0.051359600,-0.212246640,8.951364520,-0.322932000,-0.133907790,0.016789140
1640844492073019904,-0.217306240,-0.666449730,9.219917300,-0.260268150,-0.054687270,0.008720160
1640844492076890112,-0.600331900,-0.346724660,9.455481530,-0.235067350,-0.002311170,0.021906200
1640844492080569856,-0.584442140,-0.136158850,9.843997000,-0.350211650,-0.073780130,0.013500450
1640844492082759936,-0.398230910,0.118858530,9.525986670,-0.388062000,-0.092405080,0.033631920
1640844492083279872,-0.097899850,0.290086270,9.209899900,-0.317354530,-0.089114890,0.007238980
1640844492086899968,0.227246610,0.415644470,9.267509460,-0.209541630,-0.005014240,-0.021860000
1640844492087839744,0.211774930,0.616784690,9.575204850,-0.207775830,-0.012007360,0.002786520
1640844492091859712,0.466028690,0.339616300,9.746356010,-0.296731320,-0.037756570,0.029881300
1640844492093179904,0.304015340,-0.143768500,9.727302550,-0.302563640,-0.058589880,0.046424570
1640844492096829952,0.087461550,-0.282896580,9.320345880,-0.250819360,-0.077748300,0.045362110
1640844492097849856,-0.119325820,-0.489552380,9.231231690,-0.217285750,-0.042538350,0.020836290
1640844492101920000,-0.414033980,-0.438063110,9.575865750,-0.205691190,-0.007255380,0.019286570
1640844492103610112,-0.283274590,-0.166698740,9.488250730,-0.222505600,0.002212820,0.025998050
1640844492106899968,-0.538025920,-0.149640190,10.147978780,-0.215630250,-0.047189000,0.010384620
1640844492107899904,-0.489275310,0.349227880,9.653985980,-0.212743920,-0.052274770,0.010454660
1640844492116859904,-0.379894550,0.711205180,9.430017470,-0.214539480,-0.101472460,-0.000236930
1640844492117379840,-0.442384450,0.639300820,9.769152640,-0.238712160,-0.035952040,0.010691590
1640844492117849856,0.180174600,0.607770440,9.043668750,-0.188432600,-0.001564620,0.017017120
1640844492118229760,0.157843550,0.464015840,10.181850430,-0.150837030,-0.033979130,0.013528770
1640844492122289920,0.386986110,0.569633780,9.609298710,-0.221370160,0.035221870,0.056029860
1640844492122889984,0.491308810,0.333586250,9.510410310,-0.300742720,-0.079476830,0.077155250
1640844492127209984,0.150213510,-0.181530270,9.875759120,-0.278550420,-0.011172890,0.062073770
1640844492128699904,0.355193640,-0.243624390,8.719432830,-0.162582100,0.005415080,0.025488440
1640844492131840000,-0.215120700,-0.371599110,10.003672600,-0.118015710,-0.024968390,0.013142830
1640844492132859904,-0.334300490,-0.308806660,9.528492930,-0.201527790,0.058130920,0.023263690
1640844492136849920,-0.425658970,-0.329990950,9.817654610,-0.223910810,-0.061172250,0.026462970
1640844492137879808,-0.785408910,-0.249503210,9.993831630,-0.186882930,-0.028376280,0.026293100
1640844492141959936,-0.330247040,0.184516950,8.655098920,-0.145867470,-0.031675400,0.009655960
1640844492143089920,-0.354498270,0.397081580,9.713525770,-0.137335050,0.010079150,0.018617510
1640844492152420096,0.149652760,0.670357940,9.297918320,-0.169000040,0.101359190,0.024282930
1640844492154119936,0.460083630,0.624919470,10.031841280,-0.177362560,0.000686940,0.049887600
1640844492154899712,0.332364170,0.432165620,10.125269890,-0.159496100,0.018286710,0.066541140
1640844492155360000,0.390786590,0.156989990,9.365083690,-0.150617970,-0.065109130,0.035569080
1640844492157159936,-0.063559770,-0.241196200,9.711815830,-0.136050610,-0.004145500,0.044280300
1640844492157860096,-0.174884900,-0.455950800,9.071150780,-0.118350980,0.035873060,0.033213200
1640844492162739968,-0.355053600,-0.670965970,10.008925440,-0.092846160,0.013226270,0.009192530
1640844492164140032,-0.479521360,-0.184277310,9.713639260,-0.108958780,0.050827860,0.016513470
1640844492166839808,-0.402355460,0.282569620,9.723150250,-0.179886860,-0.037977110,0.017306210
1640844492167859968,-0.385996640,0.453881560,9.864532470,-0.188533960,0.018440190,0.035546720
1640844492171859968,-0.036929070,0.621296940,9.174247740,-0.097206220,0.004684930,0.024354460
1640844492172920064,0.044870780,0.711008310,9.817398070,-0.042080880,0.030103330,0.016832350
1640844492176829696,0.273225310,0.672126770,9.314131740,-0.096705560,0.069178640,0.052617500
1640844492177860096,0.379725660,0.294399110,9.766067500,-0.164471580,0.012014810,0.077289350
1640844492181969920,0.227348510,-0.255208130,9.995244030,-0.137969870,0.046539310,0.067085030
1640844492182989824,0.206376280,-0.467989860,9.137991910,-0.061674420,-0.004144010,0.049443550
1640844492187670016,-0.013662100,-0.477716420,9.431876180,-0.048448150,0.017988680,0.024761260
1640844492188659968,-0.018743480,-0.480250840,9.233726500,-0.083115700,0.120027360,0.023764370
1640844492192139776,-0.150709050,-0.214952280,9.844784740,-0.095506010,0.085453690,0.021512810
1640844492194209792,-0.498471590,-0.020624220,10.243074420,-0.066226720,0.022447110,0.025637450
1640844492196919808,-0.445456620,0.162141550,9.365730290,-0.050713120,-0.028841200,0.021675230
1640844492200219904,-0.385943980,0.403626020,9.274051670,-0.016295910,0.025315580,0.028459730
1640844492201959936,-0.483375100,0.325616300,9.812762260,-0.018908090,0.114618250,0.035500520
1640844492202949888,-0.011228660,0.402012230,9.657657620,-0.020194060,0.080206990,0.059495860
1640844492207739904,0.207663610,0.468280230,9.905314450,-0.020851190,0.022166970,0.057311350
1640844492208489984,0.432422490,0.573022130,9.556009290,-0.109794740,0.098833460,0.064711270
1640844492211889920,0.542700290,0.599843920,9.466336250,-0.119873900,0.073672850,0.065490600
1640844492212899840,0.125827670,0.192258490,10.267654420,-0.062070790,0.048477950,0.038944180
1640844492217029888,0.235449190,-0.024112800,9.155936240,0.022000070,0.070302200,0.019606950
1640844492217890048,-0.184993210,-0.038069690,9.765921590,0.034454470,0.035235290,0.023712220
1640844492222019840,-0.621719180,-0.152306110,9.931962970,-0.090453010,0.119839590,0.046446920
1640844492223340032,-0.426125790,-0.235286860,9.346302030,-0.114113100,0.030645730,0.060217090
1640844492228039936,-0.617959980,-0.258022400,10.048892020,-0.022418800,0.063270330,0.044479970
1640844492228659968,-0.143207610,0.199635620,8.923628810,0.026236480,0.117614870,0.035397710
1640844492232369920,0.109678440,0.353681210,9.615151410,0.009882450,0.069773190,0.042988360
1640844492233280000,0.319750130,0.432101160,9.641143800,-0.051026050,0.188361090,0.037810200
1640844492236839936,0.532925840,0.458061460,9.722648620,-0.057940190,0.074817250,0.047975780
1640844492237939712,0.141054930,0.188709290,10.284320830,-0.008051100,0.051245090,0.052246450
1640844492241920000,0.109357990,0.064332670,8.947374340,0.014780460,0.040368730,0.026853380
1640844492242899968,-0.244031850,-0.279735770,9.588263510,0.030635300,0.077179080,0.028665360
1640844492247299840,-0.479254810,-0.227485190,9.395339010,0.028651950,0.171431910,0.031986840
1640844492248420096,-0.456597920,-0.100725320,9.840775490,-0.005207960,0.055715440,0.034481280
1640844492251899904,-0.421934840,0.155472800,9.958558080,-0.022031360,0.104901190,0.034208590
1640844492252909824,-0.161220740,0.587606310,9.354593280,-0.038073960,0.088290870,0.020532310
1640844492256889856,-0.206861030,0.660562630,10.175437930,-0.024668880,0.096714500,0.015263260
1640844492257929984,-0.030124370,0.714548890,9.595774650,0.028635560,0.113609440,0.014090540
1640844492261859840,0.074653290,0.801381650,9.757478710,0.021506840,0.046814980,0.015884640
1640844492262909952,0.148098630,0.727096020,9.670553210,-0.044748190,0.128658120,0.048106910
1640844492267309824,0.266578850,0.441325600,9.306509020,-0.102923810,0.117126110,0.063060230
1640844492269760000,0.113881530,0.258383240,10.101864810,-0.077182060,0.111958400,0.050760810
1640844492275429888,0.066508890,0.028762230,9.784646030,-0.011494760,0.111897300,0.046493120
1640844492276019712,0.040783020,0.013165920,9.442831990,-0.015051660,0.080014750,0.029242040
1640844492276819968,-0.030874000,-0.100168750,9.530699730,-0.044260920,0.148449840,0.032886860
1640844492277890048,-0.207203720,-0.187574030,9.704168320,-0.060006980,0.161343810,0.029514730
1640844492281910016,-0.356112240,0.067260490,9.817123410,-0.042906410,0.086824620,0.027604400
1640844492282929920,-0.580154900,0.017607900,9.944876670,-0.035092240,0.052978110,0.018480430
1640844492287069952,-0.360782090,0.045244630,9.168227200,-0.004671510,0.117161880,0.018262870
1640844492288430080,-0.273401920,0.159951370,9.652367590,0.026831040,0.118093210,-0.002045930
1640844492291829760,-0.158074570,0.329846320,9.899400710,-0.007544460,0.182415590,0.020913780
1640844492292929792,0.391962440,0.598273400,9.261800770,-0.057275590,0.121788690,0.053760410
1640844492297199872,0.228604110,0.365654230,10.252407070,-0.079262260,0.108800830,0.047291820
1640844492298459904,0.263384340,0.227550300,9.391010280,-0.015819070,0.149483990,0.045640770
1640844492301910016,-0.140640470,-0.000931980,9.891435620,0.063230100,0.010494890,0.022281710
1640844492304559872,-0.596361400,-0.251312580,9.859045980,0.054347520,0.112450130,0.008016820
1640844492306870016,-0.531710570,-0.110370780,9.136366840,-0.004546340,0.093457110,0.023715200
1640844492307919872,-0.784040690,-0.090985340,10.336059570,-0.045068560,0.085608680,0.029158600
1640844492311899904,-0.468979120,0.164468620,9.485725400,-0.042365490,0.153569880,0.019471350
1640844492312919808,-0.164723530,0.691787420,9.878129960,0.002300740,0.060541930,0.016593930
1640844492318689792,-0.194850130,0.945683120,10.160839080,-0.006437300,0.115676220,0.021561980
1640844492321009920,0.329458030,0.964210750,9.105404850,-0.048176950,0.064580140,0.030928860
1640844492321939968,0.369329010,0.680960000,9.712748530,-0.027884540,0.096356880,0.033847990
1640844492322939904,0.102306530,0.492336360,9.703521730,-0.012952090,0.144527850,0.021344430
1640844492326799872,0.070607050,0.269349250,9.835571290,-0.065831840,0.051473080,0.037424270
1640844492327879936,-0.214333180,-0.213999210,9.899483680,-0.070813280,0.055205830,0.054955480
1640844492332239872,-0.220605220,-0.668040450,9.458707810,-0.008521980,0.083355610,0.013281400
1640844492332890112,-0.168064240,-0.543785510,9.313742640,0.064978010,0.113953650,0.001502040
1640844492336879872,-0.426819090,-0.163589780,9.765092850,0.008606910,0.116853420,0.010855500
1640844492337939968,-0.096965650,0.096825830,9.512021060,-0.108182440,0.125433500,0.007221100
1640844492341979904,-0.139101830,0.285317030,9.809920310,-0.057697300,0.059974200,0.011293590
1640844492342929920,-0.508691370,0.437624750,10.007161140,0.029723350,0.058770180,0.002278390
1640844492346909952,-0.173717390,0.522093180,9.058588980,0.079061090,0.038133570,-0.009398160
1640844492348589824,-0.486984010,0.437633220,10.014035220,0.049215560,0.067831580,0.019389390
1640844492351980032,-0.175134910,0.365600470,9.515885350,-0.037215640,0.150921910,0.043000280
1640844492355140096,0.081745490,0.073052790,9.777717590,-0.034153470,0.053134570,0.049465910
1640844492359149824,-0.009691860,0.203925830,10.123114590,-0.013431910,0.098133090,0.030869250
1640844492359759872,0.401315570,0.358809500,9.212202070,-0.021554530,0.080908840,0.014661250
1640844492361840128,-0.103334440,0.145676540,10.268451690,-0.013950470,0.033997000,0.012727080
1640844492362969856,-0.052104690,0.195389660,9.298629760,0.009217860,0.090177350,-0.000177320
1640844492367219968,-0.123449830,0.080017130,9.753449440,0.027689340,0.034721190,-0.012156370
1640844492368269824,-0.611197830,0.424449560,10.145668980,-0.007952750,0.112290680,0.010438260
1640844492371909888,-0.375718680,0.663875820,9.442255970,-0.115948920,0.040557980,0.019653140
1640844492372999936,-0.311288090,0.513590750,9.935508730,-0.093042860,0.041681530,0.038088860
1640844492376799744,-0.034268730,0.697719220,9.263683320,0.000917910,0.117731090,0.020857160
1640844492377929984,0.292906580,0.757442950,9.643498420,-0.013297800,0.091478220,0.011263790
1640844492385390080,0.305248440,0.540046990,9.863359450,-0.078235560,0.136384350,0.050294390
1640844492386759936,0.394467770,0.214554980,9.744839670,-0.107237700,0.085568430,0.038185720
1640844492387509760,0.115451190,-0.104585680,10.096608160,-0.059469040,0.046744950,0.035490090
1640844492388179968,-0.282234190,-0.285864500,9.527009960,-0.022746620,0.036090600,0.023564690
1640844492392169984,-0.224230110,-0.343523200,9.021475790,-0.040946900,0.059892240,-0.007350740
1640844492392969728,-0.397346970,-0.336037370,9.637483600,-0.025837130,0.142742690,-0.001680850
1640844492396930048,-0.409432020,0.031542920,9.889779090,-0.036804380,0.150014460,-0.001797080
1640844492399419904,-0.215349760,0.471380080,9.943337440,-0.067065650,0.043648470,0.001741950
1640844492402079744,-0.353175040,0.654667260,10.039344790,-0.087195650,0.036361820,0.000613930
1640844492403040000,0.045336320,0.925262450,8.908327100,-0.081294790,0.104537630,-0.003175440
1640844492407599872,-0.148601380,0.709255750,9.862783430,-0.026935340,0.073230270,0.012636190
1640844492408069888,-0.293309480,0.379081100,10.197311400,-0.008340180,0.131861870,0.023950640
1640844492411900160,0.028382670,0.272877840,9.584577560,-0.026480860,0.018773970,0.020028650
1640844492412910080,-0.436479600,-0.046866360,10.531594280,-0.080312790,0.023205580,0.032217810
1640844492418799872,0.058056290,-0.023849680,8.828763960,-0.130672720,0.125196590,0.017079710
1640844492419409920,-0.020267210,0.045027710,10.096180920,-0.074534110,0.046360490,0.002466140
1640844492421959936,-0.240022600,0.307105840,10.350406650,-0.053672500,0.156313210,-0.011740630
1640844492422909952,0.308875170,0.608248650,9.171466830,-0.082443660,0.021253530,-0.017939510
1640844492426999808,-0.389049500,0.534507990,10.774508480,-0.093601640,0.027455400,-0.002686680
1640844492427949824,-0.326156590,0.658293310,9.341575620,-0.102140020,0.094163420,-0.011055170
1640844492433719808,-0.410086900,0.601518570,9.859505650,-0.099231320,-0.048190360,0.014071170
1640844492435789824,-0.555832510,0.532955110,9.836082460,-0.114969930,0.085409000,0.027337680
1640844492436809984,0.204470220,0.282524820,8.894667630,-0.120627890,0.108881320,0.013610720
1640844492437880064,0.124150570,0.375653510,10.473306660,-0.093400480,0.110067430,0.028572980
1640844492441880064,0.188829620,0.383882280,10.060152050,-0.148889420,0.118182600,0.012509530
1640844492442929920,0.505499300,-0.017336850,9.672515870,-0.171267990,-0.008556250,-0.000868740
1640844492446959872,0.025215970,-0.187235150,9.900006290,-0.077545650,0.038917360,-0.014561410
1640844492448179968,-0.016781130,-0.322753280,9.073754310,-0.056687000,0.107516350,-0.042796140
1640844492451879936,-0.222966820,-0.181268650,9.667952540,-0.059632960,0.077345970,-0.000177320
1640844492452920064,-0.693342800,-0.082018030,10.444551470,-0.134903210,0.083674490,0.002206860
1640844492456909824,-0.283368830,-0.112929340,9.463304520,-0.134176030,0.055061280,0.018300120
1640844492457919744,-0.530701040,0.082842060,9.977002140,-0.030504170,-0.004804130,0.001083310
1640844492462630144,-0.365852180,0.327543230,9.513737680,-0.026966630,0.126439350,-0.031077860
1640844492463490048,0.097462300,0.564018850,9.315866470,-0.059898210,0.074064740,-0.017480550
1640844492467129856,-0.225946440,0.547153950,10.680375100,-0.102591510,0.064289580,-0.002305210
1640844492471469824,0.232186290,0.404381750,9.380491260,-0.114102650,0.071920440,-0.009605290
1640844492471920128,-0.021720150,0.199204180,10.172009470,-0.032110500,-0.036272400,-0.009445850
1640844492472930048,-0.413793060,0.148435000,10.155287740,-0.020457800,0.085930520,-0.015027820
1640844492476839936,-0.122907430,0.073387730,9.251120570,-0.072138010,-0.005143880,-0.013045970
1640844492477989888,-0.449500890,-0.054637190,10.421372410,-0.072287020,0.038565700,0.007280710
1640844492482650112,-0.049473360,0.300712290,9.331033710,-0.090774900,0.126634550,-0.028778610
1640844492483889920,-0.206795900,0.693810280,10.312394140,-0.111830260,-0.011092420,-0.025971240
1640844492486820096,-0.365045370,0.846471070,10.199096680,-0.141853080,0.031429520,-0.005650520
1640844492487879936,0.037785930,0.647676940,9.098693850,-0.106459860,-0.019472840,-0.028969350
1640844492491859968,-0.221383600,0.429465230,10.202774050,-0.025232140,0.032421950,-0.029185420
1640844492492940032,-0.015684370,0.453504350,9.483430860,-0.043123960,0.100664810,-0.010466580
1640844492496909824,0.047693380,0.248318580,10.057486530,-0.154720250,0.012172760,0.018790370
1640844492497910016,0.003461500,0.027531840,10.151889800,-0.193016230,0.064975030,0.032418970
1640844492501939968,0.193535640,-0.208695610,9.353687290,-0.116981570,0.017514830,0.004531440
1640844492503039744,-0.148872350,-0.215737020,9.942489620,-0.032375750,0.000245870,-0.026449560
1640844492506929920,-0.133497360,-0.148898650,9.240752220,-0.040341910,0.062474610,-0.048260390
1640844492507959808,-0.133356330,-0.096910570,9.637171750,-0.102326270,0.047035520,-0.040930510
1640844492512209920,-0.452807550,0.085301750,10.421764370,-0.110051060,0.066757210,-0.019429620
1640844492513110016,-0.423860280,0.161535490,9.915397640,-0.095564130,-0.012108680,-0.019158420
1640844492517629952,-0.293313350,0.373467650,9.565266610,-0.057098270,-0.027993320,-0.019899010
1640844492518499840,-0.275010110,0.389831690,9.643324850,-0.050631170,0.068813560,-0.028759240
1640844492521879808,0.032625410,0.322687690,9.570757870,-0.055597730,0.095281010,-0.013870000
1640844492522899968,0.105112310,0.354091350,10.237500190,-0.038634240,0.014717880,-0.012676420
1640844492527040000,0.112476470,0.348532470,10.097958560,-0.085891790,0.035423030,-0.017391150
1640844492527920128,0.237582490,0.466069100,9.356916430,-0.127913070,0.012078880,-0.004391370
1640844492531909888,-0.250128570,0.192332770,10.491071700,-0.122886890,0.001120570,-0.020724530
1640844492533030144,-0.203025010,-0.020822210,9.584665300,-0.043542690,0.066734850,-0.039380800
1640844492536849920,-0.263161390,0.086262090,9.874059680,0.021556020,-0.019103290,-0.035262110
1640844492537900032,-0.475796130,0.131869550,10.262945180,-0.063088520,0.070182990,-0.022055210
1640844492541920000,0.012590590,0.225290580,9.122683530,-0.161395980,0.044915080,-0.008291010
1640844492546530048,-0.126445170,0.350037220,10.405913350,-0.141601250,0.019858770,-0.008863210
1640844492548369920,-0.046309060,0.506420430,9.691621780,-0.085510300,0.087036180,-0.007401410
1640844492549069824,0.149728020,0.396834220,9.580258370,-0.039905310,-0.033614040,-0.017279390
1640844492552519936,-0.014119690,0.240213010,10.001848220,-0.040243570,0.047147270,-0.020837780
1640844492553269760,0.088633600,0.066025200,9.294921880,-0.075872240,0.079007440,-0.026184320
1640844492556859904,-0.071312660,0.026174600,10.177286150,-0.104606150,0.030276180,-0.003474950
1640844492557939968,-0.236550670,-0.094970350,10.053394320,-0.114120560,0.045315930,-0.011818110
1640844492561879808,-0.106500340,-0.307682190,9.552735330,-0.070448230,-0.000409780,-0.027714670
1640844492562959872,-0.206713470,-0.225830870,9.671998020,0.007221100,0.030696390,-0.039631130
1640844492566999808,-0.382525440,-0.087161780,9.628438950,-0.001992290,0.062593820,-0.045435130
1640844492567940096,-0.171229600,0.068732220,9.781529430,-0.062254070,0.050613290,-0.031280520
1640844492571810048,-0.354661170,0.254396710,10.280958180,-0.080303830,0.007607040,-0.013683740
1640844492572960000,-0.326189730,0.377550630,9.900285720,-0.075081000,-0.001558660,-0.012756890
1640844492576819968,-0.065165320,0.417146920,9.419316290,-0.011841950,0.000810620,-0.021269910
1640844492577910016,-0.364920350,0.409569440,10.252097130,0.016145410,0.043465200,-0.026629870
1640844492581959936,-0.067909770,0.394195650,9.761131290,-0.038692360,0.054268540,-0.019252300
1640844492583190016,0.021484790,0.184935350,10.002967830,-0.049106780,-0.042864680,-0.003740190
1640844492590329856,-0.011416140,0.142278850,9.800636290,-0.051710020,0.040431320,-0.001823900
1640844492591640064,0.243724470,0.328201500,9.283891680,-0.061617800,0.038293000,-0.019641220
1640844492592969984,-0.269562690,0.258489310,10.559717180,-0.073367360,0.003695490,0.002299250
1640844492593609728,-0.129880710,0.125438570,9.597358700,-0.063155590,0.012846290,-0.012379880
1640844492596900096,-0.069974980,-0.215326960,9.820793150,0.015759470,-0.042665010,-0.026606030
1640844492597990144,-0.408860890,-0.035046750,9.892416000,0.046686830,0.056324900,-0.015082960
1640844492601859840,-0.152105750,0.159523830,9.347765920,-0.047847630,0.021252040,-0.011697410
1640844492602949888,-0.225353030,0.039376790,10.210066800,-0.113081950,-0.000217560,0.006264450
1640844492607110144,-0.045237470,0.063651260,9.465667720,-0.037282710,0.029088560,-0.003759560
1640844492607919872,0.044745250,0.034778420,9.781956670,0.053837910,-0.012855230,-0.051456700
1640844492611859968,-0.131728530,0.280913560,9.844734190,0.052455070,0.043798980,-0.038465850
1640844492612929792,0.027136630,0.273065920,9.569227220,-0.024515390,0.016857690,-0.022412840
1640844492617319936,-0.078923310,-0.001328120,10.164670940,-0.048431750,0.004254280,-0.010265410
1640844492618129920,-0.198732320,-0.062125320,9.657084470,0.017564000,0.007349250,-0.000503660
1640844492621959936,-0.155240480,-0.073869590,9.807578090,0.058136890,-0.012955070,-0.021676720
1640844492623219968,-0.377489360,-0.013651290,10.104458810,0.058625640,0.009031590,-0.011171400
1640844492626880000,-0.248858570,0.157163660,9.643960000,0.008577110,0.003775950,-0.019250810
1640844492628419840,-0.025711370,0.350315060,9.776158330,-0.015527010,0.007461010,-0.020806490
1640844492631919872,-0.133113060,0.551318410,10.070172310,0.009758770,0.024403640,-0.024190550
1640844492634299904,0.044788300,0.942355690,9.739897730,-0.013834240,0.012275580,-0.029395520
1640844492636829952,-0.029724310,0.929671700,9.995569230,-0.042887020,-0.041754540,-0.012725590
1640844492637979904,-0.166869710,0.511526940,10.067428590,-0.028073790,0.024075810,-0.006663800
1640844492641870080,0.162543680,0.358969660,9.482398990,0.024347010,0.018070640,-0.018766520
1640844492642959872,-0.235460940,0.087533800,10.441849710,0.018660730,-0.014205280,0.000078980
1640844492646880000,0.117602740,-0.040527570,9.343344690,-0.077304250,0.067974630,0.009112060
1640844492647960064,0.245503160,-0.191034930,9.613048550,-0.062850120,0.001107160,-0.000701840
1640844492651929856,-0.304277090,-0.240415540,10.625382420,-0.013335050,0.041845440,-0.012589990
1640844492652979968,0.119301510,-0.004864420,9.068531990,0.018422310,-0.017192960,-0.036311150
1640844492656899840,-0.358857480,-0.038611470,10.281578060,0.023598970,-0.059849030,-0.037766990
1640844492657939968,-0.360051130,0.163211120,9.496508600,-0.000132620,0.101614010,-0.041128700
1640844492661939968,-0.163803400,0.322137710,9.722241400,-0.007845460,-0.020305810,-0.032952430
1640844492663149824,-0.651450870,0.424939660,10.807333950,-0.016343600,0.004652140,-0.006876890
1640844492667409920,0.018402960,0.465172290,8.993533130,-0.018356740,-0.004465880,-0.027364500
1640844492669789952,0.039746060,0.334892690,9.897240640,0.023926800,-0.016428530,-0.020778180
1640844492675599872,-0.068385730,0.347470100,9.917242050,0.024642050,0.111711030,-0.024373830
1640844492676209920,0.327883600,0.133711220,9.796450610,-0.011494760,-0.000359120,-0.030890110
1640844492677399808,-0.070503910,0.138162630,10.671556470,-0.005114080,-0.022326410,-0.009046500
1640844492678089984,-0.116181980,0.024488210,9.634676930,-0.035110120,-0.005012750,-0.034388900
1640844492682449920,-0.145376150,-0.031050760,9.638832090,-0.006853040,-0.029078130,-0.028583410
1640844492684369920,-0.735322590,0.191381290,10.321393970,0.035329170,0.002294780,-0.034022330
1640844492687089920,-0.398128660,0.298519910,9.635194780,-0.011880690,0.005666910,-0.039874010
1640844492688489984,-0.209967660,0.467002390,9.767514230,-0.026440620,-0.020447380,-0.007607040
1640844492691899904,-0.221627240,0.596630280,10.254873280,-0.043441360,0.040201850,-0.023815040
1640844492692940032,0.354761570,0.678559960,9.493758200,-0.040735300,0.045397880,-0.017935040
1640844492696849920,0.073544160,0.654521700,10.351536750,-0.022678070,-0.049865240,0.000581150
1640844492699020032,0.168306630,0.254690620,9.821170810,-0.057733060,0.023935740,-0.011534990
1640844492701959936,0.379415900,-0.220111180,9.203600880,0.006909670,-0.022852420,-0.023894010
1640844492702980096,-0.335727690,-0.277475830,10.477524760,0.046834350,0.003570320,-0.025147200
1640844492707099904,-0.053506390,-0.211865590,9.258401870,-0.053267190,0.055640950,-0.013376780
1640844492707980032,-0.303453950,-0.348472000,10.152053830,-0.094148520,-0.059822190,-0.007908050
1640844492711899904,-0.533397610,-0.230868120,10.280291560,-0.025893750,0.043860080,-0.029499830
1640844492712979968,-0.136093770,0.003645320,9.165866850,0.054730480,-0.021158160,-0.066876400
1640844492717009920,-0.525009510,0.344302920,10.447957990,0.062878430,-0.020374360,-0.050392750
1640844492718019840,-0.118864190,0.632488370,9.393655780,-0.032787030,0.075893100,-0.037990510
1640844492721939968,-0.086345990,0.414088430,10.185471530,-0.058782100,-0.064907970,-0.010035930
1640844492722970112,-0.219052000,0.390695600,10.247285840,0.004497170,0.000686940,-0.005352500
1640844492726830080,0.176942960,0.339617250,9.284141540,0.035981830,-0.005221370,-0.029730800
1640844492727910144,-0.146839050,0.210662010,10.628813740,0.020840760,-0.012893980,-0.011160970
1640844492732179968,0.024449350,0.197030630,9.739257810,-0.022731720,0.036026540,-0.011032820
1640844492733559808,0.187022160,-0.042137840,9.831380840,-0.039546180,-0.054751330,-0.019387900
1640844492736809984,-0.158563120,0.171164970,10.212918280,0.001817940,0.022017950,-0.016146890
1640844492737900032,-0.159028290,0.453412350,9.584447860,-0.026451060,-0.007048250,-0.025492910
1640844492741910016,-0.372890710,0.363876610,10.210251810,-0.062130400,-0.061137990,-0.016359980
1640844492743480064,-0.406917840,0.256121280,9.901631360,-0.005559620,-0.021182000,-0.022810690
1640844492746959872,-0.160262600,0.180301500,9.617136000,0.050206490,-0.007858870,-0.043800470
1640844492748029952,-0.232399540,0.415037750,10.116254810,0.023415680,0.000840430,-0.026518100
1640844492752549888,-0.030909520,0.349196850,9.836220740,-0.089550010,0.015091900,-0.003366170
1640844492754700032,0.273785500,0.180111050,9.647501950,-0.085766620,-0.019614400,0.002868470
1640844492757019904,-0.080338940,0.006274090,10.300055500,0.028459730,-0.049856300,-0.009807940
1640844492758099968,0.040980520,0.046562650,9.322935100,0.043828790,-0.014318530,-0.031033160
1640844492761869824,-0.007095390,0.066345070,9.550638200,-0.001755360,-0.044827170,-0.035135450
1640844492762959872,-0.380072920,-0.165482360,10.438916210,-0.042553250,0.047498950,-0.018951300
1640844492766929920,-0.136418240,-0.049692140,9.601055150,-0.011748070,0.002090630,-0.011333820
1640844492768229888,-0.637486040,0.082039250,10.679444310,0.045076010,-0.131376070,-0.026118750
1640844492771879936,-0.466582750,0.332491840,9.339772220,-0.008738040,-0.008070470,-0.030137600
1640844492774259968,-0.174247760,0.484002050,9.192560200,-0.022107360,-0.071527060,-0.023157900
1640844492776829952,-0.456398160,0.424485090,10.760458950,-0.014521180,0.032483040,-0.029754640
1640844492777959936,0.241177020,0.531195100,9.450488090,0.014883280,0.020930170,-0.037059190
1640844492784399872,0.097961130,0.707899990,10.735302930,0.005730990,-0.125992300,-0.027467320
1640844492787449856,0.086927820,0.752654970,9.809049610,-0.098666550,0.008453430,-0.013127920
1640844492788120064,0.365753020,0.364166410,9.173287390,-0.121702260,-0.072886030,-0.014694030
1640844492788600064,-0.220580030,0.116768330,10.679094310,-0.006416440,-0.016690790,-0.019307430
1640844492796640000,-0.040650170,0.130534290,9.370944020,0.027926270,-0.001375380,-0.043456260
1640844492797230080,-0.004567260,0.090665200,9.748865130,-0.050839790,-0.073394190,-0.009563570
1640844492798230016,-0.290253280,0.064406930,10.236892700,-0.121951100,0.037740170,-0.013919180
1640844492801719808,-0.060150210,0.052273690,9.704284670,-0.110284980,-0.008450450,-0.041238960
1640844492802459904,-0.235100120,0.284846370,10.168976780,-0.029347840,-0.090032820,-0.035662950
1640844492803769856,-0.184574900,0.318311100,9.609281540,-0.020924210,-0.015622380,-0.063572820
1640844492806829824,0.252738480,0.216725650,9.177480700,-0.046055010,0.024557120,-0.054760280
1640844492808009984,-0.021433250,0.306991580,10.247646330,-0.029110910,0.013376780,-0.026425720
1640844492811970048,0.001812480,0.204582420,10.047750470,-0.088694680,0.003671650,-0.028318170
1640844492812969984,0.246341230,0.208034900,9.565400120,-0.098036240,-0.075739610,-0.007653240
1640844492817230080,-0.173424150,-0.089660230,10.185750960,-0.040338930,-0.014901160,-0.015866760
1640844492818019840,0.033940430,-0.165872290,9.315402030,-0.009337070,0.052784390,-0.050298870
1640844492821910016,-0.165739030,-0.044489430,10.138421060,0.027145450,-0.044898690,-0.036123390
1640844492822959872,-0.408893590,0.001501070,10.426963810,-0.045107310,0.022162500,-0.046037140
1640844492826949888,-0.033289120,0.211465150,9.305599210,-0.100567940,-0.040031970,-0.036253040
1640844492827960064,-0.458227570,0.285456120,10.478279110,-0.066491950,-0.054758780,-0.037306550
1640844492832499968,-0.240560800,0.487953690,9.590449330,-0.023816530,0.045472390,-0.051227210
1640844492833189888,-0.051861300,0.626564980,9.904046060,0.007490810,-0.059835610,-0.043551620
1640844492837519872,-0.212317840,0.660476450,10.504815100,-0.048042840,0.019666550,-0.008562210
1640844492838009856,0.315093460,0.454097990,9.229576110,-0.112506770,-0.003905590,-0.011560320
1640844492841819904,0.136533450,0.253381610,10.417099000,-0.078742210,-0.041268770,-0.007487830
1640844492842959872,0.083604780,0.377733950,9.880473140,-0.061869630,0.045508140,-0.017979740
1640844492847190016,0.154751570,0.119185630,9.723157880,-0.082243990,-0.061577560,-0.022260840
1640844492847919872,-0.092493810,-0.109853080,10.218845370,-0.072695310,-0.000064080,-0.018350780
1640844492852550144,-0.007682060,-0.164277760,9.435546880,-0.043733410,0.027109680,-0.050251190
1640844492853430016,-0.190334440,-0.044597240,10.209658620,-0.048545000,-0.017198920,-0.028702620
1640844492856989952,-0.379353700,0.158687340,10.079866410,-0.093126300,0.013384230,-0.006057320
1640844492857969920,-0.157579570,0.105569350,9.616955760,-0.106447940,-0.059059270,-0.015456970
1640844492861860096,-0.165678690,0.111998130,9.983955380,-0.032238660,-0.004607440,-0.011956690
1640844492863279872,-0.086732510,0.285787790,9.576680180,0.001111630,0.041379030,-0.034140050
1640844492866899968,0.073748040,0.262150620,10.058777810,-0.053863230,-0.003270810,-0.026589630
1640844492868000000,0.088726540,0.199500290,10.223189350,-0.080035630,0.017815830,-0.020970410
1640844492871889920,0.184803380,0.080560970,9.757800100,-0.077335520,-0.006470080,-0.018064680
1640844492872999936,0.046992600,0.078804030,10.006717680,-0.035098200,-0.028301780,-0.022111830
1640844492876809728,-0.165489750,0.080818620,10.038285260,-0.029093030,0.019094350,-0.034552820
1640844492878540032,-0.052889100,0.109673210,9.675121310,-0.048430270,0.014187400,-0.016145410
1640844492882119936,-0.274083700,0.044843450,10.369323730,-0.041103360,-0.000806150,-0.006535650
1640844492882989824,-0.212993850,0.057379350,10.076087950,-0.029216710,0.020161270,-0.009697670
1640844492886870016,-0.020188430,0.408521380,9.629819870,-0.033260890,-0.012068450,-0.016328690
1640844492887980032,-0.365384010,0.543590780,10.551179890,-0.084085760,-0.006201860,-0.016252700
1640844492891849984,0.050133850,0.532879530,9.571352960,-0.113575170,0.048036880,-0.013796990
1640844492892930048,0.101082210,0.474619630,10.133225440,-0.033196810,-0.033825640,-0.025023520
1640844492896839936,-0.050739260,0.522343040,10.411643030,-0.024500490,0.068616870,-0.018191340
1640844492897939968,0.465115490,0.553094270,9.119070050,-0.089521710,0.021144750,0.014217200
1640844492901949952,0.094431210,0.119702610,10.562004090,-0.127568810,0.001463290,0.027744470
1640844492903069952,0.211324210,-0.169718650,9.620292660,-0.081500420,0.114177170,0.013576450
1640844492906889984,0.030972730,-0.272940370,9.920678140,0.003182890,-0.052323940,0.003148620
1640844492908039936,-0.427971960,-0.245584880,10.452856060,-0.026185810,0.022953750,-0.008353590
1640844492912169984,0.010987390,-0.157814650,8.881539340,-0.091539320,0.047218800,-0.019428130
1640844492916819712,-0.269313510,-0.008416820,10.457044600,-0.070704520,0.032439830,0.008895990
1640844492917769984,-0.331468820,0.268852800,10.285061840,-0.042782720,0.120055680,-0.003010030
1640844492918159872,-0.009493560,0.410984930,9.808384900,-0.021182000,-0.038774310,-0.007362660
1640844492921880064,-0.228162200,0.589447380,10.406982420,-0.020873550,-0.008529420,0.010108950
1640844492922989824,0.019686790,0.477847700,9.144301410,-0.053048150,0.068910430,0.000962620
1640844492926859776,0.116507460,0.372484530,9.901255610,-0.046226390,0.036330520,0.010117890
1640844492928099840,-0.127290310,0.465438280,10.639226910,-0.038591040,0.083509100,0.014749170
1640844492931830016,0.208454980,0.272105570,9.790385250,-0.083653620,0.029307610,0.019963090
1640844492932940032,0.078884610,0.209137960,10.154892920,-0.071497270,0.002790990,0.028689210
1640844492936859904,-0.255394100,0.036458960,10.159904480,-0.044271350,0.070889300,0.004264710
1640844492937979904,-0.179358270,-0.058920930,9.772818570,-0.017972290,0.021761660,0.005008280
1640844492941910016,-0.346721710,0.203000100,10.078454020,-0.025817750,-0.005353990,0.013111530
1640844492943120128,-0.128733020,0.091012340,9.673976900,-0.097937870,0.101624440,0.013624130
1640844492946889984,0.211823450,0.330640110,9.614738460,-0.083342200,0.088416040,0.019001960
1640844492948519936,-0.193450530,0.554172460,10.927192690,-0.054866080,0.061507530,0.027014320
1640844492951840000,0.071655060,0.436787780,9.834679600,-0.082528580,0.042627750,0.024850660
1640844492953339904,0.034582690,0.107947010,9.725013730,-0.029949850,-0.051714490,0.023566190
1640844492956839936,-0.195106490,-0.138131110,9.827092170,0.015582150,0.091949110,-0.009599330
1640844492957979904,0.070746670,-0.085581100,9.101999280,-0.016754870,0.126382720,0.005374850
1640844492961870080,-0.321026560,-0.122329310,10.868541720,-0.072501610,0.049309440,0.030173370
1640844492963009792,-0.124915360,-0.097713500,10.055750850,-0.104139750,0.086317960,0.031219430
1640844492966869760,-0.048569550,-0.089713980,9.752686500,-0.013409550,-0.033983590,0.016754860
1640844492970000128,-0.414902240,0.058571290,10.224797250,0.046399240,0.060457000,0.009469690
1640844492971809792,-0.101128200,0.262307170,9.264116290,0.014750660,0.089366730,-0.011324880
1640844492973039872,-0.204046910,0.333962380,10.505209920,-0.031082330,0.029794870,0.006364290
1640844492976849920,-0.072669740,0.533791420,9.980623250,-0.057198110,0.096718970,0.026406350
1640844492977979904,0.083524160,0.587507960,9.715021130,-0.047144300,0.012500590,0.012025240
1640844492983549952,-0.129787970,0.660363610,10.436079980,-0.030945250,0.050342080,0.020034610
1640844492985049856,-0.072453950,0.628165960,9.657157900,-0.031839310,0.073109580,0.024180120
1640844492987299840,-0.129687380,0.284455210,10.186637880,-0.036956370,0.005000830,0.028723480
1640844492989889792,-0.080779950,0.118347780,9.994785310,-0.016349550,0.091867170,0.029985610
1640844492992219904,0.032770510,0.250873600,9.689144130,-0.045008960,0.061181200,0.034269690
1640844492993430016,-0.089396620,0.349229100,10.305300710,-0.131927450,0.070066760,0.031162800
1640844492996929792,-0.112659340,0.153552710,9.933643340,-0.123550000,0.063453620,0.034970050
1640844492997949952,-0.126650480,-0.027244690,9.937355040,-0.003774460,0.010855490,0.015674530
1640844493002459904,-0.256839960,0.077337420,9.883749010,0.062924620,0.046472250,0.001950560
1640844493003170048,-0.197246130,0.211232600,9.567155840,-0.030484800,0.077201430,0.015519560
1640844493007580160,-0.026579420,0.360659150,9.820887570,-0.142472950,0.087776790,0.041309000
1640844493008770048,0.005676580,0.302418890,10.163826940,-0.126761210,0.096845640,0.048817700
1640844493011869952,0.023005910,0.317661730,9.997738840,-0.042408700,0.056560340,0.036928060
1640844493013009920,-0.011575080,0.312963190,9.808074000,0.008851290,0.010094050,0.019422180
1640844493017740032,-0.318709160,-0.113173660,9.968578340,0.002002720,0.045138600,0.016750400
1640844493019640064,-0.218333050,-0.148368700,9.264818190,-0.028124460,0.063835090,0.034517050
1640844493026199808,-0.369697420,-0.247426570,10.215348240,-0.057803100,0.046058010,0.034716730
1640844493026749952,-0.307441030,-0.125287760,10.198704720,-0.065506990,0.106565660,0.042207540
1640844493027429888,-0.044093590,0.278348710,9.836030010,-0.026534500,0.006465610,0.034195190
1640844493028780032,-0.230924320,0.413621630,10.469261170,-0.035133960,0.035142890,0.015252830
1640844493031970048,0.070271500,0.571082650,9.367604260,-0.024357440,0.077782570,0.017577410
1640844493033239808,-0.060953320,0.614439430,10.339361190,-0.007744130,0.003775950,0.015927850
1640844493037929984,-0.140759110,0.612452980,10.124839780,-0.037415330,0.076584520,0.041884180
1640844493040000000,0.097008690,0.578415570,9.408023830,-0.088930130,0.020486120,0.050178170
1640844493042099968,-0.122391040,0.503954770,10.552847860,-0.106650590,0.065921250,0.051735350
1640844493043069952,-0.189069140,0.294577240,10.075285910,-0.079995400,0.091980410,0.049686440
1640844493046850048,-0.109215480,0.090724600,10.011586190,-0.039532780,-0.022852420,0.044994050
1640844493047960064,-0.042733770,-0.068435260,9.763871190,-0.035195050,0.065578510,0.034174320
1640844493051849728,0.036247830,0.012424130,9.452623370,-0.070400520,0.110672400,0.029106440
1640844493052989952,-0.016181130,0.332755000,10.161231040,-0.138267890,0.075708330,0.049301990
1640844493057090048,-0.194657830,0.269631860,10.391989710,-0.158715260,0.041086960,0.043165680
1640844493057999872,-0.103333070,0.042629830,9.824447630,-0.071251400,0.010709460,0.039342050
1640844493061920000,-0.172602250,0.061066260,9.708947180,0.043326620,0.026798250,0.010836120
1640844493063059712,-0.480043140,0.137415770,10.053639410,0.009854140,0.087444480,0.014854970
1640844493066850048,-0.077612390,0.253249560,9.544511800,-0.116784890,0.090676560,0.054320700
1640844493067960064,-0.078079690,0.196761430,10.290826800,-0.151692360,0.036214300,0.056533520
1640844493072589824,-0.125172390,0.254614770,10.086086270,-0.102373970,0.080208490,0.045342740
1640844493075019776,0.210719600,0.384932490,9.337188720,-0.020088260,0.023350120,0.026778880
1640844493076849920,-0.316922520,0.207409980,10.702028270,0.001867120,0.048619520,0.016865130
1640844493078159872,-0.214961890,0.157762290,9.795923230,-0.044648350,0.085797910,0.028623640
1640844493081879808,-0.155791030,-0.058574900,10.000179290,-0.059920550,-0.019967560,0.047267970
1640844493083020032,-0.451804790,0.083418080,10.335249900,-0.077383230,0.071299060,0.051194430
1640844493087079936,-0.027628320,0.369525430,9.363248830,-0.093783450,0.069426020,0.034657120
1640844493088359936,-0.259269620,0.455299710,10.606293680,-0.088870530,0.020223860,0.045676530
1640844493091889920,-0.190542190,0.565222860,9.918412210,-0.070212770,0.065357980,0.034622850
1640844493092999936,0.198307840,0.400039910,9.571702960,-0.041645770,0.004230440,0.014992060
1640844493096849920,-0.118969950,0.607955570,10.317290310,-0.038589540,0.053638230,0.040233150
1640844493098019840,-0.081683530,0.529155550,9.803500180,-0.135730220,0.078387560,0.049830980
1640844493102039808,0.069955650,0.204094260,10.071221350,-0.162796650,0.021350380,0.067073100
1640844493103079936,-0.331876750,-0.086240460,10.328722950,-0.044512750,0.009480120,0.072517980
1640844493106939904,-0.179158320,-0.337266620,9.551581380,0.000743570,0.035411120,0.027677420
1640844493108130048,-0.181557420,-0.297785940,9.693988800,-0.015570230,0.034716730,0.041061640
1640844493111840000,-0.451124280,-0.325088890,10.181966780,-0.072026240,0.051741290,0.030361110
1640844493112959744,0.002862590,-0.099233500,9.544524190,-0.103311240,0.057858230,0.027123090
1640844493123229952,-0.190701370,0.229536950,10.163021090,-0.061731030,-0.011529030,0.025635960
1640844493123999744,-0.319691900,0.394604440,10.257487300,-0.044062730,0.056692960,0.009116530
1640844493124719872,0.023231290,0.377378020,9.513727190,-0.003097950,-0.008949640,0.011700390
1640844493125120000,-0.509756800,0.217286330,10.529860500,0.035770230,-0.021910670,0.035570570
1640844493130299904,-0.175159780,0.260841520,9.405357360,-0.019782780,0.069306780,0.040835140
1640844493130769920,-0.098651020,0.228234590,9.921262740,-0.063957270,-0.035858160,0.061304870
1640844493131840000,-0.344921110,0.302670750,10.431775090,-0.091455880,0.049085920,0.075376040
1640844493132979968,0.207278640,0.275177570,9.276906010,-0.081922110,0.024299320,0.035683810
1640844493136950016,-0.183801340,0.157353100,10.764166830,0.007814170,-0.027108200,0.028298800
1640844493138739712,-0.236455440,0.330571290,10.058795930,0.032211840,0.035578010,0.017778570
1640844493141899776,-0.071936000,0.316111830,9.594893460,-0.041675570,-0.080023710,0.015790760
1640844493143009792,-0.362697040,0.305685940,10.101190570,-0.110754390,0.012095270,0.044865920
1640844493146859776,-0.107448200,0.320230480,9.395501140,-0.096455200,0.058470660,0.041551890
1640844493147970048,-0.240002530,0.263691750,10.475865360,-0.032788520,-0.008541350,0.051712990
1640844493152339968,-0.285876150,0.326502290,10.158091550,-0.012333690,-0.010940430,0.046215950
1640844493153329920,0.027033980,0.034396480,9.468078610,-0.033189360,-0.048093500,0.038352610
1640844493156899840,-0.097318890,-0.117729310,9.829536440,-0.026910010,0.005796550,0.030508640
1640844493158099968,-0.122089270,-0.028966720,9.810349460,-0.044800340,0.039812920,0.030072040
1640844493161870080,-0.052582670,-0.078080040,10.097378730,-0.068141520,-0.009080770,0.042210520
1640844493163569920,-0.229462740,-0.116233830,10.372881890,-0.015558300,-0.046543780,0.040295720
1640844493166999808,-0.293613230,-0.167322190,9.786959650,0.029857450,-0.042833380,0.027820470
1640844493168429824,-0.350780370,-0.029816090,9.617328640,0.034473840,-0.024327640,0.024646520
1640844493172379904,-0.552824500,0.058861460,10.377505300,0.002610680,-0.027802590,0.017026070
1640844493172989952,-0.215266030,0.247459020,9.678974150,-0.017581880,-0.006349390,0.034438080
1640844493176800000,-0.054130980,0.565826000,9.842489240,-0.019325320,-0.054469720,0.027225920
1640844493177979904,-0.118901090,0.686289730,10.388680460,-0.034557280,0.012037160,0.017902260
1640844493183650048,0.069361310,0.735843000,9.828506470,-0.014574830,-0.027590990,0.032901770
1640844493184669952,-0.256383510,0.421113940,10.766649250,-0.001275540,-0.108401480,0.036589800
1640844493187019776,-0.155534670,0.036767130,9.641843800,0.018446150,-0.035838780,0.044383110
1640844493188989952,0.030631640,-0.079368790,9.375656130,0.028121470,-0.070278350,0.036744770
1640844493191869952,-0.155735340,0.044903600,10.273952480,-0.034323330,0.039398670,0.038091840
1640844493193239808,0.062829420,0.051981130,9.716359140,-0.101053720,0.009563570,0.044889750
1640844493196899840,0.038586330,-0.007674040,10.466972350,-0.056025390,-0.080591460,0.033585740
1640844493198390016,-0.055511900,-0.004595170,10.097594260,0.070089100,-0.044311590,0.009086730
1640844493201949952,-0.133844020,0.127309040,9.448051450,0.088994200,-0.066991160,0.004306430
1640844493202999808,-0.189447980,0.328403980,9.716792110,-0.017282360,-0.021184980,0.018580260
1640844493206830080,-0.235280690,0.189103990,9.983073230,-0.077928600,0.014740230,0.027245280
1640844493208230144,-0.146220390,0.216154960,10.006507870,-0.031520430,-0.010298190,0.033777960
1640844493211830016,-0.221951350,0.319773610,10.177350040,0.048422810,-0.080890950,0.025719410
1640844493213009920,-0.344388340,0.151403890,10.079689030,0.044159590,-0.048370660,0.011481340
1640844493216950016,-0.027388550,0.016033630,9.314757350,0.031192600,-0.014561420,0.011204180
1640844493218050048,-0.238737720,-0.134691630,10.403573040,0.038301950,-0.036260490,0.013557080
1640844493221880064,-0.166429280,-0.068660390,10.099263190,0.012366470,0.016915800,0.018848480
1640844493222980096,0.089000810,0.177734900,9.713819500,0.009997190,-0.100462140,0.020772220
1640844493226850048,-0.350983800,0.285816790,10.560131070,0.001700220,-0.062759220,0.030963130
1640844493228489984,-0.065516840,0.393545210,9.311786650,0.008605420,-0.000557300,0.011654200
1640844493232359936,-0.150740250,0.401188790,10.358667370,0.066770620,-0.082117310,0.019085400
1640844493233319936,-0.405626000,0.565654990,10.496875760,0.069847700,-0.000403820,0.027285520
1640844493236829952,0.058890810,0.689195810,9.461479190,-0.028368830,-0.063923010,0.022694470
1640844493237999872,-0.060226920,0.698466720,10.225320820,-0.094883140,-0.046139960,0.046731530
1640844493242429952,-0.118477780,0.541661380,9.954319950,-0.068169840,0.016362970,0.026565790
1640844493243660032,0.080823340,0.246045830,9.937277790,0.012202560,-0.063636900,0.006484990
1640844493246990080,-0.244338300,0.152045550,10.253728870,0.061805550,-0.088700660,0.021380190
1640844493248000000,-0.074730160,-0.302560150,9.570791240,0.004777310,-0.020919740,0.020629170
1640844493251849984,0.159420150,-0.354902600,9.608740810,-0.019825990,0.003123280,0.027909880
1640844493253059840,-0.366903600,-0.148696380,10.787768360,-0.028912730,-0.012265150,0.043571000
1640844493256889856,-0.085436610,-0.144955520,9.908933640,-0.049872700,-0.033305590,0.021575390
1640844493258739968,0.011586440,-0.012608160,9.622928620,0.036104030,-0.129804020,0.004865230
1640844493261979904,-0.326476690,0.071596730,9.987295150,0.092372300,-0.004711750,-0.014650820
1640844493263330048,0.056252840,0.239224150,9.104352000,0.069312750,0.035707660,-0.019836430
1640844493267340032,-0.391745900,0.330184040,10.951142310,0.021131340,-0.076578560,0.015945730
1640844493268379904,-0.204651240,0.359968840,10.055992130,-0.028134890,-0.015641750,0.028090180
1640844493272039936,0.106706960,0.131898020,9.356423380,0.013773150,-0.105474900,0.027869640
1640844493273039872,-0.379737320,0.064031410,10.540036200,0.091272600,0.000198190,0.020015240
1640844493277040128,-0.140892640,0.105412590,9.561036110,0.087277600,0.006817280,-0.011917950
1640844493277969920,-0.162036640,0.065804680,10.371758460,0.049367540,-0.109325330,0.006313620
1640844493281959936,-0.155172540,0.119544610,9.900224690,0.009202960,-0.008565190,0.016020240
1640844493283010048,0.038613860,0.173546900,9.653998370,0.004985930,-0.034576660,-0.009284910
1640844493286840064,-0.211409430,0.492667970,10.541958810,0.034247340,-0.035758320,0.006170570
1640844493287969792,-0.166879300,0.562219020,10.003355030,0.033429270,-0.060495740,0.006267430
1640844493292549888,-0.029993810,0.385543020,9.917194370,0.022922460,-0.064775350,0.002689660
1640844493293299968,0.006809240,0.282704560,9.824640270,0.066728900,-0.004725160,0.007867810
1640844493296939776,-0.086460700,0.286279980,10.027368550,0.044178970,-0.014330450,0.000236930
1640844493297989888,0.016858020,0.393508850,9.802640910,-0.033575300,-0.034354630,0.018498300
1640844493301949952,-0.007339980,0.102335820,10.062828060,-0.049984460,-0.056545440,0.020760300
1640844493303059712,-0.110072170,-0.129297360,9.955142020,0.035929680,-0.016649070,0.010350350
1640844493306840064,-0.129079540,-0.091564450,9.705581670,0.112070170,-0.059250000,-0.021737810
1640844493310499840,-0.436378510,-0.106635760,10.291452410,0.060503180,-0.045853860,-0.020059940
1640844493318169856,-0.236020150,0.029158370,9.478894230,-0.017948450,-0.013451280,-0.006850060
1640844493318799872,-0.285726610,-0.021970770,10.218503950,-0.023268170,-0.055280340,-0.011295080
1640844493319259904,-0.274244700,0.125737560,9.924427990,0.058531760,-0.006727870,-0.012028220
1640844493319699968,-0.115382160,0.373729380,9.775167470,0.085908180,-0.074577330,-0.017188490
1640844493321859840,-0.161978260,0.340340790,10.238533020,0.053291020,-0.048188870,-0.016726560
1640844493323030016,0.008154460,0.326045810,9.604327200,0.030383470,-0.032413010,-0.003518160
1640844493326939904,0.034935410,0.266956600,10.117512700,0.030595070,-0.043018170,-0.003243980
1640844493328229888,-0.094285960,0.289440100,10.331606860,0.047612190,-0.041411820,-0.008361040
1640844493331960064,-0.209590610,0.373977990,10.050458910,0.033207240,-0.084951530,-0.010094050
1640844493332999936,-0.139484480,0.317227870,9.758399010,0.009472670,-0.067707900,-0.013062360
1640844493336779776,-0.290649620,0.104662550,10.101662640,0.041440130,-0.037169460,-0.009140370
1640844493337989888,-0.251079200,0.298689690,9.948531150,0.063653300,-0.022773440,-0.017014140
1640844493341899776,-0.057093260,0.591743710,9.786767960,0.011815130,-0.087259720,-0.015513600
1640844493343159808,-0.224127740,0.535113630,10.288250920,-0.076821440,-0.030452010,-0.003559890
1640844493348079872,0.093743780,0.493489560,9.633783340,-0.046190620,0.002719460,-0.011651220
1640844493350679808,-0.230358290,0.275275800,10.731235500,0.063249480,-0.123509780,-0.031501060
1640844493351830016,-0.257592260,0.227547020,9.765582080,0.067466500,-0.057421630,-0.021141770
1640844493353080064,0.202030550,0.033960170,8.872963910,-0.002928080,-0.067761540,-0.005544720
1640844493356930048,-0.210319000,-0.228737460,10.513396260,-0.026252870,0.015330320,0.011213130
1640844493359200000,-0.025113480,-0.135503550,9.825010300,-0.010110440,0.018359720,-0.005567070
1640844493362340096,-0.056108790,-0.088408390,10.312293050,0.024048980,-0.162015860,-0.019909440
1640844493363369984,-0.328022900,0.009990000,10.001108170,0.036923590,-0.063428280,-0.042353570
1640844493366799872,-0.056541130,0.102918420,9.055589680,0.026468940,-0.043182080,-0.070661310
1640844493367980032,-0.364583490,0.231598270,10.280944820,0.051276390,-0.041231520,-0.028505920
1640844493371899904,-0.463465870,0.350775060,10.242583270,0.033792860,-0.026369100,-0.040555000
1640844493372999936,-0.103720210,0.485723230,9.797827720,-0.013679270,-0.110238790,-0.021530690
1640844493377159936,-0.333436430,0.565030870,10.184136390,0.001300870,-0.099228310,-0.000850860
1640844493378010112,-0.154257450,0.357726990,9.733443260,-0.001293420,-0.023449960,-0.032247610
1640844493382190080,0.179393160,0.256193550,9.740157130,0.062613200,-0.054471200,-0.031307340
1640844493383350016,-0.093298480,0.339781550,10.750343320,0.060613460,-0.074788940,-0.035959480
1640844493386919936,0.306476120,0.289090450,9.565353390,-0.040116910,-0.022982060,-0.033292180
1640844493388189952,0.268650560,0.210538100,9.869471550,-0.060334810,-0.094896550,-0.019595030
1640844493392230144,-0.303969560,0.160128880,10.784205440,-0.012125080,-0.020781160,-0.039096180
1640844493395619840,-0.028511840,0.157928440,9.273302080,0.028915700,-0.068402300,-0.038465860
1640844493396819712,-0.367250470,0.054896540,10.196821210,0.046694280,-0.148501990,-0.023193660
1640844493398010112,-0.189540420,-0.021075610,9.457632060,0.012831390,0.046840300,-0.022707880
1640844493401870080,0.004033230,0.047311830,9.695649150,0.003579260,-0.005479160,-0.031186640
1640844493403030016,-0.411839780,0.350739150,11.074081420,-0.016045570,-0.058728460,-0.006954370
1640844493406919936,-0.007409080,0.239183050,9.452057840,-0.049087400,-0.099046520,-0.036838650
1640844493408150016,0.116223240,-0.035733230,9.502392770,0.014573340,-0.104407990,-0.059589750
1640844493411820032,-0.088790990,0.113468290,9.865017890,0.104004170,0.040714450,-0.067859890
1640844493412999936,-0.092906910,0.042332980,9.930435180,0.058093670,-0.013445320,-0.068441030
1640844493416869888,-0.091911690,0.100961080,10.261330600,-0.017534200,-0.098967560,-0.027546290
1640844493418040064,-0.149981870,0.050313220,9.887445450,-0.041332850,-0.066480040,-0.022625930
1640844493422579968,-0.194892790,-0.073327470,9.754712100,0.003732740,-0.037260360,-0.031478700
1640844493423640064,-0.263341670,0.107000650,10.068064690,0.097949800,-0.049386920,-0.044214730
1640844493427419904,-0.358670860,0.183476690,10.304479600,0.085812810,-0.042311850,-0.050459810
1640844493430860032,-0.140001680,0.338630020,9.759859090,0.011441110,-0.054034590,-0.053386390
1640844493431869952,-0.218029320,0.351132990,10.171875950,-0.026299060,-0.096868000,-0.037527080
1640844493433009920,-0.299517240,0.410680060,10.042556760,-0.000692900,-0.027091810,-0.050935160
1640844493436859904,-0.117821200,0.616022290,9.742394450,0.030702360,-0.093650830,-0.061197580
1640844493438109952,-0.204493480,0.594163950,10.366444590,0.014573340,-0.075189780,-0.037062170
1640844493442720000,0.099556500,0.441542000,9.544281010,-0.007429720,-0.019271670,-0.028818850
1640844493444019968,0.148347510,0.201155380,10.225716590,0.002935530,-0.053912400,-0.043262540
1640844493446839808,-0.069501460,0.370070040,10.245239260,-0.012655560,-0.032994160,-0.039869550
1640844493449590016,-0.017644080,0.341765580,9.742640500,-0.070467600,-0.111106050,-0.036209830
1640844493451899904,-0.075005750,-0.124888320,10.009434700,-0.045993930,-0.060975560,-0.021679700
1640844493453069824,-0.211782380,-0.291437090,9.814196590,0.076550250,-0.029419360,-0.046543780
1640844493456879872,-0.278885930,-0.110935380,10.075899120,0.071942810,-0.041867800,-0.058940060
1640844493459699968,-0.160965890,-0.009346790,9.849650380,-0.025202330,-0.032022600,-0.029754640
1640844493461959936,-0.261497020,-0.022290710,10.200261120,-0.070872900,-0.040623550,-0.032259530
1640844493463229952,-0.080386620,0.089239690,9.920747760,-0.006128850,-0.060100860,-0.045958170
1640844493466929920,-0.184270290,0.100262340,9.833333970,0.092008710,-0.112834580,-0.067396470
1640844493468049920,-0.140786190,0.311558540,9.578355790,0.063695020,-0.027604400,-0.068271170
1640844493471949824,0.069599420,0.265031520,9.769946100,0.005432960,-0.018329920,-0.056405370
1640844493473029888,-0.300140620,0.066734020,10.816025730,-0.007188320,-0.038242340,-0.026017430
1640844493477649920,-0.097494560,0.238021910,9.795663830,0.017192960,-0.080807510,-0.028844180
1640844493478329856,-0.286154450,0.097734890,10.136585240,0.042212010,-0.154693440,-0.035364930
1640844493481849856,-0.490964800,0.055746920,9.927922250,0.038391340,-0.014361740,-0.044094020
1640844493483059968,-0.144039020,0.081880590,9.558219910,0.035859650,-0.057674940,-0.057280070
1640844493487069952,-0.362569870,-0.078686480,10.800557140,0.068566200,-0.067967180,-0.059096530
1640844493488479744,0.036114290,0.383309720,9.542956350,0.043419000,-0.044158100,-0.060890610
1640844493492189952,0.080958730,0.626923080,10.020751950,-0.039292880,-0.114116090,-0.041830550
1640844493493389824,-0.135255020,0.547146500,10.279541970,-0.061155860,-0.035384300,-0.024306770
1640844493496829952,0.123943080,0.376317920,9.524421690,0.029139230,-0.072874130,-0.043891370
1640844493498309888,-0.218034940,0.263056250,10.470186230,0.110611320,-0.109265750,-0.045944750
1640844493501949952,-0.269402300,0.224757690,9.620519640,0.043857100,-0.056260840,-0.034318860
1640844493503429888,0.004659490,-0.013702720,9.505716320,-0.061444940,-0.066612670,-0.027410690
1640844493507379968,-0.203853710,-0.112156690,10.325347900,-0.042849780,-0.034363570,-0.025673210
1640844493508309760,-0.233668860,-0.137725890,10.047723770,0.020127000,-0.050847230,-0.044657290
1640844493512589824,-0.039195910,-0.040396820,9.830946920,0.070938470,-0.120539960,-0.056815160
1640844493513649920,-0.295870690,-0.007162520,10.055348400,0.060059130,-0.084865100,-0.064007940
1640844493521299712,-0.023731180,-0.031530790,9.384378430,0.011596080,-0.012634690,-0.063064690
1640844493521849856,-0.093773730,0.157645090,10.096839900,0.035208470,-0.071811680,-0.041520600
1640844493522159872,-0.356678610,0.196738540,10.643603320,0.020848210,-0.059688090,-0.038819010
1640844493523059968,0.166661010,0.386199800,9.320588110,0.011819600,-0.083795200,-0.034013390
1640844493527159808,-0.295676440,0.246805620,10.460752490,0.052450600,-0.125135480,-0.032179060
1640844493528369920,-0.296219020,0.237488990,9.903908730,0.047343970,0.009197000,-0.061401730
1640844493531819776,-0.054449400,0.290340870,9.693796160,0.060544910,-0.113962590,-0.044900180
1640844493533039872,-0.435335840,0.309886220,10.894060130,0.031484660,-0.083346690,-0.046817970
1640844493536819968,0.220480320,0.423336710,9.105648040,-0.042484700,-0.013317170,-0.047257550
1640844493537979904,0.048052360,0.267084000,10.381229400,-0.004656610,-0.107927640,-0.027577580
1640844493541910016,-0.227773320,0.329736440,10.551309590,0.054851170,-0.005193050,-0.043520340
1640844493543549952,0.074369230,0.305674490,9.456078530,0.046688320,-0.135241460,-0.049272190
1640844493547249920,-0.187904690,0.131995050,10.148818970,0.019556280,-0.132171790,-0.014424320
1640844493549049856,0.014807220,-0.018501970,9.261478420,0.005036590,0.026039780,-0.050418080
1640844493552450048,0.091062490,0.096219300,9.890776630,0.008153920,-0.019998850,-0.054942070
1640844493554400000,-0.327476770,0.395680370,10.851971630,-0.000260770,-0.056183340,-0.019364060
1640844493557539840,-0.060342740,0.131044370,9.856601720,-0.034894050,-0.103431950,-0.044207280
1640844493558259968,0.019244690,-0.111004710,9.635156630,0.043593350,-0.112020970,-0.043092660
1640844493561899776,-0.322984810,-0.097815960,9.843091960,0.117272160,-0.005814430,-0.051310660
1640844493563040000,-0.157749950,-0.169625770,9.687309270,0.060081470,-0.006659330,-0.054430960
1640844493566949888,-0.210857850,-0.064656700,10.271117210,0.000129640,-0.083859260,-0.024218860
1640844493568019968,-0.189119130,-0.084226880,10.259779930,-0.007279220,-0.060634320,-0.032641000
1640844493571830016,0.076829460,0.018127910,9.544562340,0.049647690,-0.058005760,-0.050275030
1640844493572999936,-0.280824300,0.343519690,10.453932760,0.112560400,-0.093869860,-0.063410410
1640844493577199872,-0.146452900,0.540869300,10.053435330,0.054492060,-0.011596080,-0.064516070
1640844493578569984,0.032650500,0.529094990,9.828077320,0.009198490,-0.097785880,-0.037176900
1640844493582700032,-0.222575920,0.415788320,10.505527500,0.022926930,-0.064487750,-0.035560120
1640844493585229824,0.114888680,0.529404820,9.257006650,0.038890540,-0.009557610,-0.049532950
1640844493586929920,-0.154166370,0.621689380,10.355157850,0.021910670,-0.091199580,-0.030426680
1640844493589059840,-0.232665360,0.414087440,10.279541020,-0.039047000,-0.020250680,-0.023475290
1640844493591859712,0.168564040,-0.023020540,9.447796820,0.000546870,-0.082013000,-0.037378070
1640844493593009920,-0.144079770,-0.221145120,10.522959710,0.091128050,-0.036819280,-0.052717340
1640844493597629952,-0.002349860,0.037456840,9.521235470,0.051648910,0.026147070,-0.053289530
1640844493598330112,-0.104995940,0.008688910,10.201118470,-0.062546130,-0.103478140,-0.036534670
1640844493601859840,-0.185087250,-0.161437000,10.145124440,-0.053615870,-0.025229160,-0.032018120
1640844493603040000,0.077281290,-0.170929760,9.245441440,0.069500510,-0.068500640,-0.069636110
1640844493606860032,-0.215827000,0.152771580,10.327534680,0.115913150,-0.036619610,-0.069230800
1640844493608049920,-0.142875120,0.323737710,9.861662860,0.034344200,0.013524300,-0.048120320
1640844493611859968,-0.024015620,0.269604360,10.066178320,-0.032819810,-0.070902710,-0.030976530
1640844493613039872,-0.226507130,0.284822760,10.379588130,-0.003235040,-0.035984810,-0.027176740
1640844493617039872,-0.094664190,0.216198090,9.577898980,0.050497070,-0.054799030,-0.045974560
1640844493618419968,-0.169194240,0.246778100,10.009451870,0.078660230,-0.047716490,-0.052471460
1640844493622010112,-0.307744920,0.232235850,10.256962780,0.050540270,-0.020402670,-0.059735770
1640844493623109888,-0.059492330,0.085356580,9.832745550,-0.006152690,-0.029221180,-0.046533350
1640844493626899968,-0.076146250,0.200529800,10.201529500,0.013242660,-0.053356600,-0.041937830
1640844493629939968,-0.184160990,0.343691860,10.279112820,0.010585780,-0.019676990,-0.048047300
1640844493632219904,0.064436790,0.416718690,9.544361110,-0.006183980,-0.037784880,-0.020369890
1640844493633280000,-0.146783320,0.276396210,10.402961730,0.018414860,-0.058245670,-0.028470160
1640844493638000128,-0.087631960,0.114952760,10.082709310,0.054159760,0.015293060,-0.031878060
1640844493640739840,0.132936490,0.203281130,9.610446930,0.056959690,-0.069475170,-0.023636220
1640844493641839872,-0.132825880,0.117640350,10.473616600,-0.025013090,-0.019510090,-0.024056430
1640844493643110144,0.324827670,0.078381780,9.189378740,-0.057014820,0.057719640,-0.014892220
1640844493646929920,0.060758330,0.034261250,10.407002450,0.027634210,-0.054024160,-0.018279250
1640844493648900096,-0.235646040,0.034541490,10.367746350,0.066430870,0.018006560,-0.038260230
1640844493651869952,0.036854120,0.014354090,9.166587830,0.033977630,-0.082273790,-0.038683410
1640844493653059840,-0.269466580,-0.129469570,10.296271320,0.025843080,-0.018776960,-0.035321710
1640844493656849920,-0.089881820,-0.071448890,9.497560500,0.016097730,0.106610370,-0.033983590
1640844493658059776,-0.047995150,-0.055374690,10.216030120,0.044827170,-0.025501850,-0.020322210
1640844493661969920,-0.254921140,0.075191080,10.662344930,0.052078070,0.008071960,-0.018046800
1640844493663079936,0.002928670,0.028711600,9.334203720,0.046481200,-0.044626000,-0.030721730
1640844493667759872,-0.165891330,0.009479890,9.915301320,0.072188680,-0.039950020,-0.025136770
1640844493669379840,-0.288688300,0.120348540,9.943988800,0.072868180,0.065664950,-0.039635600
1640844493671889920,-0.080740220,0.217686090,10.022955890,0.058935590,-0.007608530,-0.032383200
1640844493673110016,-0.123103420,0.465595900,10.435459140,0.046734520,-0.011573730,-0.010164080
1640844493677369856,-0.095018390,0.473969250,9.892590520,0.009508430,0.019854310,-0.015395880
1640844493678979840,-0.006063440,0.385648190,9.963133810,0.028246640,0.000131130,-0.004509090
1640844493682070016,-0.351361420,0.333202030,10.482046130,0.098024320,-0.013937060,0.000439580
1640844493683040000,-0.164429860,0.132876840,9.707720760,0.066184990,-0.028640030,-0.006563960
1640844493686800128,0.118158030,-0.007033560,9.390839580,0.038309400,0.003395970,-0.001433490
1640844493688049920,-0.069838320,0.001002200,10.256725310,0.032931570,0.068321820,-0.018309060
1640844493691809792,-0.011032390,0.113379980,10.160538670,0.005181130,0.041788820,-0.017657880
1640844493693090048,-0.065213930,0.100945390,10.178890230,0.026506180,-0.085125850,-0.012132520
1640844493696899840,-0.154706000,-0.099342560,9.850759510,0.067663220,-0.005248190,-0.022766000
1640844493698020096,0.006975000,-0.117080810,9.194254880,0.125767290,0.033275790,-0.030848380
1640844493701880064,-0.313231680,0.020336420,10.447545050,0.105986010,0.023823980,-0.019417700
1640844493703069952,-0.150744900,0.108826040,9.873651500,0.008910890,0.057916340,0.001227860
1640844493706820096,-0.030298330,0.001838650,9.988680840,0.012533370,-0.046493120,-0.002691150
1640844493708029952,-0.310794500,-0.001971900,10.312129020,0.097297150,0.015416740,-0.012753910
1640844493713559808,-0.149597570,0.171401800,9.311473850,0.133408620,0.004963580,-0.041066110
1640844493714279936,-0.345661040,0.139087660,10.369893070,0.111328080,-0.026842960,-0.035646560
1640844493718560000,-0.185711220,0.299490540,9.843596460,0.058853630,0.068266700,-0.010505320
1640844493719929856,-0.015963300,0.307222720,9.978309630,0.027352580,-0.019086900,-0.008398300
1640844493721819904,-0.111334070,0.377746280,10.506315230,0.035519910,0.028149790,-0.004488230
1640844493723039744,-0.074582720,0.544033770,9.732204440,0.061219930,0.001360480,-0.005930660
1640844493726809856,-0.199693350,0.307766230,10.283239360,0.065429520,-0.055859990,-0.007089970
1640844493728219904,-0.193180380,0.109668370,9.781716350,0.087265670,0.028730930,-0.009058420
1640844493731859968,-0.104957100,0.145751000,9.687975880,0.073173650,-0.001634660,-0.008536880
1640844493733049856,-0.137166690,0.239997390,10.292561530,0.016117100,0.038516530,0.005227330
1640844493736780032,0.037964650,0.250645040,9.843993190,-0.033827130,0.034175810,0.004933770
1640844493738009856,0.070363620,0.178690790,10.361309050,0.000791250,0.011089450,0.003339350
1640844493741849856,-0.130143540,0.008392150,10.685359950,0.114552680,0.015939770,-0.007882720
1640844493746379776,-0.352294800,-0.026715440,10.388976100,0.132364050,-0.051061810,-0.019428140
1640844493747490048,-0.365209940,0.062687130,10.237186430,0.034567710,-0.018435720,-0.008286540
1640844493750419968,-0.574841260,-0.023584350,10.695427890,-0.018510220,0.032168630,0.005145370
1640844493751859968,-0.697346690,0.096564950,10.971178050,0.016339130,-0.003536050,0.009308760
1640844493753139968,-0.702749310,0.213216270,10.995304110,0.073033580,-0.083081420,-0.010368230
1640844493757280000,-0.789567530,0.078888040,11.081836700,0.110331200,-0.104074180,-0.037992000
1640844493759980032,-0.510918380,0.141159740,10.482170100,0.103354480,-0.058731440,-0.035998230
1640844493761819904,-0.365013210,0.173298340,10.977038380,0.076319280,-0.059218710,-0.037437680
1640844493763039744,-0.145817680,0.169526070,11.415644650,0.032219290,-0.010536610,-0.008429590
1640844493766880000,0.200331580,0.419783120,11.010272030,0.027349590,-0.060689450,0.004550810
1640844493768009984,0.024160530,0.408807070,11.545377730,0.049440560,-0.145189450,-0.003591180
1640844493771819776,-0.142383130,0.290144920,11.012694360,0.072665510,-0.103679300,-0.006814300
1640844493773019904,-0.353575560,0.264650320,10.809793470,0.096343460,-0.135859860,-0.019159910
1640844493776909824,-0.589459960,0.250786270,11.440104480,0.078403960,-0.122801970,-0.021134320
1640844493778499840,-0.515182610,0.290859610,11.015664100,0.014173980,-0.062459710,-0.015440580
1640844493782039808,-0.421933030,0.424528180,11.204072950,-0.022590160,-0.105804200,-0.021523240
1640844493783180032,-0.383271040,0.414580700,11.711776730,0.007803740,-0.108757620,-0.019894540
1640844493786840064,-0.319617630,0.304418240,11.059560780,0.066857040,-0.148338090,-0.023870170
1640844493788229888,-0.140032780,0.069507280,10.839085580,0.089652840,-0.178162770,-0.019998850
1640844493791899904,0.091142390,-0.143253030,10.929616930,0.081805890,-0.086028880,-0.029452150
1640844493793409792,0.013804400,-0.019480690,11.087953570,0.049576170,-0.077795980,-0.022916500
1640844493797659904,0.026579030,0.175777380,11.377279280,-0.031962990,-0.131137680,-0.007632380
1640844493799129856,-0.055952530,0.112953010,11.405372620,-0.035761300,-0.141897810,-0.022742150
1640844493801820160,-0.426592080,-0.042412350,11.311609270,0.083965070,-0.181858290,-0.049862270
1640844493803119872,-0.549019400,-0.038817510,10.874021530,0.171430420,-0.191511180,-0.079369550
1640844493806979840,-0.721728560,0.220035940,10.906161310,0.109376010,-0.142908110,-0.083719190
1640844493807999744,-0.689431310,0.321294810,11.359795570,-0.028854610,-0.116303560,-0.055858500
1640844493812059904,-0.293197600,0.354850800,11.295455930,-0.060378020,-0.130753220,-0.039266050
1640844493813040128,-0.204272750,0.453685460,11.536750790,0.034403800,-0.199660690,-0.065296900
1640844493816819968,-0.156321810,0.491907950,11.436081890,0.107294330,-0.170031190,-0.077939030
1640844493818349824,-0.005976830,0.442095340,10.814400670,0.103296340,-0.177735110,-0.069986280
1640844493821959936,-0.147165280,0.262945740,11.284830090,0.038304920,-0.216043000,-0.052826110
1640844493823289856,-0.076815050,0.150072220,11.129268650,-0.025762620,-0.145247580,-0.054435440
1640844493826909952,0.182877510,0.255607870,10.574534420,-0.016258660,-0.146284710,-0.065802050
1640844493828110080,-0.175976190,0.465975340,11.755754470,-0.006772580,-0.175009670,-0.065629190
1640844493832939776,-0.321841870,0.501882490,11.462012290,-0.013455750,-0.168387590,-0.083735590
1640844493833689856,-0.276050090,0.167259320,10.789732930,0.017054380,-0.248919440,-0.100040440
1640844493836839936,-0.388388190,0.039264170,11.011754040,0.071778890,-0.219491140,-0.091883530
1640844493838019840,-0.426237140,0.205228430,10.687176700,0.037235030,-0.112333910,-0.096328560
1640844493841879808,-0.114013150,0.087673430,10.783219340,-0.079301010,-0.127568860,-0.086033340
1640844493843040000,-0.027043570,0.049145970,11.430237770,-0.071091950,-0.187574340,-0.067733230
1640844493847059968,-0.066217530,-0.118720550,11.226138110,0.046256190,-0.186398630,-0.097249450
1640844493848189952,0.090410490,-0.184893130,10.467629430,0.098145010,-0.185038160,-0.140421090
1640844493851859712,-0.177975070,0.068639590,10.766769410,0.064156950,-0.223089780,-0.130602730
1640844493853070080,-0.331730190,0.043936280,11.075634960,-0.012412670,-0.143645720,-0.128977000
1640844493856910080,0.021576760,0.146172360,10.425604820,-0.039398670,-0.122539710,-0.111557560
1640844493858070016,-0.289269390,0.322890370,11.451689720,0.007283690,-0.210918500,-0.113958120
1640844493861819904,-0.450682070,0.347398970,11.598836900,0.049796700,-0.170665980,-0.138780490
1640844493863119872,-0.166789530,0.248688370,10.256451610,0.068940230,-0.200808080,-0.149014610
1640844493867200000,-0.454076320,0.125895430,11.096052170,0.067935890,-0.240407910,-0.137732920
1640844493868109824,-0.244345380,0.163250920,10.860699650,0.018480420,-0.100925550,-0.147695850
1640844493872839936,0.200881230,0.304622560,10.416958810,-0.024294860,-0.158196700,-0.147907440
1640844493873479936,0.043295320,0.505832550,11.594497680,-0.043939050,-0.187212270,-0.135001540
1640844493876789760,0.099116020,0.590818050,11.085120200,-0.026375060,-0.144997250,-0.158277170
1640844493878039808,0.142044980,0.401545790,10.653229710,0.030492250,-0.232286750,-0.170791160
1640844493881880064,-0.161876410,0.346099640,11.014407160,0.047506380,-0.199763480,-0.153326970
1640844493883109888,-0.184994120,0.257381080,10.548188210,-0.008931760,-0.133542730,-0.154477360
1640844493886870016,-0.015992050,0.100822330,10.445163730,-0.066107520,-0.125977400,-0.162489710
1640844493888399872,-0.101309340,0.183529390,10.957886700,-0.056999930,-0.136516990,-0.159493100
1640844493891849984,-0.192767630,0.116691720,11.064110760,-0.033195320,-0.161308050,-0.175207870
1640844493893090048,0.055439260,-0.133729650,10.460938450,-0.000987950,-0.165820120,-0.189062970
1640844493897009920,0.007621230,-0.259160550,10.458044050,0.055302690,-0.165261330,-0.217652320
1640844493898049792,-0.158781900,-0.195717990,10.793766980,0.052633890,-0.109179320,-0.212924200
1640844493901929728,-0.025634240,0.021631490,10.371024130,-0.027765340,-0.083446510,-0.183999540
1640844493903169792,-0.179075290,-0.002294090,10.977245330,-0.061337650,-0.198742750,-0.176712890
1640844493906960128,-0.193863260,-0.113618950,10.665789600,0.009037550,-0.158610930,-0.201034530
1640844493908119808,-0.099853930,0.033507860,9.931840900,0.098605460,-0.134550010,-0.236617040
1640844493911859968,-0.299331690,0.037546280,11.033632280,0.098378940,-0.118029120,-0.246064350
1640844493913250048,-0.265730470,0.248031270,10.876387600,0.035552680,-0.105090450,-0.227104170
1640844493916879872,-0.103983960,0.311903030,10.574531560,-0.030207640,-0.186650450,-0.232505800
1640844493918109952,-0.028249810,0.320937340,10.525410650,-0.030505660,-0.140976920,-0.236664740
1640844493921909760,-0.096370240,0.343193170,10.482435230,0.045360630,-0.110182170,-0.248269740
1640844493923099904,-0.164992790,0.252684180,10.928968430,0.093002600,-0.137405110,-0.256523430
1640844493926779904,-0.087995980,0.177098410,10.550351140,0.081028050,-0.167910720,-0.247856970
1640844493928059904,-0.194527450,0.037597760,10.582503320,0.019817050,-0.154447530,-0.243836630
1640844493931869952,0.062288470,0.189263110,10.200915340,-0.023883580,-0.088037540,-0.244079520
1640844493933129984,-0.117358580,0.311298940,10.800633430,-0.012005870,-0.122459240,-0.246889920
1640844493936960000,-0.214955990,0.409005670,10.875239370,-0.002579390,-0.120735170,-0.258447230
1640844493938050048,0.137685640,0.300816630,10.016716960,0.041598090,-0.163276490,-0.279186700
1640844493941859840,-0.136926140,0.184782590,10.618941310,0.087663540,-0.150246930,-0.293093920
1640844493943179776,-0.095197600,0.259861140,10.126405720,0.015735630,-0.042700760,-0.283414160
1640844493947010048,0.144898760,0.057322420,10.223945620,-0.046063960,-0.126087670,-0.276826320
1640844493950729728,-0.106375890,-0.172485810,11.164779660,-0.004197660,-0.099906330,-0.279974970
1640844493955419904,0.193073360,-0.189069870,9.864415170,0.069384260,-0.100620090,-0.314094100
1640844493956319744,0.046893030,-0.256841330,10.349071500,0.085690630,-0.159764330,-0.331385490
1640844493957179904,-0.112146390,-0.171347040,10.469921110,0.050604350,-0.036963820,-0.327636390
1640844493958089728,0.155868990,-0.190065560,9.856205940,0.030416250,-0.080785160,-0.331828030
1640844493961870080,-0.095894280,-0.010297080,10.856826780,0.056672100,-0.104130810,-0.309450920
1640844493963079936,-0.197411030,0.246623250,10.412815090,0.061938170,-0.060775870,-0.324957070
1640844493966919936,-0.133424480,0.240862740,10.208836560,0.052759060,-0.122293840,-0.333054420
1640844493968169984,-0.384124700,0.325424370,10.542224880,0.082279730,-0.112830090,-0.325764660
1640844493971859968,-0.323641660,0.083015020,10.260798450,0.100520270,-0.066232680,-0.352709080
1640844493973069824,-0.012839710,0.054194160,10.057106970,0.110772270,-0.051839660,-0.353005620
1640844493976859904,-0.151615600,0.389239520,10.725609780,0.083491210,-0.086070600,-0.344446330
1640844493978099712,-0.041885150,0.348007410,10.515742300,-0.021289290,-0.056944780,-0.344482000
1640844493981939968,0.299286990,0.214904430,9.775827410,0.000034270,-0.104112940,-0.342607530
1640844493984649984,-0.009858580,0.124198610,10.837286950,0.124017900,-0.091819470,-0.357279210
1640844493987919872,0.051339590,0.163470120,10.011090280,0.151200560,-0.022898610,-0.365935240
1640844493988790016,0.145459030,0.075848120,9.865368840,0.066480040,-0.109225530,-0.349341330
1640844493991849984,-0.151467890,-0.046340440,10.771818160,0.006683170,-0.034803150,-0.342518120
1640844493993079808,-0.097067370,0.044819480,9.940227510,0.028508900,-0.025275350,-0.352586780
1640844493996849920,-0.326487570,0.118491820,10.350269320,0.065581510,-0.140616300,-0.363704560
1640844493998029824,-0.354468410,0.086984860,10.080948830,0.096467140,-0.068272650,-0.377461340
1640844494002329856,-0.253075720,-0.125476690,9.793894770,0.116194800,-0.043585900,-0.411708680
1640844494003330048,-0.194585650,0.019372690,10.250321390,0.114023690,-0.042562190,-0.403505590
1640844494006759936,-0.250425490,0.066583580,10.359533310,0.076541300,-0.060349700,-0.386413870
1640844494008029952,-0.014875210,-0.047886610,10.126592640,0.042758890,-0.084121530,-0.396667450
1640844494011819776,0.222661600,-0.073350940,9.720914840,0.101648290,-0.078938900,-0.401273460
1640844494013069824,-0.179911540,-0.130809290,10.322443010,0.172992080,-0.064431140,-0.410521090
1640844494017599744,-0.038260030,-0.075819510,9.915928840,0.165960210,-0.029493870,-0.409297590
1640844494019449856,-0.172489000,-0.038275240,10.272436140,0.134730310,-0.119642910,-0.397437750
1640844494021859840,-0.521989460,0.051278200,10.597864150,0.084604310,-0.094008430,-0.387398870
1640844494023129856,-0.143500030,0.149425190,9.263964650,0.083936760,-0.061045590,-0.409516720
1640844494026979840,-0.436372040,0.220405820,10.554720880,0.148046020,-0.103481140,-0.427277480
1640844494028139776,-0.485452410,0.523147280,10.326799390,0.162354110,-0.028352440,-0.435443220
1640844494031989760,-0.058944210,0.486763660,9.699888230,0.119540110,-0.138084620,-0.432232110
1640844494033129984,-0.220689250,0.331813600,10.385266300,0.107842680,-0.112847990,-0.404427950
1640844494036839936,-0.042528800,0.333477650,9.603096960,0.110209010,-0.039494040,-0.425083990
1640844494038029824,-0.028913760,0.282952790,10.151306150,0.090880700,-0.096856060,-0.425685970
1640844494041819904,-0.277225200,0.237966420,10.369901660,0.092902780,-0.120952740,-0.410099360
1640844494043049728,-0.003851430,-0.131843090,9.630991940,0.106294470,-0.114181660,-0.440554380
1640844494046889984,0.030956920,-0.197557290,9.694870000,0.158081950,-0.075145070,-0.443965290
1640844494048489728,-0.310403970,-0.018979970,10.179549220,0.144720080,-0.066547100,-0.430536330
1640844494052179712,-0.161977250,-0.140740470,10.051613810,0.071804230,-0.083850330,-0.424711410
1640844494053089792,-0.129013110,-0.243615220,9.963346480,0.112484420,-0.155869160,-0.416867520
1640844494056849920,-0.347615840,-0.313442590,9.947342870,0.194112990,-0.105755050,-0.449451890
1640844494058109952,-0.031384770,-0.017878060,9.112367630,0.203527530,-0.067907570,-0.468590950
1640844494061939968,-0.312917890,0.056524540,10.245389940,0.165605570,-0.112725810,-0.450521800
1640844494063180032,-0.225874780,0.133581120,9.928441050,0.115452730,-0.054499510,-0.458815780
1640844494066939904,-0.035326070,0.177308810,9.585951810,0.143636790,-0.170463340,-0.449465300
1640844494068199936,-0.504990340,0.092730820,10.391401290,0.205674800,-0.134705050,-0.460054040
1640844494071869952,-0.240515660,0.287355690,9.201916690,0.193347070,-0.094832490,-0.483417600
1640844494074509824,-0.376285400,0.122258020,10.174699780,0.162407760,-0.167281940,-0.457458200
1640844494076799744,-0.467183050,-0.076813020,10.154924390,0.166943710,-0.065475700,-0.448970560
1640844494078309888,-0.097577900,-0.073366140,9.482293130,0.203314470,-0.175102060,-0.464078870
1640844494082330112,-0.385852490,0.024689480,10.460521700,0.204175760,-0.166605460,-0.458379150
1640844494086350080,-0.168674040,0.199361860,9.406514170,0.154463980,-0.101554420,-0.464208480
1640844494087069952,-0.118163210,0.185039460,9.914231300,0.147241350,-0.185591000,-0.471530880
1640844494088089856,-0.211309390,0.346222670,10.055913930,0.201542710,-0.127774490,-0.476798470
1640844494091840000,0.013856850,0.675685230,9.296782490,0.183513810,-0.154562340,-0.491707090
1640844494093099776,-0.168706920,0.851563570,10.005553250,0.100453220,-0.156328110,-0.474873270
1640844494096999936,-0.318117320,0.705545600,9.987635610,0.069034120,-0.138774540,-0.472126960
1640844494098179840,-0.310061400,0.404849050,9.738395690,0.131247940,-0.206390070,-0.470949770
1640844494101969920,-0.397344590,0.272201750,9.730068210,0.196483780,-0.213670780,-0.471066000
1640844494103149824,-0.325519440,0.025666280,9.553246500,0.145083700,-0.140915860,-0.468176660
1640844494106979840,-0.034888800,-0.122968290,9.456727980,0.077487540,-0.113889600,-0.459939330
1640844494108069888,-0.115983900,-0.225656140,10.280088420,0.092662890,-0.179138820,-0.470250900
1640844494112079872,0.026290630,-0.157305330,9.692173000,0.128324330,-0.165982570,-0.481523660
1640844494113829888,0.217502590,0.050297240,9.143603320,0.154101860,-0.219519470,-0.493131670
1640844494117499904,-0.157387520,0.039956700,9.978168490,0.148239730,-0.152172160,-0.505712690
1640844494118409984,-0.009188270,0.307454110,8.917771340,0.137259070,-0.126440840,-0.494678320
1640844494121829888,-0.402152870,0.326813010,10.125192640,0.120776910,-0.234885540,-0.487464760
1640844494123049984,-0.601468440,0.276891920,9.822999950,0.104330500,-0.158053670,-0.482533960
1640844494127099904,-0.516148330,0.251725880,9.120807650,0.138226150,-0.268171760,-0.496941890
1640844494128079872,-0.920185450,0.043679790,10.190873150,0.156506930,-0.218847440,-0.502953050
1640844494131840000,-0.501174510,0.038969280,8.986096380,0.148487110,-0.147192200,-0.501152870
1640844494133100032,-0.443509370,-0.035087170,10.114647870,0.141578960,-0.247229670,-0.497889610
1640844494136879872,-0.337853010,0.011632410,10.158877370,0.126574930,-0.191219170,-0.488577870
1640844494138069760,0.050266910,0.007732810,9.151160240,0.133088260,-0.283366530,-0.482647180
1640844494141889792,-0.152146130,0.142186060,10.130558010,0.147129600,-0.267185270,-0.495332570
1640844494143460096,-0.113131360,0.280580580,9.499994280,0.145888340,-0.201024140,-0.489705890
1640844494146839808,-0.124294480,0.377246050,9.625947000,0.139538990,-0.299522340,-0.485235510
1640844494148150016,-0.233406450,0.591113570,9.900487900,0.125426050,-0.266519220,-0.488610630
1640844494151909888,-0.057695480,0.734850050,9.195442200,0.088325160,-0.223705170,-0.488934010
1640844494153879808,-0.275711980,0.986237530,9.978582380,0.044772030,-0.255107910,-0.489722190
1640844494156809728,-0.551787200,0.698101460,10.175724030,0.039413570,-0.287047120,-0.490671490
1640844494158069760,-0.373011290,0.290302010,9.244456290,0.096300260,-0.325247730,-0.486165340
1640844494161860096,-0.500809910,0.105319050,9.483227730,0.160622640,-0.320223060,-0.497423170
1640844494163099904,-0.455770970,-0.001904320,9.490994450,0.088946540,-0.231312250,-0.476123540
1640844494166789888,-0.062526990,-0.005315130,9.310704230,-0.016465790,-0.259333850,-0.452075960
1640844494168039936,-0.074865290,-0.192778480,10.317689900,-0.007757550,-0.296776060,-0.462628990
1640844494171840000,0.198620270,-0.152435940,9.483500480,0.097121300,-0.267776850,-0.478124650
1640844494173110016,0.232185100,0.181234970,9.206695560,0.165574250,-0.369986980,-0.499725400
1640844494176819968,-0.063681300,0.169260460,9.618117330,0.082391520,-0.260736140,-0.507016600
1640844494178079744,0.130109100,0.253809010,8.808236120,0.015237930,-0.234381880,-0.481671180
1640844494182009856,-0.448489460,0.231577080,10.444788930,0.052423790,-0.341065320,-0.476351440
1640844494183279872,-0.484059420,0.257336200,9.459700580,0.082847480,-0.289924440,-0.473834600
1640844494188039936,-0.403346120,0.362336400,8.889142040,0.104629990,-0.388836800,-0.474719640
1640844494190340096,-0.785315390,0.123260500,9.883548740,0.073327120,-0.260028270,-0.484687150
1640844494192149760,-0.154815660,0.038874740,8.559093480,0.065216440,-0.240056260,-0.470040800
1640844494193729792,-0.339321430,-0.168512000,10.334422110,0.116032380,-0.361049180,-0.468148380
1640844494196849920,-0.162549180,-0.186409620,9.671958920,0.112964230,-0.263699920,-0.483070400
1640844494198109952,0.080185110,0.027910510,9.038152690,0.092415530,-0.426617350,-0.482933280
1640844494201799936,-0.434612210,0.053182930,10.128837590,0.062787550,-0.349316000,-0.489445120
1640844494203339776,0.052072850,0.148027750,8.506850240,0.073392700,-0.282658640,-0.488470580
1640844494207029760,-0.257432640,0.327021600,10.222347260,0.143866260,-0.370533760,-0.488822220
1640844494208070144,-0.377246050,0.682880280,9.800856590,0.108689080,-0.275862250,-0.473451670
1640844494211799808,0.000648970,0.843497930,8.835680010,0.026755040,-0.424152670,-0.458105000
1640844494213090048,-0.564196050,0.764548180,10.280784610,-0.008611380,-0.355964930,-0.452889500
1640844494216819968,-0.290561620,0.586856600,8.939323430,0.017197430,-0.307610660,-0.473322000
1640844494218080000,-0.375902530,0.287284820,9.825176240,0.111429410,-0.452606470,-0.467687900
1640844494221929984,-0.496686730,-0.024146560,9.743715290,0.109435630,-0.333741310,-0.463515610
1640844494223379968,0.054743100,-0.134134170,8.794919970,0.045579680,-0.354893510,-0.464132460
1640844494227010048,-0.386829560,-0.075237620,10.519056320,0.009727480,-0.387318430,-0.442181590
1640844494230439936,-0.096817160,-0.077653150,9.162659650,-0.016444920,-0.373750930,-0.444111260
1640844494232179968,0.371618030,-0.014480600,8.848364830,0.069403660,-0.462679650,-0.461733400
1640844494233090048,0.090951990,0.375739840,9.479845050,0.125023770,-0.278669660,-0.476756780
1640844494237079808,0.364245620,0.587930380,9.101105690,0.061303390,-0.295966860,-0.477400480
1640844494239229952,-0.225321650,0.608131710,10.482602120,0.010181970,-0.436733750,-0.446453750
1640844494242579968,-0.372274670,0.280899080,9.400723460,0.001727040,-0.423657980,-0.447419350
1640844494243170048,-0.227474820,-0.022728950,8.683549880,0.090323410,-0.442180100,-0.464455870
1640844494246779904,-0.765210930,-0.012329170,9.421296120,0.126659870,-0.324769410,-0.461874930
1640844494248119808,-0.240501730,-0.207890060,9.066674230,0.059053310,-0.297002550,-0.446876970
1640844494251809792,-0.204100000,-0.294016720,10.037629130,0.063814250,-0.388090400,-0.427350460
1640844494253419776,-0.220513690,-0.236009030,9.652584080,0.058332090,-0.404584500,-0.443019030
1640844494256899840,0.171742330,-0.135289030,8.924178120,0.099872050,-0.443975660,-0.449539750
1640844494258099968,-0.347751560,0.133452000,9.551050190,0.133365410,-0.411909880,-0.471441480
1640844494262029824,-0.126566110,0.331729440,9.222541810,0.078758620,-0.380612940,-0.486758410
1640844494263139840,-0.144031360,0.532932460,9.579140660,0.086303070,-0.407847850,-0.457562570
1640844494266909952,-0.397337380,0.614414220,9.964111330,0.069576510,-0.405499340,-0.457623600
1640844494268069888,-0.053849790,0.818965970,9.347828870,0.051681700,-0.419542280,-0.446964860
1640844494273149952,-0.386654560,0.905125500,9.605045320,0.036112970,-0.439037410,-0.417806270
1640844494274649856,-0.148102020,0.579359170,9.188480380,0.012996800,-0.400962000,-0.418426190
1640844494276800000,0.046843250,0.323130220,9.060003280,0.083366040,-0.406479900,-0.419293400
1640844494278099968,-0.252961810,0.156267570,9.692928310,0.069211420,-0.408275510,-0.425621930
1640844494281879808,0.037995800,-0.025437470,9.294808390,0.010362270,-0.411459860,-0.423887460
1640844494283360000,-0.161883250,-0.221230430,9.543635370,-0.002242620,-0.448036190,-0.432139720
1640844494287200000,-0.235695260,-0.236357240,9.575902940,0.030992930,-0.425273270,-0.441809090
1640844494288059904,-0.071967270,-0.046605980,9.069287300,0.085416440,-0.441700310,-0.436663690
1640844494291819776,-0.208881470,0.079346280,9.310237880,0.058108580,-0.421466020,-0.432953300
1640844494293079808,0.139865190,0.300476160,9.073413850,0.026220080,-0.377586510,-0.417044820
1640844494296819968,0.118314120,0.406537060,9.312449460,0.043073300,-0.390896290,-0.405235680
1640844494298080000,0.023790020,0.420304950,9.749601360,0.027197600,-0.416106050,-0.410309520
1640844494301879808,-0.058334860,0.270918880,9.432836530,0.063075130,-0.438922730,-0.410516620
1640844494303239936,-0.191975730,0.003386830,9.174582480,0.085282340,-0.466021980,-0.434435960
1640844494308499712,-0.301985920,-0.034297290,9.138688090,0.093042870,-0.398352800,-0.425905050
1640844494310159872,-0.206983010,-0.087135900,8.997164730,0.059171030,-0.368331430,-0.409485490
1640844494311820032,-0.070514340,-0.144944270,9.715032580,0.024905810,-0.402097490,-0.413823190
1640844494313129984,-0.177275050,0.035931680,9.570845600,0.072544840,-0.403346180,-0.404317770
1640844494317129728,-0.022165730,0.218595610,9.083711620,0.083789240,-0.476557170,-0.432346850
1640844494318089984,-0.235310440,0.371402650,9.528822900,0.077186550,-0.428988100,-0.431308240
1640844494322429952,-0.152501670,0.524879810,9.072532650,0.065951050,-0.395579640,-0.422188670
1640844494323239936,-0.109944990,0.396530270,9.662331580,0.063298660,-0.451620010,-0.409419890
1640844494326799872,-0.085597780,0.416705670,9.362169270,0.074286770,-0.380450580,-0.400553730
1640844494328029952,0.146368060,0.464974160,9.269190790,0.043761740,-0.405800400,-0.396294980
1640844494331840000,-0.137389750,0.250519340,9.959238050,0.029499830,-0.416202930,-0.369042220
1640844494334269952,0.021673690,0.086839450,8.936573030,0.044971700,-0.445550770,-0.381273030
1640844494337319936,0.118408640,-0.184747400,9.042935370,0.092488540,-0.449243280,-0.394351870
1640844494338779904,-0.028625990,-0.146878660,9.049196240,0.123336930,-0.332567160,-0.387552470
1640844494341889792,0.047787160,0.121918390,9.399847980,0.042460860,-0.379251000,-0.390367240
1640844494343459840,-0.192149700,-0.004219970,9.964364050,-0.006055830,-0.420883360,-0.370608360
1640844494346979840,-0.067084880,-0.032633580,9.011996270,0.074419400,-0.442282920,-0.373849330
1640844494350579968,-0.194731760,0.006841770,9.196985240,0.163051530,-0.436115320,-0.407077460
1640844494352320000,-0.257639940,0.107803520,8.887658120,0.146535080,-0.348898860,-0.390388130
1640844494353189888,0.039483060,0.260503920,9.133806230,0.063857440,-0.378979800,-0.382901760
1640844494356819968,0.052057200,0.110312320,9.720738410,0.033871830,-0.350084990,-0.360466570
1640844494358109952,0.286308620,0.203954550,9.170123100,0.082001100,-0.384910400,-0.350859850
1640844494361889792,0.048928080,0.181316120,9.836766240,0.128450990,-0.421431660,-0.371442760
1640844494363119872,-0.000330880,0.005769950,9.168049810,0.132310390,-0.386479530,-0.372663200
1640844494366999808,-0.036078360,-0.032343680,9.164035800,0.139157490,-0.427947940,-0.363141240
1640844494368379904,-0.369996220,-0.190722450,9.540399550,0.124405350,-0.340829850,-0.361459050
1640844494372259840,-0.093321200,0.064384580,9.011021610,0.118351010,-0.387244020,-0.350669030
1640844494373090048,-0.366016210,0.458696990,9.782299040,0.089046370,-0.413614600,-0.345619080
1640844494376770048,-0.062974000,0.608116150,8.938409810,0.036296250,-0.346495240,-0.362139970
1640844494378049792,0.080627960,0.692385140,9.452943800,0.086072110,-0.383342860,-0.364826710
1640844494381969920,-0.154769080,0.631549660,9.914162640,0.146497800,-0.349454610,-0.371311600
1640844494384519936,0.400305030,0.568080600,8.860844610,0.135231020,-0.408507970,-0.346180800
1640844494386909952,0.089843980,0.319552030,9.444909100,0.068019340,-0.367788970,-0.319281280
1640844494388179968,0.239254130,-0.051873540,8.993797300,0.010877850,-0.308327470,-0.323887230
1640844494393629952,0.175161570,-0.376971540,9.463546750,0.095853220,-0.384700330,-0.310412050
1640844494394269952,-0.191498000,-0.488170180,9.561138150,0.150980070,-0.362184640,-0.338462020
1640844494396969984,0.191012050,-0.547364000,8.850433350,0.152947010,-0.367112550,-0.354872670
1640844494399119872,-0.067495830,-0.231394410,9.278072360,0.141584870,-0.316511120,-0.351819400
1640844494401870080,0.067964460,0.200050500,9.172492030,0.062187030,-0.289635450,-0.355912800
1640844494403129856,0.124629470,0.461714210,9.420021060,0.062398620,-0.332138030,-0.320439040
1640844494406749952,-0.123480090,0.594882190,9.535809520,0.115144280,-0.356932040,-0.333866540
1640844494408049920,-0.029998330,0.485617850,9.110870360,0.196783290,-0.372056720,-0.338690070
1640844494411830016,-0.163073390,0.437667070,8.829520230,0.202682660,-0.324747060,-0.333072300
1640844494413129984,-0.179055390,0.153991710,9.459517480,0.111703570,-0.284050430,-0.335687400
1640844494416859904,0.002562240,-0.017629910,9.629891400,0.088457770,-0.273692610,-0.307165090
1640844494418299904,0.047832920,-0.109448470,9.496923450,0.110669460,-0.368368630,-0.316588610
1640844494421799936,0.127151220,-0.160927060,9.462885860,0.144928740,-0.329065410,-0.342430230
1640844494423149824,0.119307780,-0.010742230,8.959632870,0.176350770,-0.286528500,-0.329291820
1640844494426889984,-0.224363940,-0.084778700,10.010319710,0.164300200,-0.366011290,-0.336691770
1640844494428109824,0.000928610,0.018672650,9.056485180,0.173246880,-0.305126610,-0.320921870
1640844494434459904,0.167577150,0.231613010,8.813628200,0.165441660,-0.341242610,-0.329059450
1640844494435340032,0.025250400,0.586178180,9.690005300,0.124599040,-0.228148710,-0.309742990
1640844494436800000,0.262184290,0.797060310,8.888656620,0.088410080,-0.251875850,-0.293017950
1640844494438119936,-0.033523890,0.429580840,10.049920080,0.117841370,-0.379824640,-0.314298300
1640844494441809920,0.041804190,0.187619730,8.890636440,0.221282270,-0.281955360,-0.319893750
1640844494443369984,0.064776660,0.019796610,8.627943040,0.231683280,-0.336083860,-0.346815650
1640844494446859776,-0.275354300,-0.123111800,9.729865070,0.124567740,-0.206962230,-0.318165120
1640844494448129792,0.167461570,-0.194647880,8.781727790,0.061815980,-0.226892580,-0.301016930
1640844494451799808,-0.129934590,-0.512234090,10.254400250,0.155203060,-0.341111450,-0.303679700
1640844494453159936,0.013609100,-0.276939090,8.941223140,0.251169500,-0.252141090,-0.312364160
1640844494456809984,0.153736810,-0.136239110,8.865766530,0.247459160,-0.325556160,-0.328403770
1640844494458119936,-0.238113030,-0.059827830,9.851286890,0.207278180,-0.229196280,-0.315600660
1640844494461939712,0.301136760,0.410535420,8.539984700,0.170034190,-0.240805760,-0.322103440
1640844494463179776,0.000497400,0.600347700,10.020923610,0.153225710,-0.298827890,-0.316980510
1640844494467000064,0.138423730,0.979702530,8.995630260,0.145848100,-0.187851500,-0.305070010
1640844494468580096,0.163572940,0.943888600,9.467137340,0.161111380,-0.317375450,-0.319659770
1640844494471849984,-0.311336700,0.580306530,9.913249020,0.183853480,-0.242221360,-0.312450560
1640844494473110016,0.086600240,0.319675920,8.603403090,0.215244310,-0.277882810,-0.312946770
1640844494477449984,-0.276717010,-0.068511580,9.936640740,0.202828690,-0.268629190,-0.303570930
1640844494479319808,0.051028460,-0.012904860,8.683629990,0.120542940,-0.166782750,-0.285126270
1640844494484269824,0.208246530,-0.028397820,9.373672490,0.075331320,-0.278337240,-0.296154590
1640844494484750080,0.068535340,-0.089467980,9.749386790,0.123545540,-0.172549530,-0.307440820
1640844494486799872,0.353370900,0.113736410,8.981280330,0.227691260,-0.270426360,-0.320309490
1640844494488160000,-0.068532260,0.162187530,9.900009160,0.227128010,-0.267183780,-0.317859680
1640844494491780096,0.251425770,0.171243210,8.372106550,0.152844210,-0.179232670,-0.297267740
1640844494493120000,0.082300050,0.254304170,9.469863890,0.138507780,-0.234243290,-0.299648940
1640844494497089792,-0.027019280,0.305935140,9.386665340,0.125426050,-0.112423310,-0.287400220
1640844494498080000,0.175852310,0.179386440,9.178997990,0.160291760,-0.258339910,-0.288535590
1640844494501809920,-0.231912030,-0.076888000,9.930758480,0.228092100,-0.235329600,-0.311850100
1640844494503199744,0.092577110,-0.200443460,8.357880590,0.248391970,-0.198535620,-0.327438150
1640844494506840064,-0.232827260,-0.195275950,9.608173370,0.223083780,-0.207474800,-0.312791710
1640844494508139776,-0.120238190,-0.126692440,9.334289550,0.141242120,-0.103977330,-0.302919750
1640844494512019968,0.039982450,-0.113094580,9.536065100,0.171601790,-0.262971250,-0.292620060
1640844494513110016,-0.136167350,0.136738230,9.660184860,0.231196020,-0.207859290,-0.307631490
1640844494518210048,0.192506730,0.330217150,8.660223010,0.241184250,-0.182582440,-0.327163880
1640844494518659840,-0.173142750,0.440560040,9.973704340,0.247226670,-0.206662710,-0.305533440
1640844494521799936,0.160868640,0.556416990,9.114411350,0.197763740,-0.156736370,-0.318025080
1640844494523119872,0.404861000,0.515234650,9.217966080,0.190113480,-0.218391430,-0.301979480
1640844494527020032,0.238411040,0.765220170,9.487193110,0.179325060,-0.116136690,-0.291880970
1640844494528159744,0.339029880,0.717772010,9.266240120,0.141271990,-0.145158200,-0.304345880
1640844494531819776,-0.078798690,0.409722510,9.922981260,0.168785500,-0.205014690,-0.277824700
1640844494533139968,-0.051421850,0.035136190,8.977209090,0.200989860,-0.203457470,-0.307041440
1640844494536819968,0.002012560,-0.359378900,8.996958730,0.264276560,-0.194387180,-0.310051470
1640844494538080000,-0.110998750,-0.123621200,9.063570980,0.236062740,-0.069224840,-0.289712850
1640844494541910016,0.054592010,-0.076352450,9.593243600,0.100053870,-0.123612590,-0.296333430
1640844494543259904,0.172662970,0.007125930,9.768754960,0.111511370,-0.143922870,-0.273905720
1640844494548239872,0.431819110,0.109372410,8.953058240,0.220164660,-0.189098730,-0.310000810
1640844494549569792,0.306750800,0.254933950,9.224645610,0.294522940,-0.119672720,-0.329896810
1640844494552439808,0.298833580,0.586019160,8.776239400,0.240921990,-0.067898640,-0.302420560
1640844494553220096,0.135294330,0.308382360,9.722295760,0.161905620,-0.149597270,-0.298950080
1640844494556910080,0.147455960,0.292116250,9.299372670,0.161498790,-0.088648490,-0.277411910
1640844494558199808,0.118534580,0.247153610,9.041275980,0.194363280,-0.159546700,-0.294308330
1640844494561849856,-0.244917320,-0.054407990,9.968497280,0.224123900,-0.077542660,-0.312429700
1640844494563190016,0.005018190,0.045995360,8.801199910,0.252260300,-0.098234420,-0.315517220
1640844494566819840,-0.308862480,-0.163909820,9.845800400,0.238509480,-0.173446550,-0.317731530
1640844494568100096,-0.016576830,0.009794190,8.870963100,0.203008990,-0.033818190,-0.302836330
1640844494571810048,0.078110840,0.407890470,9.210754390,0.175464200,-0.155769330,-0.305244390
1640844494573149952,-0.147306500,0.528257730,10.163575170,0.149872900,-0.069196530,-0.289481880
1640844494576799744,0.394183730,0.694886150,8.667351720,0.183239580,-0.087758910,-0.299353930
1640844494578189824,-0.019866870,0.577897850,10.355694770,0.257840690,-0.159850730,-0.304704900
1640844494582389760,0.187733950,0.593531490,9.086487770,0.243093120,-0.027497110,-0.299748780
1640844494583859968,0.303414050,0.608955140,8.956411360,0.157614080,-0.169333830,-0.289416310
1640844494586959872,-0.105936120,0.334284600,9.893610950,0.086490800,-0.036226210,-0.275164870
1640844494588160000,0.432770280,0.364642410,8.408262250,0.121222450,-0.044733290,-0.288537140
1640844494592069888,-0.146334800,0.112740400,10.399724960,0.204175760,-0.144751380,-0.288084150
1640844494593139968,0.041267870,0.051798540,9.073146820,0.205829780,-0.018574300,-0.293420280
1640844494596799744,0.240769370,-0.117407740,8.968698500,0.189362470,-0.145392130,-0.308267800
1640844494598099968,-0.242945790,-0.159162790,9.983551030,0.164642930,-0.019320850,-0.289288160
1640844494601829888,0.318975180,0.143241670,8.473714830,0.131800760,-0.027219950,-0.295652390
1640844494603149824,-0.074875940,0.117030780,10.227838520,0.137829830,-0.136043160,-0.304131300
1640844494607030016,0.192461610,0.291209730,8.908515930,0.175978270,-0.007963180,-0.313741060
1640844494608109824,0.403148740,0.423277320,8.987560270,0.225253420,-0.105264780,-0.343975450
1640844494611800064,-0.085186180,0.491411180,10.146438600,0.182858110,0.015719230,-0.311820240
1640844494613109760,0.407258180,0.530389730,8.902752880,0.135056690,-0.022821130,-0.300455060
1640844494617289984,-0.015460240,0.218656030,10.354794500,0.146096940,-0.111794480,-0.300650330
1640844494618160128,0.032379630,0.293280840,8.925937650,0.156363860,0.000019370,-0.290559260
1640844494621899776,0.086251610,0.158779650,9.110965730,0.188933330,-0.093807290,-0.302353500
1640844494623139840,-0.452226970,0.020643240,10.153713230,0.178939120,-0.005228820,-0.304165510
1640844494626929920,0.100528690,0.255233710,8.758130070,0.157469530,-0.046265130,-0.301337240
1640844494628209920,-0.030990620,0.170623700,10.021248820,0.141543120,-0.067339830,-0.302264030
1640844494633329920,0.134522970,0.553571340,9.244399070,0.123009080,0.056940320,-0.315289200
1640844494634459904,0.178522420,0.784793970,9.717848780,0.119376200,-0.082370650,-0.321590900
1640844494636780032,-0.132552130,0.579545860,9.983684540,0.090838970,-0.062207870,-0.317577990
1640844494638209792,0.354263600,0.296751350,8.377652170,0.151024770,-0.063669680,-0.316390420
1640844494641829888,0.042646510,-0.006107880,9.724649430,0.229105350,-0.021986660,-0.325719980
1640844494643110144,0.018481390,0.108565330,9.219927790,0.164169090,0.069098170,-0.293359190
1640844494646779904,0.159294400,-0.039555700,9.654298780,0.053152450,-0.081183020,-0.262427330
1640844494650439936,0.022084330,-0.385045770,9.836699490,0.064839430,-0.000676510,-0.274011520
1640844494651810048,0.261499670,-0.260587280,8.733816150,0.208626700,-0.026109820,-0.314742330
1640844494653149952,-0.175982310,0.025564730,9.782862660,0.263507660,-0.034183270,-0.340384240
1640844494656780032,-0.054931790,0.243464250,8.977800370,0.160704580,0.034837440,-0.333850180
1640844494658180096,-0.168396120,0.314254700,9.663610460,0.112484400,-0.081376740,-0.320127610
1640844494661890048,-0.414410890,0.303709210,9.822224620,0.131647300,-0.015240910,-0.318661390
1640844494663120128,-0.030249440,0.414694610,8.869302750,0.195804240,-0.067786880,-0.324724670
1640844494667279872,-0.143972770,0.548709630,9.930548670,0.220862030,-0.019989910,-0.326973230
1640844494668749824,0.328159090,0.613006060,9.010759350,0.143623350,0.067244480,-0.315487380
1640844494671919872,0.525238390,0.529189110,9.683623310,0.118522350,-0.027693810,-0.294260710
1640844494673209856,0.390802560,0.439869520,9.863953590,0.117577610,0.046356030,-0.306971370
1640844494676859904,0.418963130,0.408163990,9.230238910,0.136590050,-0.066247600,-0.323386550
1640844494678169856,-0.336426760,0.337747370,9.978302000,0.141049950,-0.079450020,-0.316079020
1640844494682619904,-0.376717720,0.026794140,8.932468410,0.112544010,-0.017035010,-0.331097840
1640844494683359744,-0.474399480,-0.177882540,9.677483560,0.189134520,-0.045868760,-0.328418700
1640844494686909952,-0.686170880,0.160280200,10.035019870,0.176231560,0.039184100,-0.338022440
1640844494688179968,0.006956700,0.598917310,9.099982260,0.064906460,-0.036470590,-0.327077510
1640844494691809792,0.120108620,0.775766370,9.867447850,0.014346840,-0.020489100,-0.310227270
1640844494693139968,0.603260580,0.810688730,9.131643300,0.055253510,0.055846580,-0.340840220
1640844494697079808,0.748916920,0.709416930,9.624509810,0.180816650,-0.046089300,-0.332698260
1640844494698720000,0.352138460,0.603574040,9.734715460,0.166937720,-0.002914670,-0.340417060
1640844494701929728,0.505390230,0.174324560,8.870701790,0.069002810,-0.034262240,-0.344942450
1640844494703810048,-0.045475450,-0.083806630,9.786169050,0.046913320,-0.011311470,-0.312422160
1640844494706929920,-0.299913610,-0.217335950,9.368231770,0.037729740,0.031760330,-0.335568190
1640844494708169984,-0.246821840,-0.288191380,9.501820560,0.106814510,-0.058983270,-0.338682560
1640844494711889920,-0.446429490,-0.061712410,9.592524530,0.149796900,0.011710820,-0.364938410
1640844494713110016,-0.061385480,0.130574540,9.073810580,0.106804080,0.016613300,-0.378562540
1640844494722240000,-0.161071660,0.356246530,10.016688350,0.092394660,-0.005291400,-0.339506510
1640844494722679808,-0.024767010,0.463997990,9.660604480,0.073961910,0.003100930,-0.363719460
1640844494723039744,0.243200700,0.643908920,9.524655340,0.094717760,-0.072407740,-0.359715580
1640844494723340032,0.026317680,0.898310840,9.506691930,0.089445710,-0.003096460,-0.348027050
1640844494726739968,0.268899590,0.716051520,9.283409120,0.050610300,0.007033350,-0.375789490
1640844494728089856,0.156217520,0.718559030,9.939641950,0.074155650,-0.005675850,-0.351232380
1640844494731849984,0.218131720,0.666622880,9.369977000,0.043112030,-0.007905060,-0.353099440
1640844494733120000,0.475836130,0.404621510,9.211953160,0.013998150,-0.002194940,-0.356380610
1640844494736860160,0.126391460,0.452749670,9.598608970,0.011426210,0.051711510,-0.352160630
1640844494738119936,-0.024455020,0.153382640,9.874655720,0.007513170,-0.007674100,-0.367905200
1640844494741859840,-0.146602880,-0.095413930,9.713994980,0.048552460,-0.048933930,-0.366290000
1640844494744400128,-0.213658690,-0.259957610,9.159879680,0.082075600,-0.032383200,-0.389467210
1640844494746979840,0.013675060,-0.174294550,9.219188690,0.091527400,0.036104020,-0.392942160
1640844494749149952,0.026253310,0.349572600,9.399193760,0.026248400,0.080768780,-0.355048570
1640844494752300032,0.181791130,0.523217560,9.773055080,-0.072731080,0.009882450,-0.359432430
1640844494753989888,0.353479830,0.515839580,9.572739600,-0.001290440,-0.007075070,-0.362122150
1640844494757249792,0.221521590,0.627809050,9.106068610,0.106400260,-0.031524900,-0.392898920
1640844494758060032,0.034035680,0.563452900,9.561568260,0.102478280,0.009495020,-0.397272470
1640844494761769984,-0.115130860,0.425911220,9.646941180,0.035405160,0.029447680,-0.378760730
1640844494763369984,-0.184486570,0.065002070,9.898783680,-0.007383530,-0.042738020,-0.371302660
1640844494766929920,-0.059278870,-0.075615400,9.596478460,0.015889110,0.021873420,-0.368045300
1640844494768079872,-0.134817570,0.090696720,9.358650210,0.042574110,0.009442870,-0.384765890
1640844494771770112,-0.216216500,0.159621270,10.002444270,0.056059650,-0.027997790,-0.398465960
1640844494773120000,0.060638910,0.422639160,9.118784900,0.043441360,-0.006142260,-0.389565530
1640844494776790016,0.201965630,0.494706210,9.322162630,0.013096630,-0.021944940,-0.398234960
1640844494778089984,0.262670010,0.762261450,9.883605960,0.004598500,0.075665120,-0.399254260
1640844494781949952,0.302603480,1.062591790,9.690371510,-0.020779670,0.012461840,-0.383426310
1640844494783239936,0.013226190,0.811560450,10.342469220,-0.052492330,-0.076206040,-0.374521400
1640844494788329728,0.053255920,0.504647020,9.148355480,0.005528330,-0.020942090,-0.380368620
1640844494789110016,0.044852320,0.080306340,9.010464670,0.068476820,-0.043971840,-0.396129580
1640844494793449984,-0.076338370,-0.035204270,9.618988040,0.050018730,0.071430200,-0.382001640
1640844494795179776,0.286334720,0.041670450,9.101500510,-0.067059700,0.075274710,-0.374697180
1640844494796900096,0.214350130,-0.182936000,10.380614280,-0.078316060,-0.009092690,-0.372025430
1640844494800150016,0.314145030,0.027103520,9.535265920,0.005903840,0.024475160,-0.383697450
1640844494802769920,0.252467040,0.118026640,9.235756870,0.052468490,-0.071145600,-0.419965450
1640844494804379904,-0.165682780,0.175359770,9.826455120,0.048111380,0.011530520,-0.415045110
1640844494806789888,-0.009248230,0.355026270,8.816116330,0.012449920,0.040151180,-0.417369630
1640844494808179968,-0.245199560,0.344565090,10.067295070,0.000719730,-0.029315060,-0.404235810
1640844494811849728,-0.147582340,0.598173740,9.530398370,-0.026446590,0.048494350,-0.379842580
1640844494815089920,0.129646970,0.532494600,9.424433710,-0.018648800,-0.044414400,-0.395751000
1640844494816819968,-0.045293520,0.368194280,10.271615980,0.027400260,0.022077560,-0.388072520
1640844494818269952,0.273265660,0.425018100,9.099809650,0.039884450,0.031541290,-0.400246710
1640844494822049792,0.114024850,0.062232300,10.172436710,0.035738960,-0.044937440,-0.406807720
1640844494823219968,0.041277010,0.262578580,9.633323670,-0.000144540,0.033703450,-0.396703210
1640844494826809856,0.210098000,0.309526560,9.117896080,-0.061182680,-0.066360820,-0.408861070
1640844494833380096,-0.128829390,0.147213270,10.041128160,-0.036351390,0.007638340,-0.400547710
1640844494835369728,-0.049188400,0.517983020,9.381814960,0.022014980,0.038082900,-0.417149100
1640844494836799744,-0.290618780,0.427467530,10.356554030,0.041814150,-0.081315640,-0.412938030
1640844494837329920,-0.184195180,0.604766670,9.459403990,-0.010196870,-0.016693770,-0.382500980
1640844494838129920,0.270850060,0.718795720,8.786775590,-0.064563760,-0.026285650,-0.403583140
1640844494841899776,0.118019710,0.543599610,10.021740910,-0.061652060,0.064863260,-0.380781260
1640844494847099904,0.359362720,0.610052590,9.490747450,-0.048281260,0.045864300,-0.384184780
1640844494851009792,0.263257800,0.006575880,10.269325260,-0.002248590,-0.082753610,-0.408598870
1640844494852759808,0.207006860,-0.270457090,9.564149860,0.070039930,-0.019495190,-0.402271750
1640844494854729984,0.168126360,-0.237243490,8.944884300,0.045144560,-0.039739910,-0.409328970
1640844494855959808,-0.196497230,-0.393427250,9.912838940,-0.046497590,0.022219130,-0.398339420
1640844494856959744,0.080064240,-0.033326500,9.187212940,-0.065517430,0.040949880,-0.391048190
1640844494858199808,-0.130332400,0.169143410,10.155621530,0.016884510,-0.068475310,-0.406655670
1640844494861889792,-0.104093800,0.473614220,9.677725790,0.059191880,0.003236530,-0.412900690
1640844494863339776,0.017252010,0.808622780,9.390762330,0.032345960,-0.053451960,-0.422209590
1640844494866959872,-0.357195500,0.640910450,10.466243740,0.011643770,-0.019162900,-0.415112170
1640844494868189696,0.178238670,0.790617230,9.073348050,-0.003406410,-0.014428800,-0.381264090
1640844494875020032,0.090005580,0.675171850,9.888251300,-0.009275970,-0.061197580,-0.386212770
1640844494876219904,0.259252340,0.593921840,9.664116860,-0.027786200,0.063818700,-0.377206500
1640844494876760064,0.465380970,0.640820440,9.484780310,-0.026886170,-0.046257670,-0.383335350
1640844494879119872,0.014924770,0.282733920,10.412076000,-0.026211140,-0.067713860,-0.393806430
1640844494882439936,0.549921150,0.163599820,8.834259030,-0.002045930,0.006070730,-0.394752620
1640844494884329984,0.169943410,0.277303160,10.094681740,0.007769460,-0.034220510,-0.405381560
1640844494886919936,-0.032545590,0.444695290,10.051383970,-0.071020420,0.055836150,-0.384411250
1640844494888199936,0.372266620,0.640888210,9.160135270,-0.129988800,-0.065505500,-0.388675900
1640844494892179968,-0.221227680,0.560584780,10.426437380,-0.072680420,-0.008165840,-0.384394820
1640844494894549760,0.137823880,0.607880120,9.177639010,-0.005930660,0.030015410,-0.382220750
1640844494896910080,-0.031907690,0.437835100,9.871344570,0.012771790,-0.081938510,-0.389340550
1640844494898180096,-0.040006530,0.280345320,9.563962940,-0.047776110,0.045768930,-0.376667140
1640844494901870080,0.566690210,0.325110790,9.000761030,-0.106607390,0.018803780,-0.374208480
1640844494903290112,-0.022926790,0.092924710,10.619611740,-0.110980880,0.017493970,-0.367595310
1640844494907369728,0.397449490,0.013837420,9.504207610,-0.061382360,0.012972950,-0.385114610
1640844494909349888,0.178013610,-0.223756980,9.977432250,0.044439730,-0.090707850,-0.415767730
1640844494912299776,-0.154320630,-0.154301670,9.539446830,0.050251190,0.008843840,-0.410850350
1640844494913590016,0.206959490,0.084605940,9.020998000,-0.033049290,0.010518730,-0.397923590
1640844494916739840,-0.279257150,0.174866600,10.465991020,-0.074139240,0.029453640,-0.383096960
1640844494918180096,0.087839600,0.644708630,9.551918030,-0.064086930,-0.008259720,-0.376975600
1640844494922089728,0.172080100,0.882665340,9.767131810,-0.026783350,-0.069388750,-0.394278790
1640844494923290112,-0.042221580,0.956256690,9.784950260,-0.025779010,0.053986910,-0.401368740
1640844494926929920,0.197191670,0.932716670,9.870418550,-0.020761790,-0.016990300,-0.396300910
1640844494928229888,-0.061993670,0.515426930,10.390747070,-0.023324790,-0.042095780,-0.384940240
1640844494931769856,0.403680830,0.329900800,8.913486480,-0.052802280,-0.002419950,-0.387197730
1640844494933159936,0.369358300,0.272400740,9.856678960,-0.072246800,0.020001830,-0.386495920
1640844494936770048,0.119964320,0.190826730,10.051429750,-0.102891030,0.077061360,-0.377979900
1640844494938289920,0.294270600,0.180156140,9.788331990,-0.072057550,-0.071464480,-0.381998750
1640844494941939712,-0.012401020,-0.054885270,10.062397000,0.000469390,-0.046005840,-0.403465270
1640844494943439872,0.232094730,0.237811640,8.637619970,0.014440720,0.014418360,-0.408874450
1640844494947000064,0.021981640,0.565543000,9.925918580,-0.057706250,0.025115910,-0.381176170
1640844494950330112,0.008026200,0.594345390,9.910808560,-0.165005030,0.115090620,-0.371845070
1640844494953019904,0.259121950,0.690871180,9.869519230,-0.093017510,-0.067436690,-0.378058790
1640844494953799936,-0.104603050,0.525193450,10.303027150,-0.008971990,-0.049431620,-0.395247370
1640844494956879872,0.292976620,0.488349560,8.532064440,0.001311300,0.033046310,-0.412285330
1640844494958579968,-0.061700370,0.355089190,10.200522420,-0.032182040,-0.004544850,-0.395986440
1640844494961870080,0.102535410,0.163217500,9.790514950,-0.099913780,0.092545140,-0.382553070
1640844494963169792,0.535963590,0.211824770,9.353519440,-0.087469820,-0.034229460,-0.375905690
1640844494966739968,0.105706380,0.329778280,10.619766240,-0.080873080,0.045590110,-0.377243820
1640844494968129792,0.374463020,0.388939500,9.370087620,-0.068606440,0.055287780,-0.399284090
1640844494972049920,-0.213332060,0.440972450,10.427482600,-0.009609760,-0.108613080,-0.411856170
1640844494973709824,-0.249673260,0.594133440,9.554544450,-0.051119930,0.019653140,-0.402683050
1640844494976869888,0.171204580,0.768564640,8.797136310,-0.084236250,0.008277600,-0.396920770
1640844494978109952,-0.321716400,0.963854970,10.760163310,-0.130008180,0.063526630,-0.381061460
1640844494981869824,0.355604800,1.202283500,9.484359740,-0.189308790,0.073395650,-0.378987160
1640844494983229952,0.355502610,1.043983220,10.163247110,-0.131432710,-0.064986950,-0.379869400
1640844494986879744,0.127716230,0.783173200,10.235941890,-0.103329140,0.043348970,-0.375874340
1640844494988209920,0.521514770,0.498928790,9.034919740,-0.083866720,-0.002971290,-0.384634670
1640844494992079872,0.002801020,0.039224550,10.111455920,-0.114980340,-0.010699030,-0.377592410
1640844494994850048,0.403272090,-0.006650200,9.124666210,-0.167796020,0.089083620,-0.368349250
1640844494996749824,0.305077970,-0.049187450,9.839255330,-0.149875890,0.032857060,-0.360879300
1640844494998099968,-0.000850920,0.067659320,10.450616840,-0.157788400,0.054754320,-0.367814300
1640844495001839872,0.283691260,0.323487670,9.480450630,-0.117219990,-0.018246470,-0.389538710
1640844495003160064,-0.036893720,0.435073730,9.642519950,-0.068889550,0.004373490,-0.399538840
1640844495007279872,0.082407090,0.715824250,9.404340740,-0.117224460,0.100326540,-0.391130150
1640844495008610048,0.034846480,0.873573480,10.014755250,-0.147640720,0.068569180,-0.361444090
1640844495011839744,0.047836590,0.677683350,10.178765300,-0.157837580,0.020048020,-0.356966260
1640844495013169920,0.303214520,0.602631330,9.615172390,-0.115783530,0.000765920,-0.359097210
1640844495016889856,0.138062160,0.501247820,9.649017330,-0.107234720,0.069352990,-0.366963480
1640844495018189824,0.175088990,0.215766240,9.901995660,-0.124460460,0.066222260,-0.372171400
1640844495021929984,0.061779910,0.220972810,10.085231780,-0.104090590,0.023281580,-0.360107420
