timestamp,accel_x,accel_y,accel_z,gyro_x,gyro_y,gyro_z
1640775741671340032,-0.173810740,0.334605220,9.706839560,0.003188850,0.013871490,0.006245080
1640775741671869952,-0.198264260,0.158891740,9.812487600,-0.064235930,0.061084330,-0.012286010
1640775741676440064,-0.190056950,0.530471030,10.254452710,-0.048358750,0.064395380,0.003142650
1640775741676999680,-0.170549330,0.493306250,10.192862510,-0.050441920,0.028435890,-0.004146990
1640775741681949952,0.187401820,0.560855630,9.975354190,-0.023470820,0.040073700,0.023260710
1640775741682370048,0.013449140,0.686809120,10.217797280,-0.032532220,0.062771140,0.022225080
1640775741687039744,0.022313950,0.436923240,10.071960450,-0.076769300,0.030279160,0.014005600
1640775741687650048,0.038837910,0.304158300,10.011485100,-0.035543730,0.003716350,0.027589500
1640775741692580096,-0.103208220,0.265743110,9.822170260,-0.034037240,0.045445560,-0.011141600
1640775741693199872,0.012213730,0.416789470,10.017523770,-0.058883440,0.060080000,-0.013943020
1640775741696989952,-0.223695610,0.647603090,10.525652890,-0.090661640,0.033494820,0.010943410
1640775741697999872,-0.000838470,0.500137090,9.959236150,-0.118239220,0.032605220,0.012004370
1640775741701439744,0.109973530,0.389977870,10.064458850,-0.027202070,0.052618980,0.016003850
1640775741702129920,-0.220927360,0.499758630,10.267024990,-0.004850330,0.053131580,0.015963610
1640775741706509824,-0.090857070,0.380948510,9.929924010,-0.057807570,-0.009886920,0.034575170
1640775741707320064,-0.102021480,0.127882380,9.990636830,-0.104144230,0.015579160,0.035303830
1640775741711799808,0.043328260,0.213978840,9.804713250,-0.084610280,0.064067550,0.019350650
1640775741713389824,0.167436270,0.261895450,10.129446030,-0.036731360,0.070409480,0.002580880
1640775741716399872,0.133307350,0.406388430,10.395118710,-0.051465630,0.065280500,0.016908340
1640775741718279936,0.122296270,0.339260100,10.153577800,-0.067929930,0.020596390,0.025403500
1640775741721449728,0.062319160,0.059001160,9.896265030,-0.050485140,0.016923250,0.026549400
1640775741722070016,-0.140620350,0.159053370,9.725752830,-0.019432600,0.030262770,0.033976140
1640775741726400000,-0.279728470,0.134196490,9.843442920,-0.029632450,0.052198770,0.015197690
1640775741726909952,-0.185037520,0.210979180,10.083286290,-0.060209640,0.058256100,0.013896820
1640775741732600064,-0.337765960,0.330551980,10.346552850,-0.044189400,0.033381590,0.015431650
1640775741733319936,-0.103281440,0.239673600,9.986742020,-0.018770990,0.017549100,0.027422610
1640775741736450048,0.004741350,0.410789430,10.070507050,0.007128720,0.040408970,0.035700210
1640775741737339904,-0.165545030,0.400072190,10.256750110,-0.031569590,0.060014420,0.025796890
1640775741741910016,0.180078850,0.358121570,9.952482220,-0.049340720,0.012014810,0.042332700
1640775741742949888,0.069103100,0.440729410,10.113605500,-0.029963260,0.033539530,0.026208170
1640775741746769920,0.061875910,0.470980730,9.890483860,-0.023435060,0.047348450,0.012509530
1640775741748509952,0.078978400,0.748176990,10.150744440,-0.029256940,0.002738830,0.035151840
1640775741751389952,-0.154681790,0.653693140,10.138890270,-0.085400040,0.045077500,0.041499740
1640775741751799808,0.116774950,0.433313790,9.827395440,-0.069737430,0.033454600,0.052061680
1640775741756399872,-0.123494040,0.396656070,10.407235150,0.006209310,0.055086620,0.033669170
1640775741756790016,-0.217507410,0.443248690,10.025489810,-0.036227700,0.040926040,0.034421690
1640775741761509888,-0.062639040,0.363304110,9.985591890,-0.076161320,-0.033034390,0.049465900
1640775741762240000,-0.101041440,0.026407200,9.807530400,-0.080399220,0.057430570,0.026620930
1640775741766439936,0.215319170,0.123611260,9.629357340,-0.022229550,0.089976190,0.018578770
1640775741767489792,0.065512070,0.298166690,10.524812700,0.008091330,0.056816640,0.023302440
1640775741771319808,0.144143160,0.256098030,10.043037410,-0.070117400,0.041133160,0.041523570
1640775741771709952,0.223530500,0.170586240,10.060593610,-0.052054230,0.008393820,0.050361450
1640775741776749824,-0.190938560,-0.034093820,10.206783290,-0.007753070,0.024200970,0.039979810
1640775741777420032,-0.065381430,0.140534180,9.461680410,0.012372430,0.029361250,0.022721290
1640775741781329920,-0.197504000,0.277507600,10.171407700,0.000959630,0.059776020,0.011564790
1640775741781659904,-0.239118140,0.395823690,10.372872350,-0.069850680,0.085088600,0.010994080
1640775741786479872,-0.096871960,0.574940980,10.231876370,-0.028358400,-0.003233550,0.019502640
1640775741786889984,-0.178241610,0.523608800,10.192972180,0.004908440,-0.013840200,0.026626890
1640775741791469824,0.100232040,0.660238740,9.469492910,-0.006048380,0.058263540,0.030893090
1640775741792110080,-0.063113830,0.545551960,10.248386380,-0.024975840,0.068785260,0.030259780
1640775741796399872,-0.066228870,0.326004210,10.476621630,-0.049501670,0.042574110,0.034455960
1640775741797099776,0.111872050,0.324312960,9.906593320,-0.014534590,-0.010427830,0.019741060
1640775741801379840,-0.028600060,0.391052930,10.137579920,-0.025011600,0.019828980,0.012299420
1640775741801779968,0.040401750,0.564225320,9.910426140,-0.091202560,0.064648700,0.033803280
1640775741806619904,0.033382940,0.267389740,10.074184420,-0.055393580,0.040303170,0.026915970
1640775741807279872,0.111150800,0.098654310,10.205927850,0.015988950,0.046457360,0.021269920
1640775741811499776,0.075794840,0.304150220,9.924803730,0.031873580,0.057581060,0.023235380
1640775741812089856,-0.059534120,0.342743720,10.178059580,-0.059045850,0.022600590,0.036880370
1640775741816310016,-0.077893270,0.223605410,10.115001680,-0.106582050,0.036317110,0.029169020
1640775741816629760,-0.130589260,0.111851800,9.785559650,-0.022965670,0.029757620,-0.002257530
1640775741821539840,0.016035850,0.428122190,9.891894340,0.038309390,0.046381350,-0.006666780
1640775741822109952,-0.067013610,0.539528010,10.078138350,0.001443920,0.100180520,0.024096670
1640775741826489856,-0.047802720,0.388705610,10.213025090,-0.060844430,0.038288530,0.030912460
1640775741827119872,-0.039584010,0.271524070,10.325663570,-0.040270390,-0.016832350,0.035111610
1640775741831399936,-0.043905940,0.079859500,9.570246700,0.005406140,0.040884320,0.027440490
1640775741832099840,-0.072940920,0.220271110,10.024235730,0.042407210,0.040346380,0.001950560
1640775741836320000,-0.275620460,0.308322100,10.445291520,-0.002807380,0.053526450,-0.007244940
1640775741836740096,-0.052735840,0.430430290,9.790398600,-0.056196750,0.001323220,-0.000955160
1640775741841829888,0.008849250,0.535519600,10.243889810,-0.033442680,0.024700170,0.007936360
1640775741843079936,-0.120876290,0.478343340,10.083765030,-0.013282900,0.074987110,0.017325580
1640775741847759872,-0.048002410,0.709970830,10.109250070,0.025454170,-0.017517810,0.021010640
1640775741848259840,-0.262931670,0.487870160,10.454149250,-0.017073750,0.002504890,0.026199220
1640775741851359744,-0.019444750,0.376357470,9.545919420,-0.042691830,0.021198390,0.029020010
1640775741851709952,-0.053293290,0.474335520,10.266275410,-0.007432700,0.012718140,0.013233720
1640775741856320000,-0.096358600,0.407691030,10.139317510,-0.050322720,0.064016880,0.005577500
1640775741856669952,0.236599150,0.427250000,9.602229120,-0.041535500,-0.007705390,0.020734970
1640775741861430016,0.107468480,0.149536480,10.317718510,0.003777440,0.026616460,0.006435810
1640775741862119936,0.173769060,0.223216580,9.684224130,0.003877280,0.075569760,0.016692280
1640775741866390016,-0.023035370,0.354439910,10.246290210,-0.000493230,-0.027970970,0.027570130
1640775741866769920,-0.172630030,0.087679510,10.289396290,-0.078296670,0.023651120,0.015015900
1640775741871369728,0.015544450,0.139581900,9.501816750,-0.019083920,0.019311900,-0.001861160
1640775741871769856,-0.195439230,0.122202290,10.117948530,0.063125800,0.010645390,-0.021326540
1640775741879040000,-0.106988640,0.366990750,9.907589910,0.015018880,0.088965900,-0.013087690
1640775741880359936,-0.100804610,0.648040950,10.114908220,-0.020433960,-0.012934210,0.021766120
1640775741881329920,-0.142058490,0.267481650,10.391638760,-0.059792400,-0.000353160,0.026655200
1640775741881690112,0.030731040,0.335354830,9.673923490,0.010231140,0.040058800,0.023849310
1640775741886579968,-0.190296800,0.346215250,10.192492490,0.080923740,-0.016351040,0.004102290
1640775741887749888,-0.038461220,0.431416930,10.253529550,0.011843440,0.057342650,-0.011669100
1640775741891480064,-0.037311910,0.632472810,10.004384040,-0.045917940,0.007346270,-0.000277160
1640775741895209984,-0.131901470,0.379850510,10.344495770,-0.050905350,-0.039875510,0.003719330
1640775741898530048,0.129845830,0.408122510,9.634668350,0.016859170,0.038605930,-0.008623300
1640775741899049984,-0.003307420,0.579206820,9.868680950,0.045850870,0.018696490,0.002042950
1640775741901350144,-0.062227780,0.365468980,10.473913190,-0.018012530,0.032763190,0.025050350
1640775741901870080,-0.091697250,0.064271270,10.040621760,-0.009767710,0.010684130,0.027713180
1640775741906299904,-0.135581540,-0.036893930,10.152151110,0.045888130,-0.061392800,0.014513730
1640775741906679808,-0.130559650,0.176842930,9.845755580,0.033389030,0.032658880,0.008003410
1640775741911419904,-0.105847190,0.390540660,9.529538150,-0.027105220,0.026498740,0.004281100
1640775741911990016,0.006713400,0.226480310,10.298818590,-0.019887090,0.020559130,0.001369420
1640775741916359936,-0.086745170,0.183920230,10.198585510,0.076426570,0.040663780,-0.006267430
1640775741916859904,-0.054095550,0.430864600,9.869846340,0.105625410,-0.064902010,-0.007794800
1640775741921339904,-0.162818210,0.437431960,10.092210770,0.014439230,-0.009733440,-0.003090500
1640775741921710080,-0.200414330,0.322938560,9.676233290,-0.044748190,0.042988360,-0.003501770
1640775741928819968,-0.138201760,0.291657540,10.366551400,0.029422340,-0.023576620,-0.015711780
1640775741929760000,-0.187674220,0.248832370,10.361015320,0.098520510,0.035174180,-0.025518230
1640775741936899840,0.037479280,0.585807320,9.727579120,0.095568610,-0.031510000,-0.014613570
1640775741937870080,-0.154512260,0.591855110,10.356348990,0.004242360,-0.030039260,-0.009423490
1640775741938479872,-0.138711510,0.382699580,9.752919200,-0.055266920,0.027643150,0.007154050
1640775741939579904,-0.057083310,0.337319280,9.897526740,0.057567660,-0.064361100,-0.008316340
1640775741941370112,-0.180041610,0.361023900,10.368281360,0.111332540,0.004406270,-0.045144550
1640775741941959936,0.078683250,0.751424370,9.680499080,0.032877930,0.018349290,-0.017899270
1640775741947239936,-0.105578640,0.524588230,10.743866920,-0.042419140,-0.031188130,-0.012250240
1640775741947849984,0.022298270,0.229873970,10.118775370,-0.027965010,0.007663670,-0.014966730
1640775741951859968,0.270668360,0.370811700,9.363250730,0.105689470,-0.048661230,-0.016042590
1640775741952559872,-0.157071680,0.291338680,10.134995460,0.087362540,0.005370380,-0.028166170
1640775741956480000,0.046487480,0.354257050,9.519070630,-0.017170610,0.019922850,-0.001016260
1640775741957159936,-0.120849140,0.071289690,10.349152570,-0.008341670,-0.046463310,-0.026817620
1640775741961439744,-0.220994190,-0.046668960,10.428736690,0.033715360,0.011840460,-0.056439640
1640775741962129920,0.034441050,0.410717490,9.618279460,0.100238620,-0.023332240,-0.040048360
1640775741966830080,-0.218416180,0.494841900,10.303272250,0.039774180,-0.016506010,-0.045745080
1640775741968689920,0.042091430,0.545090560,9.822411540,-0.025053320,0.029663740,-0.013208390
1640775741971340032,0.080955550,0.387526390,9.781289100,0.053395340,-0.038625300,-0.002326070
1640775741971629824,-0.059074940,0.138254170,10.279278760,0.093613570,-0.005291400,-0.016456840
1640775741976640000,0.141778920,0.466676740,9.678006170,0.089475510,0.026762490,-0.019510090
1640775741977389824,-0.246206430,0.384038690,10.540305140,0.006553530,-0.037230550,-0.038380910
1640775741981369856,-0.246615050,0.338267800,10.360190390,-0.025208300,-0.018344820,-0.034222010
1640775741981740032,-0.034006990,0.468482320,9.410823820,0.062291340,-0.038912900,-0.040890280
1640775741986309888,-0.200122130,0.486300200,10.181758880,0.066898760,0.007976590,-0.048412380
1640775741986680064,-0.016150620,0.797090650,9.950298310,0.028927630,0.053355110,-0.014808780
1640775741991569920,0.009278900,0.417871680,10.000748630,-0.002332030,-0.043490530,-0.003907080
1640775741993039872,0.041254860,0.103356850,10.271805760,0.038117170,-0.020861630,-0.010700520
1640775741997309952,0.144577160,0.298518300,9.609152790,0.092776100,0.015293060,-0.018750130
1640775742000369920,-0.089819240,0.181601900,10.233499530,0.036743280,-0.028838220,-0.025635960
1640775742001390080,-0.057156900,0.218488230,10.043709750,-0.000739100,0.006382170,-0.026716290
1640775742001799936,0.061826850,0.181354080,9.475230220,0.026905540,-0.003884730,-0.047603260
1640775742006319872,-0.062378580,0.252984110,10.151241300,0.078392040,0.000232460,-0.041608520
1640775742006729728,-0.158448760,0.431956350,9.974908830,0.080978880,0.021532180,-0.023253260
1640775742011469824,-0.191070110,0.323224720,9.938510890,0.035481160,-0.053682920,-0.022324920
1640775742012110080,-0.282368450,0.163834350,10.228662490,0.049424180,-0.026269260,-0.018531080
1640775742016620032,-0.148986560,0.238645940,9.618538860,0.068148980,0.020307300,-0.028774140
1640775742017089792,-0.228287100,0.387234510,10.291838650,0.080096730,-0.030700860,-0.047808890
1640775742021299712,-0.144623520,0.548377450,10.185906410,0.040146710,0.004220010,-0.033821170
1640775742021829888,0.140853480,0.650820370,9.725997920,0.012050570,-0.032682720,-0.040419400
1640775742026439936,0.017629860,0.460598620,10.364990230,0.036884840,-0.024344030,-0.036448230
1640775742027049984,0.141060460,0.491956440,9.807830810,0.066386170,0.012584030,-0.025326010
1640775742032110080,0.035674200,0.484399740,10.191963200,0.066274410,-0.046959510,-0.032578410
1640775742032679936,-0.078680550,0.264592890,10.463918690,0.018832090,-0.006540120,-0.009992720
1640775742036329984,0.069984760,0.359932720,9.779875760,0.023992360,-0.020699200,-0.009366870
1640775742036720128,-0.193019700,0.299364690,10.287293430,0.034645190,-0.046910340,-0.029842550
1640775742041669888,0.029533900,0.601427910,9.582599640,0.011394920,0.017333030,-0.005425510
1640775742042860032,0.075785340,0.555595700,9.728786470,0.002940000,0.006058810,-0.015480820
1640775742046449920,-0.021236170,0.202128170,10.392336850,0.022405380,0.019288060,-0.020845230
1640775742047059968,0.142775510,0.532238720,9.897236820,0.071001060,-0.007182360,-0.018221140
1640775742051379968,-0.068958330,0.403309460,10.115449910,0.015982990,-0.053940720,-0.024501980
1640775742051739904,0.213791150,0.364948720,9.568670270,-0.050599870,0.009535250,-0.003460050
1640775742056310016,0.168538260,0.264887180,9.811307910,-0.000476840,0.074452160,-0.023324790
1640775742056749824,-0.000848720,0.066464380,10.380705830,0.056701910,0.020571060,-0.029961770
1640775742061400064,0.175995100,0.509522080,9.855179790,0.069578000,-0.032445790,-0.000184770
1640775742061969920,-0.060999840,0.301320490,9.764906880,-0.028434400,0.001299380,-0.013846160
1640775742067960064,-0.096576270,0.044716840,10.089439390,-0.042276080,0.019584600,0.003565850
1640775742068499968,-0.202598090,0.116809230,10.137475970,0.073432920,0.025455660,-0.022371120
1640775742071339776,-0.274743970,0.108109560,10.076372150,0.091308340,-0.017268950,-0.053101770
1640775742071679744,0.001103670,0.705661180,9.843924520,0.029131770,0.008271630,-0.019207600
1640775742076489984,-0.111068390,0.732840180,10.010554310,-0.079146010,0.043857090,-0.032617150
1640775742077420032,0.056610090,0.581691980,10.238255500,-0.046883520,-0.012843310,-0.002272430
1640775742082259968,0.124832590,0.609296020,9.982599260,0.089164060,-0.020599370,-0.011046230
1640775742082830080,0.091533350,0.534444090,9.851424220,0.066865980,0.017257030,-0.039967900
1640775742086319872,0.053440030,0.685653570,10.177181240,-0.021576880,0.022797290,0.014120340
1640775742086629888,-0.172345040,0.350674300,10.273427010,-0.098264230,-0.006894770,-0.002783540
1640775742091660032,0.022772470,0.242205010,9.878824230,-0.048486890,-0.033874810,-0.017407540
1640775742093050112,-0.036688780,0.476607860,9.756895070,0.037068120,0.009295340,-0.011600550
1640775742100080128,-0.060758110,0.399834600,9.860059740,-0.005355480,0.058174130,-0.029413400
1640775742100649728,-0.005424930,0.346164260,10.285271640,-0.022083520,0.011022390,-0.004138050
1640775742101359872,-0.043938580,0.310027960,10.112294200,-0.031305850,-0.020144880,-0.008557740
1640775742101769984,0.104014880,0.334174870,9.676428790,-0.029142200,-0.015141070,-0.011762980
1640775742106329856,0.003511480,0.458240150,9.859975810,-0.028304760,0.024491550,0.002157690
1640775742106659840,0.090449970,0.453650770,9.799630170,-0.054584440,0.042667980,-0.008586050
1640775742111539968,0.163454400,0.285508330,10.056956290,-0.002543630,0.027742990,-0.015695390
1640775742112279808,0.074053560,0.296086820,9.935943600,0.020632150,0.009433920,-0.004522500
1640775742116369920,0.041605920,0.202369360,9.833971980,-0.009737910,0.001245740,-0.006423890
1640775742116829952,-0.136477870,-0.063555500,10.114395140,-0.028796490,0.020517410,0.005571540
1640775742121329920,-0.201189010,-0.075371440,9.936020850,-0.003238020,-0.009313220,-0.008703770
1640775742121680128,-0.106275010,-0.095245550,9.808616640,0.039348010,0.019513070,-0.032146280
1640775742126449920,0.001014330,0.192440470,10.065712930,0.032955410,0.065819930,-0.024095180
1640775742128069888,-0.221038650,0.400887790,10.473254200,0.021505360,0.000028310,-0.017896290
1640775742131619840,-0.092108440,0.403657470,9.890901570,0.006401540,-0.052815690,-0.002007190
1640775742132310016,-0.019488760,0.625415330,9.573098180,0.014734270,-0.023719670,0.015586610
1640775742136320000,-0.179391860,0.563535810,9.943311690,0.021368270,0.041607030,0.006614630
1640775742137059840,-0.054494310,0.563815240,10.228854180,0.020140410,0.010411440,0.004394350
1640775742141379840,-0.204638570,0.559137520,10.438746450,0.023369490,-0.028774140,-0.006994610
1640775742142259712,0.018647040,0.426688220,9.703538890,-0.005567080,-0.039058930,-0.008460880
1640775742146479872,0.087693370,0.538897870,9.844520570,-0.011061130,0.001491610,0.007364160
1640775742147189760,-0.147196830,0.413051010,10.039058690,-0.037732710,0.034312900,0.005470220
1640775742151379712,0.123156070,0.209864690,9.943881990,0.002449750,-0.025859480,0.014829640
1640775742151719936,-0.089490260,0.091229300,10.343478200,0.046992300,-0.039452310,-0.003476440
1640775742156299776,-0.055566050,0.158952590,9.730985640,0.025467580,-0.010025500,-0.005318220
1640775742156659968,-0.091402590,0.383812700,10.017843250,-0.024352970,-0.032715500,0.010719900
1640775742161429760,-0.218058000,0.362247970,9.917833330,-0.085031990,0.006923080,-0.001718100
1640775742162190080,0.232413230,0.389216600,9.447222710,-0.001877550,-0.022894140,-0.001513960
1640775742166419968,0.117802500,0.500654220,10.089789390,0.075297040,0.030779840,-0.003628430
1640775742167130112,0.083080920,0.580628280,9.924181940,0.010761620,0.030288100,0.015360120
1640775742171320064,0.057521750,0.435681910,10.260170940,-0.041329870,-0.066012140,0.035369410
1640775742171689984,-0.212389260,0.026573800,10.010329250,-0.043150780,-0.033535060,0.017000740
1640775742176659712,-0.074827540,-0.019225170,9.271499630,0.039280950,-0.040622060,-0.006391110
1640775742177989888,-0.261406270,0.043848450,9.901722910,0.075341760,0.010669230,-0.021453200
1640775742181360128,-0.163355920,0.186453610,9.950571060,-0.009958440,0.043070320,-0.010426340
1640775742181799936,-0.015893410,0.354333160,10.251846310,-0.019964580,-0.052970650,0.011816620
1640775742186380032,-0.034587600,0.248114470,10.183240890,-0.017929080,-0.025801370,0.018841030
1640775742186729984,0.153028400,0.324830060,9.625943180,0.041395430,-0.019149480,0.026386980
1640775742191409920,-0.098107780,0.326969390,10.208803180,0.088061390,-0.025755170,0.007054210
1640775742191899904,-0.145327910,0.384051080,9.951056480,0.021171570,-0.011536480,0.011619930
1640775742197809920,-0.017782440,0.551736120,9.698484420,-0.009889900,-0.064614400,0.024884940
1640775742198829824,-0.058246520,0.478855520,10.029125210,-0.038658090,-0.013302270,0.009453300
1640775742201419776,0.119137530,0.721622770,9.755622860,-0.014241040,0.032566490,0.030443070
1640775742201880064,-0.005973290,0.604763750,10.315267560,0.021138790,-0.028440360,0.022871790
1640775742206720000,0.049992570,0.269550890,10.135501860,0.019179280,-0.036039950,0.019039210
1640775742207369984,0.105184260,0.272177960,9.476690290,0.048184400,-0.037923460,0.037324430
1640775742211469824,-0.148772240,0.186646550,9.897499080,-0.028514870,-0.026091940,0.023519990
1640775742212039936,-0.010918450,0.182583440,9.675086980,-0.081497430,0.004218520,0.029966240
1640775742216310016,0.037793140,0.027280110,9.812562940,-0.007525090,-0.010326500,0.011850890
1640775742216649984,0.038589730,0.036573940,10.172569270,0.071477890,-0.005716090,-0.007134680
1640775742221339904,0.100047820,0.414780140,9.652922630,0.060904030,0.004926320,0.024081770
1640775742221920000,-0.068198000,0.321680370,10.154292110,-0.025397540,-0.035864110,0.040932000
1640775742226599936,-0.119795310,0.124275700,10.109292980,-0.033429270,-0.023071470,0.054544210
1640775742227360000,-0.008755220,0.105724030,9.372040750,0.057345630,-0.030945240,0.033453110
1640775742231399936,-0.096464170,0.188385990,10.006102560,0.090980510,-0.009965900,0.002187490
1640775742231889920,-0.054371030,0.432914170,9.798714640,0.041520590,0.046077360,0.013387200
1640775742236320000,-0.066692770,0.471273810,10.239834790,-0.021821260,-0.034081940,0.012293460
1640775742237079808,-0.184054780,0.424367930,10.319715500,-0.012965500,-0.060497230,0.016152860
1640775742241609728,0.043326700,0.387544870,9.104714390,0.047130880,-0.037793820,0.041200220
1640775742243180032,-0.071530800,0.416544560,10.026158330,0.078783910,0.002725420,0.009089710
1640775742247059712,-0.237582880,0.426738560,10.331060410,0.022424750,0.046756870,0.026938320
1640775742247510016,-0.075815160,0.361475620,9.975851060,-0.005193050,-0.095683330,0.039379290
1640775742251340032,-0.113391480,0.267773270,10.201759340,0.006993120,-0.064216550,0.020402670
1640775742251689984,0.141746490,0.527992960,9.251250270,0.016891960,0.034645200,0.034095360
1640775742256379904,0.043922030,0.710831460,10.093543050,0.010237100,-0.029276310,0.033381580
1640775742256819968,0.100882350,0.380141140,10.223521230,-0.018981100,0.005935130,0.035728520
1640775742261459712,0.402834740,0.313034390,9.457456590,0.044494870,-0.036993620,0.035826870
1640775742262159872,-0.022290700,0.216333450,10.303079610,0.062151260,-0.041617460,0.015415250
1640775742266459904,0.055626480,0.302765040,9.566333770,-0.032831730,0.015540420,0.030897560
1640775742267149824,-0.001440800,0.285586980,9.726968770,-0.045461960,-0.057736040,0.022691490
1640775742271399936,-0.095857840,-0.019253730,10.057151790,-0.013127930,0.021395090,0.003440680
1640775742271819776,0.167729470,0.313901250,9.390055660,0.077164170,0.040766600,0.014412400
1640775742276689920,-0.209484860,0.253163460,10.451872830,0.062386700,-0.042319300,0.025975710
1640775742278240000,-0.075327480,0.111465900,10.000244140,-0.020673870,-0.012825430,0.050197550
1640775742281440000,-0.077074240,0.044639100,9.513086320,0.011536480,-0.036945940,0.035884980
1640775742281889792,-0.269045380,-0.155225430,10.067267420,0.054144850,-0.023725630,0.007696450
1640775742286670080,0.167738780,0.303103150,9.387236600,0.086699430,0.057922300,0.015439090
1640775742287289856,-0.048528500,0.524917720,10.217552190,0.028109550,-0.001400710,0.005751850
1640775742291290112,0.075466840,0.561229530,10.365098000,-0.039646030,-0.012445450,0.030253830
1640775742291739904,0.232149090,0.577223060,9.495168690,0.037667160,-0.030644240,0.041782860
1640775742297390080,-0.106889050,0.307041700,10.045526500,0.083427150,-0.032389180,0.011895600
1640775742298119936,-0.066592840,0.619205360,9.839727400,0.073295840,0.030779840,0.033189360
1640775742301489920,-0.299780100,0.483760060,9.882216450,-0.010119380,-0.037579250,0.027027730
1640775742301959936,-0.190882560,0.158456560,10.141790390,-0.039704140,-0.042586030,0.031007830
1640775742306350080,0.111226200,0.423395220,9.511974330,0.035285950,0.037741660,0.018237530
1640775742306779904,0.000292850,0.393373700,10.133260730,0.030389430,-0.000779330,0.004971030
1640775742311399936,0.178186030,0.494849590,10.063065530,0.013208390,0.014401970,0.050330160
1640775742311980032,0.201570810,0.278990980,9.680043220,0.001525880,-0.011435150,0.038771340
1640775742316289792,0.068855060,0.151179370,10.083460810,0.027871140,-0.043115020,0.041329860
1640775742316800000,0.128992200,0.341120420,9.524229050,0.042207540,0.011482830,0.057184700
1640775742321379840,0.131640820,0.251083110,9.649564740,-0.013618170,0.016428530,0.020444400
1640775742321799936,0.095972350,0.256134270,10.178534510,-0.001072880,0.042574110,0.030192730
1640775742326629888,0.103839920,0.226968360,9.797499660,0.045354660,0.022739170,0.009381770
1640775742327569920,0.051202810,0.304157350,9.926295280,0.049829490,-0.030373040,0.015333290
1640775742331939840,-0.142835650,0.439841990,9.787956240,0.008110700,0.016792120,0.049285590
1640775742332540160,-0.163578420,0.225334200,9.611618040,-0.021860010,0.000387430,0.028094650
1640775742336730112,-0.191100020,0.065305070,10.041020390,0.038690870,0.002869960,0.030276180
1640775742337570048,-0.027593140,0.254783360,9.626467700,0.077107550,0.055581330,0.019314890
1640775742341379840,0.055110710,0.350715820,10.131531720,0.037372110,0.016920260,0.020052490
1640775742341829888,0.027262450,0.369650130,10.314490320,-0.006823240,0.021182000,0.042036180
1640775742347259904,0.131940340,0.443073780,9.676602360,0.008817020,-0.034013390,0.042329730
1640775742347769856,-0.002318020,0.293242660,9.819045070,0.046111650,-0.041611490,0.038516520
1640775742351359744,0.115377310,0.488393570,9.413087840,0.040666760,0.066390630,0.035284460
1640775742351759872,-0.027065060,0.526259660,10.234218600,0.016185640,0.037370620,0.021085140
1640775742356310016,-0.171638620,0.318487940,10.562128070,-0.003358720,-0.008478760,0.031830370
1640775742356760064,0.084798630,0.544417980,9.480348590,0.017873940,-0.039996210,0.025454170
1640775742361459968,-0.060655560,0.452769550,9.816954610,0.005012750,0.008240340,0.019045180
1640775742362010112,0.029062830,0.562088490,9.522528650,-0.021868950,0.073874000,0.067786870
1640775742367460096,-0.010636340,0.315232810,9.990763660,0.007171930,0.005109610,0.052425270
1640775742368749824,0.009103150,-0.055840760,10.136137960,0.036609180,-0.009949510,0.044178970
1640775742371310080,0.222756800,0.200705840,9.417420390,0.056780870,0.006984170,0.047393140
1640775742371619840,-0.108795100,0.063787910,10.116039280,-0.011034310,0.013239680,0.014357270
1640775742376659968,0.087983820,0.128409830,9.724762920,-0.055296720,0.038495660,0.023151930
1640775742377329920,0.110516240,0.205789040,9.663457870,0.034746530,0.003640350,0.003491340
1640775742381399808,0.009972050,0.195275490,9.781042100,0.069418550,0.030466910,0.000269710
1640775742382210048,0.136355130,0.630301180,9.428724290,0.057600430,0.028902290,0.048828120
1640775742386349824,-0.220454510,0.340730670,10.207975390,-0.004680450,0.007477400,0.034184750
1640775742386679808,-0.082086970,0.135221750,9.848228450,0.001418590,0.011505190,0.046132500
1640775742391340032,-0.141965690,0.261941790,9.618574140,0.084425510,-0.002573430,0.015766920
1640775742391689984,-0.288137140,0.168466600,10.040311810,0.060118750,0.024963920,-0.017943980
1640775742396379904,-0.009864270,0.581913230,9.678964610,0.028517840,0.046180190,0.018553440
1640775742399239936,-0.171072530,0.549369930,10.057677270,-0.016863640,-0.017867980,0.001814960
1640775742401629952,0.077159050,0.371483770,9.860820770,-0.012041630,0.010287760,0.017254060
1640775742402809856,0.125977200,0.488921170,9.530200000,0.085365760,0.015237930,0.016501550
1640775742406279936,-0.105371210,0.306133330,10.214365010,0.061650580,0.022867320,-0.010830160
1640775742406639872,0.108504610,0.613184330,9.857205390,-0.002570450,0.041410320,0.024336570
1640775742411429888,-0.021293290,0.506575760,9.835107800,-0.046736010,-0.023755430,0.012151900
1640775742412150016,0.072300610,0.319927480,9.880228040,-0.027677420,0.014875830,0.012476740
1640775742416450048,0.102475780,0.639992420,9.279590610,0.045302510,0.049591080,0.009684260
1640775742416869888,-0.056687970,0.257027000,9.939156530,0.021801890,-0.000949200,0.003518160
1640775742421309952,0.038553900,0.114873840,9.907676700,0.032000250,0.041569770,0.021182000
1640775742421759744,-0.062723230,0.141810120,9.624921800,0.026942790,-0.017771130,0.000800190
1640775742426659840,-0.137951850,0.078321140,10.015741350,-0.028306250,0.006306170,0.000353160
1640775742427500032,-0.041666490,0.276595090,9.569403650,-0.019684430,0.048382580,-0.002443790
1640775742431680000,-0.074738260,0.100676630,9.899726870,0.032277400,0.003196300,-0.041079520
1640775742432430080,0.033178190,0.362798840,9.872076990,0.098125640,0.049993400,-0.017251070
1640775742436419840,0.042610850,0.608911990,9.480692860,0.038351110,0.004087390,0.000661610
1640775742436819968,0.024210960,0.426583650,10.053761480,-0.040782990,0.003606080,0.017480550
1640775742441540096,0.011142930,0.512550290,9.893576620,-0.011138620,0.048527110,0.022530550
1640775742448889856,-0.062960760,0.363064800,9.748317720,0.038947170,-0.009390710,-0.003023450
1640775742449359872,-0.053135140,0.367706420,10.116638180,0.071008500,0.034588580,-0.018395480
1640775742449769984,-0.146937340,0.633358240,9.722899440,0.036478050,0.039266050,-0.014558430
1640775742451350016,-0.194864080,0.565042440,9.875099180,-0.057283050,-0.051234660,-0.004120170
1640775742451750144,-0.030053250,0.519356670,9.510103230,-0.067062680,0.019207600,0.006951390
1640775742456319744,0.113493110,0.357748510,9.288544650,0.010803340,0.038634240,-0.003334880
1640775742456709888,0.074226580,0.280644540,10.318205830,0.068859760,0.057213010,-0.010578330
1640775742461479936,-0.001695010,0.281064300,10.151091580,0.021786980,0.034186250,0.001513960
1640775742467959808,0.027195410,-0.032740970,9.831981660,-0.019901990,-0.085011120,-0.004500150
1640775742468459776,0.013060890,-0.084271250,9.533273700,-0.001360480,0.012300910,-0.012452900
1640775742468979712,0.073217890,0.395372840,9.018156050,-0.013045970,0.073310740,-0.028808420
1640775742471360000,-0.075660950,0.440553490,10.160226820,-0.019420680,0.040157140,-0.019861760
1640775742471779840,0.017559570,0.358718990,10.054950710,0.022755570,0.046271090,-0.012317300
1640775742476509696,0.078852080,0.459298070,9.768918040,0.079458960,-0.039093200,-0.025990610
1640775742477900032,-0.188242230,0.355204460,10.083688740,0.040745740,0.008979440,0.001157820
1640775742481499904,-0.054431750,0.498133060,9.332914350,-0.037840010,0.034494700,-0.000494720
1640775742483480064,-0.181114380,0.254869490,10.008043290,-0.038038190,0.014691050,-0.030635300
1640775742486330112,-0.101703050,0.283867360,9.847326280,0.020635130,0.052683070,-0.028106570
1640775742486660096,0.057638430,0.531050560,9.600377080,0.076568130,0.002987680,-0.048775980
1640775742491729920,-0.127784610,0.510256950,10.189949040,0.008282070,0.008603930,-0.027707220
1640775742493039872,0.110752800,0.879520360,9.447836880,-0.082610550,0.030975050,0.013484060
1640775742496519936,0.014839110,0.361725780,10.011754990,-0.077500940,0.010578340,0.006638470
1640775742497189888,0.052178490,0.166268570,10.045902250,0.034734610,0.052276260,0.005283950
1640775742501369856,0.130974550,0.491333100,9.675316810,0.104950380,0.006395580,-0.020252170
1640775742501920000,-0.069215030,0.292275880,9.972824100,-0.027745960,0.005397200,-0.006346410
1640775742506309888,0.133474260,0.476032500,9.358669280,-0.120592120,0.033381580,0.011467930
1640775742506680064,0.020968350,0.124115520,9.719414710,-0.055457650,0.035294890,-0.023128090
1640775742511940096,0.085357370,0.249651120,9.764155390,0.039242210,0.068151950,-0.022022430
1640775742513049856,0.034741400,0.699957010,9.754453660,0.049863760,0.023142990,-0.019347670
1640775742516320000,-0.055933050,0.213692080,10.091146470,-0.055055320,0.026814640,-0.016841290
1640775742516769792,-0.028315150,0.300114930,9.757808690,-0.038863710,0.026711820,-0.001351540
1640775742521319936,-0.296835960,0.210706400,9.667932510,-0.003165010,-0.014643370,-0.036105510
1640775742521669888,-0.103948660,0.187133090,9.488478660,-0.005124510,0.043995670,-0.020332640
1640775742527360000,-0.195213060,0.536594390,9.784219740,0.008216500,0.067554410,-0.013722480
1640775742529999872,-0.200737880,0.251538690,10.119746210,-0.043420490,-0.000692900,-0.029896200
1640775742532199936,0.129853840,0.461392760,9.661343570,-0.020644070,0.010582800,0.008989870
1640775742532879872,-0.044668670,0.424694930,9.767964360,-0.010652840,0.026252870,-0.020219380
1640775742536399872,0.028102080,0.270014050,10.093769070,-0.033651300,0.052994500,-0.025513770
1640775742536739840,-0.024670250,0.679665450,9.855124470,-0.002641980,0.017882890,-0.014244020
1640775742541479936,-0.153645740,0.379639800,9.849245070,-0.048017510,-0.036939980,-0.025585300
1640775742543049728,0.111576880,0.630484640,9.388452530,-0.039441890,0.032785540,-0.001527370
1640775742547119872,-0.181757970,0.812815310,9.698514940,-0.074408950,0.047948960,-0.020155310
1640775742548829952,-0.103307600,0.503969490,10.181530000,-0.095820430,0.022077560,0.005391240
1640775742551349760,-0.000905010,0.449283900,9.791580200,-0.013798480,0.017541650,0.001090760
1640775742551679744,-0.138893860,0.249242200,9.859949110,-0.014142690,-0.025236610,-0.027614840
1640775742556389888,0.109841630,0.398462360,9.686403270,-0.053492190,0.038015850,0.016815960
1640775742556910080,-0.029390930,0.305076480,9.616912840,-0.122405590,0.044320530,0.006155670
1640775742561420032,0.155602680,-0.038106550,9.984917640,-0.098696350,0.012232360,-0.001820920
1640775742562019840,0.341751370,0.114873120,9.620422360,0.027956070,0.065030170,-0.004920360
1640775742566399744,0.072467680,0.304794040,9.649952890,0.016328690,0.015397370,-0.028339030
1640775742567139840,0.038144360,0.437640010,9.817966460,-0.072360040,0.006534160,0.013428930
1640775742571339776,-0.103482150,0.399330110,9.441699030,-0.126861050,0.026224550,-0.003398960
1640775742571729920,-0.181976630,0.230950490,9.742884640,-0.072987380,0.003051760,-0.022028390
1640775742576730112,-0.177687060,0.452205780,9.774138450,0.036074220,0.051452230,-0.031715640
1640775742577779968,-0.189108220,0.569046620,9.660144810,-0.013905770,0.036922110,-0.043970360
1640775742581559808,-0.149517060,0.487337590,10.171895030,-0.084957480,0.011950730,-0.013737380
1640775742581979904,-0.123249580,0.333942410,9.673209190,-0.104703010,0.010839100,0.000922380
1640775742586319872,-0.006797750,0.100306620,9.448776250,-0.037924950,-0.026264790,-0.013311210
1640775742586799872,-0.031787670,0.127906750,9.827080730,0.018067660,0.042684380,-0.021490460
1640775742591369984,0.039760400,0.368474990,9.687969210,-0.033874810,0.066904730,-0.028759240
1640775742591849984,-0.033327470,0.327274560,10.346748350,-0.094029310,-0.012515490,-0.027109690
1640775742596519936,0.105083200,0.415592040,9.821807860,-0.088441380,0.012511020,-0.025327510
1640775742597319936,0.069568830,0.544906140,9.527872090,-0.034497680,-0.007013980,-0.031992800
1640775742601399808,-0.133729670,0.684835200,9.883521080,-0.032937530,0.014014540,-0.020937620
1640775742601769984,0.006244190,0.876128490,9.347774510,-0.090298060,0.034284600,0.000056620
1640775742606579968,-0.170025650,0.541457180,10.018650050,-0.106936680,-0.001493100,-0.016883020
1640775742607269888,-0.074508270,0.524084090,9.977739330,-0.080721080,0.028467180,-0.014899670
1640775742611449856,0.064392450,0.538774190,9.611618040,-0.065296890,0.007496770,-0.019955630
1640775742612449792,0.007285330,0.284212620,9.978103640,-0.099416090,0.024016200,-0.010144710
1640775742616389888,0.341715960,0.259898360,9.322298050,-0.100255010,0.056724250,0.002022090
1640775742616829952,0.198981870,-0.027191830,9.725237850,-0.075101850,0.034980480,-0.027655070
1640775742621399808,0.092407130,0.084848420,9.868320470,-0.056125230,0.013816360,-0.013092160
1640775742622079744,-0.004608600,0.038904730,9.529514310,-0.067253420,-0.013835730,-0.029729310
1640775742626479872,-0.110181000,-0.125096530,9.793178560,-0.080971440,0.024028130,-0.045944760
1640775742627219968,-0.125238030,0.275934760,9.822316170,-0.052881240,0.059731300,-0.037716320
1640775742631369728,-0.169010220,0.283432540,9.855979920,-0.063398480,0.049045690,-0.054165720
1640775742633090048,0.003359800,0.482114460,9.872643470,-0.052563860,0.024718050,-0.024521350
1640775742636329984,-0.093792420,0.589699860,9.775641440,-0.048805780,0.014768540,-0.016970930
1640775742636750080,-0.011046670,0.222899530,9.447757720,-0.050127510,0.002740320,-0.004951660
1640775742641440000,0.081510860,0.359946490,9.665426250,-0.003701450,0.029034910,-0.000257790
1640775742642959872,-0.045976590,0.294010820,9.907147410,-0.055690120,0.074750210,-0.040274860
1640775742646479872,0.097319600,0.361575040,10.144014360,-0.088073310,0.026772920,-0.023449960
1640775742646960128,-0.142540380,0.533579050,10.234756470,-0.073409080,-0.011369590,-0.036191940
1640775742651350016,0.022994520,0.424661760,9.261238100,-0.072062020,-0.005985800,-0.035925210
1640775742651719936,0.101490450,0.675104500,9.387206080,-0.031749910,0.043886900,-0.017420950
1640775742656359936,-0.183961470,0.536932170,9.860968590,-0.077877920,0.085783000,-0.021347400
1640775742656809728,0.158715430,0.244374010,9.837840080,-0.085014110,0.014552470,0.000773370
1640775742661589760,0.031256980,0.280883010,10.117486000,-0.045214600,0.017429880,-0.016808510
1640775742662400000,0.031234200,0.249223660,9.602572440,-0.092218820,0.046454370,-0.015909970
1640775742666359808,0.105508000,0.316980120,9.702925680,-0.098223980,0.014288720,-0.004093350
1640775742666729984,-0.008735180,0.186817930,9.696009640,-0.096400090,0.065115090,-0.034385920
1640775742671419904,0.225343760,0.188950790,9.431362150,-0.030197200,0.048020490,-0.033113360
1640775742671879936,-0.025929060,0.412114620,9.892051700,-0.018432740,0.034879150,-0.014223160
1640775742676430080,0.007381930,0.352300760,9.703443530,-0.118379310,0.055013610,-0.017641490
1640775742677149952,-0.032353390,0.150105060,10.036462780,-0.098942230,0.026080010,-0.003325940
1640775742681360128,-0.284706210,0.023633550,9.917104720,-0.028091670,0.027269130,-0.034368040
1640775742681799936,-0.044718840,0.239283930,9.414443020,0.007358190,0.040483480,-0.047037010
1640775742686550016,-0.164132430,0.498109640,9.857982640,-0.049041220,0.062108040,-0.033713870
1640775742687559936,-0.010373960,0.633869110,9.719716070,-0.146758570,0.059035430,-0.025479500
1640775742691619840,0.091219200,0.594507520,9.874020580,-0.105614980,0.015330320,-0.005872550
1640775742692489984,0.021713960,0.412683670,9.891858100,-0.034050650,0.040267410,-0.011166930
1640775742696349952,0.179137050,0.416234370,9.716822620,0.009648500,0.052919990,-0.029300150
1640775742696760064,-0.031554530,0.420077650,10.197692870,-0.048248470,0.042085360,-0.022459030
1640775742701449984,-0.073816230,0.364306330,9.815448760,-0.149703040,0.023122130,-0.007288160
1640775742702459904,0.042733390,0.243734700,9.615046500,-0.114917780,0.015017390,-0.019109250
1640775742706329856,0.020087620,0.402090100,9.619776730,-0.070574880,0.082689530,-0.030888620
1640775742706789888,0.060096950,0.602221910,9.578344350,-0.057843330,0.081104040,-0.018081070
1640775742711830016,0.080432730,0.337835610,10.049102780,-0.074779990,0.056971620,-0.017586350
1640775742712339968,0.039481790,0.271564190,9.908151630,-0.078755620,0.052145130,-0.011825560
1640775742716339712,0.008401510,0.250556380,9.619394300,-0.071039800,0.020618730,-0.002574920
1640775742716770048,-0.033563970,0.192981470,9.664050100,-0.107054430,0.066179040,-0.010436770
1640775742721319936,-0.024510860,0.191857220,9.643067360,-0.102467840,0.092247130,-0.026398900
1640775742721669888,0.105096420,0.155819940,9.721965790,-0.049692400,0.064982480,-0.042240320
1640775742726400000,0.078280580,0.303557250,9.860632900,-0.039410590,0.084905310,-0.043466690
1640775742727059968,-0.018469810,0.380578370,9.791505810,-0.079248850,0.055520250,-0.010670720
1640775742731429888,0.025209940,0.226662010,9.915062900,-0.098957120,0.028005240,-0.010557470
1640775742731989760,-0.208040070,0.174078000,9.755359650,-0.060775880,0.065152350,-0.010162590
1640775742736399872,-0.070621390,0.223846990,9.432646750,-0.032101580,0.049304960,-0.023776290
1640775742736819968,-0.106172960,0.364497300,10.051304820,-0.053687400,0.093774500,-0.049160430
1640775742741679872,-0.220257460,0.489909020,9.954495430,-0.102195170,0.083325820,-0.034850840
1640775742742240000,-0.026921610,0.591771600,9.966581340,-0.095184150,-0.011302530,-0.027917330
1640775742746320128,-0.072235150,0.491667120,9.616220470,-0.066697600,0.061890490,-0.031094250
1640775742746729728,0.068254160,0.601960600,9.285305020,-0.050406160,0.069117550,-0.018492340
1640775742751489792,-0.044309530,0.508329330,10.352871890,-0.076948110,0.079159440,-0.019533930
1640775742751909888,-0.072173190,0.193184580,9.969779010,-0.097498280,0.079354640,-0.010092560
1640775742756329984,0.074127730,0.176376180,9.916095730,-0.049653640,-0.028814380,-0.017142290
1640775742756800000,-0.140254620,0.135613100,9.767537120,-0.053471320,0.055171550,-0.031344590
1640775742762949888,0.139379100,0.419171510,8.914791110,-0.127749160,0.075981020,-0.016789140
1640775742763419904,0.039651370,0.195074480,10.124187470,-0.116388510,0.084571550,-0.017954410
1640775742766559744,0.059052360,-0.094791490,9.943299290,-0.047543640,0.108876830,-0.035822390
1640775742767840000,0.189756320,0.333296570,9.627220150,0.045211610,-0.003193320,-0.029131770
1640775742771339776,-0.236391840,0.186251000,10.055526730,-0.059466060,0.054299830,-0.024907290
1640775742771770112,-0.022063790,0.258897390,9.136815070,-0.146165510,0.068834430,-0.008235870
1640775742776419840,-0.193474520,0.103191800,10.060659410,-0.069193550,0.051519270,-0.028495490
1640775742777009920,-0.235470100,0.110709770,9.938073160,0.004874170,0.098910930,-0.043754280
1640775742781499904,0.120477150,0.530064050,9.400638580,0.032705070,0.035692750,-0.020504000
1640775742782409984,-0.093489050,0.360850190,10.354042050,-0.073100630,0.077192490,-0.023914880
1640775742786399744,0.120121390,0.402113050,9.682233810,-0.113834450,0.083246830,0.006462640
1640775742786819840,0.009176290,0.214816300,9.669486050,-0.027826430,0.003777440,-0.012795630
1640775742791659776,-0.078112430,0.129768640,9.941691400,0.006431340,0.082492840,-0.038753450
1640775742792239872,0.073591370,0.668245850,9.402635570,0.002662840,0.074148180,-0.017824770
1640775742796329984,-0.204429610,0.485132400,10.220924380,-0.111992660,0.036028030,-0.025267900
1640775742800039936,0.094057660,0.460983810,9.778790470,-0.120154030,0.089570880,-0.001905860
1640775742801389824,0.106374140,0.500906110,9.573639870,-0.024113060,0.048567350,-0.020749870
1640775742801740032,-0.077168710,0.316135760,10.218488690,-0.019294030,0.077363860,-0.016456840
1640775742806309888,0.055107230,0.518979610,9.458126070,-0.044761600,0.067442660,0.004608930
1640775742806739712,-0.073752520,0.057740650,9.732162480,-0.084105120,0.002521280,-0.013324620
1640775742811729920,0.029315160,0.071088870,9.726226810,-0.059868400,0.096046920,0.002913180
1640775742812219904,0.059788360,0.269454150,9.457357410,-0.052070620,0.089029980,-0.017857550
1640775742816409856,0.050113370,0.025168740,10.229702000,-0.069655480,0.072279580,-0.022445620
1640775742816890112,0.096939920,0.174824820,9.814147000,-0.006841120,0.099447390,0.002473590
1640775742821309952,-0.030194190,0.164656460,9.617885590,-0.007417800,-0.001223390,-0.024312730
1640775742821649920,-0.113396790,0.175031720,9.742448810,-0.040759150,0.049881640,0.000120700
1640775742826419712,-0.222693200,0.220803350,9.451370240,-0.059175500,0.084497030,-0.008158390
1640775742828099840,-0.226150830,0.068423390,9.985353470,-0.015547870,0.033690040,-0.024744870
1640775742831529728,-0.166422260,0.336897610,9.945399280,0.025694070,0.077840680,-0.016419590
1640775742832140032,-0.141243130,0.429256170,9.630245210,-0.016634170,0.033897160,-0.009687250
1640775742836329984,-0.047810670,0.332835200,10.045414920,-0.033667680,0.036223230,0.016608830
1640775742836619776,-0.084450930,0.294316170,9.845900540,-0.027926260,0.072130550,0.011006000
1640775742841389824,-0.079065830,0.105750370,9.827213290,0.010912120,-0.007270280,-0.000263750
1640775742841929984,-0.059169190,0.203089130,9.959946630,0.042083850,0.031498070,-0.004224480
1640775742846409984,-0.111918780,0.491395650,9.666590690,-0.023418660,0.064241890,-0.011590120
1640775742846899968,-0.157192480,0.528020500,10.077156070,-0.084914270,-0.004333260,0.000728670
1640775742851349760,-0.020724740,0.409510640,9.841801640,-0.049571700,0.030344720,0.012943150
1640775742851739904,0.098564310,0.358408510,9.580220220,0.041706860,0.035157800,-0.009194020
1640775742856590080,-0.034463040,0.476002960,9.964791300,0.054755810,0.032442810,0.013330580
1640775742857559808,-0.032145420,0.552023410,9.785081860,-0.063890230,0.040389600,0.028717520
1640775742861749760,-0.089199830,0.156984490,9.802305220,-0.100743780,-0.016365950,0.022055210
1640775742862459904,-0.027495080,0.083529460,9.713913920,-0.013329090,0.011926890,0.019508600
1640775742866380032,0.009967130,0.277909900,9.503616330,0.033743680,0.051906700,-0.007618960
1640775742866829824,0.021271580,0.274977590,9.842637060,-0.009521840,0.051471590,0.011006000
1640775742871330048,0.090650160,0.195012810,10.110022540,-0.045320380,0.038389860,0.028796490
1640775742871680000,-0.046073280,-0.045320960,9.854559900,-0.007215140,0.002804400,0.011761490
1640775742876389888,-0.024841680,0.052116860,9.542186740,0.046086310,-0.029391050,0.028960410
1640775742877139712,-0.132191180,0.145429330,9.491248130,0.020383300,0.047685210,-0.002767150
1640775742881379840,-0.021009080,0.211926310,9.516124730,-0.025205320,0.061403230,-0.007382040
1640775742882400000,-0.073443600,0.340361950,10.359456060,-0.006814300,0.024436410,-0.004294520
1640775742886299904,-0.068835670,0.282961790,9.841607090,0.029139220,0.028343500,-0.005997720
1640775742886620160,0.049712200,0.427920760,9.615490910,0.053429600,-0.031177700,0.014406440
1640775742891429888,-0.336135890,0.361764550,10.089903830,0.019873680,0.021827220,0.020647050
1640775742891959808,-0.258485170,0.141504760,9.346646310,-0.008183720,0.005117060,0.024384260
1640775742898659840,-0.206309140,0.183197140,9.839127540,0.042538340,-0.045394890,0.009614230
1640775742899239936,-0.170107220,0.219833480,9.833468440,0.032009190,0.082881730,-0.015304980
1640775742901329920,0.086045760,0.569859330,9.919953350,0.010450190,0.011914970,-0.001429020
1640775742901769984,-0.171063770,0.465605140,10.598834040,-0.009095670,-0.033631920,0.014106930
1640775742906689792,0.223510470,0.451787140,9.193512920,-0.008842350,-0.012601910,0.017106530
1640775742907939840,0.071084570,0.510499180,9.656098370,0.054836280,-0.027674440,0.018364190
1640775742913049856,-0.188440080,0.409144100,10.004326820,0.003533070,0.063323970,0.027488170
1640775742913609984,0.003708500,0.403341710,9.721689220,-0.010655820,-0.026628380,0.027206540
1640775742916290048,-0.253272920,0.193265930,10.305389400,0.007136170,-0.047253080,0.007499750
1640775742916630016,0.036818020,0.373960080,9.316835400,-0.005555150,0.049886110,0.012631720
1640775742921299968,-0.036987030,0.562200130,9.801836010,-0.004056100,-0.012528900,0.013132390
1640775742921679872,-0.042497180,0.233330610,10.040925980,-0.034247340,0.024753810,0.034752480
1640775742926539776,0.215740170,0.244964610,9.470592500,0.042574110,0.011092420,0.031778220
1640775742927569920,-0.176585030,0.110092740,10.127631190,0.062924630,-0.057579580,0.029635430
1640775742931469824,-0.006435630,0.048794740,9.498871800,-0.014740230,0.013226270,0.047487020
1640775742931939840,-0.091418940,0.031473020,9.712624550,-0.010356310,0.004595520,0.012674930
1640775742936329728,-0.260122720,-0.057564040,10.165167810,0.004853310,-0.010168550,-0.012245770
1640775742936689920,0.096563440,0.461761920,9.286095620,0.060310970,0.003038350,0.002542140
1640775742941519872,-0.048891860,0.532601650,9.860378270,0.018294160,-0.002290310,0.003737210
1640775742942359808,-0.038062810,0.508488480,10.075182910,-0.020942090,0.017142300,0.044803320
1640775742946729984,-0.077177410,0.427979590,9.685763360,0.043532250,-0.035955010,0.037427240
1640775742947449856,-0.251321050,0.000245340,10.009023670,0.057591510,-0.062011190,0.022575260
1640775742951340032,-0.072263520,0.335316720,9.511074070,0.071987520,0.017225740,0.020757320
1640775742951689984,-0.244981800,0.365187230,10.005829810,-0.009715560,-0.002583860,0.000219050
1640775742956899840,-0.182419490,0.328003260,10.281779290,-0.044272830,-0.027816000,0.022715330
1640775742957559808,0.045824410,0.472943480,9.462155340,0.035014750,-0.046043100,0.011748080
1640775742961589760,-0.007000940,0.306995240,9.781423570,0.059038400,-0.027954580,0.013627110
1640775742962390016,0.022645100,0.572843550,9.776459690,0.056026870,0.022527570,0.056639310
1640775742966349824,-0.079751140,0.272588370,9.937906270,-0.012080370,-0.045163930,0.032565000
1640775742966709760,-0.023798110,0.101417740,10.039064410,0.001819430,-0.055007640,0.040435780
1640775742971309824,0.023743480,0.326948880,9.484146120,0.052595140,-0.014178460,0.029908120
1640775742971760128,-0.084035120,0.240361870,9.873660090,0.003103910,-0.012972950,0.005181130
1640775742976489984,-0.036102820,0.339658650,9.809556960,0.010609630,-0.005891920,0.040097530
1640775742977030144,0.012359590,0.198128770,9.624773030,0.033581260,-0.039246680,0.013972820
1640775742981319936,-0.046388630,0.218265380,9.915280340,0.060156000,-0.023344160,0.035040080
1640775742981920000,-0.113502380,0.353035270,9.668967250,0.026217100,-0.028043990,0.045482810
1640775742986269952,-0.115322080,-0.024469830,9.906518940,0.004783270,-0.040993090,0.015805660
1640775742986639872,-0.211287900,0.010460120,9.934917450,0.073239210,-0.018885730,0.019486250
1640775742991559936,-0.110458070,0.271755400,9.527799610,0.077717010,-0.050349540,0.008797650
1640775742992579840,-0.070067930,0.250135660,9.921062470,0.036314130,-0.025738780,0.023366520
1640775742996480000,-0.090364020,0.461834010,9.879890440,0.010171530,-0.010518730,0.045666100
1640775742997220096,-0.007979180,0.400632710,9.935182570,0.025887790,-0.082537540,0.037951770
1640775743001339904,0.004536060,0.192166130,9.920567510,0.074785950,-0.038300460,0.033108890
1640775743001799936,0.015870880,0.417091550,9.697888370,0.091552730,-0.026853380,0.008386370
1640775743006799872,-0.191345140,0.432867500,10.312769890,0.047311180,-0.052201750,-0.006531180
1640775743008309760,-0.151959450,0.526977660,9.852455140,-0.018890200,-0.069241230,0.019451980
1640775743011799808,-0.026743640,0.514983710,9.422135350,-0.004617870,-0.083954630,0.015641750
1640775743012430080,-0.050123890,0.352383670,9.784502980,0.052849960,-0.002834200,0.013400620
1640775743016320000,-0.007624460,0.626692180,9.782300950,0.058096650,-0.015343730,0.037601590
1640775743016679936,-0.095207600,0.236785780,10.216948510,0.017857550,-0.079582630,0.038093330
1640775743021499904,0.078692090,0.018138990,9.872345920,0.016972420,-0.059916080,0.032469620
1640775743023340032,0.007868150,0.283042790,9.627829550,0.043271480,-0.069399190,0.015261770
1640775743026419968,-0.050118020,0.238196180,9.778634070,-0.000345710,-0.026357180,0.004896520
1640775743027149824,0.124894620,0.438662530,9.633390430,-0.016683340,-0.023509560,0.004611910
1640775743031389952,-0.110536300,0.290314790,10.045515060,0.041325400,-0.059826680,-0.008119640
1640775743031909888,0.079784540,0.351544110,9.605365750,0.072900960,-0.068734590,0.011605020
1640775743036300032,-0.068083290,0.457699090,9.600724220,0.043325130,-0.049640230,0.024123490
1640775743036919808,-0.305691480,0.076630880,10.093161580,-0.024154780,-0.021976230,0.013914700
1640775743043119872,-0.180164400,0.159653050,10.031512260,0.023925300,-0.079581130,0.008846820
1640775743043820032,-0.282472280,0.104805990,9.719228740,0.063146640,-0.082688020,-0.024315710
1640775743046269952,0.016631310,0.284722150,9.541265490,0.059795370,-0.033719830,-0.022441150
1640775743046599936,-0.134356360,0.604010940,10.085574150,0.026525560,-0.024276970,0.000190730
1640775743051319808,-0.056850940,0.485648070,9.937049870,-0.036990650,-0.071890650,0.016485160
1640775743051620096,0.212097210,0.519006610,9.835544590,0.015820560,-0.078454630,0.038407750
1640775743056800000,0.007435420,0.385524660,9.831791880,0.067970150,-0.036112960,-0.002881880
1640775743057859840,0.142382170,0.464506450,9.864958760,0.061768290,-0.043182080,0.005613270
1640775743061400064,-0.153150500,0.538515090,10.195723530,0.010384620,-0.058014690,0.006711480
1640775743061789952,-0.090624200,0.310530690,9.629731180,-0.053846840,-0.096102060,-0.002856550
1640775743066380032,0.122081910,0.423248470,9.460317610,0.008393830,-0.067777930,0.000017880
1640775743066979840,-0.104103400,0.424721840,9.616114620,0.008170310,0.027965010,-0.010447210
1640775743071379968,-0.014389900,0.359374050,10.034172060,0.010190910,-0.043983760,0.011035800
1640775743071810048,-0.134618920,0.039431090,10.364471440,0.042998780,-0.093980130,0.009049480
1640775743076949760,-0.107497390,-0.002849230,9.529820440,0.031434000,-0.074289750,0.007353720
1640775743078189824,-0.032837200,0.214957650,9.518988610,0.020226840,-0.071352720,0.010578330
1640775743081289984,-0.128559140,0.208775000,9.749577520,-0.053229930,0.019931790,-0.012926760
1640775743081609984,0.103110940,0.354569700,9.754613880,-0.001862650,-0.038135060,-0.012643640
1640775743086509824,-0.006156960,0.387396510,10.179294590,0.085349380,-0.091040140,-0.016443430
1640775743086999808,0.136772040,0.598288060,9.280735020,0.048784920,-0.046579550,-0.003094970
1640775743091449856,0.023222290,0.638145800,9.839493750,0.001287460,-0.063940880,0.023053580
1640775743092049920,-0.136458080,0.348768060,10.319302560,-0.059175500,0.000841920,0.012120600
1640775743096279808,-0.071615750,0.313297930,9.947765350,0.009495020,-0.074689090,0.001816450
1640775743096649984,-0.193366330,0.328892950,10.066916470,0.073002290,-0.116866810,-0.014163550
1640775743101689856,0.031435460,0.580475030,9.342542650,0.013881920,-0.000461940,-0.011572240
1640775743102249984,-0.090600210,0.783246580,9.859975810,-0.066390630,-0.041623410,0.014202300
1640775743106449920,-0.101744640,0.461057900,10.181392670,-0.096802410,-0.057214510,0.024524330
1640775743106999808,0.178775920,0.285043060,9.420619960,0.013829770,-0.048349800,0.004838410
1640775743111379968,0.007370860,0.350193530,9.929382320,0.081335010,-0.060823560,0.002141300
1640775743111899904,-0.003859570,0.368321090,10.035568240,-0.031596430,-0.003856420,0.014474990
1640775743116289792,-0.012988650,0.228155270,9.750581740,-0.082160530,-0.067953770,0.020359460
1640775743116600064,0.020009000,0.053417860,9.872702600,-0.049959120,-0.081790980,0.011625890
1640775743121299968,0.123479680,0.217393410,9.271375660,0.020416080,0.010606650,-0.003300610
1640775743121959936,0.032365450,0.425788400,9.714630130,0.023166840,-0.022971630,-0.003246960
1640775743126629888,-0.001111650,0.282708410,10.333895680,-0.025933980,-0.027726590,0.011116270
1640775743127399936,-0.029920830,0.227619630,9.707360270,-0.021347400,-0.048382570,0.011767450
1640775743131749888,-0.123764950,0.206308360,9.852811810,-0.002504890,-0.099802040,0.002896790
1640775743132359936,-0.157497410,0.214475680,9.706444740,-0.001643600,0.016780200,-0.004020330
1640775743136339968,-0.126978930,0.329695490,9.688515660,0.010302660,-0.029489400,-0.002659860
1640775743136920064,-0.146932070,0.381803360,10.253861430,0.003314020,-0.063616020,-0.004416700
1640775743141440000,0.044667180,0.405879590,9.455023770,-0.023809070,-0.015708800,0.015331800
1640775743142040064,0.015580090,0.393378670,10.043914790,-0.003305080,-0.055918110,0.014169520
1640775743146329856,-0.191530720,0.278720020,10.291407590,0.001426040,-0.023405250,0.003805760
1640775743146710016,0.000119580,0.380308240,9.379774090,0.006133320,-0.079941750,0.003497300
1640775743151340032,-0.152924000,0.370037760,10.114325520,0.004805620,-0.076243280,-0.005371870
1640775743151759872,-0.118982350,0.550786790,9.613781930,-0.033055250,0.013577940,-0.000758470
1640775743156440064,-0.005044850,0.874760390,9.811054230,-0.066488990,-0.084839760,0.014969710
1640775743157059840,-0.041301490,0.549604000,10.217655180,-0.072090340,-0.022898610,0.011375550
1640775743161379840,0.304224670,0.466091280,9.261579510,0.004935270,-0.005368890,0.008024280
1640775743161870080,0.022413680,0.436392250,10.328641890,0.043736400,-0.061975420,-0.000527500
1640775743166729984,-0.016003050,0.345778670,9.736989020,-0.065906350,-0.010782480,0.028195980
1640775743167699712,0.095284640,0.177704380,9.343957900,-0.092738870,-0.095887480,0.017537180
1640775743171299840,-0.112326060,-0.143796040,9.999662400,-0.042778250,-0.009562080,-0.011785330
1640775743171809792,0.142906680,0.187509980,9.367502210,0.018373130,0.039765240,-0.012743470
1640775743176379904,-0.215774950,0.202737410,10.429448130,0.026455530,-0.057822470,-0.011391940
1640775743177539840,-0.128670810,0.184766720,10.050906180,-0.048504770,-0.045625870,0.003577770
1640775743181409792,0.072343940,0.425838110,9.148014070,-0.029110910,-0.070683670,0.017280880
1640775743182210048,-0.268218700,0.226338740,9.874378200,-0.026407840,-0.029644370,0.006283820
1640775743186269952,0.040777150,0.400473180,9.541520120,0.005552170,0.024591390,-0.001864140
1640775743186699776,-0.066022140,0.461909500,10.044434550,0.030657650,-0.049015880,-0.021582840
1640775743191500032,-0.075667880,0.462809210,10.281720160,-0.032919650,-0.029975180,-0.016629700
1640775743192209920,0.105492000,0.677453760,9.512776370,-0.034144520,-0.038430100,-0.002501900
1640775743196319744,-0.182396770,0.402914230,10.088039400,-0.056965650,-0.069838770,-0.015363100
1640775743196849920,-0.025733860,0.500287120,9.710923190,-0.020579990,-0.019441540,0.006616120
1640775743201400064,-0.047669840,0.291833880,9.565286640,0.010421870,-0.048761060,-0.010618570
1640775743201949952,-0.097314390,0.106869470,10.181704520,-0.010296700,-0.026388460,-0.007487830
1640775743206400000,-0.006907200,0.496295180,9.713628770,-0.021718440,-0.009822850,0.000694390
1640775743207500032,-0.144300010,0.345429420,10.185421940,-0.110337160,-0.086596610,-0.003232060
1640775743211309824,0.007984330,0.400982140,9.871001240,-0.079786780,-0.055561960,0.008964540
1640775743211689984,0.175465780,0.333053380,9.204504970,0.014327470,-0.015991930,-0.010500850
1640775743216329728,0.065390410,0.311697840,10.093697550,0.034663080,0.000727180,-0.017090140
1640775743216759808,0.045893190,0.520445110,9.921389580,-0.027260190,0.001537800,0.018309060
1640775743221359872,0.044744660,0.120620290,9.782105450,-0.097090010,-0.097525120,-0.004467370
1640775743222820096,0.004232050,0.121171500,9.690183640,-0.040547550,-0.040407480,-0.004115700
1640775743226560000,0.016166250,0.351475830,9.148003580,-0.009202960,0.006534160,-0.024963920
1640775743227079936,-0.125642870,0.162082870,10.140112880,-0.009194020,-0.018593670,-0.036104020
1640775743231399936,-0.175946740,0.356408830,10.054359440,0.002454220,-0.012283030,-0.011789800
1640775743231959808,-0.055047110,0.399028330,9.569832800,-0.032655890,-0.083261730,-0.003433230
1640775743236280064,-0.152959840,0.342750760,9.928681370,-0.053392350,-0.022934380,0.021457670
1640775743236709888,-0.059234610,0.430257980,9.546211240,-0.035929680,0.003525610,0.006636980
1640775743241390080,-0.017875190,0.170658410,10.062949180,0.022003060,-0.037270780,-0.017753250
1640775743241939968,-0.013734760,0.307706800,9.820536610,0.034175820,-0.015470390,-0.023530430
1640775743246469888,0.160211440,0.636669870,9.389640810,-0.016860660,-0.050161780,-0.028198960
1640775743247449856,0.039718320,0.557008740,10.069465640,-0.090599070,-0.016911330,-0.011941790
1640775743251340032,0.025449530,0.841285470,9.735504150,-0.106446450,-0.008845330,0.004538890
1640775743251789824,-0.108340400,0.504084170,10.055912020,-0.026321410,-0.076276070,-0.015211110
1640775743256489984,-0.116075240,0.316005080,9.931198120,0.038763890,-0.012597440,-0.012585520
1640775743257259776,-0.116572320,0.532028560,9.730894090,0.015360120,-0.012481210,-0.002378230
1640775743261299968,-0.294421970,0.136052680,10.189597130,-0.103800000,-0.045853860,0.003834070
1640775743261969920,0.135645550,0.284807980,9.256231310,-0.118346530,-0.037373600,0.012090800
1640775743266369792,0.226348970,0.206301180,9.544394490,-0.044974700,-0.001634660,-0.017231700
1640775743266870016,0.302894120,0.222257970,9.955772400,-0.010091070,0.050638620,-0.014446680
1640775743271350016,0.214556780,0.342649880,10.153174400,0.020435450,-0.023669000,-0.000977520
1640775743271759872,0.044550500,-0.023522330,9.997953410,-0.019973520,-0.086596620,-0.020071860
1640775743277400064,0.118354730,0.227265520,9.251907350,-0.042617310,-0.030688940,0.016100700
1640775743278149888,-0.256970050,0.289368360,9.369412420,-0.070911650,0.010143220,-0.012785200
1640775743281309952,-0.059429390,0.120140740,9.761603360,-0.059624020,0.032569470,-0.024606290
1640775743281669888,-0.100796510,0.400185500,9.913201330,0.055159620,0.011645260,-0.008505580
1640775743286289920,-0.130476400,0.229777960,9.804047580,0.035899880,-0.048378120,-0.023338200
1640775743286649856,0.063118670,0.361814080,9.749235150,-0.016899410,-0.008143490,0.021438300
1640775743291499776,-0.302913310,0.284467580,9.993286130,-0.068970020,-0.008542840,0.006484990
1640775743292339968,-0.055267350,-0.013368340,9.842134480,-0.031682850,-0.056362150,-0.001919270
1640775743296290048,0.045104880,0.126185460,9.561635970,0.077801940,0.012861190,-0.020517410
1640775743297039872,-0.084024920,0.195389910,9.860968590,0.070363280,0.008541340,-0.057807560
1640775743301359872,0.066437270,0.477363350,10.009077070,0.002369280,-0.037808720,-0.011987990
1640775743301820160,-0.055606650,0.694072600,9.567935940,-0.089685600,-0.042629230,-0.001105670
1640775743306439936,0.077715030,0.531982240,9.658991810,-0.075542930,-0.034177300,0.004285570
1640775743306979840,0.016566870,0.545919600,9.934045790,0.061228880,0.029580300,0.003103910
1640775743311679744,-0.195415200,0.580748080,10.197346690,0.074255470,-0.011315940,-0.027269120
1640775743312689920,-0.114981120,0.523822670,10.142512320,0.004677470,-0.065702200,-0.000603500
1640775743316300032,-0.049689730,0.413872960,9.399654390,-0.088939090,-0.031064460,-0.000138580
1640775743316809984,0.021272380,0.294540880,9.438076970,-0.069054970,-0.012005870,-0.013022130
1640775743321299968,0.156807360,0.342193390,9.638543130,0.005085770,0.028984250,0.000587110
1640775743321719808,0.211303220,0.305987750,9.787508960,0.028002260,0.012378400,-0.003050270
1640775743326649856,0.280350390,0.146247040,10.118864060,0.019451970,0.000159440,-0.005324180
1640775743327800064,0.236168550,0.233572540,9.916998860,-0.027158860,-0.004436080,0.010721390
1640775743331349760,-0.036393190,0.240290630,9.788368230,-0.061590980,-0.036443770,-0.003801290
1640775743332229888,-0.044575740,0.193031420,9.456172940,-0.038941210,-0.012235350,-0.013518340
1640775743336299776,-0.053816600,0.343873050,9.342198370,0.027011330,0.010617080,-0.023080410
1640775743336709888,-0.163156970,0.347139120,9.731936450,0.041078030,0.045375530,-0.020486120
1640775743341430016,-0.013615370,0.445825430,9.992556570,0.005979840,0.031332680,0.005570050
1640775743342850048,-0.217515100,0.245743200,10.308160780,-0.018848480,-0.015145540,0.014908610
1640775743346319872,-0.011145270,-0.018747870,9.674485210,0.004579130,-0.039975340,0.009855630
1640775743346729984,-0.017365200,0.070204770,9.498953820,0.065374370,0.001551210,-0.007481870
1640775743351339776,-0.060553030,0.124513940,9.570447920,0.042216480,0.044117870,-0.019560750
1640775743351699712,0.174421770,0.365679000,9.902257920,0.012451410,0.015819070,-0.014226140
1640775743356779776,-0.015666510,0.463149460,10.077730180,-0.012372430,-0.004746020,-0.017827750
1640775743358000128,0.207118930,0.439553230,9.691645620,0.004601480,-0.021645430,-0.001040100
1640775743363010048,-0.035257860,0.571054220,9.921784400,0.070649380,0.001940130,-0.000889600
1640775743364280064,-0.240851150,0.616072770,9.758123400,0.030757480,0.025041400,-0.010174510
1640775743366419968,-0.198384420,0.677398620,9.952137950,-0.008282070,-0.041081020,0.014540550
1640775743367019776,-0.205078590,0.419380040,9.590017320,-0.032369800,-0.001867120,0.005759300
1640775743371289856,0.167339920,0.377835090,9.420960430,0.005093220,0.037409370,-0.001266600
1640775743371749888,0.059617260,0.501652960,10.277025220,0.036306680,0.056312980,0.004060570
1640775743376459776,0.082060310,0.343920950,9.976546290,-0.027053060,-0.006118420,0.012698770
1640775743377169920,0.265512020,0.124176140,9.717015270,0.005652010,-0.045812130,0.015623870
1640775743381350144,0.037806490,0.063279890,9.632663730,0.025412440,0.026047230,0.004287060
1640775743381749760,0.125913830,0.278914030,9.373399730,0.013339520,0.020381810,0.008282070
1640775743386409984,0.086059240,0.282558440,9.856343270,-0.008760390,0.027523930,0.009529290
1640775743386819840,0.259535190,0.240219040,9.647655490,-0.022794310,0.089180470,0.006407500
1640775743391699968,0.162442740,0.268598110,10.129447940,0.065058480,0.039184100,0.016416610
1640775743393369856,-0.060387220,0.308530630,10.053721430,0.067409860,-0.013446810,0.023271140
1640775743396329984,0.044035250,0.316584260,9.170126910,0.021773580,-0.001476710,0.039263080
1640775743396829952,-0.144968510,0.089573670,9.593006130,0.003959240,0.057242820,0.017149750
1640775743401299968,-0.084132660,0.061771760,9.721049310,0.026446580,0.081655380,-0.007149580
1640775743401759744,0.112044290,0.149589120,9.707936290,0.104698550,0.046740480,-0.012324750
1640775743406489856,0.132197110,0.256349560,10.082099910,0.078287730,0.054039070,-0.004574660
1640775743407549952,0.042149840,0.294216100,9.947234150,0.022409860,0.047945990,0.013044480
1640775743412199936,0.036635960,0.093061390,9.682977680,0.051838160,-0.005768240,0.027519460
1640775743412639744,-0.031753480,0.044662770,9.634275440,0.115327520,0.031563640,0.010775030
1640775743416299776,-0.072260740,0.325317620,9.414743420,0.111146290,0.095702720,0.011576710
1640775743416709888,-0.116423400,0.527144310,10.162004470,0.040134790,0.059352830,0.001683830
1640775743421419776,-0.220445540,0.546375390,10.115051270,0.013232230,0.031749910,0.004692380
1640775743422880000,0.073651310,0.615456940,9.405191420,0.072406240,-0.003507730,0.003114340
1640775743426319872,-0.031133480,0.671174110,9.972233770,0.102175770,0.065636640,-0.002825260
1640775743426759936,-0.081461290,0.689800740,9.620918270,0.050906840,0.083790710,0.028316670
1640775743431429888,0.089026440,0.451638400,9.923762320,0.042988360,0.001172720,0.042481720
1640775743432160000,-0.033522420,0.060418600,9.960836410,0.040031970,0.072932240,0.022792810
1640775743436300032,0.148034710,0.232787310,9.346647260,0.071711850,0.018955770,0.014527140
1640775743436729856,-0.058142560,0.301687240,10.010447500,0.056362160,0.024308260,0.002852080
1640775743441409792,0.143927900,0.276588350,9.310553550,-0.006881360,0.097921480,0.021433830
1640775743441979904,0.111009700,0.247098800,9.941227910,0.065957020,0.043708090,0.015334780
1640775743446249984,-0.152151390,0.227884900,10.307797430,0.106517980,0.056226550,0.003424290
1640775743446619904,0.107177000,0.548685970,9.153740880,0.080224890,0.007498270,0.039629650
1640775743451330048,-0.147501200,0.365818680,9.847736360,0.028806930,0.040204820,0.035673380
1640775743451739904,-0.024031600,0.198977310,9.521678920,0.003930930,0.121994320,0.016455350
1640775743456699904,0.057070560,0.311643390,9.622078900,0.127907110,0.021757190,0.005075340
1640775743457979904,-0.097473000,0.221224960,9.985253330,0.114011750,0.045372540,-0.002509360
1640775743461550080,0.241303490,0.396659880,9.296536450,0.049193210,0.079868720,0.032725930
1640775743462210048,-0.046265040,0.071968670,10.184160230,0.045363610,0.055219240,0.029604140
1640775743466369792,-0.070672500,-0.135212360,10.014865880,0.089824200,0.053392350,0.028008220
1640775743466719744,0.100366730,0.077797960,9.057567600,0.176213680,0.014764070,0.026261810
1640775743471299840,-0.128219470,0.138964220,9.785617830,0.108179450,0.078941890,0.005996230
1640775743471739904,-0.104991090,0.357224790,9.742874150,0.062695150,0.103421520,0.027057530
1640775743476379904,-0.118575560,0.363022120,9.840605740,0.095190110,-0.006043910,0.022248920
1640775743477370112,-0.119901280,0.407258330,9.985842700,0.119657820,0.047416980,0.008849800
1640775743481339904,-0.054157290,0.730872150,9.442232130,0.148026660,0.083988900,0.034482780
1640775743481699840,-0.232085380,0.580438260,10.293750760,0.091385830,0.021304190,0.018607080
1640775743486579968,-0.083109350,0.592377070,9.790870670,0.071655230,0.051964830,0.032100080
1640775743487109888,0.137099130,0.587224250,9.196944240,0.094318380,0.008541350,0.034032760
1640775743491399936,0.125467270,0.441732350,9.958436010,0.091579560,0.084741410,0.020974880
1640775743492239872,0.158945550,0.603258010,9.679698940,0.076724600,0.097560890,0.038529940
1640775743498569984,0.112516110,0.272440050,10.117089270,0.079534960,-0.023350120,0.034987930
1640775743499290112,0.024644410,0.152237450,9.932929990,0.112454590,0.043001770,0.028443340
1640775743501479936,-0.041357500,0.505522550,9.233721730,0.094790760,0.029845530,0.028136370
1640775743502129920,-0.185589160,0.423041970,9.975033760,0.035138430,0.036269430,0.034131100
1640775743506599936,0.001862450,0.428026410,9.353366850,0.024206940,0.097233050,0.033010540
1640775743507209984,0.117053340,0.476426630,9.693450930,0.099068880,0.043375790,0.013297800
1640775743511329792,-0.002248930,0.469918070,10.166923520,0.117293000,0.077497970,0.021229680
1640775743511699968,0.113185750,0.593878980,9.411975860,0.069226320,0.035928190,0.061307840
1640775743516359936,-0.024657800,0.227811140,9.966856960,0.041104850,-0.003637370,0.051407520
1640775743516839936,0.065680280,0.014909100,9.268251420,0.058518360,0.114195070,0.040982670
1640775743521339904,0.168806340,0.148843360,9.312841420,0.125841770,0.062346450,0.024925170
1640775743522359808,-0.050831600,0.014175130,10.270531650,0.104656820,0.093603140,0.016997750
1640775743527059968,0.115905610,0.209013980,9.558794980,0.080744920,0.074091560,0.020477180
1640775743527539968,-0.270483400,0.140639260,10.125295640,0.094665590,-0.019246340,0.011624400
1640775743531360000,-0.207747800,0.236560110,9.285288810,0.093352800,0.041382010,0.018814210
1640775743531879936,-0.076886300,0.498072530,9.032897950,0.127714860,0.071762490,0.026434660
1640775743536339968,-0.307721500,0.380108590,10.285102840,0.097653270,0.111743820,0.018535550
1640775743536809984,0.012386300,0.577451590,9.769494060,0.099457820,0.065453360,0.042538350
1640775743541420032,0.063625640,0.430421350,9.703305240,0.131888700,-0.017344950,0.039042540
1640775743542009856,0.051790270,0.334778160,9.788229940,0.093823680,0.082737210,0.033189360
1640775743546309888,0.021991980,0.595778350,9.558815000,0.097860420,0.058509420,0.032971800
1640775743546840064,-0.275594150,0.243180860,10.087911610,0.082977120,-0.027255720,0.016276540
1640775743551369984,0.089720640,0.413732230,9.270602230,0.114169740,0.053679940,0.030955680
1640775743551749888,-0.029794830,0.552339730,9.571462630,0.112095470,0.075973560,0.018432730
1640775743556380160,-0.180552270,0.548564550,10.480455400,0.045888130,0.064203140,0.041690470
1640775743557039872,-0.044621330,0.683471020,9.679347040,0.058449820,0.011900070,0.059694050
1640775743561319936,-0.112065180,0.247288050,9.695178990,0.086525080,-0.044007600,0.025413930
1640775743561869824,-0.027092830,0.547110740,9.472349170,0.123469550,0.085406010,0.038878620
1640775743566520064,-0.097177810,0.634796500,9.566402440,0.072352590,0.046096750,0.045998390
1640775743567589888,0.066851810,0.297813060,10.125749590,0.005218390,0.019416210,0.050716110
1640775743571269888,0.299059180,0.346015930,9.474713330,0.056660190,0.074101980,0.050276520
1640775743572509952,0.276476290,0.120546470,9.638832090,0.108261410,0.025579330,0.028769670
1640775743576419840,0.165003120,0.194142390,9.917119980,0.128692390,0.060646240,0.051958850
1640775743576999936,-0.045148240,0.195538700,9.472899440,0.071746130,0.019493700,0.046975920
1640775743581369856,-0.153179600,-0.134562360,9.783580780,0.057794160,-0.020565090,0.046977410
1640775743582589952,-0.218085230,0.060960750,9.445297240,0.121289510,0.074397030,0.044025480
1640775743586289920,-0.258620320,0.207432520,9.547719000,0.129862140,0.046291950,0.012554230
1640775743586659840,-0.252508460,0.480743910,10.138669010,0.103956450,0.043603770,0.022506710
1640775743591399936,-0.030865170,0.649222140,9.436416630,0.060395900,0.045150530,0.027158860
1640775743593359872,-0.007005490,0.430443880,9.801262860,0.106149920,-0.006191430,0.040115420
1640775743596349952,-0.020574090,0.451342490,9.675757410,0.157037420,0.047287350,0.048530110
1640775743596740096,0.112548250,0.556668100,9.421609880,0.113345680,0.010095540,0.031600900
1640775743601359872,-0.040231280,0.348598330,10.197463990,0.060620920,0.035718080,0.048545010
1640775743601719808,0.009299890,0.323691430,9.711616520,0.069376830,0.046610840,0.045236950
1640775743606400000,-0.102121260,0.279848550,9.845906260,0.132717210,-0.040665270,0.016772750
1640775743607009792,-0.184187170,0.424816790,9.691725730,0.119705510,0.024113060,0.036792460
1640775743611349760,-0.087859000,0.669343050,9.252532960,0.066433850,0.025345390,0.035898390
1640775743611759872,-0.258200110,0.393849430,10.116168020,0.043298300,0.004065040,0.039182610
1640775743616349952,-0.015692300,0.523419440,9.720619200,0.092946000,0.034841900,0.042562190
1640775743616740096,-0.060283440,0.634690050,9.938796040,0.113655630,-0.023388860,0.021137300
1640775743621659904,-0.056490320,0.643430350,9.870457650,0.055941940,-0.003609060,0.046570600
1640775743622180096,0.272635100,0.679655190,9.107424740,0.024063890,0.019012390,0.049842900
1640775743626319872,0.162757310,0.226201300,9.819576260,0.044472520,0.038716200,0.027488170
1640775743626710016,0.183803770,0.317415210,9.798774720,0.111019620,0.046333670,0.049668550
1640775743631359744,0.071780530,0.176229150,9.694231990,0.103646520,-0.033476950,0.036218770
1640775743632000000,-0.020537890,-0.041583130,9.689805980,0.038449470,-0.013977290,0.027924780
1640775743636279808,-0.036753890,0.226946060,9.291562080,0.052541490,0.030063090,0.030359620
1640775743637299968,-0.243444410,0.045745550,9.738398550,0.059726840,0.027951600,-0.001268090
1640775743642249728,-0.091108860,0.344061580,9.847418790,0.098051130,0.033460560,0.025537610
1640775743642720000,-0.105848510,0.457214470,9.560349460,0.111980760,0.003992020,0.018683080
1640775743646749952,-0.153412510,0.296257620,9.759651180,0.084322700,-0.018723310,0.040444740
1640775743647399936,-0.018986680,0.602266310,9.439008710,0.086919970,0.018993020,0.050590930
1640775743651289856,-0.103163950,0.249545510,9.720253940,0.052791840,0.011375550,0.012843310
1640775743651670016,0.026481760,0.295100000,9.969573020,0.108799350,0.019694860,0.034557280
1640775743656409856,0.043742920,0.402333500,9.534472470,0.136908890,-0.003096460,0.008694830
1640775743656889856,0.090209380,0.362252740,9.663966180,0.078895690,-0.011627380,0.023035710
1640775743661309952,-0.022177180,0.634835540,9.693090440,0.052726270,0.025436280,0.040225690
1640775743661979904,-0.256496520,0.370264470,9.828664780,0.026422740,-0.030793250,0.019869210
1640775743666339840,-0.244562450,0.335960480,9.850816730,0.101251910,-0.051182520,0.033816700
1640775743666699776,-0.193337200,0.521936300,9.375285150,0.143545870,-0.017781560,0.011350220
1640775743671309824,-0.084026600,0.646264080,9.711521150,0.063078110,0.030148030,0.005461280
1640775743675079936,-0.039304280,0.918846610,10.080550190,-0.015814600,0.022472440,0.046312810
1640775743676299776,0.200028000,0.616205330,9.661483760,-0.028556580,-0.041309000,0.026014450
1640775743676679936,0.319161800,0.431254570,9.611558910,0.093445180,-0.016652050,0.024001300
1640775743681299968,0.082584630,0.618471860,9.543261530,0.131972130,0.026272240,0.025373700
1640775743681720064,-0.012069870,0.396863130,9.727298740,0.031475720,-0.049470370,0.031125550
1640775743686589952,-0.050073840,0.204381590,9.701805110,-0.027161840,-0.029158600,0.050681840
1640775743687689984,0.048358400,0.039753540,9.255824090,-0.010046360,0.019367040,0.022633370
1640775743691949824,0.058763670,0.007849870,9.936599730,0.084033610,0.043697670,0.009550150
1640775743692430080,-0.080515150,0.310083780,9.997977260,0.098483260,0.031451880,0.013062360
1640775743696460032,-0.084287320,0.272315950,9.720265390,0.046235320,-0.087133060,0.014881790
1640775743697149952,-0.136624320,0.250933740,9.384153370,0.019535420,-0.049529980,0.031302870
1640775743701359872,0.012874490,0.376940250,8.846691130,0.023235380,0.036077210,0.024354460
1640775743701779968,-0.093358400,0.208585290,9.981019970,0.073260080,0.038026280,0.002886350
1640775743706400000,-0.026989330,0.487131480,10.090329170,0.096158680,0.021138790,0.011807680
1640775743706869760,0.097842400,0.474331620,9.706107140,0.072270620,-0.055618580,0.014124810
1640775743711389952,-0.022737330,0.222982500,9.736611370,0.043587390,-0.025925040,0.026096410
1640775743711830016,-0.022998980,0.407862100,9.315736770,0.051596760,-0.003649290,0.030168890
1640775743716339712,-0.266583620,0.181376200,9.902132990,0.065626210,-0.020495050,0.020678340
1640775743716709888,-0.164466290,0.230308160,9.660442350,0.080850710,-0.001671910,0.024569030
1640775743721309952,-0.119319040,0.411850810,9.698446270,0.096406050,-0.036586820,-0.001394750
1640775743721819904,-0.136112680,0.420972700,9.960871700,0.047478090,-0.006374720,0.002546610
1640775743727200000,0.042611230,0.848531900,9.586036680,0.010545550,-0.018261370,0.021232670
1640775743728979712,0.001974910,0.662858490,9.783802990,0.004193190,-0.042864690,0.012354560
1640775743731449856,0.258091990,0.562762560,9.476865770,0.054937600,0.002501910,0.032204390
1640775743731969792,0.178641860,0.688905660,9.721683500,0.111708050,0.001206990,0.017516310
1640775743736369920,-0.048318630,0.460628570,9.971800800,0.027759370,-0.036443770,0.026170910
1640775743736879872,0.163265600,0.584115330,9.270895960,-0.035460300,-0.064617400,0.041428210
1640775743741410048,0.074142950,0.166142430,9.437465670,-0.035324700,0.014171010,0.003099440
1640775743741999872,0.055891710,0.068685840,9.749804500,0.053477280,0.052347770,0.004906950
1640775743746330112,-0.033108120,0.490664690,9.846204760,0.104551020,-0.029069180,0.006470080
1640775743746779904,-0.041530300,0.224539340,9.832983020,-0.003115830,-0.032919650,0.017027560
1640775743751299840,-0.001042220,0.350063090,9.453656200,-0.022490320,-0.010363760,0.041180840
1640775743752149760,-0.141875030,0.181032670,9.410470960,0.024026630,-0.014391540,0.006803870
1640775743756480000,0.069177110,0.263937060,9.460068700,0.061853230,0.031881040,0.004456940
1640775743757280000,0.061329990,0.671481970,9.518434520,0.061793630,0.023666020,-0.010854000
1640775743761319936,0.158508000,0.443793570,9.843953130,-0.013656910,-0.002639000,-0.008939200
1640775743761740032,0.144848050,0.525217950,9.742360120,0.012561680,0.009824330,0.039108090
1640775743766330112,-0.126251250,0.248301150,9.610125540,0.045254830,-0.041523580,0.011383000
1640775743766680064,-0.124485780,-0.036865900,9.701405530,0.067076090,-0.015249850,0.018954280
1640775743771600128,-0.310389010,0.150104330,9.366405490,0.078941880,0.014683610,0.016899410
1640775743772199936,-0.258195970,0.011667440,9.596061710,0.027279560,-0.019857290,-0.003007050
1640775743776829952,-0.072004720,0.301727800,9.771907810,0.024621190,0.033171470,0.020334130
1640775743778550016,-0.184376280,0.564872680,9.933562280,0.013992190,-0.005517900,-0.005041060
1640775743781299712,-0.069317050,0.553828180,10.008404730,0.043496500,-0.060917450,0.012098250
1640775743781679872,0.024860800,0.701623620,9.313530920,0.080156330,-0.016848740,0.020861630
1640775743786609920,0.015228370,0.717778030,9.612257000,0.045934320,-0.012403730,0.002951920
1640775743787379968,0.046913160,0.809757590,9.878945350,0.001354520,0.021432340,0.042776770
1640775743793370112,0.060446200,0.836152790,9.520412450,-0.051631030,-0.042952600,0.027561190
1640775743794040064,0.236092460,0.547724780,9.605336190,-0.031769280,-0.033997000,0.020746890
1640775743796320000,0.214087050,0.420254410,9.585499760,0.044594710,0.064098830,0.014482440
1640775743796640000,-0.011747870,0.467869460,10.042812350,0.044742230,-0.006827710,0.001399220
1640775743801389824,-0.156617510,0.269792440,10.066612240,-0.016528370,-0.051331520,0.037147110
1640775743801939968,-0.115869570,0.211811530,9.143981930,-0.057756910,-0.049647700,0.032551590
1640775743806429952,-0.153805230,0.173150120,9.474691390,-0.027824940,-0.005850200,0.020831830
1640775743807069952,-0.053714970,0.310927960,9.446762080,0.010739270,0.080461800,0.022499260
1640775743811309824,0.059489730,0.455500840,9.788565640,0.017637020,0.002333520,0.001572070
1640775743811790080,0.117601310,0.338912070,10.136819840,0.007647280,-0.017583370,0.010335450
1640775743816269824,0.280852440,0.607528450,9.179761890,-0.010608140,-0.010907650,0.032238670
1640775743816669952,0.012560400,0.514137030,9.687087060,-0.031006340,-0.035846230,0.026139620
1640775743821489920,0.027387120,0.339337410,9.487013820,-0.044324990,0.042551750,0.021852550
1640775743822700032,0.021744440,0.381953660,9.455026630,0.017189980,-0.011208650,-0.002118950
1640775743826560000,-0.182080310,0.110149820,9.981123920,0.044909120,0.002734360,-0.012239810
1640775743827069952,-0.016218730,0.397704180,9.345003130,0.009338560,0.015550850,0.011402370
1640775743831329792,-0.359798820,0.325692590,10.074594500,-0.038424130,-0.048135230,0.010035930
1640775743832329984,-0.202223790,0.179898770,9.652135850,-0.053465370,-0.008469820,0.028911240
1640775743836499968,-0.089519620,0.349148870,9.285155300,0.035160790,-0.016957530,0.014077130
1640775743836900096,-0.280419110,0.241589220,10.032115940,0.059495870,0.010532140,-0.011870270
1640775743841369856,0.070903240,0.688175320,9.543624880,0.016240780,0.011980530,0.012288990
1640775743841920000,-0.104298640,0.862767580,9.934195520,-0.065185130,-0.062583390,-0.000472370
1640775743846319872,0.134860130,0.682144220,9.631331440,-0.104893740,-0.014977160,0.007931890
1640775743846720000,0.283186700,0.808816610,9.266805650,0.006897750,0.002765660,0.007650260
1640775743851569920,-0.044306720,0.533302720,10.231503490,0.037631390,0.006717440,-0.007192790
1640775743852669952,0.045898100,0.504431840,9.855762480,-0.013218820,-0.007797780,0.038689390
1640775743856489984,-0.186979260,0.256965490,9.659288410,-0.050821900,-0.095416610,0.032512840
1640775743857299968,-0.132719640,-0.005437120,9.418296810,-0.084875530,-0.036548080,0.019487740
1640775743861319936,-0.003677540,0.364358370,9.092323300,-0.043746840,0.035996740,0.014953320
1640775743861719808,-0.202056300,0.142304930,10.191988950,-0.033129760,0.000540910,-0.018535550
1640775743866419968,0.013019190,0.169781790,9.953977580,0.023858250,-0.021533670,-0.009076300
1640775743866909952,0.046750960,0.513337850,9.377166750,0.023542340,-0.078287730,-0.011165440
1640775743871640064,0.014059820,0.510307970,9.751305580,-0.096200410,-0.011782350,0.012384360
1640775743872320000,0.068608440,0.588915470,9.416455270,-0.103424500,0.012704730,0.031363960
1640775743876299776,-0.003387600,0.222769800,9.737926480,-0.021150710,-0.056266780,-0.023095310
1640775743876699904,0.083329780,0.188391000,9.574205400,0.074984130,-0.000217560,-0.018507240
1640775743881289984,0.054392740,0.442265630,9.272270200,0.042879590,-0.016279520,-0.003913050
1640775743881629952,-0.099962350,0.212364880,10.169474600,-0.090141620,-0.017173590,0.009518860
1640775743886909952,-0.135587250,0.183465500,9.857001300,-0.099387760,-0.011722740,0.022847950
1640775743888880128,-0.191914540,0.045947080,9.647528650,0.002534690,-0.095449380,-0.007613000
1640775743891340032,-0.212904470,0.081453010,9.720240590,0.097291180,-0.022406880,-0.023530430
1640775743892900096,-0.226864730,0.555254160,9.382569310,0.047880410,0.009432440,-0.023491680
1640775743896299776,-0.150451730,0.730700910,10.013565060,-0.087283560,-0.059986120,-0.018081070
1640775743896679936,0.082217100,0.731514220,9.601004600,-0.117479260,-0.021375720,0.005416570
1640775743901379840,0.201881110,0.771966580,9.514013290,-0.021146240,-0.051732360,-0.010520220
1640775743902159872,0.128842920,0.728344080,10.155966760,0.054705140,-0.013597310,-0.015290080
1640775743906380032,0.071488480,0.718885120,9.681829450,0.010862950,-0.010521710,0.006803870
1640775743906949888,-0.013741380,0.463962880,9.925688740,-0.070390100,-0.104962290,0.018508730
1640775743911320064,-0.030949120,0.101876760,9.536791800,-0.090754030,-0.010067230,0.007663670
1640775743911739904,0.048837040,0.329858420,9.022257800,-0.057931240,-0.015176830,-0.013960900
1640775743916319744,-0.127550590,0.240239250,10.120821950,-0.038221480,-0.025442240,-0.024150310
1640775743916709888,0.072116880,0.152267220,9.550465580,-0.014013050,0.010009110,-0.010965760
1640775743921329920,0.052817180,0.283736800,9.876010890,0.015647710,-0.065410140,-0.014266370
1640775743921959936,-0.137992130,0.264588120,9.999548910,-0.041051210,-0.023232400,0.011906030
1640775743926299904,0.211660390,0.541992190,8.853427890,-0.093434740,-0.039844210,0.020922720
1640775743926619904,0.042406400,0.326145290,9.890142440,-0.061255690,-0.001013280,-0.011591610
1640775743931459840,0.129021640,0.335377900,9.587026600,0.013193490,0.053499650,-0.018739700
1640775743931969792,0.131976810,0.602926250,9.594726560,0.053521980,-0.083227440,-0.015449520
1640775743936719872,-0.056134100,0.330353860,9.880809780,-0.055918100,-0.004275140,-0.003287200
1640775743937700096,0.013839800,0.286132340,9.380901340,-0.091965520,0.004151460,0.018823150
1640775743941730048,-0.335123870,-0.079485220,10.041257860,-0.002142790,-0.067065660,-0.002714990
1640775743942269952,-0.165982660,-0.059238780,9.302464490,0.047266480,-0.004704300,-0.014927980
1640775743946369792,-0.047837450,0.356601890,9.153861050,0.049541900,-0.020763280,-0.016820430
1640775743947820032,-0.209460750,0.206405620,10.228495600,-0.056441130,0.024466220,-0.019848350
1640775743951559936,0.015812040,0.448957180,9.752481460,-0.047555570,-0.016921760,-0.007413330
1640775743952270080,-0.090212230,0.421933320,9.846306800,0.029827660,-0.119428340,-0.013129410
1640775743956399872,0.029800540,0.594946920,9.576984410,0.030921400,0.009125470,-0.026634340
1640775743957100032,-0.089866270,1.022834540,9.472677230,0.001810490,-0.009128450,-0.000758470
1640775743961269760,-0.190068600,0.556201160,10.189004900,-0.071318450,-0.070735820,0.010645390
1640775743961669888,0.143198010,0.481538740,9.337641720,-0.020161270,0.004637240,0.003960730
1640775743966439936,-0.028031210,0.567356050,9.651085850,0.029073650,-0.043952460,-0.011670590
1640775743967500032,-0.096451480,0.431873560,10.203574180,-0.024224820,-0.006303190,0.000824030
1640775743971330048,-0.142231810,0.450678080,9.531288150,-0.049103800,-0.058729950,0.008855760
1640775743971920128,-0.146003630,0.200501250,9.744069100,-0.053156920,-0.111565020,-0.003585220
1640775743976239872,0.028664230,0.331700770,9.426970480,-0.012096760,0.030624870,0.001068410
1640775743976620032,-0.001496540,0.571092310,9.553363800,-0.026607520,-0.021409990,-0.003615020
1640775743981659904,0.127987470,0.444476460,10.174792290,-0.073272000,-0.034888090,0.009882450
1640775743982859776,0.233147990,0.428023280,9.405488970,-0.043033070,-0.014714900,-0.001674890
1640775743986569984,0.090235060,0.403622060,9.588758470,0.000172850,-0.086602580,0.003723800
1640775743987649792,-0.051332170,0.322015230,9.697952270,-0.008428100,-0.010068720,0.021725900
1640775743991399936,-0.077559910,0.389976320,9.278289790,-0.052984060,-0.034128120,0.010947880
1640775743993069824,-0.119138440,0.167555020,9.999191280,-0.053492190,-0.042277570,0.008206070
1640775743996419840,-0.085657920,0.187203120,9.541431430,-0.017341980,0.023424630,-0.003454090
1640775743996950016,-0.053677560,0.326396790,9.704947470,0.018270310,-0.068743510,-0.003102420
1640775744001430016,-0.104999910,0.108929680,9.996159550,-0.001783670,-0.025783480,-0.003549460
1640775744002490112,0.030950260,0.239797030,9.031814580,-0.005982820,-0.045937300,0.005675850
1640775744006399744,-0.028322760,0.255219340,9.651629450,0.011003020,-0.071348260,0.013069810
1640775744007049984,0.034780020,0.174744710,9.582777020,-0.018846990,0.050917270,-0.003109870
1640775744011289856,0.066446040,0.502622310,9.805418010,0.007487830,-0.049985950,-0.008448960
1640775744011770112,-0.125140610,0.346868520,10.391788480,0.017455220,-0.080861140,-0.003813210
1640775744016320000,0.126883310,0.463750030,8.984613420,0.014911590,-0.037693970,-0.002877410
1640775744016719872,-0.128128050,0.595275100,9.842759130,0.021281840,-0.060541930,-0.005047020
1640775744021359872,-0.193598750,0.527655600,9.930764200,-0.034143030,0.022056700,0.001755360
1640775744021900032,0.024034540,0.625818370,9.433420180,-0.011865800,-0.077626110,0.015947220
1640775744026269952,-0.100839580,0.349350990,10.132166860,0.021176040,-0.059682130,0.008840860
1640775744026809856,0.237163660,0.451850410,9.291130070,0.019559270,0.036437820,0.013005740
1640775744031479808,0.013606480,0.627980350,10.087862970,0.000399350,-0.059878820,0.013029570
1640775744032379904,0.007279280,0.404603360,10.052391050,-0.078451630,-0.032731890,0.019127130
1640775744036349952,0.276966720,0.406562540,9.074560170,-0.024184590,-0.039073840,0.009304290
1640775744036880128,-0.112858850,0.408993570,10.087725640,0.043702120,-0.040185440,-0.003515180
1640775744042169856,0.004491240,0.678871630,9.623426440,-0.017890330,0.011643770,0.012299420
1640775744042680064,0.083247550,0.759229600,9.465715410,-0.066858540,-0.083009910,0.028413530
1640775744046540032,0.186131780,0.388258790,9.800462720,-0.088372830,0.016021730,0.021977720
1640775744047010048,0.306233110,0.431639190,9.477778430,-0.000561770,0.072310870,0.021222240
1640775744051309824,-0.051762760,0.323719830,10.317471500,0.037407870,-0.069755310,0.013180080
1640775744051810048,0.067567580,0.208128170,9.694358830,-0.027807060,-0.035765760,0.028952960
1640775744056310016,0.108982260,0.194176270,8.990927700,-0.057443990,-0.029803820,0.021992630
1640775744057029888,-0.043352730,0.063720490,9.773921970,-0.056517120,0.025784970,0.012031200
1640775744061319936,0.220912860,0.204018760,9.481653210,-0.003868340,0.086964670,0.010211770
1640775744061760000,0.134549360,0.210015510,10.084758760,0.032387670,-0.007864830,0.004225970
1640775744066609920,0.024595800,0.260689590,10.251401900,0.010117890,-0.011615460,0.005002320
1640775744067069952,0.005763320,0.304343190,9.085130690,0.007440150,-0.033015020,0.016596920
1640775744071310080,-0.146489500,0.204114900,9.557080270,-0.010231140,-0.033681090,0.013193490
1640775744071939840,-0.156203120,0.309737710,9.476470950,0.001572070,0.087240350,0.001721080
1640775744076289792,-0.044377760,0.345810680,9.636571880,0.029277810,0.008380410,0.003594160
1640775744076679936,0.022499210,0.253502130,10.170437810,0.054535270,0.016108160,0.004285570
1640775744081349888,0.079030010,0.235439700,9.518564220,0.050246730,0.028324130,0.011323400
1640775744081689856,-0.074116430,0.195996550,10.024179460,0.043325130,-0.053688880,0.019438570
1640775744086329856,-0.201275070,0.114700320,9.706338880,0.034604970,-0.002773110,0.007563830
1640775744087879936,0.001617140,0.261668350,9.044544220,0.047624110,-0.012741980,-0.000247360
1640775744091879936,-0.150356380,0.427150670,10.205104830,0.056433680,0.040180980,-0.009094180
1640775744092529920,-0.107898730,0.598329960,9.845436100,0.030291080,0.054845220,0.000320370
1640775744096379904,-0.075744110,0.707435970,10.068888660,0.046095260,-0.094367560,0.012522940
1640775744096819968,-0.170679420,0.560220420,9.802334790,0.036916140,-0.022561850,0.008447470
1640775744101319936,0.160408320,0.716662590,8.941960330,0.020372870,0.015218560,0.020383300
1640775744101829888,-0.134683800,0.655760110,10.466625210,0.033992530,0.023764370,0.018690530
1640775744110060032,-0.032463910,0.521535810,9.900760650,-0.009888410,0.020852690,0.018529590
1640775744110710016,0.277145180,0.526069050,9.455794330,0.022391970,-0.094629820,0.017853080
1640775744111460096,0.080304630,0.431425780,9.820502280,0.013278430,0.039948520,0.013428930
1640775744112560128,0.223777560,0.518639680,9.285834310,-0.029662250,0.063769530,0.023011860
1640775744116240128,-0.090268750,0.279180260,10.505883220,0.007890160,-0.046208500,0.023913380
1640775744116639744,0.021481730,0.064376890,9.604822160,0.012624260,0.001385810,0.022985040
1640775744121329920,0.146907430,0.197944790,9.260052680,0.078243020,-0.009340050,0.020560620
1640775744121870080,-0.231942910,0.397404520,10.210969920,0.013087690,0.034768880,0.014062230
1640775744126269696,0.195870520,0.586680110,9.240135190,-0.086937830,0.035555660,0.030104820
1640775744126749952,0.139873240,0.303227040,9.962214470,-0.008471310,0.003954770,0.026406350
1640775744131389952,0.063274350,0.263178470,9.920536990,0.074803830,0.041648750,0.008861720
1640775744132039936,0.219876240,0.324498060,9.308916090,0.120067620,-0.017066300,0.033098460
1640775744136549888,-0.123476630,0.162811740,10.070338250,0.030410290,0.011920930,0.035400680
1640775744137509888,-0.025930240,0.171269330,9.456047060,-0.052991510,0.037831070,0.037042800
1640775744141889792,-0.076197190,-0.036223570,9.551922800,0.020194060,-0.016376380,0.024633120
1640775744142429952,-0.118340340,0.076422990,9.940293310,0.084869560,0.057345640,-0.003919010
1640775744146279936,-0.048882580,0.362851320,9.656132700,0.123508290,0.033113360,0.006434320
1640775744146759936,-0.226701290,0.364244460,10.215039250,0.062580410,-0.049413740,0.020517410
1640775744151340032,-0.146869570,0.445832130,9.524277690,-0.005629660,0.006455180,0.027596950
1640775744151709952,-0.105984530,0.242099630,9.397938730,0.035344060,-0.000984970,0.028240680
1640775744156409856,-0.167513400,0.341517330,10.170034410,0.110527900,0.037360200,0.008995830
1640775744157110016,-0.167265950,0.586431620,9.860942840,0.115148730,0.011336800,0.009439890
1640775744161280000,-0.061732330,0.658217310,9.802189830,0.038415200,-0.079709290,0.022912030
1640775744161700096,0.102159310,0.712688030,9.551940920,-0.018040830,0.028951470,0.035034120
1640775744166259968,-0.017233530,0.503737270,9.692725180,0.015698380,0.036695600,0.037297610
1640775744166659840,-0.075455360,0.486169430,10.317967410,0.092785060,-0.042825940,0.036153200
1640775744171279872,-0.078671920,0.413706990,9.632685660,0.100234160,-0.029730800,0.016865140
1640775744171759872,0.026439120,0.465613280,9.416180610,0.029419360,-0.032757220,0.022417310
1640775744176729856,-0.105544320,0.606555340,9.952948570,-0.041469940,0.043718520,0.027911370
1640775744177419776,-0.044417470,0.390708540,9.724636080,-0.038875640,0.011304020,0.031036140
1640775744181280000,0.192127230,0.502844270,9.983449940,0.062996150,-0.046470770,0.019030270
1640775744181730048,0.079486330,0.678321720,9.659288410,0.087329750,0.044681130,0.009207430
1640775744186300160,0.109939440,0.690820870,9.638361930,0.001420080,-0.014786420,0.048317010
1640775744188099840,-0.016350720,0.489506360,10.118304250,-0.045895570,-0.031946590,0.044883780
1640775744191899904,0.145740110,0.136539210,9.199893950,-0.026498740,0.006495420,0.020830340
1640775744194299904,0.282800470,0.171804310,9.555210110,0.092074280,0.006933510,0.025540590
1640775744196270080,0.022244740,0.232569340,10.008535390,0.075447560,0.092323130,0.006292760
1640775744196699904,0.078095520,0.261866780,9.845159530,-0.010438260,-0.011885170,0.028902290
1640775744201319936,-0.164395390,0.138908650,10.127671240,-0.015452500,-0.062574440,0.038158890
1640775744201989888,-0.153034510,0.018350150,9.094719890,0.023341180,0.000786780,0.009474160
1640775744206560000,-0.069492990,0.291702360,9.379764560,0.103989250,0.004000960,0.014369190
1640775744207389952,-0.235116140,0.405299810,10.068615910,0.069810450,0.100472590,0.002157690
1640775744211289856,0.073397970,0.456564870,9.884797100,0.018867850,0.008194150,0.011014940
1640775744211699968,0.038402370,0.533005540,10.166975980,0.051821780,-0.058138380,0.031019750
1640775744216290048,0.104161040,0.491467600,9.248489380,0.027893480,0.017179550,0.014382600
1640775744216689920,0.055926760,0.460467670,9.629496570,0.064691910,-0.000213090,0.026409330
1640775744221449728,-0.253568410,0.352202830,10.181595800,0.067442660,0.026752060,0.017116970
1640775744227259904,-0.009964110,0.283316110,9.461843490,0.052043800,-0.028967860,0.002856550
1640775744228039936,-0.072524600,0.363712520,9.954872130,0.053054100,-0.012652580,0.010256470
1640775744228610048,0.004088740,0.554857130,9.722101210,-0.002799930,0.062820320,0.000607970
1640775744231340032,-0.047821060,0.574683430,10.136778830,-0.000053640,-0.017096100,0.005266070
1640775744232049920,-0.143861370,0.512537900,10.120212550,0.048507750,-0.040909650,0.011242930
1640775744236719872,0.073402510,0.560584490,9.197160720,0.072774290,-0.016307830,0.008471310
1640775744238390016,-0.148731890,0.577479960,9.948797230,0.051677230,0.005656480,0.022879240
1640775744241449728,-0.061311530,0.642406460,9.838463780,-0.040727860,0.026106830,0.038431590
1640775744242089984,0.183450180,0.409027190,9.792135240,-0.026723740,-0.035946070,0.024452810
1640775744247149824,0.224692700,0.352191570,9.823852540,0.038932260,0.029154120,0.015649200
1640775744247699968,0.272587270,0.603012380,9.559276580,0.047795470,0.038994850,-0.000378490
1640775744251269888,-0.055377170,0.320642710,10.222594260,0.007367140,-0.035996740,0.014209750
1640775744251869952,0.022642490,0.341019510,9.464684490,-0.012634690,-0.034938750,0.028514860
1640775744256470016,-0.080749060,0.177453470,9.319524770,0.012616820,-0.020109120,0.012812020
1640775744257230080,-0.144008580,0.215956400,9.738481520,0.008024280,0.052557880,0.011585650
1640775744261279744,-0.027100560,0.433252750,9.756747250,0.022144620,0.035364930,0.011032820
1640775744261740032,-0.154247110,0.089102830,10.297682760,0.028866530,-0.022564830,0.004526970
1640775744266389760,0.005837970,0.404854920,9.502573010,0.051040950,-0.031651560,0.025333470
1640775744266860032,-0.028322250,0.379359930,9.244535450,0.022137170,-0.023895500,0.016736980
1640775744272189952,-0.053993690,0.261005010,9.774525640,-0.010994080,0.046786660,0.019849840
1640775744273669888,-0.085113640,0.472968730,9.938480380,0.040301680,0.020530820,-0.000578170
1640775744276470016,-0.047759310,0.201269850,9.858037950,0.069157790,-0.054973370,-0.023615370
1640775744277679872,0.206438780,0.504130480,9.478324890,0.066395100,0.022764510,0.010319060
1640775744281299712,-0.066953420,0.657689570,9.866394040,0.003190340,0.026792290,-0.007420780
1640775744283109888,-0.094436150,0.517959120,10.228946690,-0.052829100,-0.023302440,0.019617380
1640775744286880000,0.020508050,0.574967380,9.519738200,0.027960540,-0.030551860,0.015307960
1640775744288989952,-0.050893180,0.294201970,9.510866170,0.080287460,-0.016728040,-0.017789010
1640775744291349760,-0.072431680,0.674074770,9.927817340,0.064079480,0.053195670,0.005285440
1640775744293099776,-0.232617510,0.818273250,10.011318210,-0.043159720,-0.027339160,0.007167460
1640775744296249856,0.041331140,0.418904600,9.748153690,-0.107194480,-0.060969590,0.010953840
1640775744296630016,0.258386280,0.526426200,9.351231580,0.015978520,0.063236070,0.000195210
1640775744301499904,-0.052264790,0.397850480,10.069272990,0.077348950,0.019231440,-0.020162760
1640775744303000064,0.054441110,0.486835930,10.066340450,0.027015810,-0.037361690,0.024287400
1640775744306409728,0.035711450,0.459684610,9.336632730,-0.059866910,-0.033621490,0.019286570
1640775744306989824,0.021216210,0.088897440,9.568643570,-0.078828650,-0.006976730,0.012965500
1640775744311269888,0.070307470,0.302445710,9.570407870,0.013954940,0.059680640,0.001583990
1640775744311699968,-0.021015950,0.328082590,9.854094510,0.045084950,-0.000117720,-0.024588410
1640775744316349952,0.080497960,0.315663780,10.067137720,0.012961030,-0.019846850,0.003877280
1640775744316809984,0.074634760,0.295526030,9.525731090,-0.009004770,0.012588500,-0.000566240
1640775744321660160,-0.022225960,0.168436360,9.750406270,-0.006391110,-0.024102620,0.007523600
1640775744322749952,-0.106653090,0.203274010,9.669915200,0.027419630,0.001822410,0.011412800
1640775744326259968,-0.024594050,0.275289510,9.304229740,0.020271540,-0.004102290,-0.019116710
1640775744326639872,-0.075912890,0.266276570,9.918345450,0.025036930,-0.000524520,-0.011213120
1640775744331389952,-0.034660240,0.336476830,9.681151390,0.041237480,0.035227840,0.000150500
1640775744332229888,-0.044618000,0.335313650,9.986770630,0.033056740,-0.033816700,-0.009314720
1640775744336289792,-0.193673070,0.368689810,10.046092990,0.024309750,-0.018554930,0.005617740
1640775744336939776,-0.081723090,0.367018910,9.209823610,0.039273490,-0.031280520,-0.004513560
1640775744341389824,-0.149403620,0.337988910,9.794655800,0.064300010,-0.024475160,-0.016361480
1640775744343139840,-0.098834620,0.539901610,9.550828930,0.041396910,0.034621360,-0.008866190
1640775744346339840,0.078867170,0.737737120,9.766963010,0.011144580,-0.032378740,-0.002993640
1640775744346710016,-0.067029830,0.548347230,10.290272710,-0.016602870,-0.015944240,0.001938640
1640775744351379968,0.218852940,0.597211180,9.399030690,0.011043250,-0.006364290,0.001364950
1640775744351830016,0.017864430,0.492530880,10.166938780,0.065636630,-0.036868450,-0.010015070
1640775744356580096,-0.117564000,0.517168460,9.799218180,0.023484240,0.019405780,-0.000947710
1640775744357169920,0.079500780,0.526438240,9.384079930,-0.021283320,-0.070703020,0.016897910
1640775744361250048,-0.096884870,0.181880710,9.926576610,-0.028204920,-0.000122190,-0.001209970
1640775744361719808,0.225941000,0.406161610,9.185009000,0.006788970,0.052583220,-0.004749000
1640775744366609920,0.046315100,0.412616700,10.257300380,0.047069790,-0.025847560,-0.004732610
1640775744367929856,0.007711730,0.272017150,10.000346180,0.001885000,0.009088220,-0.000579660
1640775744371699712,0.239273440,0.363839240,9.353642460,0.008299950,-0.049118710,0.004702810
1640775744372720128,-0.151930570,0.278733340,10.009387970,0.011025370,-0.014182930,0.006316600
1640775744376339968,0.168918370,0.466139850,9.080790520,-0.024217370,0.043980780,0.006712970
1640775744376859904,0.105134890,0.400570390,9.824501040,0.013172620,0.024561580,-0.006435810
1640775744381399808,0.017342440,0.296581720,10.088263510,0.027447940,0.032177570,-0.002159180
1640775744382299904,0.217951540,0.404740600,9.337064740,0.056061150,-0.020824370,0.003804270
1640775744386299904,-0.185127260,0.278533100,9.939763070,0.014778970,-0.016327200,0.006242100
1640775744386669824,-0.077824050,0.302064330,9.418953900,-0.030954190,0.022217630,0.008393830
1640775744391369728,-0.071134400,0.131064940,9.594221120,0.026170910,0.013636050,-0.009086730
1640775744392060160,-0.180512320,0.182150200,9.947814940,0.064334270,0.023783740,-0.022456050
1640775744396299776,0.087424380,0.481536150,9.441070560,0.072658070,0.008861720,-0.017516320
1640775744397479936,-0.119702800,0.474400640,10.062839510,0.006318090,-0.008521970,-0.008875130
1640775744401409792,-0.146806000,0.600015940,9.789855000,-0.034035740,-0.009761750,0.011742120
1640775744402179840,0.007916800,0.399833350,9.407677650,0.039005280,-0.034530460,-0.000202660
1640775744406390016,-0.051269320,0.441779670,9.773590090,0.078444210,0.015947220,-0.011853870
1640775744407330048,-0.043285590,0.721814510,9.839944840,0.048089040,0.045675050,-0.005312260
1640775744411340032,-0.092585780,0.596488000,10.198448180,-0.036460160,-0.036591300,0.000655650
1640775744411849984,-0.074448880,0.565416570,9.838305470,-0.045056640,-0.061549250,0.002400580
1640775744416319744,0.082742050,0.442908350,9.173086170,0.026068100,-0.021028520,-0.011274220
1640775744416689920,0.057859690,0.555753590,9.721853260,0.036691120,0.034874680,-0.015237930
1640775744421629952,-0.088859710,0.564667880,10.192725180,0.002576410,0.024466210,0.014403460
1640775744422149888,0.014472670,0.210918890,10.026661870,-0.022023910,-0.055682660,0.010587280
1640775744426259968,-0.056537440,0.380068330,9.770689960,0.004351140,-0.061303380,0.002275410
1640775744426699776,-0.108461170,0.418934400,9.166838650,-0.006650390,-0.021809340,0.002148750
1640775744431389696,0.014610360,0.420481230,9.471924780,-0.013063850,0.005768240,0.006395580
1640775744431949824,-0.067474170,0.453899060,9.889531140,0.000195210,0.035917760,-0.006835160
1640775744436280064,0.165560500,0.393023250,9.760045050,0.002232190,-0.025638940,-0.003127750
1640775744436669952,0.116683750,0.521420780,10.015953060,0.010445710,-0.036387150,0.020228330
1640775744442459904,-0.079705960,0.256936010,9.696483610,-0.023223460,-0.017711520,0.004863740
1640775744443049984,0.019750830,0.111636940,9.497535710,0.008435550,-0.048564380,0.003853440
1640775744446429952,-0.228428130,0.181022690,9.578277590,0.040875370,-0.015093380,-0.006772580
1640775744447079936,0.037789900,0.155754360,9.238060000,0.013168160,0.003869830,-0.013972820
1640775744451269888,0.016291100,0.368052390,10.001971240,0.017145280,0.012494630,-0.002527240
1640775744451680000,-0.212968140,0.393649760,10.110423090,-0.011301040,-0.018863380,-0.006769600
1640775744456739840,0.009044300,0.393132870,9.700686450,0.020356480,-0.104504830,0.019271670
1640775744457759744,-0.245764020,0.409413220,9.500840190,0.057028240,-0.051395600,-0.001014770
1640775744461359872,-0.144284130,0.375222360,9.362184520,0.032535200,0.000137090,-0.014747680
1640775744461809920,-0.135699750,0.567671660,10.000370030,0.024497510,-0.024652480,-0.004382430
1640775744466609920,-0.160706700,0.574080170,9.930734630,-0.021214780,-0.040179490,-0.014384090
1640775744467429888,0.140847500,0.599101360,9.752367020,-0.007192790,-0.069689760,0.000908970
1640775744471629824,-0.069595200,0.624311210,9.877451900,0.025533150,-0.043585900,0.008752940
1640775744472940032,0.022684950,0.512514890,9.512600900,0.008700790,-0.057239830,-0.002220270
1640775744476399872,0.141987290,0.413490770,9.680655480,0.026160480,-0.032672280,0.016474720
1640775744476859904,-0.073678430,0.422806020,9.881102560,0.002211330,-0.009019670,-0.003211200
1640775744481349888,0.026588200,0.519891680,10.014945030,-0.030411780,-0.062809890,-0.009517370
1640775744481859840,-0.092029690,0.598800780,9.916622160,-0.039424000,-0.079689920,0.002092120
1640775744486279936,0.059463180,0.529603540,9.262754440,-0.019989910,-0.049856310,-0.015436120
1640775744486670080,0.081581520,0.550502720,9.725936890,0.029090050,0.008952620,-0.010272860
1640775744491379968,-0.096365760,0.708143410,10.004811290,-0.008058550,-0.006045400,0.013929610
1640775744491959808,0.021168060,0.416941260,10.011908530,-0.060398880,-0.092069800,0.027306380
1640775744496369920,0.038185620,0.150019970,9.687336920,-0.037302080,-0.057205560,0.016610330
1640775744496839936,0.086639080,0.239913670,9.256231310,0.001451370,-0.026836990,-0.005620720
1640775744501269760,0.126255680,0.166166530,9.670266150,0.011114780,0.005365910,-0.000646710
1640775744501699840,0.147514640,0.248023030,9.775080680,-0.025114420,0.013071300,-0.005353990
1640775744506429952,0.159465800,0.228504460,10.024712560,-0.028790540,-0.059589750,0.003838540
1640775744507190016,0.034126750,0.069139730,9.821064000,0.010666250,-0.044687100,0.015243890
1640775744511339776,-0.072687480,0.211641680,9.280520440,0.041525070,-0.057092320,-0.001914800
1640775744511899904,-0.248325380,0.103087660,9.786039350,0.031763320,-0.032009180,-0.010895730
1640775744516349952,-0.191595080,0.260699210,9.498812680,0.009764730,-0.002875920,0.002032520
1640775744516719872,-0.110670510,0.417751340,9.702656750,0.020422040,-0.067040310,-0.001467760
1640775744521969920,-0.020591120,0.379876140,10.006337170,0.014443700,-0.001654030,0.002770130
1640775744523049728,0.043227130,0.604085030,9.787635800,0.037978590,-0.031581520,0.014452640
1640775744526609920,-0.195964550,0.260607570,10.273242000,0.054623190,-0.097355270,-0.008139010
1640775744528679936,0.000094470,0.327244880,9.248432160,0.055573880,-0.063264370,-0.004073980
1640775744531329792,-0.020620790,0.530400450,9.377479550,0.042586030,-0.053183730,-0.007997450
1640775744532280064,-0.079382620,0.393385830,10.069434170,-0.026893620,0.018951300,-0.006994610
1640775744536219904,0.086412230,0.702395080,9.811500550,-0.008168820,-0.052295630,0.001209970
1640775744536699904,-0.062175420,0.396932510,10.231197360,0.039964920,-0.102154910,-0.010089580
1640775744541549824,0.120273590,0.438282730,9.562195780,0.060945740,-0.011296570,-0.004076960
1640775744543209984,-0.171668020,0.729864540,9.900519370,0.043708090,-0.066946440,0.006161630
1640775744546399744,-0.231404320,0.415784060,10.123165130,-0.048948820,-0.071480880,0.018842520
1640775744547020032,0.111804590,0.574706970,9.166414260,-0.026147070,-0.045876200,0.013758240
1640775744551280128,-0.049827840,0.535559710,9.839458470,0.021155180,-0.049787760,-0.014239550
1640775744551719936,0.153407380,0.587775590,9.989497180,-0.005950030,0.029675660,-0.004769860
1640775744556380160,0.143977930,0.667452810,9.973017690,-0.000694390,-0.075548890,0.001677870
1640775744557119744,0.058989160,0.273245630,10.100605010,-0.034233920,-0.108087060,-0.001496080
1640775744561799936,0.315571310,0.502757250,9.069103240,-0.019492210,-0.015248360,0.024087730
1640775744562309888,-0.038622970,0.324640450,9.776047710,-0.022344290,-0.035385790,0.015015900
1640775744566340096,0.050738410,0.105836450,10.022025110,-0.038677460,-0.003443660,0.000382960
1640775744566759936,0.218203460,0.249304320,9.350602150,0.028224290,-0.024269520,-0.006887320
1640775744571749888,-0.001201500,0.151998710,9.995854380,0.014349820,-0.053504110,-0.014103950
1640775744572819968,0.156262230,0.506181840,9.594418530,-0.030602520,0.028467180,0.009460750
1640775744576439808,-0.157077480,0.498056470,9.902645110,-0.060006980,-0.069101160,0.003656740
1640775744578500096,-0.149404720,0.241743270,10.059525490,-0.024276970,-0.058232240,0.003454090
1640775744581309952,-0.012070670,0.289935650,9.157689090,0.071650750,0.009408590,-0.016357010
1640775744581789952,-0.194682090,0.347314090,10.085093500,0.055968760,-0.023764370,-0.025841600
1640775744586279936,-0.015388070,0.558421130,10.045938490,-0.037845970,0.007335840,-0.003322960
1640775744586860032,0.123430680,0.550211850,9.534680370,-0.081397590,-0.056535000,0.004935260
1640775744591609856,0.113002560,0.355284180,9.993169780,-0.025694070,-0.044152140,0.010871890
1640775744592320000,0.153295370,0.357890700,9.550677300,0.065091260,0.023092340,-0.005355480
1640775744596269824,-0.084016020,0.445169360,10.231410030,0.058567520,-0.047560040,-0.008830430
1640775744596679936,-0.191383080,0.517383930,10.166546820,-0.025275350,-0.049990420,0.004981460
1640775744601389824,-0.046094020,0.512973310,9.176689150,-0.091300910,-0.068393350,0.002147260
1640775744601899776,-0.068276290,0.715058920,9.842908860,-0.065587450,-0.012283030,-0.008562210
1640775744606429696,-0.053339700,0.780430730,9.856942180,-0.031971940,0.044499330,-0.012038650
1640775744609309952,0.105522830,0.675315620,9.995501520,0.012068450,-0.061547760,0.009740890
1640775744612740096,0.043063900,0.478329780,10.207301140,0.006647410,-0.040771060,0.001853700
1640775744613260032,0.178237500,0.374742150,9.316281320,-0.053519020,-0.011253360,0.021071730
1640775744616309760,0.004118650,0.354035790,10.106687550,-0.092618170,-0.049237910,0.028684740
1640775744616719872,0.002786990,0.188192750,9.672254560,-0.100196890,0.008478760,0.012284520
1640775744621379840,0.350920530,0.178919020,9.206162450,-0.019191210,-0.032258030,0.001806020
1640775744622210048,0.112919530,0.251324030,10.232857700,0.039008260,0.036016110,-0.015817580
1640775744626499840,0.150324090,0.424814220,9.666774750,-0.044046350,0.029340390,0.006490950
1640775744627419904,0.023749320,0.395861360,10.209990500,-0.078964240,-0.084054470,0.033177440
1640775744631379968,-0.183515670,0.148730650,9.770565030,-0.071166440,-0.004625320,0.019577140
1640775744632000000,0.028134420,0.208939950,9.024767880,0.010138750,-0.021576880,0.005699690
1640775744636329984,-0.247387770,0.283092200,10.173015590,0.047607720,0.024718050,-0.011086460
1640775744636809728,-0.090900560,0.337500780,9.700955390,-0.036302210,0.050289930,-0.027924770
1640775744641530112,0.055135540,0.392036620,9.968433380,-0.038559740,-0.073318180,-0.002059340
1640775744642239744,-0.082091180,0.335956360,9.904623990,-0.036150220,-0.002439320,0.008869170
1640775744646299904,0.198400150,0.389095070,9.285530090,-0.010116400,-0.003467500,0.015428660
1640775744646720000,-0.126542840,0.363182960,10.382054330,0.033831600,0.000524520,0.012615320
1640775744651269888,-0.076016040,0.337709990,9.823674200,-0.008650120,0.006861990,-0.000721220
1640775744651729920,0.130420420,0.341494860,9.654017450,0.000564750,-0.066685670,-0.000768900
1640775744657239808,-0.062816280,0.465387460,10.055609700,-0.018909570,0.050844260,-0.007078050
1640775744657860096,0.048986600,0.770478430,9.715616230,-0.055305660,0.003245470,-0.009854140
1640775744661309952,-0.085306300,0.769391780,10.218465810,-0.038735570,-0.071913010,0.014756620
1640775744661769984,0.094241520,0.652038690,9.491814610,-0.032064320,0.014987590,0.010126830
1640775744666339840,0.107695450,0.568985640,9.859859470,0.009633600,0.007760530,-0.002548100
1640775744667079936,-0.192450110,0.570517060,10.490390780,-0.027613350,0.013144310,0.016985830
1640775744671320064,0.131740050,0.543075260,9.545811650,-0.109109290,-0.047266480,0.004674490
1640775744671900160,0.132819700,0.245898960,9.733302120,-0.092530250,-0.027185680,0.004449490
1640775744676319744,0.183715910,0.411215160,9.485189440,-0.039452320,0.064270200,-0.005182620
1640775744678010112,0.176817390,0.352086660,9.821296690,-0.024032590,0.008080900,-0.004580620
1640775744681280000,0.085634280,0.123035000,10.259140970,-0.038199130,0.010010600,0.021708010
1640775744681720064,0.098395580,0.138104470,9.805650710,-0.031732020,-0.014215710,0.009883940
1640775744686709760,-0.076729010,0.022923310,9.814405440,-0.027598440,-0.020614270,0.015510620
1640775744687229952,-0.072600070,0.351570640,9.484669690,-0.057622790,0.035765770,0.000064080
1640775744691479808,-0.114967820,0.359925480,9.741580960,-0.061959030,0.009569530,-0.028413540
1640775744692410112,0.018658800,0.422264640,9.817947390,-0.016480680,0.030881160,-0.013582410
1640775744696319744,0.039259100,0.640427710,9.723581310,0.011706350,0.027567150,-0.011125210
1640775744697019904,-0.093717060,0.380807760,10.189439770,-0.019739570,0.000308450,0.007535520
1640775744701390080,-0.036977290,0.491106240,9.963507650,-0.034849350,-0.005811450,0.038577620
1640775744702569984,-0.192520140,0.235066560,9.805711750,-0.042204560,-0.016778710,0.014898180
1640775744706629888,-0.025875580,0.144098360,9.609449390,-0.033822660,0.009249150,0.001259150
1640775744707629824,0.003584350,0.472792710,9.709297180,0.016804040,0.051318110,-0.008368490
1640775744711309824,-0.073279800,0.398388030,10.211734770,-0.029419370,0.004477800,-0.018709900
1640775744711819776,0.227808300,0.726106880,9.737112050,-0.065039100,-0.016145410,0.019532440
1640775744716249856,0.108972810,0.571233510,9.855686190,-0.057059530,0.021918110,0.000870230
1640775744716999936,0.104355160,0.477489260,10.116367340,-0.021170080,0.031489150,0.017490990
1640775744721299968,-0.058441650,0.746431950,9.999175070,0.002850590,-0.008372960,0.022365150
1640775744721799936,-0.173575130,0.337261470,9.885493280,-0.064517560,-0.044563410,0.008124110
1640775744726279936,0.086336670,0.400892910,9.308357240,-0.051823260,0.013515350,0.027652080
1640775744727739904,0.021270330,0.530758020,9.525242810,-0.054471190,0.048597150,-0.005735460
1640775744731379968,0.132789390,0.382121500,10.222066880,-0.085315110,0.062073770,0.015559790
1640775744732280064,0.129986730,0.369866730,10.076874730,-0.027962030,0.011841950,0.027102240
1640775744736300032,0.075973350,0.004723750,9.863962170,0.006361310,-0.054679810,-0.006182490
1640775744736769792,0.161620410,0.149436090,9.430100440,0.008784230,0.041210660,0.022459030
1640775744741359872,-0.005198580,0.268568810,9.471576690,-0.061079860,0.054419040,0.008951130
1640775744741920000,0.050736000,0.081910950,10.128011700,-0.095765300,0.046989330,-0.008672480
1640775744746269952,0.083604890,0.334099350,9.823002820,0.002555550,0.046664480,-0.001190600
1640775744746680064,0.058349340,0.322426940,9.779807090,0.044824180,-0.025255980,-0.016333160
1640775744751299840,0.020797000,0.366947000,9.893126490,0.021840630,0.049218540,0.015529990
1640775744751770112,-0.138060720,0.420841930,9.726487160,-0.023883580,0.043827300,0.017271940
1640775744756630016,-0.088020990,0.144967510,9.992011070,-0.048382580,-0.009799000,0.007583200
1640775744757380096,-0.001512450,0.228722210,9.587245940,0.010001660,0.064298510,-0.001987810
1640775744761349888,0.068825420,0.398021130,9.772999760,0.042927260,0.048018980,-0.031051040
1640775744761879808,-0.082225310,0.546598670,10.392180440,0.009520350,0.033505260,-0.013412540
1640775744766619904,-0.040343550,0.664713980,9.677990910,-0.041049720,0.002115970,0.007402900
1640775744768199936,0.054729030,0.431999740,9.831780430,-0.023581090,-0.016079840,0.009368360
1640775744771259904,-0.093466470,0.395995230,9.895040510,0.034342710,0.079511090,0.011597570
1640775744771800064,-0.099143800,0.609042230,9.871944430,0.032150750,0.008644160,0.004790720
1640775744777040128,-0.063194860,0.523923040,10.203705790,-0.033758580,-0.011935830,0.007189810
1640775744777560064,0.135862380,0.491554560,9.379596710,-0.066600740,0.042800600,-0.003373620
1640775744781469696,0.248164120,0.590299250,9.834259990,-0.034342710,0.033347310,-0.013804440
1640775744782749952,0.075573250,0.481282680,10.200190540,-0.012658540,0.078761580,0.000251830
1640775744786289920,0.190477850,0.409785840,9.631631850,0.003416840,-0.010003150,0.014375150
1640775744786720000,0.023410430,0.270687250,10.036555290,0.002115970,-0.024041530,0.012435020
1640775744791369984,-0.118350860,0.186745580,9.425754550,-0.048209730,0.073368850,0.026449560
1640775744791859968,-0.057643900,0.237591560,9.739602090,-0.052873790,0.006371740,0.009883940
1640775744796300032,-0.113799180,0.093525890,10.107755660,-0.028876970,0.066490470,-0.011318920
1640775744796709888,0.083889480,0.254184600,9.504660610,0.024169690,0.053034720,-0.021168590
1640775744801359872,-0.099475450,0.469255720,10.191092490,0.041592120,-0.020647050,-0.017617640
1640775744801779968,-0.094389070,0.494248900,9.546571730,-0.055244580,0.039710110,0.010338430
1640775744806680064,0.018016320,0.402023080,9.579330440,-0.065115100,-0.012116130,0.011579690
1640775744807819776,-0.144366710,0.070554920,10.205487250,0.006419420,0.052693490,-0.005427000
1640775744811479808,0.056181320,0.194862010,9.565973280,0.073464210,0.042140480,-0.027789170
1640775744811919872,0.020103960,0.498908070,10.097209930,0.042912360,-0.026117270,-0.017815830
1640775744816399872,0.119030600,0.509133460,9.649041180,-0.094397370,0.070421380,-0.009225310
